# 
#                 ----------------------------------------------------
#                 Data from a 3D direct N-body simulation. 
# 
#                 rows are i-particle; 
#                 coumns are :mass, tag, x ,y, z, vx, vy, vz, ax, ay, az
# 
#                 NTHU, Computational Physics Lab
# 
#                 ----------------------------------------------------
#                 Time = 9.699999999999838
1.000000000000000000e+00 2.000000000000000000e+00 3.000000000000000000e+00 4.000000000000000000e+00 5.000000000000000000e+00 6.000000000000000000e+00 7.000000000000000000e+00 8.000000000000000000e+00 9.000000000000000000e+00 1.000000000000000000e+01 1.100000000000000000e+01 1.200000000000000000e+01 1.300000000000000000e+01 1.400000000000000000e+01 1.500000000000000000e+01 1.600000000000000000e+01 1.700000000000000000e+01 1.800000000000000000e+01 1.900000000000000000e+01 2.000000000000000000e+01 2.100000000000000000e+01 2.200000000000000000e+01 2.300000000000000000e+01 2.400000000000000000e+01 2.500000000000000000e+01 2.600000000000000000e+01 2.700000000000000000e+01 2.800000000000000000e+01 2.900000000000000000e+01 3.000000000000000000e+01 3.100000000000000000e+01 3.200000000000000000e+01 3.300000000000000000e+01 3.400000000000000000e+01 3.500000000000000000e+01 3.600000000000000000e+01 3.700000000000000000e+01 3.800000000000000000e+01 3.900000000000000000e+01 4.000000000000000000e+01 4.100000000000000000e+01 4.200000000000000000e+01 4.300000000000000000e+01 4.400000000000000000e+01 4.500000000000000000e+01 4.600000000000000000e+01 4.700000000000000000e+01 4.800000000000000000e+01 4.900000000000000000e+01 5.000000000000000000e+01 5.100000000000000000e+01 5.200000000000000000e+01 5.300000000000000000e+01 5.400000000000000000e+01 5.500000000000000000e+01 5.600000000000000000e+01 5.700000000000000000e+01 5.800000000000000000e+01 5.900000000000000000e+01 6.000000000000000000e+01 6.100000000000000000e+01 6.200000000000000000e+01 6.300000000000000000e+01 6.400000000000000000e+01 6.500000000000000000e+01 6.600000000000000000e+01 6.700000000000000000e+01 6.800000000000000000e+01 6.900000000000000000e+01 7.000000000000000000e+01 7.100000000000000000e+01 7.200000000000000000e+01 7.300000000000000000e+01 7.400000000000000000e+01 7.500000000000000000e+01 7.600000000000000000e+01 7.700000000000000000e+01 7.800000000000000000e+01 7.900000000000000000e+01 8.000000000000000000e+01 8.100000000000000000e+01 8.200000000000000000e+01 8.300000000000000000e+01 8.400000000000000000e+01 8.500000000000000000e+01 8.600000000000000000e+01 8.700000000000000000e+01 8.800000000000000000e+01 8.900000000000000000e+01 9.000000000000000000e+01 9.100000000000000000e+01 9.200000000000000000e+01 9.300000000000000000e+01 9.400000000000000000e+01 9.500000000000000000e+01 9.600000000000000000e+01 9.700000000000000000e+01 9.800000000000000000e+01 9.900000000000000000e+01 1.000000000000000000e+02 1.010000000000000000e+02 1.020000000000000000e+02 1.030000000000000000e+02 1.040000000000000000e+02 1.050000000000000000e+02 1.060000000000000000e+02 1.070000000000000000e+02 1.080000000000000000e+02 1.090000000000000000e+02 1.100000000000000000e+02 1.110000000000000000e+02 1.120000000000000000e+02 1.130000000000000000e+02 1.140000000000000000e+02 1.150000000000000000e+02 1.160000000000000000e+02 1.170000000000000000e+02 1.180000000000000000e+02 1.190000000000000000e+02 1.200000000000000000e+02 1.210000000000000000e+02 1.220000000000000000e+02 1.230000000000000000e+02 1.240000000000000000e+02 1.250000000000000000e+02 1.260000000000000000e+02 1.270000000000000000e+02 1.280000000000000000e+02 1.290000000000000000e+02 1.300000000000000000e+02 1.310000000000000000e+02 1.320000000000000000e+02 1.330000000000000000e+02 1.340000000000000000e+02 1.350000000000000000e+02 1.360000000000000000e+02 1.370000000000000000e+02 1.380000000000000000e+02 1.390000000000000000e+02 1.400000000000000000e+02 1.410000000000000000e+02 1.420000000000000000e+02 1.430000000000000000e+02 1.440000000000000000e+02 1.450000000000000000e+02 1.460000000000000000e+02 1.470000000000000000e+02 1.480000000000000000e+02 1.490000000000000000e+02 1.500000000000000000e+02 1.510000000000000000e+02 1.520000000000000000e+02 1.530000000000000000e+02 1.540000000000000000e+02 1.550000000000000000e+02 1.560000000000000000e+02 1.570000000000000000e+02 1.580000000000000000e+02 1.590000000000000000e+02 1.600000000000000000e+02 1.610000000000000000e+02 1.620000000000000000e+02 1.630000000000000000e+02 1.640000000000000000e+02 1.650000000000000000e+02 1.660000000000000000e+02 1.670000000000000000e+02 1.680000000000000000e+02 1.690000000000000000e+02 1.700000000000000000e+02 1.710000000000000000e+02 1.720000000000000000e+02 1.730000000000000000e+02 1.740000000000000000e+02 1.750000000000000000e+02 1.760000000000000000e+02 1.770000000000000000e+02 1.780000000000000000e+02 1.790000000000000000e+02 1.800000000000000000e+02 1.810000000000000000e+02 1.820000000000000000e+02 1.830000000000000000e+02 1.840000000000000000e+02 1.850000000000000000e+02 1.860000000000000000e+02 1.870000000000000000e+02 1.880000000000000000e+02 1.890000000000000000e+02 1.900000000000000000e+02 1.910000000000000000e+02 1.920000000000000000e+02 1.930000000000000000e+02 1.940000000000000000e+02 1.950000000000000000e+02 1.960000000000000000e+02 1.970000000000000000e+02 1.980000000000000000e+02 1.990000000000000000e+02 2.000000000000000000e+02 2.010000000000000000e+02 2.020000000000000000e+02 2.030000000000000000e+02 2.040000000000000000e+02 2.050000000000000000e+02 2.060000000000000000e+02 2.070000000000000000e+02 2.080000000000000000e+02 2.090000000000000000e+02 2.100000000000000000e+02 2.110000000000000000e+02 2.120000000000000000e+02 2.130000000000000000e+02 2.140000000000000000e+02 2.150000000000000000e+02 2.160000000000000000e+02 2.170000000000000000e+02 2.180000000000000000e+02 2.190000000000000000e+02 2.200000000000000000e+02 2.210000000000000000e+02 2.220000000000000000e+02 2.230000000000000000e+02 2.240000000000000000e+02 2.250000000000000000e+02 2.260000000000000000e+02 2.270000000000000000e+02 2.280000000000000000e+02 2.290000000000000000e+02 2.300000000000000000e+02 2.310000000000000000e+02 2.320000000000000000e+02 2.330000000000000000e+02 2.340000000000000000e+02 2.350000000000000000e+02 2.360000000000000000e+02 2.370000000000000000e+02 2.380000000000000000e+02 2.390000000000000000e+02 2.400000000000000000e+02 2.410000000000000000e+02 2.420000000000000000e+02 2.430000000000000000e+02 2.440000000000000000e+02 2.450000000000000000e+02 2.460000000000000000e+02 2.470000000000000000e+02 2.480000000000000000e+02 2.490000000000000000e+02 2.500000000000000000e+02 2.510000000000000000e+02 2.520000000000000000e+02 2.530000000000000000e+02 2.540000000000000000e+02 2.550000000000000000e+02 2.560000000000000000e+02 2.570000000000000000e+02 2.580000000000000000e+02 2.590000000000000000e+02 2.600000000000000000e+02 2.610000000000000000e+02 2.620000000000000000e+02 2.630000000000000000e+02 2.640000000000000000e+02 2.650000000000000000e+02 2.660000000000000000e+02 2.670000000000000000e+02 2.680000000000000000e+02 2.690000000000000000e+02 2.700000000000000000e+02 2.710000000000000000e+02 2.720000000000000000e+02 2.730000000000000000e+02 2.740000000000000000e+02 2.750000000000000000e+02 2.760000000000000000e+02 2.770000000000000000e+02 2.780000000000000000e+02 2.790000000000000000e+02 2.800000000000000000e+02 2.810000000000000000e+02 2.820000000000000000e+02 2.830000000000000000e+02 2.840000000000000000e+02 2.850000000000000000e+02 2.860000000000000000e+02 2.870000000000000000e+02 2.880000000000000000e+02 2.890000000000000000e+02 2.900000000000000000e+02 2.910000000000000000e+02 2.920000000000000000e+02 2.930000000000000000e+02 2.940000000000000000e+02 2.950000000000000000e+02 2.960000000000000000e+02 2.970000000000000000e+02 2.980000000000000000e+02 2.990000000000000000e+02 3.000000000000000000e+02 3.010000000000000000e+02 3.020000000000000000e+02 3.030000000000000000e+02 3.040000000000000000e+02 3.050000000000000000e+02 3.060000000000000000e+02 3.070000000000000000e+02 3.080000000000000000e+02 3.090000000000000000e+02 3.100000000000000000e+02 3.110000000000000000e+02 3.120000000000000000e+02 3.130000000000000000e+02 3.140000000000000000e+02 3.150000000000000000e+02 3.160000000000000000e+02 3.170000000000000000e+02 3.180000000000000000e+02 3.190000000000000000e+02 3.200000000000000000e+02 3.210000000000000000e+02 3.220000000000000000e+02 3.230000000000000000e+02 3.240000000000000000e+02 3.250000000000000000e+02 3.260000000000000000e+02 3.270000000000000000e+02 3.280000000000000000e+02 3.290000000000000000e+02 3.300000000000000000e+02 3.310000000000000000e+02 3.320000000000000000e+02 3.330000000000000000e+02 3.340000000000000000e+02 3.350000000000000000e+02 3.360000000000000000e+02 3.370000000000000000e+02 3.380000000000000000e+02 3.390000000000000000e+02 3.400000000000000000e+02 3.410000000000000000e+02 3.420000000000000000e+02 3.430000000000000000e+02 3.440000000000000000e+02 3.450000000000000000e+02 3.460000000000000000e+02 3.470000000000000000e+02 3.480000000000000000e+02 3.490000000000000000e+02 3.500000000000000000e+02 3.510000000000000000e+02 3.520000000000000000e+02 3.530000000000000000e+02 3.540000000000000000e+02 3.550000000000000000e+02 3.560000000000000000e+02 3.570000000000000000e+02 3.580000000000000000e+02 3.590000000000000000e+02 3.600000000000000000e+02 3.610000000000000000e+02 3.620000000000000000e+02 3.630000000000000000e+02 3.640000000000000000e+02 3.650000000000000000e+02 3.660000000000000000e+02 3.670000000000000000e+02 3.680000000000000000e+02 3.690000000000000000e+02 3.700000000000000000e+02 3.710000000000000000e+02 3.720000000000000000e+02 3.730000000000000000e+02 3.740000000000000000e+02 3.750000000000000000e+02 3.760000000000000000e+02 3.770000000000000000e+02 3.780000000000000000e+02 3.790000000000000000e+02 3.800000000000000000e+02 3.810000000000000000e+02 3.820000000000000000e+02 3.830000000000000000e+02 3.840000000000000000e+02 3.850000000000000000e+02 3.860000000000000000e+02 3.870000000000000000e+02 3.880000000000000000e+02 3.890000000000000000e+02 3.900000000000000000e+02 3.910000000000000000e+02 3.920000000000000000e+02 3.930000000000000000e+02 3.940000000000000000e+02 3.950000000000000000e+02 3.960000000000000000e+02 3.970000000000000000e+02 3.980000000000000000e+02 3.990000000000000000e+02 4.000000000000000000e+02 4.010000000000000000e+02 4.020000000000000000e+02 4.030000000000000000e+02 4.040000000000000000e+02 4.050000000000000000e+02 4.060000000000000000e+02 4.070000000000000000e+02 4.080000000000000000e+02 4.090000000000000000e+02 4.100000000000000000e+02 4.110000000000000000e+02 4.120000000000000000e+02 4.130000000000000000e+02 4.140000000000000000e+02 4.150000000000000000e+02 4.160000000000000000e+02 4.170000000000000000e+02 4.180000000000000000e+02 4.190000000000000000e+02 4.200000000000000000e+02 4.210000000000000000e+02 4.220000000000000000e+02 4.230000000000000000e+02 4.240000000000000000e+02 4.250000000000000000e+02 4.260000000000000000e+02 4.270000000000000000e+02 4.280000000000000000e+02 4.290000000000000000e+02 4.300000000000000000e+02 4.310000000000000000e+02 4.320000000000000000e+02 4.330000000000000000e+02 4.340000000000000000e+02 4.350000000000000000e+02 4.360000000000000000e+02 4.370000000000000000e+02 4.380000000000000000e+02 4.390000000000000000e+02 4.400000000000000000e+02 4.410000000000000000e+02 4.420000000000000000e+02 4.430000000000000000e+02 4.440000000000000000e+02 4.450000000000000000e+02 4.460000000000000000e+02 4.470000000000000000e+02 4.480000000000000000e+02 4.490000000000000000e+02 4.500000000000000000e+02 4.510000000000000000e+02 4.520000000000000000e+02 4.530000000000000000e+02 4.540000000000000000e+02 4.550000000000000000e+02 4.560000000000000000e+02 4.570000000000000000e+02 4.580000000000000000e+02 4.590000000000000000e+02 4.600000000000000000e+02 4.610000000000000000e+02 4.620000000000000000e+02 4.630000000000000000e+02 4.640000000000000000e+02 4.650000000000000000e+02 4.660000000000000000e+02 4.670000000000000000e+02 4.680000000000000000e+02 4.690000000000000000e+02 4.700000000000000000e+02 4.710000000000000000e+02 4.720000000000000000e+02 4.730000000000000000e+02 4.740000000000000000e+02 4.750000000000000000e+02 4.760000000000000000e+02 4.770000000000000000e+02 4.780000000000000000e+02 4.790000000000000000e+02 4.800000000000000000e+02 4.810000000000000000e+02 4.820000000000000000e+02 4.830000000000000000e+02 4.840000000000000000e+02 4.850000000000000000e+02 4.860000000000000000e+02 4.870000000000000000e+02 4.880000000000000000e+02 4.890000000000000000e+02 4.900000000000000000e+02 4.910000000000000000e+02 4.920000000000000000e+02 4.930000000000000000e+02 4.940000000000000000e+02 4.950000000000000000e+02 4.960000000000000000e+02 4.970000000000000000e+02 4.980000000000000000e+02 4.990000000000000000e+02 5.000000000000000000e+02 5.010000000000000000e+02 5.020000000000000000e+02 5.030000000000000000e+02 5.040000000000000000e+02 5.050000000000000000e+02 5.060000000000000000e+02 5.070000000000000000e+02 5.080000000000000000e+02 5.090000000000000000e+02 5.100000000000000000e+02 5.110000000000000000e+02 5.120000000000000000e+02 5.130000000000000000e+02 5.140000000000000000e+02 5.150000000000000000e+02 5.160000000000000000e+02 5.170000000000000000e+02 5.180000000000000000e+02 5.190000000000000000e+02 5.200000000000000000e+02 5.210000000000000000e+02 5.220000000000000000e+02 5.230000000000000000e+02 5.240000000000000000e+02 5.250000000000000000e+02 5.260000000000000000e+02 5.270000000000000000e+02 5.280000000000000000e+02 5.290000000000000000e+02 5.300000000000000000e+02 5.310000000000000000e+02 5.320000000000000000e+02 5.330000000000000000e+02 5.340000000000000000e+02 5.350000000000000000e+02 5.360000000000000000e+02 5.370000000000000000e+02 5.380000000000000000e+02 5.390000000000000000e+02 5.400000000000000000e+02 5.410000000000000000e+02 5.420000000000000000e+02 5.430000000000000000e+02 5.440000000000000000e+02 5.450000000000000000e+02 5.460000000000000000e+02 5.470000000000000000e+02 5.480000000000000000e+02 5.490000000000000000e+02 5.500000000000000000e+02 5.510000000000000000e+02 5.520000000000000000e+02 5.530000000000000000e+02 5.540000000000000000e+02 5.550000000000000000e+02 5.560000000000000000e+02 5.570000000000000000e+02 5.580000000000000000e+02 5.590000000000000000e+02 5.600000000000000000e+02 5.610000000000000000e+02 5.620000000000000000e+02 5.630000000000000000e+02 5.640000000000000000e+02 5.650000000000000000e+02 5.660000000000000000e+02 5.670000000000000000e+02 5.680000000000000000e+02 5.690000000000000000e+02 5.700000000000000000e+02 5.710000000000000000e+02 5.720000000000000000e+02 5.730000000000000000e+02 5.740000000000000000e+02 5.750000000000000000e+02 5.760000000000000000e+02 5.770000000000000000e+02 5.780000000000000000e+02 5.790000000000000000e+02 5.800000000000000000e+02 5.810000000000000000e+02 5.820000000000000000e+02 5.830000000000000000e+02 5.840000000000000000e+02 5.850000000000000000e+02 5.860000000000000000e+02 5.870000000000000000e+02 5.880000000000000000e+02 5.890000000000000000e+02 5.900000000000000000e+02 5.910000000000000000e+02 5.920000000000000000e+02 5.930000000000000000e+02 5.940000000000000000e+02 5.950000000000000000e+02 5.960000000000000000e+02 5.970000000000000000e+02 5.980000000000000000e+02 5.990000000000000000e+02 6.000000000000000000e+02 6.010000000000000000e+02 6.020000000000000000e+02 6.030000000000000000e+02 6.040000000000000000e+02 6.050000000000000000e+02 6.060000000000000000e+02 6.070000000000000000e+02 6.080000000000000000e+02 6.090000000000000000e+02 6.100000000000000000e+02 6.110000000000000000e+02 6.120000000000000000e+02 6.130000000000000000e+02 6.140000000000000000e+02 6.150000000000000000e+02 6.160000000000000000e+02 6.170000000000000000e+02 6.180000000000000000e+02 6.190000000000000000e+02 6.200000000000000000e+02 6.210000000000000000e+02 6.220000000000000000e+02 6.230000000000000000e+02 6.240000000000000000e+02 6.250000000000000000e+02 6.260000000000000000e+02 6.270000000000000000e+02 6.280000000000000000e+02 6.290000000000000000e+02 6.300000000000000000e+02 6.310000000000000000e+02 6.320000000000000000e+02 6.330000000000000000e+02 6.340000000000000000e+02 6.350000000000000000e+02 6.360000000000000000e+02 6.370000000000000000e+02 6.380000000000000000e+02 6.390000000000000000e+02 6.400000000000000000e+02 6.410000000000000000e+02 6.420000000000000000e+02 6.430000000000000000e+02 6.440000000000000000e+02 6.450000000000000000e+02 6.460000000000000000e+02 6.470000000000000000e+02 6.480000000000000000e+02 6.490000000000000000e+02 6.500000000000000000e+02 6.510000000000000000e+02 6.520000000000000000e+02 6.530000000000000000e+02 6.540000000000000000e+02 6.550000000000000000e+02 6.560000000000000000e+02 6.570000000000000000e+02 6.580000000000000000e+02 6.590000000000000000e+02 6.600000000000000000e+02 6.610000000000000000e+02 6.620000000000000000e+02 6.630000000000000000e+02 6.640000000000000000e+02 6.650000000000000000e+02 6.660000000000000000e+02 6.670000000000000000e+02 6.680000000000000000e+02 6.690000000000000000e+02 6.700000000000000000e+02 6.710000000000000000e+02 6.720000000000000000e+02 6.730000000000000000e+02 6.740000000000000000e+02 6.750000000000000000e+02 6.760000000000000000e+02 6.770000000000000000e+02 6.780000000000000000e+02 6.790000000000000000e+02 6.800000000000000000e+02 6.810000000000000000e+02 6.820000000000000000e+02 6.830000000000000000e+02 6.840000000000000000e+02 6.850000000000000000e+02 6.860000000000000000e+02 6.870000000000000000e+02 6.880000000000000000e+02 6.890000000000000000e+02 6.900000000000000000e+02 6.910000000000000000e+02 6.920000000000000000e+02 6.930000000000000000e+02 6.940000000000000000e+02 6.950000000000000000e+02 6.960000000000000000e+02 6.970000000000000000e+02 6.980000000000000000e+02 6.990000000000000000e+02 7.000000000000000000e+02 7.010000000000000000e+02 7.020000000000000000e+02 7.030000000000000000e+02 7.040000000000000000e+02 7.050000000000000000e+02 7.060000000000000000e+02 7.070000000000000000e+02 7.080000000000000000e+02 7.090000000000000000e+02 7.100000000000000000e+02 7.110000000000000000e+02 7.120000000000000000e+02 7.130000000000000000e+02 7.140000000000000000e+02 7.150000000000000000e+02 7.160000000000000000e+02 7.170000000000000000e+02 7.180000000000000000e+02 7.190000000000000000e+02 7.200000000000000000e+02 7.210000000000000000e+02 7.220000000000000000e+02 7.230000000000000000e+02 7.240000000000000000e+02 7.250000000000000000e+02 7.260000000000000000e+02 7.270000000000000000e+02 7.280000000000000000e+02 7.290000000000000000e+02 7.300000000000000000e+02 7.310000000000000000e+02 7.320000000000000000e+02 7.330000000000000000e+02 7.340000000000000000e+02 7.350000000000000000e+02 7.360000000000000000e+02 7.370000000000000000e+02 7.380000000000000000e+02 7.390000000000000000e+02 7.400000000000000000e+02 7.410000000000000000e+02 7.420000000000000000e+02 7.430000000000000000e+02 7.440000000000000000e+02 7.450000000000000000e+02 7.460000000000000000e+02 7.470000000000000000e+02 7.480000000000000000e+02 7.490000000000000000e+02 7.500000000000000000e+02 7.510000000000000000e+02 7.520000000000000000e+02 7.530000000000000000e+02 7.540000000000000000e+02 7.550000000000000000e+02 7.560000000000000000e+02 7.570000000000000000e+02 7.580000000000000000e+02 7.590000000000000000e+02 7.600000000000000000e+02 7.610000000000000000e+02 7.620000000000000000e+02 7.630000000000000000e+02 7.640000000000000000e+02 7.650000000000000000e+02 7.660000000000000000e+02 7.670000000000000000e+02 7.680000000000000000e+02 7.690000000000000000e+02 7.700000000000000000e+02 7.710000000000000000e+02 7.720000000000000000e+02 7.730000000000000000e+02 7.740000000000000000e+02 7.750000000000000000e+02 7.760000000000000000e+02 7.770000000000000000e+02 7.780000000000000000e+02 7.790000000000000000e+02 7.800000000000000000e+02 7.810000000000000000e+02 7.820000000000000000e+02 7.830000000000000000e+02 7.840000000000000000e+02 7.850000000000000000e+02 7.860000000000000000e+02 7.870000000000000000e+02 7.880000000000000000e+02 7.890000000000000000e+02 7.900000000000000000e+02 7.910000000000000000e+02 7.920000000000000000e+02 7.930000000000000000e+02 7.940000000000000000e+02 7.950000000000000000e+02 7.960000000000000000e+02 7.970000000000000000e+02 7.980000000000000000e+02 7.990000000000000000e+02 8.000000000000000000e+02 8.010000000000000000e+02 8.020000000000000000e+02 8.030000000000000000e+02 8.040000000000000000e+02 8.050000000000000000e+02 8.060000000000000000e+02 8.070000000000000000e+02 8.080000000000000000e+02 8.090000000000000000e+02 8.100000000000000000e+02 8.110000000000000000e+02 8.120000000000000000e+02 8.130000000000000000e+02 8.140000000000000000e+02 8.150000000000000000e+02 8.160000000000000000e+02 8.170000000000000000e+02 8.180000000000000000e+02 8.190000000000000000e+02 8.200000000000000000e+02 8.210000000000000000e+02 8.220000000000000000e+02 8.230000000000000000e+02 8.240000000000000000e+02 8.250000000000000000e+02 8.260000000000000000e+02 8.270000000000000000e+02 8.280000000000000000e+02 8.290000000000000000e+02 8.300000000000000000e+02 8.310000000000000000e+02 8.320000000000000000e+02 8.330000000000000000e+02 8.340000000000000000e+02 8.350000000000000000e+02 8.360000000000000000e+02 8.370000000000000000e+02 8.380000000000000000e+02 8.390000000000000000e+02 8.400000000000000000e+02 8.410000000000000000e+02 8.420000000000000000e+02 8.430000000000000000e+02 8.440000000000000000e+02 8.450000000000000000e+02 8.460000000000000000e+02 8.470000000000000000e+02 8.480000000000000000e+02 8.490000000000000000e+02 8.500000000000000000e+02 8.510000000000000000e+02 8.520000000000000000e+02 8.530000000000000000e+02 8.540000000000000000e+02 8.550000000000000000e+02 8.560000000000000000e+02 8.570000000000000000e+02 8.580000000000000000e+02 8.590000000000000000e+02 8.600000000000000000e+02 8.610000000000000000e+02 8.620000000000000000e+02 8.630000000000000000e+02 8.640000000000000000e+02 8.650000000000000000e+02 8.660000000000000000e+02 8.670000000000000000e+02 8.680000000000000000e+02 8.690000000000000000e+02 8.700000000000000000e+02 8.710000000000000000e+02 8.720000000000000000e+02 8.730000000000000000e+02 8.740000000000000000e+02 8.750000000000000000e+02 8.760000000000000000e+02 8.770000000000000000e+02 8.780000000000000000e+02 8.790000000000000000e+02 8.800000000000000000e+02 8.810000000000000000e+02 8.820000000000000000e+02 8.830000000000000000e+02 8.840000000000000000e+02 8.850000000000000000e+02 8.860000000000000000e+02 8.870000000000000000e+02 8.880000000000000000e+02 8.890000000000000000e+02 8.900000000000000000e+02 8.910000000000000000e+02 8.920000000000000000e+02 8.930000000000000000e+02 8.940000000000000000e+02 8.950000000000000000e+02 8.960000000000000000e+02 8.970000000000000000e+02 8.980000000000000000e+02 8.990000000000000000e+02 9.000000000000000000e+02 9.010000000000000000e+02 9.020000000000000000e+02 9.030000000000000000e+02 9.040000000000000000e+02 9.050000000000000000e+02 9.060000000000000000e+02 9.070000000000000000e+02 9.080000000000000000e+02 9.090000000000000000e+02 9.100000000000000000e+02 9.110000000000000000e+02 9.120000000000000000e+02 9.130000000000000000e+02 9.140000000000000000e+02 9.150000000000000000e+02 9.160000000000000000e+02 9.170000000000000000e+02 9.180000000000000000e+02 9.190000000000000000e+02 9.200000000000000000e+02 9.210000000000000000e+02 9.220000000000000000e+02 9.230000000000000000e+02 9.240000000000000000e+02 9.250000000000000000e+02 9.260000000000000000e+02 9.270000000000000000e+02 9.280000000000000000e+02 9.290000000000000000e+02 9.300000000000000000e+02 9.310000000000000000e+02 9.320000000000000000e+02 9.330000000000000000e+02 9.340000000000000000e+02 9.350000000000000000e+02 9.360000000000000000e+02 9.370000000000000000e+02 9.380000000000000000e+02 9.390000000000000000e+02 9.400000000000000000e+02 9.410000000000000000e+02 9.420000000000000000e+02 9.430000000000000000e+02 9.440000000000000000e+02 9.450000000000000000e+02 9.460000000000000000e+02 9.470000000000000000e+02 9.480000000000000000e+02 9.490000000000000000e+02 9.500000000000000000e+02 9.510000000000000000e+02 9.520000000000000000e+02 9.530000000000000000e+02 9.540000000000000000e+02 9.550000000000000000e+02 9.560000000000000000e+02 9.570000000000000000e+02 9.580000000000000000e+02 9.590000000000000000e+02 9.600000000000000000e+02 9.610000000000000000e+02 9.620000000000000000e+02 9.630000000000000000e+02 9.640000000000000000e+02 9.650000000000000000e+02 9.660000000000000000e+02 9.670000000000000000e+02 9.680000000000000000e+02 9.690000000000000000e+02 9.700000000000000000e+02 9.710000000000000000e+02 9.720000000000000000e+02 9.730000000000000000e+02 9.740000000000000000e+02 9.750000000000000000e+02 9.760000000000000000e+02 9.770000000000000000e+02 9.780000000000000000e+02 9.790000000000000000e+02 9.800000000000000000e+02 9.810000000000000000e+02 9.820000000000000000e+02 9.830000000000000000e+02 9.840000000000000000e+02 9.850000000000000000e+02 9.860000000000000000e+02 9.870000000000000000e+02 9.880000000000000000e+02 9.890000000000000000e+02 9.900000000000000000e+02 9.910000000000000000e+02 9.920000000000000000e+02 9.930000000000000000e+02 9.940000000000000000e+02 9.950000000000000000e+02 9.960000000000000000e+02 9.970000000000000000e+02 9.980000000000000000e+02 9.990000000000000000e+02 1.000000000000000000e+03
1.000000000000000021e-02 1.000000000000000021e-02 1.000000000000000021e-02 1.000000000000000021e-02 1.000000000000000021e-02 1.000000000000000021e-02 1.000000000000000021e-02 1.000000000000000021e-02 1.000000000000000021e-02 1.000000000000000021e-02 1.000000000000000021e-02 1.000000000000000021e-02 1.000000000000000021e-02 1.000000000000000021e-02 1.000000000000000021e-02 1.000000000000000021e-02 1.000000000000000021e-02 1.000000000000000021e-02 1.000000000000000021e-02 1.000000000000000021e-02 1.000000000000000021e-02 1.000000000000000021e-02 1.000000000000000021e-02 1.000000000000000021e-02 1.000000000000000021e-02 1.000000000000000021e-02 1.000000000000000021e-02 1.000000000000000021e-02 1.000000000000000021e-02 1.000000000000000021e-02 1.000000000000000021e-02 1.000000000000000021e-02 1.000000000000000021e-02 1.000000000000000021e-02 1.000000000000000021e-02 1.000000000000000021e-02 1.000000000000000021e-02 1.000000000000000021e-02 1.000000000000000021e-02 1.000000000000000021e-02 1.000000000000000021e-02 1.000000000000000021e-02 1.000000000000000021e-02 1.000000000000000021e-02 1.000000000000000021e-02 1.000000000000000021e-02 1.000000000000000021e-02 1.000000000000000021e-02 1.000000000000000021e-02 1.000000000000000021e-02 1.000000000000000021e-02 1.000000000000000021e-02 1.000000000000000021e-02 1.000000000000000021e-02 1.000000000000000021e-02 1.000000000000000021e-02 1.000000000000000021e-02 1.000000000000000021e-02 1.000000000000000021e-02 1.000000000000000021e-02 1.000000000000000021e-02 1.000000000000000021e-02 1.000000000000000021e-02 1.000000000000000021e-02 1.000000000000000021e-02 1.000000000000000021e-02 1.000000000000000021e-02 1.000000000000000021e-02 1.000000000000000021e-02 1.000000000000000021e-02 1.000000000000000021e-02 1.000000000000000021e-02 1.000000000000000021e-02 1.000000000000000021e-02 1.000000000000000021e-02 1.000000000000000021e-02 1.000000000000000021e-02 1.000000000000000021e-02 1.000000000000000021e-02 1.000000000000000021e-02 1.000000000000000021e-02 1.000000000000000021e-02 1.000000000000000021e-02 1.000000000000000021e-02 1.000000000000000021e-02 1.000000000000000021e-02 1.000000000000000021e-02 1.000000000000000021e-02 1.000000000000000021e-02 1.000000000000000021e-02 1.000000000000000021e-02 1.000000000000000021e-02 1.000000000000000021e-02 1.000000000000000021e-02 1.000000000000000021e-02 1.000000000000000021e-02 1.000000000000000021e-02 1.000000000000000021e-02 1.000000000000000021e-02 1.000000000000000021e-02 1.000000000000000021e-02 1.000000000000000021e-02 1.000000000000000021e-02 1.000000000000000021e-02 1.000000000000000021e-02 1.000000000000000021e-02 1.000000000000000021e-02 1.000000000000000021e-02 1.000000000000000021e-02 1.000000000000000021e-02 1.000000000000000021e-02 1.000000000000000021e-02 1.000000000000000021e-02 1.000000000000000021e-02 1.000000000000000021e-02 1.000000000000000021e-02 1.000000000000000021e-02 1.000000000000000021e-02 1.000000000000000021e-02 1.000000000000000021e-02 1.000000000000000021e-02 1.000000000000000021e-02 1.000000000000000021e-02 1.000000000000000021e-02 1.000000000000000021e-02 1.000000000000000021e-02 1.000000000000000021e-02 1.000000000000000021e-02 1.000000000000000021e-02 1.000000000000000021e-02 1.000000000000000021e-02 1.000000000000000021e-02 1.000000000000000021e-02 1.000000000000000021e-02 1.000000000000000021e-02 1.000000000000000021e-02 1.000000000000000021e-02 1.000000000000000021e-02 1.000000000000000021e-02 1.000000000000000021e-02 1.000000000000000021e-02 1.000000000000000021e-02 1.000000000000000021e-02 1.000000000000000021e-02 1.000000000000000021e-02 1.000000000000000021e-02 1.000000000000000021e-02 1.000000000000000021e-02 1.000000000000000021e-02 1.000000000000000021e-02 1.000000000000000021e-02 1.000000000000000021e-02 1.000000000000000021e-02 1.000000000000000021e-02 1.000000000000000021e-02 1.000000000000000021e-02 1.000000000000000021e-02 1.000000000000000021e-02 1.000000000000000021e-02 1.000000000000000021e-02 1.000000000000000021e-02 1.000000000000000021e-02 1.000000000000000021e-02 1.000000000000000021e-02 1.000000000000000021e-02 1.000000000000000021e-02 1.000000000000000021e-02 1.000000000000000021e-02 1.000000000000000021e-02 1.000000000000000021e-02 1.000000000000000021e-02 1.000000000000000021e-02 1.000000000000000021e-02 1.000000000000000021e-02 1.000000000000000021e-02 1.000000000000000021e-02 1.000000000000000021e-02 1.000000000000000021e-02 1.000000000000000021e-02 1.000000000000000021e-02 1.000000000000000021e-02 1.000000000000000021e-02 1.000000000000000021e-02 1.000000000000000021e-02 1.000000000000000021e-02 1.000000000000000021e-02 1.000000000000000021e-02 1.000000000000000021e-02 1.000000000000000021e-02 1.000000000000000021e-02 1.000000000000000021e-02 1.000000000000000021e-02 1.000000000000000021e-02 1.000000000000000021e-02 1.000000000000000021e-02 1.000000000000000021e-02 1.000000000000000021e-02 1.000000000000000021e-02 1.000000000000000021e-02 1.000000000000000021e-02 1.000000000000000021e-02 1.000000000000000021e-02 1.000000000000000021e-02 1.000000000000000021e-02 1.000000000000000021e-02 1.000000000000000021e-02 1.000000000000000021e-02 1.000000000000000021e-02 1.000000000000000021e-02 1.000000000000000021e-02 1.000000000000000021e-02 1.000000000000000021e-02 1.000000000000000021e-02 1.000000000000000021e-02 1.000000000000000021e-02 1.000000000000000021e-02 1.000000000000000021e-02 1.000000000000000021e-02 1.000000000000000021e-02 1.000000000000000021e-02 1.000000000000000021e-02 1.000000000000000021e-02 1.000000000000000021e-02 1.000000000000000021e-02 1.000000000000000021e-02 1.000000000000000021e-02 1.000000000000000021e-02 1.000000000000000021e-02 1.000000000000000021e-02 1.000000000000000021e-02 1.000000000000000021e-02 1.000000000000000021e-02 1.000000000000000021e-02 1.000000000000000021e-02 1.000000000000000021e-02 1.000000000000000021e-02 1.000000000000000021e-02 1.000000000000000021e-02 1.000000000000000021e-02 1.000000000000000021e-02 1.000000000000000021e-02 1.000000000000000021e-02 1.000000000000000021e-02 1.000000000000000021e-02 1.000000000000000021e-02 1.000000000000000021e-02 1.000000000000000021e-02 1.000000000000000021e-02 1.000000000000000021e-02 1.000000000000000021e-02 1.000000000000000021e-02 1.000000000000000021e-02 1.000000000000000021e-02 1.000000000000000021e-02 1.000000000000000021e-02 1.000000000000000021e-02 1.000000000000000021e-02 1.000000000000000021e-02 1.000000000000000021e-02 1.000000000000000021e-02 1.000000000000000021e-02 1.000000000000000021e-02 1.000000000000000021e-02 1.000000000000000021e-02 1.000000000000000021e-02 1.000000000000000021e-02 1.000000000000000021e-02 1.000000000000000021e-02 1.000000000000000021e-02 1.000000000000000021e-02 1.000000000000000021e-02 1.000000000000000021e-02 1.000000000000000021e-02 1.000000000000000021e-02 1.000000000000000021e-02 1.000000000000000021e-02 1.000000000000000021e-02 1.000000000000000021e-02 1.000000000000000021e-02 1.000000000000000021e-02 1.000000000000000021e-02 1.000000000000000021e-02 1.000000000000000021e-02 1.000000000000000021e-02 1.000000000000000021e-02 1.000000000000000021e-02 1.000000000000000021e-02 1.000000000000000021e-02 1.000000000000000021e-02 1.000000000000000021e-02 1.000000000000000021e-02 1.000000000000000021e-02 1.000000000000000021e-02 1.000000000000000021e-02 1.000000000000000021e-02 1.000000000000000021e-02 1.000000000000000021e-02 1.000000000000000021e-02 1.000000000000000021e-02 1.000000000000000021e-02 1.000000000000000021e-02 1.000000000000000021e-02 1.000000000000000021e-02 1.000000000000000021e-02 1.000000000000000021e-02 1.000000000000000021e-02 1.000000000000000021e-02 1.000000000000000021e-02 1.000000000000000021e-02 1.000000000000000021e-02 1.000000000000000021e-02 1.000000000000000021e-02 1.000000000000000021e-02 1.000000000000000021e-02 1.000000000000000021e-02 1.000000000000000021e-02 1.000000000000000021e-02 1.000000000000000021e-02 1.000000000000000021e-02 1.000000000000000021e-02 1.000000000000000021e-02 1.000000000000000021e-02 1.000000000000000021e-02 1.000000000000000021e-02 1.000000000000000021e-02 1.000000000000000021e-02 1.000000000000000021e-02 1.000000000000000021e-02 1.000000000000000021e-02 1.000000000000000021e-02 1.000000000000000021e-02 1.000000000000000021e-02 1.000000000000000021e-02 1.000000000000000021e-02 1.000000000000000021e-02 1.000000000000000021e-02 1.000000000000000021e-02 1.000000000000000021e-02 1.000000000000000021e-02 1.000000000000000021e-02 1.000000000000000021e-02 1.000000000000000021e-02 1.000000000000000021e-02 1.000000000000000021e-02 1.000000000000000021e-02 1.000000000000000021e-02 1.000000000000000021e-02 1.000000000000000021e-02 1.000000000000000021e-02 1.000000000000000021e-02 1.000000000000000021e-02 1.000000000000000021e-02 1.000000000000000021e-02 1.000000000000000021e-02 1.000000000000000021e-02 1.000000000000000021e-02 1.000000000000000021e-02 1.000000000000000021e-02 1.000000000000000021e-02 1.000000000000000021e-02 1.000000000000000021e-02 1.000000000000000021e-02 1.000000000000000021e-02 1.000000000000000021e-02 1.000000000000000021e-02 1.000000000000000021e-02 1.000000000000000021e-02 1.000000000000000021e-02 1.000000000000000021e-02 1.000000000000000021e-02 1.000000000000000021e-02 1.000000000000000021e-02 1.000000000000000021e-02 1.000000000000000021e-02 1.000000000000000021e-02 1.000000000000000021e-02 1.000000000000000021e-02 1.000000000000000021e-02 1.000000000000000021e-02 1.000000000000000021e-02 1.000000000000000021e-02 1.000000000000000021e-02 1.000000000000000021e-02 1.000000000000000021e-02 1.000000000000000021e-02 1.000000000000000021e-02 1.000000000000000021e-02 1.000000000000000021e-02 1.000000000000000021e-02 1.000000000000000021e-02 1.000000000000000021e-02 1.000000000000000021e-02 1.000000000000000021e-02 1.000000000000000021e-02 1.000000000000000021e-02 1.000000000000000021e-02 1.000000000000000021e-02 1.000000000000000021e-02 1.000000000000000021e-02 1.000000000000000021e-02 1.000000000000000021e-02 1.000000000000000021e-02 1.000000000000000021e-02 1.000000000000000021e-02 1.000000000000000021e-02 1.000000000000000021e-02 1.000000000000000021e-02 1.000000000000000021e-02 1.000000000000000021e-02 1.000000000000000021e-02 1.000000000000000021e-02 1.000000000000000021e-02 1.000000000000000021e-02 1.000000000000000021e-02 1.000000000000000021e-02 1.000000000000000021e-02 1.000000000000000021e-02 1.000000000000000021e-02 1.000000000000000021e-02 1.000000000000000021e-02 1.000000000000000021e-02 1.000000000000000021e-02 1.000000000000000021e-02 1.000000000000000021e-02 1.000000000000000021e-02 1.000000000000000021e-02 1.000000000000000021e-02 1.000000000000000021e-02 1.000000000000000021e-02 1.000000000000000021e-02 1.000000000000000021e-02 1.000000000000000021e-02 1.000000000000000021e-02 1.000000000000000021e-02 1.000000000000000021e-02 1.000000000000000021e-02 1.000000000000000021e-02 1.000000000000000021e-02 1.000000000000000021e-02 1.000000000000000021e-02 1.000000000000000021e-02 1.000000000000000021e-02 1.000000000000000021e-02 1.000000000000000021e-02 1.000000000000000021e-02 1.000000000000000021e-02 1.000000000000000021e-02 1.000000000000000021e-02 1.000000000000000021e-02 1.000000000000000021e-02 1.000000000000000021e-02 1.000000000000000021e-02 1.000000000000000021e-02 1.000000000000000021e-02 1.000000000000000021e-02 1.000000000000000021e-02 1.000000000000000021e-02 1.000000000000000021e-02 1.000000000000000021e-02 1.000000000000000021e-02 1.000000000000000021e-02 1.000000000000000021e-02 1.000000000000000021e-02 1.000000000000000021e-02 1.000000000000000021e-02 1.000000000000000021e-02 1.000000000000000021e-02 1.000000000000000021e-02 1.000000000000000021e-02 1.000000000000000021e-02 1.000000000000000021e-02 1.000000000000000021e-02 1.000000000000000021e-02 1.000000000000000021e-02 1.000000000000000021e-02 1.000000000000000021e-02 1.000000000000000021e-02 1.000000000000000021e-02 1.000000000000000021e-02 1.000000000000000021e-02 1.000000000000000021e-02 1.000000000000000021e-02 1.000000000000000021e-02 1.000000000000000021e-02 1.000000000000000021e-02 1.000000000000000021e-02 1.000000000000000021e-02 1.000000000000000021e-02 1.000000000000000021e-02 1.000000000000000021e-02 1.000000000000000021e-02 1.000000000000000021e-02 1.000000000000000021e-02 1.000000000000000021e-02 1.000000000000000021e-02 1.000000000000000021e-02 1.000000000000000021e-02 1.000000000000000021e-02 1.000000000000000021e-02 1.000000000000000021e-02 1.000000000000000021e-02 1.000000000000000021e-02 1.000000000000000021e-02 1.000000000000000021e-02 1.000000000000000021e-02 1.000000000000000021e-02 1.000000000000000021e-02 1.000000000000000021e-02 1.000000000000000021e-02 1.000000000000000021e-02 1.000000000000000021e-02 1.000000000000000021e-02 1.000000000000000021e-02 1.000000000000000021e-02 1.000000000000000021e-02 1.000000000000000021e-02 1.000000000000000021e-02 1.000000000000000021e-02 1.000000000000000021e-02 1.000000000000000021e-02 1.000000000000000021e-02 1.000000000000000021e-02 1.000000000000000021e-02 1.000000000000000021e-02 1.000000000000000021e-02 1.000000000000000021e-02 1.000000000000000021e-02 1.000000000000000021e-02 1.000000000000000021e-02 1.000000000000000021e-02 1.000000000000000021e-02 1.000000000000000021e-02 1.000000000000000021e-02 1.000000000000000021e-02 1.000000000000000021e-02 1.000000000000000021e-02 1.000000000000000021e-02 1.000000000000000021e-02 1.000000000000000021e-02 1.000000000000000021e-02 1.000000000000000021e-02 1.000000000000000021e-02 1.000000000000000021e-02 1.000000000000000021e-02 1.000000000000000021e-02 1.000000000000000021e-02 1.000000000000000021e-02 1.000000000000000021e-02 1.000000000000000021e-02 1.000000000000000021e-02 1.000000000000000021e-02 1.000000000000000021e-02 1.000000000000000021e-02 1.000000000000000021e-02 1.000000000000000021e-02 1.000000000000000021e-02 1.000000000000000021e-02 1.000000000000000021e-02 1.000000000000000021e-02 1.000000000000000021e-02 1.000000000000000021e-02 1.000000000000000021e-02 1.000000000000000021e-02 1.000000000000000021e-02 1.000000000000000021e-02 1.000000000000000021e-02 1.000000000000000021e-02 1.000000000000000021e-02 1.000000000000000021e-02 1.000000000000000021e-02 1.000000000000000021e-02 1.000000000000000021e-02 1.000000000000000021e-02 1.000000000000000021e-02 1.000000000000000021e-02 1.000000000000000021e-02 1.000000000000000021e-02 1.000000000000000021e-02 1.000000000000000021e-02 1.000000000000000021e-02 1.000000000000000021e-02 1.000000000000000021e-02 1.000000000000000021e-02 1.000000000000000021e-02 1.000000000000000021e-02 1.000000000000000021e-02 1.000000000000000021e-02 1.000000000000000021e-02 1.000000000000000021e-02 1.000000000000000021e-02 1.000000000000000021e-02 1.000000000000000021e-02 1.000000000000000021e-02 1.000000000000000021e-02 1.000000000000000021e-02 1.000000000000000021e-02 1.000000000000000021e-02 1.000000000000000021e-02 1.000000000000000021e-02 1.000000000000000021e-02 1.000000000000000021e-02 1.000000000000000021e-02 1.000000000000000021e-02 1.000000000000000021e-02 1.000000000000000021e-02 1.000000000000000021e-02 1.000000000000000021e-02 1.000000000000000021e-02 1.000000000000000021e-02 1.000000000000000021e-02 1.000000000000000021e-02 1.000000000000000021e-02 1.000000000000000021e-02 1.000000000000000021e-02 1.000000000000000021e-02 1.000000000000000021e-02 1.000000000000000021e-02 1.000000000000000021e-02 1.000000000000000021e-02 1.000000000000000021e-02 1.000000000000000021e-02 1.000000000000000021e-02 1.000000000000000021e-02 1.000000000000000021e-02 1.000000000000000021e-02 1.000000000000000021e-02 1.000000000000000021e-02 1.000000000000000021e-02 1.000000000000000021e-02 1.000000000000000021e-02 1.000000000000000021e-02 1.000000000000000021e-02 1.000000000000000021e-02 1.000000000000000021e-02 1.000000000000000021e-02 1.000000000000000021e-02 1.000000000000000021e-02 1.000000000000000021e-02 1.000000000000000021e-02 1.000000000000000021e-02 1.000000000000000021e-02 1.000000000000000021e-02 1.000000000000000021e-02 1.000000000000000021e-02 1.000000000000000021e-02 1.000000000000000021e-02 1.000000000000000021e-02 1.000000000000000021e-02 1.000000000000000021e-02 1.000000000000000021e-02 1.000000000000000021e-02 1.000000000000000021e-02 1.000000000000000021e-02 1.000000000000000021e-02 1.000000000000000021e-02 1.000000000000000021e-02 1.000000000000000021e-02 1.000000000000000021e-02 1.000000000000000021e-02 1.000000000000000021e-02 1.000000000000000021e-02 1.000000000000000021e-02 1.000000000000000021e-02 1.000000000000000021e-02 1.000000000000000021e-02 1.000000000000000021e-02 1.000000000000000021e-02 1.000000000000000021e-02 1.000000000000000021e-02 1.000000000000000021e-02 1.000000000000000021e-02 1.000000000000000021e-02 1.000000000000000021e-02 1.000000000000000021e-02 1.000000000000000021e-02 1.000000000000000021e-02 1.000000000000000021e-02 1.000000000000000021e-02 1.000000000000000021e-02 1.000000000000000021e-02 1.000000000000000021e-02 1.000000000000000021e-02 1.000000000000000021e-02 1.000000000000000021e-02 1.000000000000000021e-02 1.000000000000000021e-02 1.000000000000000021e-02 1.000000000000000021e-02 1.000000000000000021e-02 1.000000000000000021e-02 1.000000000000000021e-02 1.000000000000000021e-02 1.000000000000000021e-02 1.000000000000000021e-02 1.000000000000000021e-02 1.000000000000000021e-02 1.000000000000000021e-02 1.000000000000000021e-02 1.000000000000000021e-02 1.000000000000000021e-02 1.000000000000000021e-02 1.000000000000000021e-02 1.000000000000000021e-02 1.000000000000000021e-02 1.000000000000000021e-02 1.000000000000000021e-02 1.000000000000000021e-02 1.000000000000000021e-02 1.000000000000000021e-02 1.000000000000000021e-02 1.000000000000000021e-02 1.000000000000000021e-02 1.000000000000000021e-02 1.000000000000000021e-02 1.000000000000000021e-02 1.000000000000000021e-02 1.000000000000000021e-02 1.000000000000000021e-02 1.000000000000000021e-02 1.000000000000000021e-02 1.000000000000000021e-02 1.000000000000000021e-02 1.000000000000000021e-02 1.000000000000000021e-02 1.000000000000000021e-02 1.000000000000000021e-02 1.000000000000000021e-02 1.000000000000000021e-02 1.000000000000000021e-02 1.000000000000000021e-02 1.000000000000000021e-02 1.000000000000000021e-02 1.000000000000000021e-02 1.000000000000000021e-02 1.000000000000000021e-02 1.000000000000000021e-02 1.000000000000000021e-02 1.000000000000000021e-02 1.000000000000000021e-02 1.000000000000000021e-02 1.000000000000000021e-02 1.000000000000000021e-02 1.000000000000000021e-02 1.000000000000000021e-02 1.000000000000000021e-02 1.000000000000000021e-02 1.000000000000000021e-02 1.000000000000000021e-02 1.000000000000000021e-02 1.000000000000000021e-02 1.000000000000000021e-02 1.000000000000000021e-02 1.000000000000000021e-02 1.000000000000000021e-02 1.000000000000000021e-02 1.000000000000000021e-02 1.000000000000000021e-02 1.000000000000000021e-02 1.000000000000000021e-02 1.000000000000000021e-02 1.000000000000000021e-02 1.000000000000000021e-02 1.000000000000000021e-02 1.000000000000000021e-02 1.000000000000000021e-02 1.000000000000000021e-02 1.000000000000000021e-02 1.000000000000000021e-02 1.000000000000000021e-02 1.000000000000000021e-02 1.000000000000000021e-02 1.000000000000000021e-02 1.000000000000000021e-02 1.000000000000000021e-02 1.000000000000000021e-02 1.000000000000000021e-02 1.000000000000000021e-02 1.000000000000000021e-02 1.000000000000000021e-02 1.000000000000000021e-02 1.000000000000000021e-02 1.000000000000000021e-02 1.000000000000000021e-02 1.000000000000000021e-02 1.000000000000000021e-02 1.000000000000000021e-02 1.000000000000000021e-02 1.000000000000000021e-02 1.000000000000000021e-02 1.000000000000000021e-02 1.000000000000000021e-02 1.000000000000000021e-02 1.000000000000000021e-02 1.000000000000000021e-02 1.000000000000000021e-02 1.000000000000000021e-02 1.000000000000000021e-02 1.000000000000000021e-02 1.000000000000000021e-02 1.000000000000000021e-02 1.000000000000000021e-02 1.000000000000000021e-02 1.000000000000000021e-02 1.000000000000000021e-02 1.000000000000000021e-02 1.000000000000000021e-02 1.000000000000000021e-02 1.000000000000000021e-02 1.000000000000000021e-02 1.000000000000000021e-02 1.000000000000000021e-02 1.000000000000000021e-02 1.000000000000000021e-02 1.000000000000000021e-02 1.000000000000000021e-02 1.000000000000000021e-02 1.000000000000000021e-02 1.000000000000000021e-02 1.000000000000000021e-02 1.000000000000000021e-02 1.000000000000000021e-02 1.000000000000000021e-02 1.000000000000000021e-02 1.000000000000000021e-02 1.000000000000000021e-02 1.000000000000000021e-02 1.000000000000000021e-02 1.000000000000000021e-02 1.000000000000000021e-02 1.000000000000000021e-02 1.000000000000000021e-02 1.000000000000000021e-02 1.000000000000000021e-02 1.000000000000000021e-02 1.000000000000000021e-02 1.000000000000000021e-02 1.000000000000000021e-02 1.000000000000000021e-02 1.000000000000000021e-02 1.000000000000000021e-02 1.000000000000000021e-02 1.000000000000000021e-02 1.000000000000000021e-02 1.000000000000000021e-02 1.000000000000000021e-02 1.000000000000000021e-02 1.000000000000000021e-02 1.000000000000000021e-02 1.000000000000000021e-02 1.000000000000000021e-02 1.000000000000000021e-02 1.000000000000000021e-02 1.000000000000000021e-02 1.000000000000000021e-02 1.000000000000000021e-02 1.000000000000000021e-02 1.000000000000000021e-02 1.000000000000000021e-02 1.000000000000000021e-02 1.000000000000000021e-02 1.000000000000000021e-02 1.000000000000000021e-02 1.000000000000000021e-02 1.000000000000000021e-02 1.000000000000000021e-02 1.000000000000000021e-02 1.000000000000000021e-02 1.000000000000000021e-02 1.000000000000000021e-02 1.000000000000000021e-02 1.000000000000000021e-02 1.000000000000000021e-02 1.000000000000000021e-02 1.000000000000000021e-02 1.000000000000000021e-02 1.000000000000000021e-02 1.000000000000000021e-02 1.000000000000000021e-02 1.000000000000000021e-02 1.000000000000000021e-02 1.000000000000000021e-02 1.000000000000000021e-02 1.000000000000000021e-02 1.000000000000000021e-02 1.000000000000000021e-02 1.000000000000000021e-02 1.000000000000000021e-02 1.000000000000000021e-02 1.000000000000000021e-02 1.000000000000000021e-02 1.000000000000000021e-02 1.000000000000000021e-02 1.000000000000000021e-02 1.000000000000000021e-02 1.000000000000000021e-02 1.000000000000000021e-02 1.000000000000000021e-02 1.000000000000000021e-02 1.000000000000000021e-02 1.000000000000000021e-02 1.000000000000000021e-02 1.000000000000000021e-02 1.000000000000000021e-02 1.000000000000000021e-02 1.000000000000000021e-02 1.000000000000000021e-02 1.000000000000000021e-02 1.000000000000000021e-02 1.000000000000000021e-02 1.000000000000000021e-02 1.000000000000000021e-02 1.000000000000000021e-02 1.000000000000000021e-02 1.000000000000000021e-02 1.000000000000000021e-02 1.000000000000000021e-02 1.000000000000000021e-02 1.000000000000000021e-02 1.000000000000000021e-02 1.000000000000000021e-02 1.000000000000000021e-02 1.000000000000000021e-02 1.000000000000000021e-02 1.000000000000000021e-02 1.000000000000000021e-02 1.000000000000000021e-02 1.000000000000000021e-02 1.000000000000000021e-02 1.000000000000000021e-02 1.000000000000000021e-02 1.000000000000000021e-02 1.000000000000000021e-02 1.000000000000000021e-02 1.000000000000000021e-02 1.000000000000000021e-02 1.000000000000000021e-02 1.000000000000000021e-02 1.000000000000000021e-02 1.000000000000000021e-02 1.000000000000000021e-02 1.000000000000000021e-02 1.000000000000000021e-02 1.000000000000000021e-02 1.000000000000000021e-02 1.000000000000000021e-02 1.000000000000000021e-02 1.000000000000000021e-02 1.000000000000000021e-02 1.000000000000000021e-02 1.000000000000000021e-02 1.000000000000000021e-02 1.000000000000000021e-02 1.000000000000000021e-02 1.000000000000000021e-02 1.000000000000000021e-02 1.000000000000000021e-02 1.000000000000000021e-02 1.000000000000000021e-02 1.000000000000000021e-02 1.000000000000000021e-02 1.000000000000000021e-02 1.000000000000000021e-02 1.000000000000000021e-02 1.000000000000000021e-02 1.000000000000000021e-02 1.000000000000000021e-02 1.000000000000000021e-02 1.000000000000000021e-02 1.000000000000000021e-02 1.000000000000000021e-02 1.000000000000000021e-02 1.000000000000000021e-02 1.000000000000000021e-02 1.000000000000000021e-02 1.000000000000000021e-02 1.000000000000000021e-02 1.000000000000000021e-02 1.000000000000000021e-02 1.000000000000000021e-02 1.000000000000000021e-02 1.000000000000000021e-02 1.000000000000000021e-02 1.000000000000000021e-02 1.000000000000000021e-02 1.000000000000000021e-02 1.000000000000000021e-02 1.000000000000000021e-02 1.000000000000000021e-02 1.000000000000000021e-02 1.000000000000000021e-02 1.000000000000000021e-02 1.000000000000000021e-02 1.000000000000000021e-02 1.000000000000000021e-02 1.000000000000000021e-02 1.000000000000000021e-02 1.000000000000000021e-02 1.000000000000000021e-02 1.000000000000000021e-02 1.000000000000000021e-02
-1.165827263611545845e+02 1.770506144223749629e+02 4.113898462008664580e+01 -9.255150912842537991e+00 -9.179903531059613897e+01 -1.399110258594941314e+01 -2.170952623925614091e+02 6.923170285843890381e-01 -8.853207437292086013e+01 -1.452749353733388382e+01 -2.069210738178942677e+01 6.768602381554481795e+00 -1.858695436985607907e+00 1.752593841053353287e+02 8.837376765558222758e+01 -4.045557320008528990e+01 -5.507744832691069092e+01 8.274370098665701789e+01 3.427049370785354654e+01 -2.648047389953873321e+01 -8.238204537952567819e+01 -7.712572840587110079e+01 -1.443942723926319616e+01 3.022120138399340661e+01 -2.036134788678965606e+02 -1.031595117089317455e+02 -2.724159684203364407e+01 2.106407033062342009e+02 7.391540101339515445e+01 8.008814881547205289e+01 8.385640119696404327e+01 1.243770198330862664e+00 -8.264489260226001477e+01 2.165814473645669409e+02 -2.556619143668346510e+02 6.137386908513788342e+01 -1.255693110117975237e+02 -3.621063375925443495e+01 4.206804005508220534e+00 1.323485000327581815e+02 -1.283992343989345386e+02 -1.429393839033720681e+01 8.084231648758276378e+01 1.813056830270165563e+02 7.457234620010780191e+01 -7.152635118987141993e+01 4.313054116627463941e+01 -2.962297020220718835e+01 -6.900924512223437546e+01 1.635811471609757461e+02 -7.381129563326676646e+01 -5.446871294557202958e+01 -1.454508773629546852e+02 5.919991674480533206e+00 -5.281927443587996862e+01 4.037216259373207095e+01 -9.267784959386379739e+01 -5.231145563788784614e+01 -1.059309329642429987e+02 -1.623627914458518546e+02 2.037578412929643079e+01 4.731816992547794598e+01 -1.286070861807449717e+02 1.344316014286723515e+01 -8.288221226466198743e+01 5.130544524332464817e+01 1.739939274996945358e+02 -1.506824801035439236e+02 -4.527132984449134057e+01 7.482133413572725544e+00 3.045903839908431276e+00 4.426043675541470179e+01 8.773775739033384014e+01 1.020766635965010716e+00 -9.147208752971529577e+00 -7.318593287993307683e+01 8.178408116809575290e+01 -3.429812036544078779e+01 2.745019884964506218e+01 1.086500736377592062e+02 9.221291150397738079e+01 -4.464512807151442786e+01 6.045288865056474492e+01 1.540459830643275723e+02 1.213953701533784511e+02 -4.241137873805790548e+00 1.820418556875208083e+02 -1.164914830419325824e+02 4.430968884260854779e+00 -4.381517736300103394e+01 2.161281392660073379e+02 -2.217326582899091392e+01 2.985602496824304009e+00 -8.022123207739264217e+01 -7.436821489170997168e+00 -6.674580790672250430e+01 7.078513761860722298e+01 -9.877160483865071683e+01 7.156336156410311844e+01 -4.985663887864457422e+01 -5.201481183706958689e+01 -9.575574665115712492e+01 5.551285525980255642e+01 -5.721681699992446823e+01 -1.560351866377766612e+02 -8.305879937727564766e+01 -1.093208125299238844e+02 -1.642857158314234880e+02 1.420620570032887144e+02 -2.879410841084940031e+01 3.344859060952004626e+01 9.369232728335083493e+01 -1.087865921567298670e+02 5.955530491673965798e+01 -4.527254587553888854e+01 -7.234965278687170098e+01 -9.406447474250423113e+01 2.124807949296789502e+02 -5.929713880231179957e+01 -5.167630927527759610e+01 -4.939024206350295998e+01 8.402162190511347717e+01 -4.324838864741708022e+01 1.442202107795528718e+02 -5.204444761224949190e+01 5.751407017994003468e+01 4.744979024866439410e+00 -8.485265003526166083e+01 7.195386166139135753e+01 2.898216054978773286e+02 -9.610298348141616032e+01 4.965564314957070025e+01 -7.961281089232191732e+01 4.726091593653752199e+01 1.370742965109001261e+02 -5.363403707727172787e+01 1.521350280068023331e+01 -2.810957959780105853e+01 -1.065022555160731343e+02 -1.800644158141172824e+01 4.431166363337517566e+00 -8.186571690776792920e+00 -1.564499015230352796e+01 1.236200652133078677e+02 1.361835941577951132e+02 1.948446589463276837e+02 -3.180090822542329647e+02 3.995257927000609754e+01 -1.643878998948749270e+01 -6.519137827011395814e+01 1.885056261021065325e+02 7.974116433329344034e+01 -2.655927808327598338e+00 -1.212725468621573413e+02 -1.142952825160126551e+01 1.046516738040072738e+02 -1.405823342118733876e+02 -1.763757638413962354e+02 1.122600813324083369e+01 4.440232348582554067e+01 -6.380176910176845695e+01 4.396547588044547439e+01 -1.120292302560570761e+02 -1.583394264764447144e+02 2.211888902223424935e+01 5.083654784466415322e+01 5.004381896806119556e+00 -8.742894730877667087e+01 -9.796923412120362684e+01 -8.831857622534411689e+01 -9.164581480544883618e+01 1.318719180440714389e+01 5.953690424039658780e+01 1.219944312314491839e+02 8.321855165265287724e+01 9.374509113934891502e+01 1.125277119761309166e+02 -7.838384146295339860e+01 -8.648685012412026651e+01 7.391221757647289792e+01 7.167990749618121527e+01 6.210111885154360323e+01 -9.859408558937918343e+00 -9.552203808750621761e+01 5.661325258236938396e+01 -1.876611981916326215e+02 7.044233866091568075e+01 -4.678200743292516961e+01 -1.012523220595121103e+02 7.789929663978516317e+01 -1.795870827732589348e+01 -8.104438543960870334e+01 -6.040129695989127612e+01 -9.585829856581703723e+00 2.549730354583995506e+02 8.066091878645195834e+01 5.763386001268262504e+01 -1.092828724831016700e+02 1.559035909721116298e+02 1.071535246427966381e+00 -9.511961468124133035e+01 1.639102466964726261e+02 -1.622436251781581689e+02 1.660138871004342676e+01 -3.430083339735925563e+01 -2.339073260777475696e+02 -1.420841910767911429e+02 -9.289443096569598879e+01 -3.109192187262838658e+01 -1.269889023723589077e+02 6.141321092502948176e+01 6.917167662444491327e+01 -2.932018013282490188e+01 -1.061153654199921874e+02 1.204139945533364369e+02 1.259129501481974529e+02 4.921484540101319283e+01 1.855565235156295145e+01 2.782861839441760594e+02 4.653273290552705532e+01 -1.271209085300767185e+02 -4.795633412252115590e+01 -1.799269073535471364e+02 3.395286646481144999e+01 1.634055414881376862e+02 -1.582080666401730866e+02 1.403902272829013782e+02 -9.694859789260985394e+01 -2.011465800703836848e+01 -7.496098310926727626e-01 5.632621625611337635e+01 -1.239651442663431169e+01 -2.426479595132786926e+01 -2.024223863706054871e+01 -1.349999829318276738e+02 4.952516929685078395e+01 -3.239716606132844134e+01 -1.389551674677874615e+01 -1.141625320298276947e+01 2.409637088905632254e+02 1.857261289344823751e+02 2.480938749963468979e+02 1.405685184017887650e+02 -9.233389256110835674e+01 8.023907021157948805e+01 2.249215341853430061e+01 5.082961929793375333e+01 -4.243636053361525740e+01 2.724914297379052641e+02 -2.483408192096462486e+01 -1.458636686869316463e+02 -1.597192034857477871e+01 -4.887622100726652263e+01 -8.261346565093154481e+01 4.605877516858332399e+01 -1.249983011241261543e+01 1.941231229886010681e+02 9.868234862692007425e+01 4.364462653065294262e+01 1.046702886636189191e+02 1.007449261910951890e+02 -2.453887755949819649e+01 1.490461811782998609e+02 2.823378111054666206e+01 9.557829456494444287e+01 5.083227405296296553e+01 7.413565597151250408e+00 -1.235973584792385083e+02 -1.236141560534736215e+02 -9.606870499999837421e+01 -1.663503238618327273e+01 9.252325615697105832e+01 -3.276291173083538411e+01 1.055751744098577376e+02 4.674972088665675329e+01 -7.763825138554655325e+01 -3.201389232033568533e+01 -6.256667188432470539e+01 1.874401163274368187e+01 -4.949927007911740873e+01 -1.196171796019637981e+02 1.297740559350465617e+02 1.295227466297829437e+02 -8.425380677575174104e+01 5.868252591133176210e+00 -4.835500500731717466e+01 -3.486231322002260669e+01 -1.210962653355420926e+01 -3.330768509296302682e+01 4.740880943033379680e+01 -1.499636862283688572e+02 -5.637389330584480263e+01 -1.621442141548066616e+02 1.858384081461423989e+02 -2.164113875347671367e+01 6.293888596254127776e+01 1.275113270147028999e+01 1.540778003694042013e+02 4.767174081005610020e+01 3.815740175582612892e+01 1.646079949439609322e+02 -5.254613022773862241e+01 -1.040413871467736016e+02 2.892007442644874260e+01 -1.684787999378903862e+02 -5.692118182983475094e+01 1.090224006275679898e+02 -1.362663649911204686e+02 -3.877073743562614538e+01 9.732129628533957089e+01 -1.007594493404737079e+02 -9.543659215382733407e+01 -8.810628589017537138e+01 -6.807358813553901200e+01 2.653411097490277939e+02 2.111754670714350652e+02 1.097843034674967981e+02 -1.088919578510105310e+02 7.977636336659637095e+01 -7.038493071147857449e+01 -3.313108522848416015e+01 1.766845937592566074e+01 -3.421328314506948942e+01 -9.983842880565340749e+01 -2.831132669261271051e+00 1.578766171863573575e+01 1.157245110525527139e+02 -1.366946219632230850e+02 4.448827396068750772e+01 6.779815989878730420e+01 3.677765734931991659e+01 -9.633563336689098833e+01 -1.578359079846527493e+02 2.054225492396787160e+02 -1.894645040633440658e+01 2.677281355851928168e+01 1.662573159464673438e+02 2.833980988806449375e+01 2.948542907884738540e+01 -4.728326180758295294e+01 9.406768214572348086e+01 -1.447977524077670637e+02 -3.272332704899121580e+01 -6.510387993267661599e+00 -5.672954202960588077e+01 6.481408281113833603e+00 2.265705262452766178e+01 -3.798527452203077104e+01 1.450471667640208118e+01 2.267888735962084468e+02 -2.905042806576798853e+01 -2.964348653607747863e+01 -1.078599944107297688e+02 -1.769270498642810274e+00 -8.569015257801075336e+01 6.820754429450686551e+00 1.188662594111209216e+02 -5.520113399681246591e+01 6.424639097423106904e+00 -5.763760097454814968e+01 3.551370214425546568e+00 9.251508121553347053e+01 -1.228850719585762903e+02 -1.026456716397940596e+02 -1.087396344410552729e+02 7.575045968611759406e+01 9.180129663216750657e+01 -9.794056261410763398e+01 6.635353593737083600e+01 2.735304304224092675e+01 4.102393018471278907e+01 -1.884107716663434928e+01 9.683229576332382749e+01 8.457494390209832602e+01 -8.196691724179635230e+01 1.261835716781494554e+01 8.580149093524634907e+01 7.727636784925552149e+01 -2.105482120931084111e+01 2.651007414842286636e+01 -1.405698537235940933e+02 5.141331332350578975e+01 -3.472916757859607628e+01 -3.458144981704964493e+01 1.836119575660961232e+02 5.031592627329865053e+01 1.274702557507666683e+02 2.024103730314851930e+02 -1.459970330192657855e+02 1.580026667357490453e+02 -6.714436958852344617e+01 -1.432418662879026385e+02 8.727808615520953595e+01 -1.421705180135662090e+02 -3.041929707000801741e+01 5.983259209699146197e+01 8.607113616140644297e+00 -1.781492389949472397e+02 8.924618156608183028e+01 2.670926640065648172e+01 7.326061383114667080e+01 3.842492270319220893e+01 1.005380790971288363e+01 -7.115477301875681349e+01 1.227242256213657328e+02 5.775235247238253322e+01 -6.586706935835857735e+01 -1.073171972176749165e+02 4.132721240122311457e+01 2.715507046877644015e+01 8.731178464212815982e+01 1.947041036619828560e+02 -2.613761456564319374e+01 -1.167407040571352894e+02 -8.988179689766614899e+01 -5.440604116021125947e+01 -4.709781591767720244e+01 -1.555556003609520985e+02 -2.382433172912447716e+01 1.372185025444361202e+02 7.903316238128067539e+01 -1.297135996105385232e+02 -1.587330609380802571e+02 -7.221751691840385945e+01 -8.100268866480101337e+01 1.554703486191336310e+02 -1.806517120401747150e+02 9.167531886417623355e+01 -4.885257777216466479e+00 -4.557950502049835251e+01 1.412181816298350157e+01 9.666971862124866277e+01 5.261146619569187521e+01 1.464755328818662861e+02 -1.686363276293226647e+02 -8.581485230981142820e+01 2.681266181427703543e+01 4.445209983429676015e+01 2.185075460836590935e+02 1.541222074858592919e+02 6.940834808325443817e+01 7.641422617867969791e+01 -3.639716688253101751e+01 1.609360035124739454e+02 -1.899796820818289120e+02 -6.714929997740958356e+01 -5.689865286826722013e+01 -5.488758562847645806e+01 -1.094883100122732884e+02 -1.586290419597601087e+01 -7.275347010827019290e+01 7.545498636853848495e+01 -9.730140239850143757e+00 -6.161994869982919454e+01 -6.610226714342682897e+01 1.909444732468591326e+02 6.245657138814733855e+01 -1.448259458259181898e+01 2.213099766647432602e+02 -1.147462850652434838e+02 -3.745439580798934998e+01 7.093475836356492437e+01 -1.293133864803831801e-01 1.578791920758111367e+01 -1.324296499499163531e+02 1.866461182233988154e+02 -5.195268606637155528e+01 -2.859516584917708926e+01 -1.162187288537836736e+02 1.332969169691625382e+02 1.016086847158291988e+02 -8.212041087017830421e+01 -3.971612171749985976e+01 4.120495737663374314e+01 -1.603279493189914433e+02 -1.050207464073724534e-01 -7.908546313844914266e+01 8.179594933185349248e+00 -1.144842776764783565e+02 -1.678089040034822119e+02 -7.479283665113823076e+01 1.567857682916275337e+02 5.992515412567237121e+01 -9.479660513369110220e+01 9.439027957592765006e+01 3.626190767420579419e+01 9.335799745946732742e+01 -4.454313854266977302e+01 -8.897445366496741315e+01 1.808452195405271539e+02 4.408863485270948246e+01 3.062802261053622033e+01 -7.721958962189123099e+01 -4.472640447129193575e+01 1.014715721919392699e+01 -7.552047195352438180e+00 -1.826514603965276535e+02 -3.655194885973617858e+01 6.809056424113546768e+01 1.179794459734486054e+02 1.644782326676481148e+02 -1.399763074328530088e+01 9.466049192360709696e+01 1.665401274699311500e+02 6.699588089821519077e+01 1.561444195519310938e+02 1.695532677915131359e+01 1.385909003435106683e+02 -8.859253670739219899e+01 5.634907405971453187e+01 3.099742728052489227e+01 8.005112807673037878e+01 -1.120102934010017890e+02 2.087667215141886743e+02 -1.358766363215520414e+02 9.304600105830341761e+01 -1.133017642702235861e+02 4.859357370947663668e+01 1.452849837587122117e+01 9.558803901858999552e+01 -7.763846564189911703e+01 -7.953379920243489209e+01 -1.179019696669998396e+01 9.380887312588204452e+01 -3.114043171177445757e+01 -1.718388965471995888e+01 -2.066514169645091314e+01 4.987256070547471332e+00 1.032659171271293985e+02 -6.584348658604446314e+01 -2.866457880514241108e+00 -2.035960357185479097e+02 1.279023691363466924e+02 -1.309722454962615359e+02 -7.751355117273170947e+01 -2.471705175191605974e+01 -1.131793353052261324e+02 -5.577341209289810564e+01 -6.140661226863633715e+01 -2.060396142357613769e+01 1.429522949696251430e+02 5.669621815860659808e+01 1.053531279037032817e+02 -1.427307241627279382e+02 -1.453526884607541660e+02 -3.003830363186525005e+02 1.070864283251596305e+02 1.094059121539620349e+02 4.429641664241945165e+01 -4.443919940100599320e+01 -3.908159176085103326e+01 -1.925652726747399299e+02 1.533227072529295469e+02 -1.126846589394192648e+02 1.121889592207636070e+02 -1.670505125340405641e+02 -1.499683364037717936e+01 -5.808596211781789975e+01 -1.250777143213688447e+02 -4.834619898912600178e+01 -1.305203165861226289e+01 -9.717901236730511982e+01 -1.086138043517346148e+02 -1.295368035650239946e+01 7.471754014151399304e+01 -1.307815800696897099e+02 -1.645937025227202710e+01 -7.739560315726052409e+01 -1.378951039787710613e+02 7.071293838161216705e+00 9.995075975649631062e+01 1.736527004809836114e+02 -2.003149893291820405e+01 -4.834574475302231633e+01 -1.302562235038503786e+02 -1.716249815222637949e+02 1.088781136346464962e+02 -7.636591763004801692e+01 8.297545830720225979e+01 9.878120218871949021e+00 3.074343470117979393e+01 7.754127999958068074e+01 -8.891892810371076905e+01 8.677061214324669436e+01 1.210174985575249735e+02 1.652138073208897424e+02 -1.224753841841813227e+02 1.091217360095208875e+02 -5.012831700401866897e+01 -9.532990651165076201e+01 2.252538935750775977e+02 5.176229410642704920e+01 8.764084318774978044e+01 2.242198820966000028e+01 -6.626085938011578946e+01 -3.668883135588814071e+01 -2.208862525117997393e+02 1.109056337268828827e+02 8.561131986370729408e+01 -7.949492109227014680e+01 -7.685853824714887139e+01 1.524774510704770876e+02 1.061294227640249090e+02 5.366724599210694180e+01 7.991693354389144588e+01 -8.340558426838322603e+00 1.083780387011338320e+02 -1.086790815310315850e+02 1.958078882902148337e+02 -4.146219639413637026e+01 -1.280879126732144186e+02 -3.951244899664843757e+01 7.535000303463451132e+01 1.547501672743964605e+02 1.363931507925175879e+01 1.825476792089455955e+02 5.484886765101643391e+01 3.528235141117478690e+01 -1.169264056292279861e+02 4.709707845653042568e+01 -1.313697705996312948e+02 5.006398338107694457e+01 4.064429327318927676e+01 -1.295022230558953140e+02 -8.930467992413521472e+01 4.181305944727764512e+01 9.165761907609864423e+00 -2.443156980916942800e+01 4.392743896252497393e+01 -2.247067304561503320e+01 -6.626826812208591377e+01 -2.737627478024027283e+01 -2.362301639555416699e+01 -4.184310605719090859e+01 1.973950437777702760e+01 -8.450326252970005214e+01 1.249462239154926664e+02 -7.811925149607232299e+01 -4.577856656841298388e+00 6.872175035445563651e+01 4.118696035358456520e+00 1.672526451550638882e+01 1.674611014263719966e+01 -1.230535104608065780e+02 -4.652846210573848396e+00 6.833343296927100141e+01 -2.430916722247459916e+02 -8.908235678592184570e+01 -1.184278082219555728e+02 4.598126278167315206e+01 1.010731939739383876e+02 -9.634239720001535545e+01 -1.763340792559755243e+02 -1.943995063132801135e+02 2.099473032700500497e+01 -1.522326775145185991e+02 -6.625742892461114586e+00 1.549382608900612865e+02 -7.498634330508718193e+00 3.899943535840264985e+01 -1.038033291053432663e+02 8.368856897023343322e+01 -1.242277924701318739e+02 -1.611219396220427313e+01 -3.177346008030339064e+01 6.024139284572943609e+01 -9.335551080904622268e+00 1.105713729420216254e+02 -1.276143596660155879e+02 -5.235660248914990689e+01 9.035279737834984815e+01 6.911647333914591229e+01 -8.607000288275530409e+01 -5.679065082517916352e+01 -5.150395346163341515e+01 -3.020024495969458371e+02 2.019449726547510409e+02 7.945350995993639742e+01 -2.465166178197648250e+01 -3.092859711180685878e+01 4.330357843464235401e+01 -8.779881069821544770e+01 1.037928022423467098e+02 6.296307837787900041e+01 8.554829445204447325e+01 -8.761243585487392238e+01 -2.774407942790381298e+01 3.476957626502418464e+01 1.810216082970036311e+01 -4.454555537592122505e+01 1.643248659050452716e+02 -1.801543277173006885e+01 3.680079079091396466e+01 -2.390994242155312293e+02 -8.815349899685411117e+01 -7.614861957916637891e+01 2.393606149139411343e+01 1.135929110606454628e+02 -2.408980101231566948e+02 -1.945280721153533250e+02 2.305993265434754846e+02 -1.099840099316170772e+01 9.995367679177658715e+01 6.530612634875586764e+01 -5.761775809947339155e+01 -1.362546951044974435e+02 -9.897568446372146411e+01 -5.229097355624630694e+01 -3.896484671328623506e+01 -4.071763710650966317e+01 1.685800445907884537e+01 3.856908495218859656e+01 1.734406330953665361e+02 1.280749135624806456e+02 7.150082621374869163e+00 -4.538510558675206141e+00 -1.651982090293915064e+02 1.244321748826374119e+02 1.657207036727021716e+02 -1.075054798962423774e+02 7.669052458485072066e+01 1.909738285063844021e+00 5.704306641963749058e+01 1.305118208869052125e+02 7.377899920350732543e+01 -1.393603620369972873e+02 1.682316247543275978e+01 -3.056017256503826474e+01 1.157962677578256638e+01 -2.416143133907307572e+01 4.720032810789008693e+01 -2.709451764665791984e+02 1.885820614504010848e+02 7.657323696807678992e+00 1.659509709776095292e+02 -1.103205144780537950e+01 1.105893992060299809e+02 7.459694403304739296e+01 -4.378681793785548848e+01 3.109439528072901737e+01 -7.579187607114505454e+01 -9.266371022109677824e+01 -7.514072933089602202e+01 -3.339090162223322267e+01 4.711166658433415932e+01 1.148745516353680785e+02 2.974303188348122262e+01 6.468466181988110009e+01 -1.092940303231907251e+02 -1.430293286840136773e+02 -1.406575290599696615e+01 4.843087278201090840e+01 -4.755368006021721783e+01 9.858079880800931960e+01 5.789779202278377568e+01 -2.886674206608081761e+01 3.126510108786430564e+01 6.402057860031180780e+01 -7.529017643542870530e+01 -1.395808932720871383e+02 1.483511426716829646e+02 8.162942384678606444e+00 5.236640429124057050e+01 -1.558858062502163193e+02 -5.577672561316592237e+01 -5.110343362667921774e-01 -6.858390967771832436e+01 4.475813749979876022e+00 5.879770771934257567e+01 1.948371747365454212e+02 4.088950209651616063e+01 -1.146768905221437329e+01 7.543521583687575571e+01 -4.757974240078748096e+01 -1.139747955406463973e+02 -1.445724128818780514e+02 9.817975453185150414e+00 2.627666173985756615e+01 2.486167624719806213e+01 -5.952327893396811476e+01 1.264938743834349566e+02 -8.464534216405968436e+01 1.343721551785854444e+02 9.142966482926414074e+01 -6.812775982087092075e+01 -8.864208616376892280e+01 8.818138009390243326e+01 2.151281778836858294e+01 -5.496504070792101970e+01 -5.644219909287754433e+01 1.431745093385356995e+02 6.003138264996323414e+01 8.369904327053353654e+01 2.741058528301987707e+01 -4.415906874790032077e+01 1.127475207118573337e+02 -5.722155357890588334e+01 5.304783271074197115e-01 8.036306087535497511e+01 1.044682448579950318e+02 2.680038314662385801e+02 -1.837558039129160079e+02 1.689506586943725495e+02 -7.101115681612701280e+01 -1.597597075584373627e+01 -2.624449393416913523e+01 -2.177773159638370615e+01 -5.801578487800620110e+01 9.758236888290305444e+01 1.934929296756067458e+02 -1.249195925926152739e+02 3.252450231328432295e+01 -1.334805676998340687e+02 7.384495448149961305e+01 -4.686065177347521171e+01 -8.520722995382914178e+01 -5.670819273609797762e+01 4.334517045430003890e+01 2.045237750246586828e+01 -8.623391274795247341e+01 -1.487322046021279220e+02 2.191504176290045791e+01 1.662594068599951527e+02 1.507109959113787845e+01 1.925891495509962681e+02 7.890113625327801472e+00 1.421253565347694803e+02 -3.655226049762111984e+01 9.578420221145441360e+01 -7.549688455136494269e+01 -1.193352119508838598e+02 5.225931794612240111e+01 -6.136790587796922125e+01 -8.302784564385964927e+01 7.717579653112815663e+01 6.787362851393353047e+00 -9.983895201488178373e+01 -1.593444953722382991e+02 1.565867715984399240e+02 -9.445404819412718211e+01 -2.451774884890156159e+00 1.272248042967373607e+02 6.154013039265269924e+01 -1.040837596745121516e+02 1.122802043321997267e+01 2.991115280956090601e+02 5.659578176623991652e+01 -1.673959059800473312e+02 -5.062174582138425194e+01 -6.535265980373013406e+01 1.024507486245603083e+01 1.142138207780225656e+02 -1.098628868512048484e+02 2.287595720666219634e+01 1.386638425245086523e+02 1.995899164458866082e+01 -2.244864754154914408e+02 5.143897781048987383e+01 8.022047076177520353e+01 -1.440961324783005360e+01 3.488682730474842941e+01 1.077701737381627500e-01 2.385545052206209959e+01 2.948671049028799374e+01 1.230979889529356655e+02 1.041645540667026921e+02 1.644250423297694752e+01 1.584420246497821267e+02 -6.806405119033846063e+01 2.622186344902551127e+02 6.911771997024005998e+01 1.506007373959759263e+02 -2.337566062396895106e+01 9.574538279190271339e+01 -5.224594334026343745e+01 -1.556498875253379026e+02 2.788524905887942040e+01 1.012066925365117527e+02 -9.322701349990728659e+01 -1.113915476754069118e+02 -7.076658423777743678e+01 3.889082140027206691e+01 -1.215556665951452970e+02 7.952169268174644401e+01 2.989940935523885202e+01 -1.038361104760415117e+02 2.020917714938241545e+02 -1.251703084461686188e+01 -1.082097633028429016e+02 -1.419769231353345340e+01 -2.173866940165232009e+01 -1.492046239892152926e+02 -4.261414486748055452e+01 6.541980673398488477e+01 1.401667153536646140e+02 3.084437570087377978e+01 2.850463798268321369e+01 4.765587742791647941e+01 -3.808916640400065745e+01 -1.548718399637698155e+02 1.682290959437308686e+01 3.302142535833093007e+01 1.415805964995576858e+02 -1.062910939056757975e+01 -8.103691271503157623e+01 7.790852147362531355e+01 1.085204078244167869e+00 3.410359583034124853e+01 1.482879073836690225e+02 -1.889978797429894257e+02 -9.879420136329872548e+01 1.327217558583052437e+02 -2.230871332679474222e+02 -1.901726706130428965e+02 9.404257642223424796e+01 1.592367865458123788e+02 6.549714316887454402e+01 -4.570405799011915349e+00 1.611298673001264206e+02 -2.269046445090762063e+02 1.108042477965944670e+02 4.382768441125800507e+01 1.314082739153255091e+02 -1.950118771395362671e+02 1.102792731412223048e+02 -2.930261889853507995e+01 -1.382608779887391108e+02 -5.512621669863538187e+00 -9.557176207341078111e+01 -1.696082297991495835e+01 -4.365498974214730765e+00 -1.273813168462960590e+02 -1.275148275885096041e+02 -6.471789954578520110e+01 -1.333387222432309329e+02 2.078591525634417110e+02 -1.664105416581264478e+02 -5.186050857157661653e+01 1.784024611118385906e+02 3.507272295608161983e+01 -3.060422778952805629e+02 -1.313529416675783921e+02 3.675672719961291790e+01 5.648674983848443532e+01 8.958996086175167406e+00 -1.599325126965697734e+02 3.690407881654734012e+01 7.681168507972186532e+00 -7.685371721174598747e+01 2.095747719209866773e+02 2.095199883404586103e+02 4.459734840989945326e+00 -2.155955182986419345e+02 1.302905738546879491e+02 3.184225338817763884e+01 3.820643533662821945e+00 7.928395888333547248e+01 -2.144960581798326018e+02 -1.427533881759774488e+02 1.458713487663186470e+02 1.133556634844605497e+02 5.476466027754447197e+01 1.481516817517618563e+02 -1.843213996805231432e+02 -2.109460892530665177e+01 -1.349017957874864351e+02 4.498905723452009653e+01 -1.073823501613509990e+02 8.997560917132086900e+01 -3.498112301721021566e+01 1.279966047511245009e+01 1.834390335392103282e+02 2.940500006300429447e+01 -2.725157367562139257e+02 -1.306118435059647140e+02 -8.619841218874661593e+01 1.634680842111155243e+02 1.295452049579808929e+01 -5.556493476862760872e+01 3.147790065067147225e+01 6.467670330332894935e+01 -4.096365858111531111e+01 1.111665920263395577e+02 -1.041432547971784288e+02 5.088224087347009572e+01 1.157186605118901639e+02 -3.656819247611100110e+01 -1.014503051640462559e+02 -1.172143742972968852e+02 1.238175956338081107e+02 -5.131750066175716540e+01 2.032190518252042750e+02 5.914431025958192834e+01 1.147333957835112699e+02 1.905668140002265147e+02 8.857924565917427273e+00 -1.284534817637824347e+02 -1.714321872972682570e+02 -1.180915653686314499e+02 4.387481186628765073e+01
-1.378888914738606886e+01 -4.830022908839183060e+00 1.046192366195624572e+02 -2.312693172835992357e+02 1.569549648038700127e+02 6.418875018150293954e+01 1.536345404700146560e+02 -1.304213453933072344e+02 -2.829427131246730731e+00 -2.433110970095347980e+01 -2.216387464142321733e+02 3.309295712559085700e+01 -1.851514242412601163e+01 1.234877020386926461e+02 -1.262441921444439714e+02 6.231349453823788309e+01 1.265720931683783306e+02 -4.638343628589176859e+01 -5.022532336628890448e+01 -2.738430728843322370e+01 6.228204476665748501e+01 6.378727005672507033e+01 3.271439022846688971e+01 -2.348507258491165146e+02 -5.219582275310939679e+01 9.234095925270229088e+01 9.990555060146597555e+00 -1.042638626275577707e+01 -6.720570731315412161e+01 -1.556868650158951439e+01 7.406133988248134870e+01 -1.468436956465692731e+02 -6.246841385867895724e+01 9.106480768398636627e+00 2.094828705131567972e+02 2.141051762702423957e+02 -3.231907897264912322e+01 5.643799500180167428e+01 -2.940848104122149032e-01 -1.410560870499848249e+02 9.694319115116414309e+01 1.083197644316821737e+02 1.095966138874093474e+02 1.182494793068038774e+01 6.252439853924928315e+01 4.860642821225115284e+01 3.927815108722503368e+01 2.957882758454884353e+01 1.113834241147495305e+02 9.062153343862395616e+01 6.627662948201056281e+01 1.645605699143574157e+02 2.499808367617312683e+02 1.974753178270922547e+02 -5.969916025579095731e+01 4.974779762143824513e+01 -6.495285851263793120e+01 5.700216217612032210e+01 -1.939854906542477977e+02 5.705831986691846680e+01 -2.068176238033200036e+02 -1.703584087894701611e+02 1.306012336932601237e+01 -9.303832191898607107e+00 1.712272799141208566e+02 -2.099302658901057157e+02 7.603679940911442259e+01 2.320297132452712958e+02 -7.346777258504296526e+00 -1.965476647968063446e+02 3.598890960785538340e+01 1.992037137775947997e+02 -6.169527933271493936e+01 -2.690444548953939261e+02 -1.035801584506369579e+02 8.861555787771438375e+00 -2.323862273628539015e+02 3.228256439714455439e+01 -1.812720439793969263e+02 -1.875093355779366391e+02 -5.762729678113995391e+01 1.541065525800115381e+02 7.028397663089957348e+01 1.070367969644618888e+01 -8.951936450813620638e+01 -4.306805456332432414e+01 6.445977418191760933e+01 -2.345528509012677318e+02 5.470474733732575601e+01 -7.590408471319311445e+01 -7.893292705250460983e+01 -1.787685825585246278e+02 6.586698202203831443e+01 9.385286526086555625e+01 -1.641903321989985329e+02 1.747065049951427795e+02 -4.038088909517896496e+01 -1.710734034334586440e+01 8.850651376200980280e+01 1.580915101152355362e+02 2.188663457799850676e+01 1.531967620538671042e+02 -1.864658647109174794e+01 -9.177457444442990209e+01 -1.986170185064780114e+01 1.022979948703237199e+02 4.677392482010996133e+01 1.017463432928125826e+02 9.820472018151789939e+01 -8.634429012196680731e+01 -1.767319961510606845e+02 1.280078429097319201e+02 5.644862243016127223e+01 1.675075858448637689e+01 3.181839089224427752e+01 -7.066368176581103455e+01 9.992292686147328595e+01 9.343965129165555084e+01 -1.417814345230578432e+01 -7.410964638592145093e+01 3.207343129803334136e+01 6.518101869392260106e+00 -6.408143236881029736e+01 1.764108293975744459e+02 -3.445439299072423012e+01 1.265846093784752924e+02 -7.300696730631378273e+01 3.995954001409091916e+01 -3.764180899937689873e+01 9.312518559836790644e+01 2.447014967890350334e+01 1.203514592191139911e+02 -1.207711581539317081e+02 7.743017810042877613e+01 1.286567557869700238e+02 -4.660767856983055424e+01 7.847708441399828594e+00 -1.310470367533615565e+01 1.216349260787251438e+02 3.601944938394748164e+00 1.758466659677875441e+02 -1.473892707287924679e+02 1.216622886815560918e+02 -9.528551802097925361e+01 9.979058391290001850e+01 -1.429015826499591810e+02 3.079703222942811536e+01 2.578801555404297119e+01 1.930643130108818495e+00 3.787620204350370301e+01 4.780408486764459042e+01 -1.301130855939688757e+01 1.118958981399300612e+01 1.127738587195841546e+02 1.328201987078161039e+02 -9.041232059813138733e+01 -5.663378272868760632e+01 4.947632752447084670e+01 1.631220804564240456e+00 -1.429315721824720811e+02 -5.746310501850436481e+01 -3.706922649999074082e+01 5.110656765907999244e+01 -6.850265605593038742e+01 2.396874586198982371e+01 1.674970962281374227e+02 -8.304164641352812737e+01 8.436363778728589580e+01 8.790069802925060571e+01 1.168784403981443809e+01 1.290031531154776019e+02 6.574053903617723904e+01 1.757023287553092530e+02 -3.606747241296557860e+01 1.176500187831749145e+02 5.807972970860189577e+01 -1.683520359933498867e+01 2.135725317007495221e+02 -1.452858602979593741e+02 5.114462385755363982e+01 -1.963409893786630107e+02 -8.814996318265866648e+01 4.293489271011025465e+01 -7.560903790595989449e+01 -1.632700327506011035e+02 2.087891901624810487e+02 -8.987444417618917214e+01 -4.975718094574826011e+01 -4.850437420962819601e+01 1.275867504192169406e+02 2.041604664072664548e+02 6.788157687409861296e+01 1.533073332940057583e+02 2.300290303152057163e+02 -1.732337884601480305e+00 1.708295598636891555e+02 7.432938085460220634e+01 1.996203332206059144e+02 -1.318419179244158670e+02 -1.248165427856203635e+01 6.623615638993906707e+00 1.991901642424476790e+02 -9.535689444046731467e+01 -6.334463122669235702e+01 -5.553961674896858369e+01 -1.403891835893079474e+02 4.880866431420611384e+00 -1.058518239424224561e+02 1.615144573050391728e+02 2.474083335429279984e+01 1.261566172170073763e+01 7.582440919896211540e+01 -5.203908432601021872e+00 1.225743854563608011e+02 -1.665224766896180313e+02 4.758372603831687542e+01 -1.792101783231586012e+02 1.231272003587742319e+02 1.006073629292977358e+02 -7.061868593906039848e+01 4.899581155780962405e+01 2.496944425015454385e+02 -3.191206530936651831e+01 4.369338890997760672e+01 -3.424974581595932221e+01 6.074107480054126995e+01 6.743680061604501930e+01 -6.561247104387396334e+00 1.069079304706893083e+02 1.065025635025684636e+02 -2.032846067571477420e+02 -1.606788178938082865e+02 -1.255856750652182257e+02 -9.939139593548793172e+00 -1.570825045009292182e+02 1.211358022297258970e+02 1.157263397577514752e+02 6.178985072749549801e+01 1.169568573739044659e+01 1.653265807704512156e+02 8.802186009013951207e+01 7.073570285667047131e+01 -1.065940134144351958e+02 1.596072218341804216e+02 -3.719230703172552222e+00 1.145604310402521975e+02 9.233196938142510746e+00 3.851729908010255343e+01 -7.937627431640370901e+01 -9.513524483961376177e+01 7.501129306731390045e+01 -3.984229026180211797e+00 1.533198156735633404e+02 -1.319631661196083350e+01 -3.007852263319448216e+00 4.804058497870185818e+01 2.373994252386277992e+01 1.481368644732656321e+02 1.526719145901636487e+01 3.752177854616743957e+01 -1.620494125882532614e+02 6.898964351121028926e+01 1.399709990086195432e+02 -1.858579173510181803e+01 -2.386830945643908990e+02 8.834288177513111862e+01 1.423410031678643008e+02 2.117120848367110142e+01 1.973653696557699391e+02 -4.231966933822352672e+00 4.480387718402176489e+01 -4.543878662781065003e+01 -1.446675700296624711e+02 5.834219273487958191e+01 -4.946434345763163520e+01 -8.453575584918822017e+01 4.292411252293414492e+01 -1.925106633898130326e+02 7.476469588826984136e+01 1.710804023768481272e+02 -1.053836569941900478e+02 1.799624450152002737e+02 -1.016881140584675620e+02 -6.249437794736791396e+00 -1.091463121162414751e+01 7.963182719644136398e+01 -4.838694183006305849e+01 -1.121231898852047379e+02 -9.197887624790372740e+01 1.514670049435355281e+02 6.139956249659837795e+01 -1.367570508448678481e+02 4.635224372199651555e+00 4.513779806419391605e+01 8.574286783226176567e+01 -4.187932763732668917e+01 6.231049542227061266e+01 -7.158697020223387142e+01 -1.685596213661405898e+02 -3.595361782795513506e+01 1.463101964801947474e+02 -1.175831278993283036e+02 -6.692836051229575034e+00 -1.690760149547184596e+02 -4.889624633389392017e+00 -1.513000689388455271e+02 3.407243657697176786e+01 6.230421553086996056e+01 -5.219555165228182148e+01 -8.545816626480302602e+01 5.826959599633996234e+00 7.710554591547447956e+01 -7.024520047425505709e+01 1.396379247774029579e+02 1.092785785724678362e+02 -1.322604496957737013e+02 -1.092373722453171609e+02 1.399322452421191372e+02 7.392767041996796706e+01 1.555265620795938446e+02 1.039446784423901136e+02 8.407551983727563538e+01 -6.236940538862716465e+01 -8.467393569995657288e+01 -7.978561399454835623e+01 2.116119786396988047e+02 3.152400109830654173e+01 -2.573643564902252123e+01 -7.092997603930180617e+01 -5.180012816387614549e+01 -1.356198055950643209e+02 -1.708979826961441972e+01 -1.806869070975913019e+02 1.287965413334098344e+02 4.743736972425261200e+01 -1.187216944065267938e+02 -4.981394239784894751e+01 1.233433706926625604e+02 -9.993525058243031367e+01 1.058811126314257791e+02 -1.219602616968472120e+02 -1.210432143197463795e+01 -9.834289784191865635e+01 9.234182406407506960e+01 -4.375231833682902760e+01 1.069537007619545577e+01 3.016959577222949918e+01 -1.304159073924321319e+02 1.287546316668025526e+01 4.971802565154825260e+01 -2.312005607072119417e+01 -7.076867129601586726e+01 2.083696886898624427e+02 8.896529089940369772e+01 4.854273826062601671e+01 -3.234762107706963974e+01 8.261136714418451277e+01 1.724695320771610056e+02 -9.502366270223528488e+01 2.155162993876299993e+02 -1.369601719202053687e+02 -1.892975798583647986e+02 1.563252067348520882e+02 -2.407172876619173110e+02 -1.066847886968909753e+00 -2.520055249335680685e+02 -1.573902651252745670e+02 7.381563117446700062e+01 -1.498928093219278139e+02 6.008824063595603349e+01 1.130079129415098294e+02 -1.650644668935314314e+02 -3.105180075546281060e+01 7.756526934689371444e+01 1.378183958357006986e+02 -1.914239034319304267e+02 8.995107578273555760e+01 -1.007658058255790792e+02 -1.018520699511407912e+01 -1.432089614074016382e+01 -8.189993330009203021e+01 -9.294924896076707910e+01 1.865956708137401847e+02 -2.226673663171334994e+01 1.351991456079450149e+00 1.339776629266386294e+02 -8.914426627560160910e+01 -3.542370260530011450e+01 -1.107651001820754857e+02 -5.029519504599725366e+01 5.366488606530633199e+00 6.118402465431319115e+01 -1.391870570566954370e+02 2.444998324860970342e+02 -5.561840983988513898e+01 1.266304018793236281e+02 -5.040090621004118532e+01 1.237124926832504741e+02 1.435543016959966280e+02 4.963670561889772870e+01 1.261725918663193653e+02 -4.465576710895724233e+01 1.446162636257944030e+02 -1.616084884564529887e+02 -6.757176788044834836e+01 -6.508349333596213171e+01 2.634374339457889036e+01 -1.677771482868310784e+02 7.501089387786204554e+01 -3.187083965872255575e+01 -8.543297313777969748e+01 9.266389157659833131e+01 -1.562029967853887626e+02 -9.427749434361358283e+01 -5.433311884393767599e+01 3.421405259990482506e+01 1.342382403564617448e+02 1.208736482741478113e+02 7.151292947338694717e+01 -1.710949112602739852e+00 1.807255663245671258e+02 1.266715991315739558e+02 -9.757879001173583333e+01 -8.084826067643878389e+01 5.753046488467234809e+01 1.036361275837215423e+01 1.012848566805677564e+02 1.722114061705488552e+02 7.294364977846240095e+01 2.515247335823681141e+01 -1.055906723614240263e+02 1.776070366567020642e+02 -1.175030278647922586e+02 -1.708100187393197018e+02 6.789544789548921244e+01 1.151634765482940566e+02 2.025685737203180281e+01 -1.434312876707150224e+02 3.074455505528928612e+01 4.384830764081721100e+01 -2.804998213950357644e-01 1.351882453312150574e+02 1.006115706042291151e+02 1.765596046290319876e+01 8.089294862153518295e+01 -1.105724853309079663e+02 -6.456840141951098566e+00 1.014846625756978540e+02 3.062897949279526344e+01 -6.713537616286870957e+01 2.043475621441831152e+02 2.384848610151327364e+02 -1.295925059813378937e+02 -2.845796213993413559e+01 -2.169514380647465828e+02 -7.447484263392625792e+01 1.616420949003467058e+02 3.557819764237600602e+00 -7.322515922464634741e+01 1.690072021241390985e+02 -6.451872019179758411e+01 -1.656331658531550204e+02 1.408247867473016868e+02 -6.936414369409037306e+01 3.547213936245738353e+01 8.908447426403267855e+01 1.419333036581089758e+01 -2.455984088494385844e+02 4.356276406998550499e+01 -6.276223971787867839e+00 9.282858779135597160e+01 -2.428406584542717894e+01 1.043487642983162402e+02 1.745735094599845283e+01 -8.744930242934543685e+01 -2.109478207766754565e+01 -1.805892689633067221e+02 1.185466478294449644e+02 2.603278017259421162e+01 -4.292482198243542513e+01 -5.341916972471167924e+01 -6.475257869221874785e+01 4.233384523068119876e+01 1.656087266367370034e+02 1.367851908481584644e+02 4.442225722121490605e+01 -2.039222700368841572e+02 -3.998000946243180920e+01 4.514120339143460825e+01 1.209695869353107867e+02 8.995083955079979887e+01 1.595038407616605269e+01 -1.917776891432625348e+02 1.358170299996167785e+02 -2.306513299781199180e+02 -2.121367643695166976e+02 -1.927456159402138880e+00 -7.605528823017881734e+01 -2.477435449624880448e+01 8.982562741148593943e+01 5.764749434496381753e+01 -1.146618724986027615e+02 -1.560793549635573925e+02 1.506018570259691280e+01 1.275030799229037655e+02 2.138379133637286600e+01 -5.845757646764479887e+01 -5.315809689224471413e+01 -1.221535596996537798e+01 1.663410742032814653e+02 2.307862243962759408e+01 -1.821454300237861332e+02 1.345269824595960415e+02 -7.004067201481866789e+01 -4.385214081847057521e+00 1.615820012988642418e+02 -5.492049401248755203e+01 -2.053168863791606924e+01 -1.152628264399986762e+02 -6.316460192303429366e+00 -2.505030617396394987e+01 1.382522282252109846e+02 1.260547361235229431e+02 7.091438495396937469e+01 6.859792919382989851e+01 -1.964396268185463867e+01 1.419569367280855943e+02 -1.182821709579396412e+02 -4.485297500197348519e+00 -9.554766764843867577e+01 1.649638102029200581e+02 7.656183954576582096e+01 5.428402688174009683e+01 8.720488927264327117e+00 -5.587712234502341602e+01 3.608391939242662971e+01 7.117155392579852524e+00 3.709924841076941426e+00 2.533021202703487518e+01 6.272546686560283291e+01 1.786372657252351530e+02 -4.069672262630880510e+01 -5.457196264623544835e+01 7.006201370965436581e+01 1.213798092862062106e+02 -1.343032057010085190e+01 9.640424658914612621e+01 1.090622495934846512e+02 2.210529399180009591e+02 -9.080942150845046967e+01 -1.287451255776620940e+02 -3.002929438218548697e+01 6.515216351433056730e+01 -1.064146159616566756e+01 1.126824770152650501e+02 3.903335739689343598e+01 -1.705812058386004253e+02 4.726943414244617259e+01 -9.382346811713890133e+01 -1.418965466442539309e+02 1.410360793206673407e+02 -7.967621125538538251e+01 6.196291190798658732e+01 1.166398192245651018e+02 -1.038709229211871587e+02 2.456887909922583546e+01 -7.563351057263048460e+01 4.216119894977290983e+01 -1.200068317857186884e+02 6.447481945746113752e+01 5.725047358798533992e+01 4.171144189213384479e+00 8.811726291514104048e+01 -1.602617311614511380e+02 8.001649370485833401e+01 -3.055891421480070136e+01 -1.756762509784090298e+02 9.819838307642653774e+01 2.546127185729449138e+01 -2.040454574204186713e+02 2.445723267510414587e+02 -5.424210991848499308e-01 1.093804001505310453e+02 -1.254185961312734605e+02 -2.019543424984168780e+02 -9.703403106029651326e+01 2.543579379705642740e+00 1.486438911281599360e+02 4.221179638337410722e+00 -9.936654160753880660e+01 5.248454639019050916e+01 1.425158010585568604e+02 6.760782656584201789e+01 -5.384242687244626069e+01 -6.148916987773825582e+01 8.788567863977500849e+01 3.202154316893665253e+01 -2.032958025737711978e+02 -2.156510324715280547e+01 1.757983608351700866e+02 1.028256867422674929e+02 -5.958262480536784267e+01 -1.162655438938609223e+02 -4.439734513658025605e+01 -4.999743949069102911e+01 -1.190232456696003851e+02 -1.928051629817167623e+01 -4.749189019595628025e+01 -1.181420026363275468e+02 -1.370862044830910236e+02 -2.796282615987175646e+01 -1.306500423467774965e+02 -1.390474007704586938e+02 -3.985986903662049485e+01 -5.759318009623070367e+01 -1.153835052337175426e+02 2.006071331308874619e+02 1.136018864098455339e+01 -3.033043391112668274e+01 -1.834597131097406120e+01 8.477557184557346659e+01 1.683837203566858420e+01 2.699478777028301124e+01 -2.300409907769039819e+01 -4.975145890838329166e+01 2.255937054472660108e+01 -1.566293560043675370e+02 -1.715863507231807148e+02 -9.753061693138249666e+01 -2.056734164733208559e+02 -9.661051431917586285e+01 9.253098688472290689e+01 6.614206545158509698e+01 -2.810694303307437636e+01 6.549713367830383959e+01 -1.686800607415755167e+02 -4.391059946457399832e+01 -1.251273519263329206e+02 -7.195077120158032358e+01 2.272546740258515854e+02 -2.212418371918465141e+02 2.212283160628728353e+02 2.698487264640692018e+01 -6.090553182020687473e+01 9.948495463644799486e+01 1.337369469442227512e+02 -5.593113407217713728e+01 -2.195110711332270341e+02 -1.606952441528662234e+02 1.101950763642897044e+02 9.027983663661342462e+01 -1.461551002549796578e+02 3.447740273772406283e+01 -4.271372689430302927e+01 -8.341522844144080295e+01 -3.062944146503152254e+01 -5.911400883575024068e+01 -9.319246780022383803e+01 -3.664645099537269601e+01 4.763129852243493723e+00 -3.531616801973921582e+01 -4.628543280361606116e-01 -1.553415590672206115e+01 9.918774467717501864e+01 1.369160725826631051e+02 1.420670243166599356e+01 1.807505301828817323e+01 -6.796343284522747297e+01 -2.112008474952022254e+02 3.649429457243907393e+01 -9.889650140341458950e+01 2.781806874816083663e+01 -8.896400460892042616e+00 1.040697748704491721e+00 7.775400650201194708e+01 1.313342395009100017e+02 -7.590388735792980412e+01 4.095221499643544405e+01 -2.077401286367078512e+02 1.039586848914301243e+01 7.630207335288975656e+00 -1.320506698066863578e+02 -3.637212951455083498e+01 -4.777047238266339235e+01 5.155226013563997789e+00 -1.102144801621990666e+02 2.916632013468040441e+01 -1.052550405163171803e+02 6.056393865463859782e+01 7.308225606124017304e+01 3.972082009360773469e+01 -3.127748061669688084e+01 1.157519972207612824e+02 6.576650100971416180e+01 8.617964730111164329e+01 -7.215464346741869406e+01 2.192907726250290068e+01 1.377990338827987955e+02 -6.295623697061056134e+01 -7.438993275106093428e+00 3.446902376927543799e+01 -1.382614977957711346e+02 1.053762679455403486e+02 9.646236596034064803e+01 -1.088442026642436957e+02 -8.868252591738436763e+01 -5.975428639081206228e+01 -4.894917540653048604e+01 -1.726030346819518115e+02 -1.463501529785094988e+02 -1.425621978705796664e+02 1.137148051658824954e+02 6.427535330341366659e+01 1.716169226417652851e+02 7.727697623509951264e+00 -9.232210219689775954e+01 2.011372509035514611e+01 1.488684583440908682e+01 -6.823744944262612933e+01 7.963581106851341929e+01 1.269649325437606251e+02 1.078931909256949062e+01 1.542721854870763423e+02 2.423288961731025282e+01 1.193118880224922265e+02 1.626601363105172027e+01 -2.233403129804090383e+02 2.347189263120036458e+02 -5.259838278311835325e+01 -1.603374057506315182e+02 -7.220603270033215892e+01 -4.620794436068724309e+01 4.416366804854020245e+01 2.734121955677820281e+01 4.884308337428473834e+01 -7.923112369394020504e+01 1.307051783723424023e+02 -9.211250712507693095e+01 -7.481405129795170694e+00 1.521331766346100949e+02 1.170532300384533499e+02 6.183545774524878880e+01 -1.888193205127847136e+02 2.712366629172468890e+01 1.497377600081179025e+02 2.499413309399415084e+01 1.039720485152060263e+02 1.133708616297053879e+02 -2.249679987715589959e+02 8.186919339120335337e+01 -6.145343887022693963e+01 -2.391827927724123413e+02 9.406754981561985574e+01 2.612433759151490875e+01 -1.290719110886488181e+02 -6.186598248118223609e+01 1.464801892918767976e+02 1.553651681600616143e+02 -7.970349375041287487e+01 -1.342755430180825726e+02 -8.760130910180286889e+01 -1.739545637991054434e+02 2.047918216472482555e+01 3.965465155338101511e+01 -1.765511238451762210e+01 -1.291837525850753821e+01 -9.335603175001935483e+01 -9.221623160720000101e+01 -2.565550688212816510e+01 1.391043788822425711e+02 1.414746295926356936e+02 8.416140322750887037e+01 1.005726065109397922e+02 -8.145285065630142185e+01 -1.866852059435020408e+02 -1.372391979068435397e+01 -2.399093381529443292e+01 -7.325932098296652839e+01 1.563147996759975733e+00 7.544671822533142347e+01 -5.464591881322535016e+01 2.535768738646664389e+01 8.171213042659586279e+01 7.233711735340925486e+01 1.140413199935136674e+02 -1.540003325503001008e+02 4.092434885195694960e+01 8.598553070915828300e+01 9.780280650505358153e+01 6.099724307070603402e+01 -1.065597457148271587e+02 1.413512667481698486e+02 1.315221502110876486e+02 9.889359964780224743e+01 1.047821085268749925e+02 -8.694944508963962448e+01 -1.536686943574406072e+01 -1.331392467330560159e+01 7.956250617903148736e+01 6.704588241638157342e+01 5.770465710161674622e+01 1.007461117492340605e+02 1.201768816833848206e+02 1.277641883131008882e+02 -6.707230060574985941e+01 8.316253458938666654e+01 6.736330242082118502e+01 -1.214299966212939097e+02 1.358239158059236615e+02 -1.038039117067351036e+01 -2.880417629840410498e+01 2.056631566457699023e+02 9.128963394259683639e+01 1.280919595071712251e+02 -1.490078150781046418e+02 -1.629217822555146995e+02 -1.588831368459325404e+02 -1.262356375756908307e+02 -4.575389658088524669e+01 1.135452444425657887e+02 -1.742962340096386527e+02 3.366139889575772770e+01 1.492709918798579452e+02 -6.135495547183192144e+01 -9.450860034307400781e+01 -3.630096826615521621e+01 1.406499207094042276e+02 2.352844490001736233e+02 -6.892095431128308292e+01 2.050225664708799300e+01 -2.870494016684560279e+01 7.091814255841781289e+01 6.244425685555387417e+01 -2.208718072795520015e+02 -9.184441888848581925e+01 1.425260277866362912e+02 1.448786295754981381e+02 9.797968766444226674e+01 -5.158341116130829107e+01 -7.861107467988902897e+01 -4.711896117196373979e+01 -1.829741487295844422e+02 7.382203761996426294e+01 -2.665003290314179907e+01 1.725806503473463636e+02 -2.894554093937857076e+01 -3.262410860443407046e+02 1.503234996740077918e+02 5.227870438969668498e+01 -1.224378269211448611e+02 -2.293568564061909854e+01 3.666463675924921972e+01 -2.155159730215410718e+02 -1.186513323610386976e+02 -1.137053814697456460e+02 -5.864063817143934898e+01 6.523653840044777041e+01 -1.710857981883869456e+02 1.121177102613138743e+02 -5.639258355425526048e+01 3.000486992910399664e+00 -1.385514856285032295e+02 -1.075075034427760983e+02 1.826651187531606126e+02 9.001006135389273766e+01 -4.387716543845808559e+01 3.865663882133861762e+01 -2.916795058712789768e+01 4.483307016195966099e+01 -1.087003805913129497e+02 1.026175304090013753e+02 5.251879105123899194e+01 -1.235945452122338821e+02 1.213641241781567146e+02 -5.111540812235048747e+01 1.038756958507232895e+02 -5.138268043746337810e+01 9.191912731213312782e+01 -1.595286988226167750e+02 1.483470208298981845e+02 2.577278345759660638e+01 1.046353948453719624e+02 1.356153326823501004e+02 -1.525116956962249049e+02 -8.933573174377039550e+01 -1.098691469108918994e+02 6.958827772867473982e+01 -1.782519825155089279e+02 1.575296712965881341e+02 1.482120475457052748e+02 5.514778343595856569e+01 -8.834163375757523795e+01 5.936065252640922552e+01 -1.116218923299570349e+02 -1.143425850317495751e+01 3.643829686385223710e+01 -1.912564005520249282e+02 -8.496855993031454091e+01 -1.409168241170156399e+01 1.064436579071454219e+02 -5.226041518148277731e+01 1.131336558804997026e+02 -6.702297337063190241e+01 -2.195853816393703823e+02 -1.115514627685122377e+02 -3.554989672080305496e+01 -6.271743867226258828e+01 3.137656014447209785e+01 5.347122597348948148e+01 6.634717262723246023e+00 2.627507587430012848e+01 -1.221647249269427533e+02 5.604222171912272188e+01 3.399413836562721514e+01 -7.527825975139977288e+01 9.624334244526492554e+00 5.863092129820701359e+01 -9.947894576891074792e+01 -5.738965598892122699e+01 -2.513211159643928028e+01 1.017942257658562824e+02 -1.785720371260160988e+01 4.369511441369008153e+00 -2.377437284624556355e+02 -9.914417847765189151e+01 1.031619223728217918e+02 -9.315201814690828996e+01 3.269730032162364353e+01 3.241650785933587997e+01 3.962147275834909266e+01 6.894718350207918434e+01 -1.851355001944831997e+02 1.501813126554169742e+02 8.491881186568200235e+01 -7.811467446829840178e+00 -8.431837745987684229e+01 1.168455407127176784e+02 6.478968369831356711e+01 -2.097901621158152921e+02 -5.259608688482977357e+01 -8.521392215129237968e+01 -5.414869862921411681e+01 -6.468422422242069558e+01 -1.034400205984113796e+02 -6.302407111240176363e+01 1.998045779440873844e+02 -1.783012968692647462e+02 6.837047494081284071e+01 2.894985928586938684e+01 -7.844860599013030367e+01 1.081768539451302225e+01 -4.111505987444230215e+01 3.563204636539725190e+00 -1.003162049709600865e+02 -2.061824515735457624e+02 1.919678664756502684e+01 4.377614291819793380e+01 -1.336586070802071191e+01 -9.490486073799296207e+00 -4.153149425231494263e+01 -1.983183692171528207e+02 -3.202237640070906366e+01 -6.825864484770873730e+01 1.462304628605064316e+01 -1.628922690501598325e+01 9.448580501205840676e+01 -6.580781267302008075e+01 -1.082956666022367926e+02 -3.738199754158419097e+01 -9.456573766130082603e+00 4.760027084551197873e+01 -2.315181521743956594e+01 -7.689988814243909587e+01 -1.656464591414842857e+01 2.098479542557073074e+01 4.960940060353134839e+01 -1.191076424388300410e+02 -1.452219849452308722e+02 2.405611698167727752e+02 -2.279589827909359485e+02 -7.936749449769968123e+01 -4.843939839122035806e+01 1.461124035401714707e+02 6.611195968641963816e+01 2.389924694686414739e+02 2.556487112169643012e+02 -6.508240906379374735e+01 1.352911747527033697e+02 -5.835691118513206987e+01 -4.261841403620098845e+01 -1.051878905772471029e+02 -8.341936545481682685e+01 -7.272178439468689248e+01 -9.293771111994188061e+01 -2.546637223098972811e+02 -2.830347088972071674e+02 1.407513085917308899e+02 -2.769915456598421954e+01 5.564216162651042197e+01 1.366660016301720191e+02
