# 
#                 ----------------------------------------------------
#                 Data from a 3D direct N-body simulation. 
# 
#                 rows are i-particle; 
#                 coumns are :mass, tag, x ,y, z, vx, vy, vz, ax, ay, az
# 
#                 NTHU, Computational Physics Lab
# 
#                 ----------------------------------------------------
#                 Time = 5.399999999999929
1.000000000000000000e+00 2.000000000000000000e+00 3.000000000000000000e+00 4.000000000000000000e+00 5.000000000000000000e+00 6.000000000000000000e+00 7.000000000000000000e+00 8.000000000000000000e+00 9.000000000000000000e+00 1.000000000000000000e+01 1.100000000000000000e+01 1.200000000000000000e+01 1.300000000000000000e+01 1.400000000000000000e+01 1.500000000000000000e+01 1.600000000000000000e+01 1.700000000000000000e+01 1.800000000000000000e+01 1.900000000000000000e+01 2.000000000000000000e+01 2.100000000000000000e+01 2.200000000000000000e+01 2.300000000000000000e+01 2.400000000000000000e+01 2.500000000000000000e+01 2.600000000000000000e+01 2.700000000000000000e+01 2.800000000000000000e+01 2.900000000000000000e+01 3.000000000000000000e+01 3.100000000000000000e+01 3.200000000000000000e+01 3.300000000000000000e+01 3.400000000000000000e+01 3.500000000000000000e+01 3.600000000000000000e+01 3.700000000000000000e+01 3.800000000000000000e+01 3.900000000000000000e+01 4.000000000000000000e+01 4.100000000000000000e+01 4.200000000000000000e+01 4.300000000000000000e+01 4.400000000000000000e+01 4.500000000000000000e+01 4.600000000000000000e+01 4.700000000000000000e+01 4.800000000000000000e+01 4.900000000000000000e+01 5.000000000000000000e+01 5.100000000000000000e+01 5.200000000000000000e+01 5.300000000000000000e+01 5.400000000000000000e+01 5.500000000000000000e+01 5.600000000000000000e+01 5.700000000000000000e+01 5.800000000000000000e+01 5.900000000000000000e+01 6.000000000000000000e+01 6.100000000000000000e+01 6.200000000000000000e+01 6.300000000000000000e+01 6.400000000000000000e+01 6.500000000000000000e+01 6.600000000000000000e+01 6.700000000000000000e+01 6.800000000000000000e+01 6.900000000000000000e+01 7.000000000000000000e+01 7.100000000000000000e+01 7.200000000000000000e+01 7.300000000000000000e+01 7.400000000000000000e+01 7.500000000000000000e+01 7.600000000000000000e+01 7.700000000000000000e+01 7.800000000000000000e+01 7.900000000000000000e+01 8.000000000000000000e+01 8.100000000000000000e+01 8.200000000000000000e+01 8.300000000000000000e+01 8.400000000000000000e+01 8.500000000000000000e+01 8.600000000000000000e+01 8.700000000000000000e+01 8.800000000000000000e+01 8.900000000000000000e+01 9.000000000000000000e+01 9.100000000000000000e+01 9.200000000000000000e+01 9.300000000000000000e+01 9.400000000000000000e+01 9.500000000000000000e+01 9.600000000000000000e+01 9.700000000000000000e+01 9.800000000000000000e+01 9.900000000000000000e+01 1.000000000000000000e+02 1.010000000000000000e+02 1.020000000000000000e+02 1.030000000000000000e+02 1.040000000000000000e+02 1.050000000000000000e+02 1.060000000000000000e+02 1.070000000000000000e+02 1.080000000000000000e+02 1.090000000000000000e+02 1.100000000000000000e+02 1.110000000000000000e+02 1.120000000000000000e+02 1.130000000000000000e+02 1.140000000000000000e+02 1.150000000000000000e+02 1.160000000000000000e+02 1.170000000000000000e+02 1.180000000000000000e+02 1.190000000000000000e+02 1.200000000000000000e+02 1.210000000000000000e+02 1.220000000000000000e+02 1.230000000000000000e+02 1.240000000000000000e+02 1.250000000000000000e+02 1.260000000000000000e+02 1.270000000000000000e+02 1.280000000000000000e+02 1.290000000000000000e+02 1.300000000000000000e+02 1.310000000000000000e+02 1.320000000000000000e+02 1.330000000000000000e+02 1.340000000000000000e+02 1.350000000000000000e+02 1.360000000000000000e+02 1.370000000000000000e+02 1.380000000000000000e+02 1.390000000000000000e+02 1.400000000000000000e+02 1.410000000000000000e+02 1.420000000000000000e+02 1.430000000000000000e+02 1.440000000000000000e+02 1.450000000000000000e+02 1.460000000000000000e+02 1.470000000000000000e+02 1.480000000000000000e+02 1.490000000000000000e+02 1.500000000000000000e+02 1.510000000000000000e+02 1.520000000000000000e+02 1.530000000000000000e+02 1.540000000000000000e+02 1.550000000000000000e+02 1.560000000000000000e+02 1.570000000000000000e+02 1.580000000000000000e+02 1.590000000000000000e+02 1.600000000000000000e+02 1.610000000000000000e+02 1.620000000000000000e+02 1.630000000000000000e+02 1.640000000000000000e+02 1.650000000000000000e+02 1.660000000000000000e+02 1.670000000000000000e+02 1.680000000000000000e+02 1.690000000000000000e+02 1.700000000000000000e+02 1.710000000000000000e+02 1.720000000000000000e+02 1.730000000000000000e+02 1.740000000000000000e+02 1.750000000000000000e+02 1.760000000000000000e+02 1.770000000000000000e+02 1.780000000000000000e+02 1.790000000000000000e+02 1.800000000000000000e+02 1.810000000000000000e+02 1.820000000000000000e+02 1.830000000000000000e+02 1.840000000000000000e+02 1.850000000000000000e+02 1.860000000000000000e+02 1.870000000000000000e+02 1.880000000000000000e+02 1.890000000000000000e+02 1.900000000000000000e+02 1.910000000000000000e+02 1.920000000000000000e+02 1.930000000000000000e+02 1.940000000000000000e+02 1.950000000000000000e+02 1.960000000000000000e+02 1.970000000000000000e+02 1.980000000000000000e+02 1.990000000000000000e+02 2.000000000000000000e+02 2.010000000000000000e+02 2.020000000000000000e+02 2.030000000000000000e+02 2.040000000000000000e+02 2.050000000000000000e+02 2.060000000000000000e+02 2.070000000000000000e+02 2.080000000000000000e+02 2.090000000000000000e+02 2.100000000000000000e+02 2.110000000000000000e+02 2.120000000000000000e+02 2.130000000000000000e+02 2.140000000000000000e+02 2.150000000000000000e+02 2.160000000000000000e+02 2.170000000000000000e+02 2.180000000000000000e+02 2.190000000000000000e+02 2.200000000000000000e+02 2.210000000000000000e+02 2.220000000000000000e+02 2.230000000000000000e+02 2.240000000000000000e+02 2.250000000000000000e+02 2.260000000000000000e+02 2.270000000000000000e+02 2.280000000000000000e+02 2.290000000000000000e+02 2.300000000000000000e+02 2.310000000000000000e+02 2.320000000000000000e+02 2.330000000000000000e+02 2.340000000000000000e+02 2.350000000000000000e+02 2.360000000000000000e+02 2.370000000000000000e+02 2.380000000000000000e+02 2.390000000000000000e+02 2.400000000000000000e+02 2.410000000000000000e+02 2.420000000000000000e+02 2.430000000000000000e+02 2.440000000000000000e+02 2.450000000000000000e+02 2.460000000000000000e+02 2.470000000000000000e+02 2.480000000000000000e+02 2.490000000000000000e+02 2.500000000000000000e+02 2.510000000000000000e+02 2.520000000000000000e+02 2.530000000000000000e+02 2.540000000000000000e+02 2.550000000000000000e+02 2.560000000000000000e+02 2.570000000000000000e+02 2.580000000000000000e+02 2.590000000000000000e+02 2.600000000000000000e+02 2.610000000000000000e+02 2.620000000000000000e+02 2.630000000000000000e+02 2.640000000000000000e+02 2.650000000000000000e+02 2.660000000000000000e+02 2.670000000000000000e+02 2.680000000000000000e+02 2.690000000000000000e+02 2.700000000000000000e+02 2.710000000000000000e+02 2.720000000000000000e+02 2.730000000000000000e+02 2.740000000000000000e+02 2.750000000000000000e+02 2.760000000000000000e+02 2.770000000000000000e+02 2.780000000000000000e+02 2.790000000000000000e+02 2.800000000000000000e+02 2.810000000000000000e+02 2.820000000000000000e+02 2.830000000000000000e+02 2.840000000000000000e+02 2.850000000000000000e+02 2.860000000000000000e+02 2.870000000000000000e+02 2.880000000000000000e+02 2.890000000000000000e+02 2.900000000000000000e+02 2.910000000000000000e+02 2.920000000000000000e+02 2.930000000000000000e+02 2.940000000000000000e+02 2.950000000000000000e+02 2.960000000000000000e+02 2.970000000000000000e+02 2.980000000000000000e+02 2.990000000000000000e+02 3.000000000000000000e+02 3.010000000000000000e+02 3.020000000000000000e+02 3.030000000000000000e+02 3.040000000000000000e+02 3.050000000000000000e+02 3.060000000000000000e+02 3.070000000000000000e+02 3.080000000000000000e+02 3.090000000000000000e+02 3.100000000000000000e+02 3.110000000000000000e+02 3.120000000000000000e+02 3.130000000000000000e+02 3.140000000000000000e+02 3.150000000000000000e+02 3.160000000000000000e+02 3.170000000000000000e+02 3.180000000000000000e+02 3.190000000000000000e+02 3.200000000000000000e+02 3.210000000000000000e+02 3.220000000000000000e+02 3.230000000000000000e+02 3.240000000000000000e+02 3.250000000000000000e+02 3.260000000000000000e+02 3.270000000000000000e+02 3.280000000000000000e+02 3.290000000000000000e+02 3.300000000000000000e+02 3.310000000000000000e+02 3.320000000000000000e+02 3.330000000000000000e+02 3.340000000000000000e+02 3.350000000000000000e+02 3.360000000000000000e+02 3.370000000000000000e+02 3.380000000000000000e+02 3.390000000000000000e+02 3.400000000000000000e+02 3.410000000000000000e+02 3.420000000000000000e+02 3.430000000000000000e+02 3.440000000000000000e+02 3.450000000000000000e+02 3.460000000000000000e+02 3.470000000000000000e+02 3.480000000000000000e+02 3.490000000000000000e+02 3.500000000000000000e+02 3.510000000000000000e+02 3.520000000000000000e+02 3.530000000000000000e+02 3.540000000000000000e+02 3.550000000000000000e+02 3.560000000000000000e+02 3.570000000000000000e+02 3.580000000000000000e+02 3.590000000000000000e+02 3.600000000000000000e+02 3.610000000000000000e+02 3.620000000000000000e+02 3.630000000000000000e+02 3.640000000000000000e+02 3.650000000000000000e+02 3.660000000000000000e+02 3.670000000000000000e+02 3.680000000000000000e+02 3.690000000000000000e+02 3.700000000000000000e+02 3.710000000000000000e+02 3.720000000000000000e+02 3.730000000000000000e+02 3.740000000000000000e+02 3.750000000000000000e+02 3.760000000000000000e+02 3.770000000000000000e+02 3.780000000000000000e+02 3.790000000000000000e+02 3.800000000000000000e+02 3.810000000000000000e+02 3.820000000000000000e+02 3.830000000000000000e+02 3.840000000000000000e+02 3.850000000000000000e+02 3.860000000000000000e+02 3.870000000000000000e+02 3.880000000000000000e+02 3.890000000000000000e+02 3.900000000000000000e+02 3.910000000000000000e+02 3.920000000000000000e+02 3.930000000000000000e+02 3.940000000000000000e+02 3.950000000000000000e+02 3.960000000000000000e+02 3.970000000000000000e+02 3.980000000000000000e+02 3.990000000000000000e+02 4.000000000000000000e+02 4.010000000000000000e+02 4.020000000000000000e+02 4.030000000000000000e+02 4.040000000000000000e+02 4.050000000000000000e+02 4.060000000000000000e+02 4.070000000000000000e+02 4.080000000000000000e+02 4.090000000000000000e+02 4.100000000000000000e+02 4.110000000000000000e+02 4.120000000000000000e+02 4.130000000000000000e+02 4.140000000000000000e+02 4.150000000000000000e+02 4.160000000000000000e+02 4.170000000000000000e+02 4.180000000000000000e+02 4.190000000000000000e+02 4.200000000000000000e+02 4.210000000000000000e+02 4.220000000000000000e+02 4.230000000000000000e+02 4.240000000000000000e+02 4.250000000000000000e+02 4.260000000000000000e+02 4.270000000000000000e+02 4.280000000000000000e+02 4.290000000000000000e+02 4.300000000000000000e+02 4.310000000000000000e+02 4.320000000000000000e+02 4.330000000000000000e+02 4.340000000000000000e+02 4.350000000000000000e+02 4.360000000000000000e+02 4.370000000000000000e+02 4.380000000000000000e+02 4.390000000000000000e+02 4.400000000000000000e+02 4.410000000000000000e+02 4.420000000000000000e+02 4.430000000000000000e+02 4.440000000000000000e+02 4.450000000000000000e+02 4.460000000000000000e+02 4.470000000000000000e+02 4.480000000000000000e+02 4.490000000000000000e+02 4.500000000000000000e+02 4.510000000000000000e+02 4.520000000000000000e+02 4.530000000000000000e+02 4.540000000000000000e+02 4.550000000000000000e+02 4.560000000000000000e+02 4.570000000000000000e+02 4.580000000000000000e+02 4.590000000000000000e+02 4.600000000000000000e+02 4.610000000000000000e+02 4.620000000000000000e+02 4.630000000000000000e+02 4.640000000000000000e+02 4.650000000000000000e+02 4.660000000000000000e+02 4.670000000000000000e+02 4.680000000000000000e+02 4.690000000000000000e+02 4.700000000000000000e+02 4.710000000000000000e+02 4.720000000000000000e+02 4.730000000000000000e+02 4.740000000000000000e+02 4.750000000000000000e+02 4.760000000000000000e+02 4.770000000000000000e+02 4.780000000000000000e+02 4.790000000000000000e+02 4.800000000000000000e+02 4.810000000000000000e+02 4.820000000000000000e+02 4.830000000000000000e+02 4.840000000000000000e+02 4.850000000000000000e+02 4.860000000000000000e+02 4.870000000000000000e+02 4.880000000000000000e+02 4.890000000000000000e+02 4.900000000000000000e+02 4.910000000000000000e+02 4.920000000000000000e+02 4.930000000000000000e+02 4.940000000000000000e+02 4.950000000000000000e+02 4.960000000000000000e+02 4.970000000000000000e+02 4.980000000000000000e+02 4.990000000000000000e+02 5.000000000000000000e+02 5.010000000000000000e+02 5.020000000000000000e+02 5.030000000000000000e+02 5.040000000000000000e+02 5.050000000000000000e+02 5.060000000000000000e+02 5.070000000000000000e+02 5.080000000000000000e+02 5.090000000000000000e+02 5.100000000000000000e+02 5.110000000000000000e+02 5.120000000000000000e+02 5.130000000000000000e+02 5.140000000000000000e+02 5.150000000000000000e+02 5.160000000000000000e+02 5.170000000000000000e+02 5.180000000000000000e+02 5.190000000000000000e+02 5.200000000000000000e+02 5.210000000000000000e+02 5.220000000000000000e+02 5.230000000000000000e+02 5.240000000000000000e+02 5.250000000000000000e+02 5.260000000000000000e+02 5.270000000000000000e+02 5.280000000000000000e+02 5.290000000000000000e+02 5.300000000000000000e+02 5.310000000000000000e+02 5.320000000000000000e+02 5.330000000000000000e+02 5.340000000000000000e+02 5.350000000000000000e+02 5.360000000000000000e+02 5.370000000000000000e+02 5.380000000000000000e+02 5.390000000000000000e+02 5.400000000000000000e+02 5.410000000000000000e+02 5.420000000000000000e+02 5.430000000000000000e+02 5.440000000000000000e+02 5.450000000000000000e+02 5.460000000000000000e+02 5.470000000000000000e+02 5.480000000000000000e+02 5.490000000000000000e+02 5.500000000000000000e+02 5.510000000000000000e+02 5.520000000000000000e+02 5.530000000000000000e+02 5.540000000000000000e+02 5.550000000000000000e+02 5.560000000000000000e+02 5.570000000000000000e+02 5.580000000000000000e+02 5.590000000000000000e+02 5.600000000000000000e+02 5.610000000000000000e+02 5.620000000000000000e+02 5.630000000000000000e+02 5.640000000000000000e+02 5.650000000000000000e+02 5.660000000000000000e+02 5.670000000000000000e+02 5.680000000000000000e+02 5.690000000000000000e+02 5.700000000000000000e+02 5.710000000000000000e+02 5.720000000000000000e+02 5.730000000000000000e+02 5.740000000000000000e+02 5.750000000000000000e+02 5.760000000000000000e+02 5.770000000000000000e+02 5.780000000000000000e+02 5.790000000000000000e+02 5.800000000000000000e+02 5.810000000000000000e+02 5.820000000000000000e+02 5.830000000000000000e+02 5.840000000000000000e+02 5.850000000000000000e+02 5.860000000000000000e+02 5.870000000000000000e+02 5.880000000000000000e+02 5.890000000000000000e+02 5.900000000000000000e+02 5.910000000000000000e+02 5.920000000000000000e+02 5.930000000000000000e+02 5.940000000000000000e+02 5.950000000000000000e+02 5.960000000000000000e+02 5.970000000000000000e+02 5.980000000000000000e+02 5.990000000000000000e+02 6.000000000000000000e+02 6.010000000000000000e+02 6.020000000000000000e+02 6.030000000000000000e+02 6.040000000000000000e+02 6.050000000000000000e+02 6.060000000000000000e+02 6.070000000000000000e+02 6.080000000000000000e+02 6.090000000000000000e+02 6.100000000000000000e+02 6.110000000000000000e+02 6.120000000000000000e+02 6.130000000000000000e+02 6.140000000000000000e+02 6.150000000000000000e+02 6.160000000000000000e+02 6.170000000000000000e+02 6.180000000000000000e+02 6.190000000000000000e+02 6.200000000000000000e+02 6.210000000000000000e+02 6.220000000000000000e+02 6.230000000000000000e+02 6.240000000000000000e+02 6.250000000000000000e+02 6.260000000000000000e+02 6.270000000000000000e+02 6.280000000000000000e+02 6.290000000000000000e+02 6.300000000000000000e+02 6.310000000000000000e+02 6.320000000000000000e+02 6.330000000000000000e+02 6.340000000000000000e+02 6.350000000000000000e+02 6.360000000000000000e+02 6.370000000000000000e+02 6.380000000000000000e+02 6.390000000000000000e+02 6.400000000000000000e+02 6.410000000000000000e+02 6.420000000000000000e+02 6.430000000000000000e+02 6.440000000000000000e+02 6.450000000000000000e+02 6.460000000000000000e+02 6.470000000000000000e+02 6.480000000000000000e+02 6.490000000000000000e+02 6.500000000000000000e+02 6.510000000000000000e+02 6.520000000000000000e+02 6.530000000000000000e+02 6.540000000000000000e+02 6.550000000000000000e+02 6.560000000000000000e+02 6.570000000000000000e+02 6.580000000000000000e+02 6.590000000000000000e+02 6.600000000000000000e+02 6.610000000000000000e+02 6.620000000000000000e+02 6.630000000000000000e+02 6.640000000000000000e+02 6.650000000000000000e+02 6.660000000000000000e+02 6.670000000000000000e+02 6.680000000000000000e+02 6.690000000000000000e+02 6.700000000000000000e+02 6.710000000000000000e+02 6.720000000000000000e+02 6.730000000000000000e+02 6.740000000000000000e+02 6.750000000000000000e+02 6.760000000000000000e+02 6.770000000000000000e+02 6.780000000000000000e+02 6.790000000000000000e+02 6.800000000000000000e+02 6.810000000000000000e+02 6.820000000000000000e+02 6.830000000000000000e+02 6.840000000000000000e+02 6.850000000000000000e+02 6.860000000000000000e+02 6.870000000000000000e+02 6.880000000000000000e+02 6.890000000000000000e+02 6.900000000000000000e+02 6.910000000000000000e+02 6.920000000000000000e+02 6.930000000000000000e+02 6.940000000000000000e+02 6.950000000000000000e+02 6.960000000000000000e+02 6.970000000000000000e+02 6.980000000000000000e+02 6.990000000000000000e+02 7.000000000000000000e+02 7.010000000000000000e+02 7.020000000000000000e+02 7.030000000000000000e+02 7.040000000000000000e+02 7.050000000000000000e+02 7.060000000000000000e+02 7.070000000000000000e+02 7.080000000000000000e+02 7.090000000000000000e+02 7.100000000000000000e+02 7.110000000000000000e+02 7.120000000000000000e+02 7.130000000000000000e+02 7.140000000000000000e+02 7.150000000000000000e+02 7.160000000000000000e+02 7.170000000000000000e+02 7.180000000000000000e+02 7.190000000000000000e+02 7.200000000000000000e+02 7.210000000000000000e+02 7.220000000000000000e+02 7.230000000000000000e+02 7.240000000000000000e+02 7.250000000000000000e+02 7.260000000000000000e+02 7.270000000000000000e+02 7.280000000000000000e+02 7.290000000000000000e+02 7.300000000000000000e+02 7.310000000000000000e+02 7.320000000000000000e+02 7.330000000000000000e+02 7.340000000000000000e+02 7.350000000000000000e+02 7.360000000000000000e+02 7.370000000000000000e+02 7.380000000000000000e+02 7.390000000000000000e+02 7.400000000000000000e+02 7.410000000000000000e+02 7.420000000000000000e+02 7.430000000000000000e+02 7.440000000000000000e+02 7.450000000000000000e+02 7.460000000000000000e+02 7.470000000000000000e+02 7.480000000000000000e+02 7.490000000000000000e+02 7.500000000000000000e+02 7.510000000000000000e+02 7.520000000000000000e+02 7.530000000000000000e+02 7.540000000000000000e+02 7.550000000000000000e+02 7.560000000000000000e+02 7.570000000000000000e+02 7.580000000000000000e+02 7.590000000000000000e+02 7.600000000000000000e+02 7.610000000000000000e+02 7.620000000000000000e+02 7.630000000000000000e+02 7.640000000000000000e+02 7.650000000000000000e+02 7.660000000000000000e+02 7.670000000000000000e+02 7.680000000000000000e+02 7.690000000000000000e+02 7.700000000000000000e+02 7.710000000000000000e+02 7.720000000000000000e+02 7.730000000000000000e+02 7.740000000000000000e+02 7.750000000000000000e+02 7.760000000000000000e+02 7.770000000000000000e+02 7.780000000000000000e+02 7.790000000000000000e+02 7.800000000000000000e+02 7.810000000000000000e+02 7.820000000000000000e+02 7.830000000000000000e+02 7.840000000000000000e+02 7.850000000000000000e+02 7.860000000000000000e+02 7.870000000000000000e+02 7.880000000000000000e+02 7.890000000000000000e+02 7.900000000000000000e+02 7.910000000000000000e+02 7.920000000000000000e+02 7.930000000000000000e+02 7.940000000000000000e+02 7.950000000000000000e+02 7.960000000000000000e+02 7.970000000000000000e+02 7.980000000000000000e+02 7.990000000000000000e+02 8.000000000000000000e+02 8.010000000000000000e+02 8.020000000000000000e+02 8.030000000000000000e+02 8.040000000000000000e+02 8.050000000000000000e+02 8.060000000000000000e+02 8.070000000000000000e+02 8.080000000000000000e+02 8.090000000000000000e+02 8.100000000000000000e+02 8.110000000000000000e+02 8.120000000000000000e+02 8.130000000000000000e+02 8.140000000000000000e+02 8.150000000000000000e+02 8.160000000000000000e+02 8.170000000000000000e+02 8.180000000000000000e+02 8.190000000000000000e+02 8.200000000000000000e+02 8.210000000000000000e+02 8.220000000000000000e+02 8.230000000000000000e+02 8.240000000000000000e+02 8.250000000000000000e+02 8.260000000000000000e+02 8.270000000000000000e+02 8.280000000000000000e+02 8.290000000000000000e+02 8.300000000000000000e+02 8.310000000000000000e+02 8.320000000000000000e+02 8.330000000000000000e+02 8.340000000000000000e+02 8.350000000000000000e+02 8.360000000000000000e+02 8.370000000000000000e+02 8.380000000000000000e+02 8.390000000000000000e+02 8.400000000000000000e+02 8.410000000000000000e+02 8.420000000000000000e+02 8.430000000000000000e+02 8.440000000000000000e+02 8.450000000000000000e+02 8.460000000000000000e+02 8.470000000000000000e+02 8.480000000000000000e+02 8.490000000000000000e+02 8.500000000000000000e+02 8.510000000000000000e+02 8.520000000000000000e+02 8.530000000000000000e+02 8.540000000000000000e+02 8.550000000000000000e+02 8.560000000000000000e+02 8.570000000000000000e+02 8.580000000000000000e+02 8.590000000000000000e+02 8.600000000000000000e+02 8.610000000000000000e+02 8.620000000000000000e+02 8.630000000000000000e+02 8.640000000000000000e+02 8.650000000000000000e+02 8.660000000000000000e+02 8.670000000000000000e+02 8.680000000000000000e+02 8.690000000000000000e+02 8.700000000000000000e+02 8.710000000000000000e+02 8.720000000000000000e+02 8.730000000000000000e+02 8.740000000000000000e+02 8.750000000000000000e+02 8.760000000000000000e+02 8.770000000000000000e+02 8.780000000000000000e+02 8.790000000000000000e+02 8.800000000000000000e+02 8.810000000000000000e+02 8.820000000000000000e+02 8.830000000000000000e+02 8.840000000000000000e+02 8.850000000000000000e+02 8.860000000000000000e+02 8.870000000000000000e+02 8.880000000000000000e+02 8.890000000000000000e+02 8.900000000000000000e+02 8.910000000000000000e+02 8.920000000000000000e+02 8.930000000000000000e+02 8.940000000000000000e+02 8.950000000000000000e+02 8.960000000000000000e+02 8.970000000000000000e+02 8.980000000000000000e+02 8.990000000000000000e+02 9.000000000000000000e+02 9.010000000000000000e+02 9.020000000000000000e+02 9.030000000000000000e+02 9.040000000000000000e+02 9.050000000000000000e+02 9.060000000000000000e+02 9.070000000000000000e+02 9.080000000000000000e+02 9.090000000000000000e+02 9.100000000000000000e+02 9.110000000000000000e+02 9.120000000000000000e+02 9.130000000000000000e+02 9.140000000000000000e+02 9.150000000000000000e+02 9.160000000000000000e+02 9.170000000000000000e+02 9.180000000000000000e+02 9.190000000000000000e+02 9.200000000000000000e+02 9.210000000000000000e+02 9.220000000000000000e+02 9.230000000000000000e+02 9.240000000000000000e+02 9.250000000000000000e+02 9.260000000000000000e+02 9.270000000000000000e+02 9.280000000000000000e+02 9.290000000000000000e+02 9.300000000000000000e+02 9.310000000000000000e+02 9.320000000000000000e+02 9.330000000000000000e+02 9.340000000000000000e+02 9.350000000000000000e+02 9.360000000000000000e+02 9.370000000000000000e+02 9.380000000000000000e+02 9.390000000000000000e+02 9.400000000000000000e+02 9.410000000000000000e+02 9.420000000000000000e+02 9.430000000000000000e+02 9.440000000000000000e+02 9.450000000000000000e+02 9.460000000000000000e+02 9.470000000000000000e+02 9.480000000000000000e+02 9.490000000000000000e+02 9.500000000000000000e+02 9.510000000000000000e+02 9.520000000000000000e+02 9.530000000000000000e+02 9.540000000000000000e+02 9.550000000000000000e+02 9.560000000000000000e+02 9.570000000000000000e+02 9.580000000000000000e+02 9.590000000000000000e+02 9.600000000000000000e+02 9.610000000000000000e+02 9.620000000000000000e+02 9.630000000000000000e+02 9.640000000000000000e+02 9.650000000000000000e+02 9.660000000000000000e+02 9.670000000000000000e+02 9.680000000000000000e+02 9.690000000000000000e+02 9.700000000000000000e+02 9.710000000000000000e+02 9.720000000000000000e+02 9.730000000000000000e+02 9.740000000000000000e+02 9.750000000000000000e+02 9.760000000000000000e+02 9.770000000000000000e+02 9.780000000000000000e+02 9.790000000000000000e+02 9.800000000000000000e+02 9.810000000000000000e+02 9.820000000000000000e+02 9.830000000000000000e+02 9.840000000000000000e+02 9.850000000000000000e+02 9.860000000000000000e+02 9.870000000000000000e+02 9.880000000000000000e+02 9.890000000000000000e+02 9.900000000000000000e+02 9.910000000000000000e+02 9.920000000000000000e+02 9.930000000000000000e+02 9.940000000000000000e+02 9.950000000000000000e+02 9.960000000000000000e+02 9.970000000000000000e+02 9.980000000000000000e+02 9.990000000000000000e+02 1.000000000000000000e+03
1.000000000000000021e-02 1.000000000000000021e-02 1.000000000000000021e-02 1.000000000000000021e-02 1.000000000000000021e-02 1.000000000000000021e-02 1.000000000000000021e-02 1.000000000000000021e-02 1.000000000000000021e-02 1.000000000000000021e-02 1.000000000000000021e-02 1.000000000000000021e-02 1.000000000000000021e-02 1.000000000000000021e-02 1.000000000000000021e-02 1.000000000000000021e-02 1.000000000000000021e-02 1.000000000000000021e-02 1.000000000000000021e-02 1.000000000000000021e-02 1.000000000000000021e-02 1.000000000000000021e-02 1.000000000000000021e-02 1.000000000000000021e-02 1.000000000000000021e-02 1.000000000000000021e-02 1.000000000000000021e-02 1.000000000000000021e-02 1.000000000000000021e-02 1.000000000000000021e-02 1.000000000000000021e-02 1.000000000000000021e-02 1.000000000000000021e-02 1.000000000000000021e-02 1.000000000000000021e-02 1.000000000000000021e-02 1.000000000000000021e-02 1.000000000000000021e-02 1.000000000000000021e-02 1.000000000000000021e-02 1.000000000000000021e-02 1.000000000000000021e-02 1.000000000000000021e-02 1.000000000000000021e-02 1.000000000000000021e-02 1.000000000000000021e-02 1.000000000000000021e-02 1.000000000000000021e-02 1.000000000000000021e-02 1.000000000000000021e-02 1.000000000000000021e-02 1.000000000000000021e-02 1.000000000000000021e-02 1.000000000000000021e-02 1.000000000000000021e-02 1.000000000000000021e-02 1.000000000000000021e-02 1.000000000000000021e-02 1.000000000000000021e-02 1.000000000000000021e-02 1.000000000000000021e-02 1.000000000000000021e-02 1.000000000000000021e-02 1.000000000000000021e-02 1.000000000000000021e-02 1.000000000000000021e-02 1.000000000000000021e-02 1.000000000000000021e-02 1.000000000000000021e-02 1.000000000000000021e-02 1.000000000000000021e-02 1.000000000000000021e-02 1.000000000000000021e-02 1.000000000000000021e-02 1.000000000000000021e-02 1.000000000000000021e-02 1.000000000000000021e-02 1.000000000000000021e-02 1.000000000000000021e-02 1.000000000000000021e-02 1.000000000000000021e-02 1.000000000000000021e-02 1.000000000000000021e-02 1.000000000000000021e-02 1.000000000000000021e-02 1.000000000000000021e-02 1.000000000000000021e-02 1.000000000000000021e-02 1.000000000000000021e-02 1.000000000000000021e-02 1.000000000000000021e-02 1.000000000000000021e-02 1.000000000000000021e-02 1.000000000000000021e-02 1.000000000000000021e-02 1.000000000000000021e-02 1.000000000000000021e-02 1.000000000000000021e-02 1.000000000000000021e-02 1.000000000000000021e-02 1.000000000000000021e-02 1.000000000000000021e-02 1.000000000000000021e-02 1.000000000000000021e-02 1.000000000000000021e-02 1.000000000000000021e-02 1.000000000000000021e-02 1.000000000000000021e-02 1.000000000000000021e-02 1.000000000000000021e-02 1.000000000000000021e-02 1.000000000000000021e-02 1.000000000000000021e-02 1.000000000000000021e-02 1.000000000000000021e-02 1.000000000000000021e-02 1.000000000000000021e-02 1.000000000000000021e-02 1.000000000000000021e-02 1.000000000000000021e-02 1.000000000000000021e-02 1.000000000000000021e-02 1.000000000000000021e-02 1.000000000000000021e-02 1.000000000000000021e-02 1.000000000000000021e-02 1.000000000000000021e-02 1.000000000000000021e-02 1.000000000000000021e-02 1.000000000000000021e-02 1.000000000000000021e-02 1.000000000000000021e-02 1.000000000000000021e-02 1.000000000000000021e-02 1.000000000000000021e-02 1.000000000000000021e-02 1.000000000000000021e-02 1.000000000000000021e-02 1.000000000000000021e-02 1.000000000000000021e-02 1.000000000000000021e-02 1.000000000000000021e-02 1.000000000000000021e-02 1.000000000000000021e-02 1.000000000000000021e-02 1.000000000000000021e-02 1.000000000000000021e-02 1.000000000000000021e-02 1.000000000000000021e-02 1.000000000000000021e-02 1.000000000000000021e-02 1.000000000000000021e-02 1.000000000000000021e-02 1.000000000000000021e-02 1.000000000000000021e-02 1.000000000000000021e-02 1.000000000000000021e-02 1.000000000000000021e-02 1.000000000000000021e-02 1.000000000000000021e-02 1.000000000000000021e-02 1.000000000000000021e-02 1.000000000000000021e-02 1.000000000000000021e-02 1.000000000000000021e-02 1.000000000000000021e-02 1.000000000000000021e-02 1.000000000000000021e-02 1.000000000000000021e-02 1.000000000000000021e-02 1.000000000000000021e-02 1.000000000000000021e-02 1.000000000000000021e-02 1.000000000000000021e-02 1.000000000000000021e-02 1.000000000000000021e-02 1.000000000000000021e-02 1.000000000000000021e-02 1.000000000000000021e-02 1.000000000000000021e-02 1.000000000000000021e-02 1.000000000000000021e-02 1.000000000000000021e-02 1.000000000000000021e-02 1.000000000000000021e-02 1.000000000000000021e-02 1.000000000000000021e-02 1.000000000000000021e-02 1.000000000000000021e-02 1.000000000000000021e-02 1.000000000000000021e-02 1.000000000000000021e-02 1.000000000000000021e-02 1.000000000000000021e-02 1.000000000000000021e-02 1.000000000000000021e-02 1.000000000000000021e-02 1.000000000000000021e-02 1.000000000000000021e-02 1.000000000000000021e-02 1.000000000000000021e-02 1.000000000000000021e-02 1.000000000000000021e-02 1.000000000000000021e-02 1.000000000000000021e-02 1.000000000000000021e-02 1.000000000000000021e-02 1.000000000000000021e-02 1.000000000000000021e-02 1.000000000000000021e-02 1.000000000000000021e-02 1.000000000000000021e-02 1.000000000000000021e-02 1.000000000000000021e-02 1.000000000000000021e-02 1.000000000000000021e-02 1.000000000000000021e-02 1.000000000000000021e-02 1.000000000000000021e-02 1.000000000000000021e-02 1.000000000000000021e-02 1.000000000000000021e-02 1.000000000000000021e-02 1.000000000000000021e-02 1.000000000000000021e-02 1.000000000000000021e-02 1.000000000000000021e-02 1.000000000000000021e-02 1.000000000000000021e-02 1.000000000000000021e-02 1.000000000000000021e-02 1.000000000000000021e-02 1.000000000000000021e-02 1.000000000000000021e-02 1.000000000000000021e-02 1.000000000000000021e-02 1.000000000000000021e-02 1.000000000000000021e-02 1.000000000000000021e-02 1.000000000000000021e-02 1.000000000000000021e-02 1.000000000000000021e-02 1.000000000000000021e-02 1.000000000000000021e-02 1.000000000000000021e-02 1.000000000000000021e-02 1.000000000000000021e-02 1.000000000000000021e-02 1.000000000000000021e-02 1.000000000000000021e-02 1.000000000000000021e-02 1.000000000000000021e-02 1.000000000000000021e-02 1.000000000000000021e-02 1.000000000000000021e-02 1.000000000000000021e-02 1.000000000000000021e-02 1.000000000000000021e-02 1.000000000000000021e-02 1.000000000000000021e-02 1.000000000000000021e-02 1.000000000000000021e-02 1.000000000000000021e-02 1.000000000000000021e-02 1.000000000000000021e-02 1.000000000000000021e-02 1.000000000000000021e-02 1.000000000000000021e-02 1.000000000000000021e-02 1.000000000000000021e-02 1.000000000000000021e-02 1.000000000000000021e-02 1.000000000000000021e-02 1.000000000000000021e-02 1.000000000000000021e-02 1.000000000000000021e-02 1.000000000000000021e-02 1.000000000000000021e-02 1.000000000000000021e-02 1.000000000000000021e-02 1.000000000000000021e-02 1.000000000000000021e-02 1.000000000000000021e-02 1.000000000000000021e-02 1.000000000000000021e-02 1.000000000000000021e-02 1.000000000000000021e-02 1.000000000000000021e-02 1.000000000000000021e-02 1.000000000000000021e-02 1.000000000000000021e-02 1.000000000000000021e-02 1.000000000000000021e-02 1.000000000000000021e-02 1.000000000000000021e-02 1.000000000000000021e-02 1.000000000000000021e-02 1.000000000000000021e-02 1.000000000000000021e-02 1.000000000000000021e-02 1.000000000000000021e-02 1.000000000000000021e-02 1.000000000000000021e-02 1.000000000000000021e-02 1.000000000000000021e-02 1.000000000000000021e-02 1.000000000000000021e-02 1.000000000000000021e-02 1.000000000000000021e-02 1.000000000000000021e-02 1.000000000000000021e-02 1.000000000000000021e-02 1.000000000000000021e-02 1.000000000000000021e-02 1.000000000000000021e-02 1.000000000000000021e-02 1.000000000000000021e-02 1.000000000000000021e-02 1.000000000000000021e-02 1.000000000000000021e-02 1.000000000000000021e-02 1.000000000000000021e-02 1.000000000000000021e-02 1.000000000000000021e-02 1.000000000000000021e-02 1.000000000000000021e-02 1.000000000000000021e-02 1.000000000000000021e-02 1.000000000000000021e-02 1.000000000000000021e-02 1.000000000000000021e-02 1.000000000000000021e-02 1.000000000000000021e-02 1.000000000000000021e-02 1.000000000000000021e-02 1.000000000000000021e-02 1.000000000000000021e-02 1.000000000000000021e-02 1.000000000000000021e-02 1.000000000000000021e-02 1.000000000000000021e-02 1.000000000000000021e-02 1.000000000000000021e-02 1.000000000000000021e-02 1.000000000000000021e-02 1.000000000000000021e-02 1.000000000000000021e-02 1.000000000000000021e-02 1.000000000000000021e-02 1.000000000000000021e-02 1.000000000000000021e-02 1.000000000000000021e-02 1.000000000000000021e-02 1.000000000000000021e-02 1.000000000000000021e-02 1.000000000000000021e-02 1.000000000000000021e-02 1.000000000000000021e-02 1.000000000000000021e-02 1.000000000000000021e-02 1.000000000000000021e-02 1.000000000000000021e-02 1.000000000000000021e-02 1.000000000000000021e-02 1.000000000000000021e-02 1.000000000000000021e-02 1.000000000000000021e-02 1.000000000000000021e-02 1.000000000000000021e-02 1.000000000000000021e-02 1.000000000000000021e-02 1.000000000000000021e-02 1.000000000000000021e-02 1.000000000000000021e-02 1.000000000000000021e-02 1.000000000000000021e-02 1.000000000000000021e-02 1.000000000000000021e-02 1.000000000000000021e-02 1.000000000000000021e-02 1.000000000000000021e-02 1.000000000000000021e-02 1.000000000000000021e-02 1.000000000000000021e-02 1.000000000000000021e-02 1.000000000000000021e-02 1.000000000000000021e-02 1.000000000000000021e-02 1.000000000000000021e-02 1.000000000000000021e-02 1.000000000000000021e-02 1.000000000000000021e-02 1.000000000000000021e-02 1.000000000000000021e-02 1.000000000000000021e-02 1.000000000000000021e-02 1.000000000000000021e-02 1.000000000000000021e-02 1.000000000000000021e-02 1.000000000000000021e-02 1.000000000000000021e-02 1.000000000000000021e-02 1.000000000000000021e-02 1.000000000000000021e-02 1.000000000000000021e-02 1.000000000000000021e-02 1.000000000000000021e-02 1.000000000000000021e-02 1.000000000000000021e-02 1.000000000000000021e-02 1.000000000000000021e-02 1.000000000000000021e-02 1.000000000000000021e-02 1.000000000000000021e-02 1.000000000000000021e-02 1.000000000000000021e-02 1.000000000000000021e-02 1.000000000000000021e-02 1.000000000000000021e-02 1.000000000000000021e-02 1.000000000000000021e-02 1.000000000000000021e-02 1.000000000000000021e-02 1.000000000000000021e-02 1.000000000000000021e-02 1.000000000000000021e-02 1.000000000000000021e-02 1.000000000000000021e-02 1.000000000000000021e-02 1.000000000000000021e-02 1.000000000000000021e-02 1.000000000000000021e-02 1.000000000000000021e-02 1.000000000000000021e-02 1.000000000000000021e-02 1.000000000000000021e-02 1.000000000000000021e-02 1.000000000000000021e-02 1.000000000000000021e-02 1.000000000000000021e-02 1.000000000000000021e-02 1.000000000000000021e-02 1.000000000000000021e-02 1.000000000000000021e-02 1.000000000000000021e-02 1.000000000000000021e-02 1.000000000000000021e-02 1.000000000000000021e-02 1.000000000000000021e-02 1.000000000000000021e-02 1.000000000000000021e-02 1.000000000000000021e-02 1.000000000000000021e-02 1.000000000000000021e-02 1.000000000000000021e-02 1.000000000000000021e-02 1.000000000000000021e-02 1.000000000000000021e-02 1.000000000000000021e-02 1.000000000000000021e-02 1.000000000000000021e-02 1.000000000000000021e-02 1.000000000000000021e-02 1.000000000000000021e-02 1.000000000000000021e-02 1.000000000000000021e-02 1.000000000000000021e-02 1.000000000000000021e-02 1.000000000000000021e-02 1.000000000000000021e-02 1.000000000000000021e-02 1.000000000000000021e-02 1.000000000000000021e-02 1.000000000000000021e-02 1.000000000000000021e-02 1.000000000000000021e-02 1.000000000000000021e-02 1.000000000000000021e-02 1.000000000000000021e-02 1.000000000000000021e-02 1.000000000000000021e-02 1.000000000000000021e-02 1.000000000000000021e-02 1.000000000000000021e-02 1.000000000000000021e-02 1.000000000000000021e-02 1.000000000000000021e-02 1.000000000000000021e-02 1.000000000000000021e-02 1.000000000000000021e-02 1.000000000000000021e-02 1.000000000000000021e-02 1.000000000000000021e-02 1.000000000000000021e-02 1.000000000000000021e-02 1.000000000000000021e-02 1.000000000000000021e-02 1.000000000000000021e-02 1.000000000000000021e-02 1.000000000000000021e-02 1.000000000000000021e-02 1.000000000000000021e-02 1.000000000000000021e-02 1.000000000000000021e-02 1.000000000000000021e-02 1.000000000000000021e-02 1.000000000000000021e-02 1.000000000000000021e-02 1.000000000000000021e-02 1.000000000000000021e-02 1.000000000000000021e-02 1.000000000000000021e-02 1.000000000000000021e-02 1.000000000000000021e-02 1.000000000000000021e-02 1.000000000000000021e-02 1.000000000000000021e-02 1.000000000000000021e-02 1.000000000000000021e-02 1.000000000000000021e-02 1.000000000000000021e-02 1.000000000000000021e-02 1.000000000000000021e-02 1.000000000000000021e-02 1.000000000000000021e-02 1.000000000000000021e-02 1.000000000000000021e-02 1.000000000000000021e-02 1.000000000000000021e-02 1.000000000000000021e-02 1.000000000000000021e-02 1.000000000000000021e-02 1.000000000000000021e-02 1.000000000000000021e-02 1.000000000000000021e-02 1.000000000000000021e-02 1.000000000000000021e-02 1.000000000000000021e-02 1.000000000000000021e-02 1.000000000000000021e-02 1.000000000000000021e-02 1.000000000000000021e-02 1.000000000000000021e-02 1.000000000000000021e-02 1.000000000000000021e-02 1.000000000000000021e-02 1.000000000000000021e-02 1.000000000000000021e-02 1.000000000000000021e-02 1.000000000000000021e-02 1.000000000000000021e-02 1.000000000000000021e-02 1.000000000000000021e-02 1.000000000000000021e-02 1.000000000000000021e-02 1.000000000000000021e-02 1.000000000000000021e-02 1.000000000000000021e-02 1.000000000000000021e-02 1.000000000000000021e-02 1.000000000000000021e-02 1.000000000000000021e-02 1.000000000000000021e-02 1.000000000000000021e-02 1.000000000000000021e-02 1.000000000000000021e-02 1.000000000000000021e-02 1.000000000000000021e-02 1.000000000000000021e-02 1.000000000000000021e-02 1.000000000000000021e-02 1.000000000000000021e-02 1.000000000000000021e-02 1.000000000000000021e-02 1.000000000000000021e-02 1.000000000000000021e-02 1.000000000000000021e-02 1.000000000000000021e-02 1.000000000000000021e-02 1.000000000000000021e-02 1.000000000000000021e-02 1.000000000000000021e-02 1.000000000000000021e-02 1.000000000000000021e-02 1.000000000000000021e-02 1.000000000000000021e-02 1.000000000000000021e-02 1.000000000000000021e-02 1.000000000000000021e-02 1.000000000000000021e-02 1.000000000000000021e-02 1.000000000000000021e-02 1.000000000000000021e-02 1.000000000000000021e-02 1.000000000000000021e-02 1.000000000000000021e-02 1.000000000000000021e-02 1.000000000000000021e-02 1.000000000000000021e-02 1.000000000000000021e-02 1.000000000000000021e-02 1.000000000000000021e-02 1.000000000000000021e-02 1.000000000000000021e-02 1.000000000000000021e-02 1.000000000000000021e-02 1.000000000000000021e-02 1.000000000000000021e-02 1.000000000000000021e-02 1.000000000000000021e-02 1.000000000000000021e-02 1.000000000000000021e-02 1.000000000000000021e-02 1.000000000000000021e-02 1.000000000000000021e-02 1.000000000000000021e-02 1.000000000000000021e-02 1.000000000000000021e-02 1.000000000000000021e-02 1.000000000000000021e-02 1.000000000000000021e-02 1.000000000000000021e-02 1.000000000000000021e-02 1.000000000000000021e-02 1.000000000000000021e-02 1.000000000000000021e-02 1.000000000000000021e-02 1.000000000000000021e-02 1.000000000000000021e-02 1.000000000000000021e-02 1.000000000000000021e-02 1.000000000000000021e-02 1.000000000000000021e-02 1.000000000000000021e-02 1.000000000000000021e-02 1.000000000000000021e-02 1.000000000000000021e-02 1.000000000000000021e-02 1.000000000000000021e-02 1.000000000000000021e-02 1.000000000000000021e-02 1.000000000000000021e-02 1.000000000000000021e-02 1.000000000000000021e-02 1.000000000000000021e-02 1.000000000000000021e-02 1.000000000000000021e-02 1.000000000000000021e-02 1.000000000000000021e-02 1.000000000000000021e-02 1.000000000000000021e-02 1.000000000000000021e-02 1.000000000000000021e-02 1.000000000000000021e-02 1.000000000000000021e-02 1.000000000000000021e-02 1.000000000000000021e-02 1.000000000000000021e-02 1.000000000000000021e-02 1.000000000000000021e-02 1.000000000000000021e-02 1.000000000000000021e-02 1.000000000000000021e-02 1.000000000000000021e-02 1.000000000000000021e-02 1.000000000000000021e-02 1.000000000000000021e-02 1.000000000000000021e-02 1.000000000000000021e-02 1.000000000000000021e-02 1.000000000000000021e-02 1.000000000000000021e-02 1.000000000000000021e-02 1.000000000000000021e-02 1.000000000000000021e-02 1.000000000000000021e-02 1.000000000000000021e-02 1.000000000000000021e-02 1.000000000000000021e-02 1.000000000000000021e-02 1.000000000000000021e-02 1.000000000000000021e-02 1.000000000000000021e-02 1.000000000000000021e-02 1.000000000000000021e-02 1.000000000000000021e-02 1.000000000000000021e-02 1.000000000000000021e-02 1.000000000000000021e-02 1.000000000000000021e-02 1.000000000000000021e-02 1.000000000000000021e-02 1.000000000000000021e-02 1.000000000000000021e-02 1.000000000000000021e-02 1.000000000000000021e-02 1.000000000000000021e-02 1.000000000000000021e-02 1.000000000000000021e-02 1.000000000000000021e-02 1.000000000000000021e-02 1.000000000000000021e-02 1.000000000000000021e-02 1.000000000000000021e-02 1.000000000000000021e-02 1.000000000000000021e-02 1.000000000000000021e-02 1.000000000000000021e-02 1.000000000000000021e-02 1.000000000000000021e-02 1.000000000000000021e-02 1.000000000000000021e-02 1.000000000000000021e-02 1.000000000000000021e-02 1.000000000000000021e-02 1.000000000000000021e-02 1.000000000000000021e-02 1.000000000000000021e-02 1.000000000000000021e-02 1.000000000000000021e-02 1.000000000000000021e-02 1.000000000000000021e-02 1.000000000000000021e-02 1.000000000000000021e-02 1.000000000000000021e-02 1.000000000000000021e-02 1.000000000000000021e-02 1.000000000000000021e-02 1.000000000000000021e-02 1.000000000000000021e-02 1.000000000000000021e-02 1.000000000000000021e-02 1.000000000000000021e-02 1.000000000000000021e-02 1.000000000000000021e-02 1.000000000000000021e-02 1.000000000000000021e-02 1.000000000000000021e-02 1.000000000000000021e-02 1.000000000000000021e-02 1.000000000000000021e-02 1.000000000000000021e-02 1.000000000000000021e-02 1.000000000000000021e-02 1.000000000000000021e-02 1.000000000000000021e-02 1.000000000000000021e-02 1.000000000000000021e-02 1.000000000000000021e-02 1.000000000000000021e-02 1.000000000000000021e-02 1.000000000000000021e-02 1.000000000000000021e-02 1.000000000000000021e-02 1.000000000000000021e-02 1.000000000000000021e-02 1.000000000000000021e-02 1.000000000000000021e-02 1.000000000000000021e-02 1.000000000000000021e-02 1.000000000000000021e-02 1.000000000000000021e-02 1.000000000000000021e-02 1.000000000000000021e-02 1.000000000000000021e-02 1.000000000000000021e-02 1.000000000000000021e-02 1.000000000000000021e-02 1.000000000000000021e-02 1.000000000000000021e-02 1.000000000000000021e-02 1.000000000000000021e-02 1.000000000000000021e-02 1.000000000000000021e-02 1.000000000000000021e-02 1.000000000000000021e-02 1.000000000000000021e-02 1.000000000000000021e-02 1.000000000000000021e-02 1.000000000000000021e-02 1.000000000000000021e-02 1.000000000000000021e-02 1.000000000000000021e-02 1.000000000000000021e-02 1.000000000000000021e-02 1.000000000000000021e-02 1.000000000000000021e-02 1.000000000000000021e-02 1.000000000000000021e-02 1.000000000000000021e-02 1.000000000000000021e-02 1.000000000000000021e-02 1.000000000000000021e-02 1.000000000000000021e-02 1.000000000000000021e-02 1.000000000000000021e-02 1.000000000000000021e-02 1.000000000000000021e-02 1.000000000000000021e-02 1.000000000000000021e-02 1.000000000000000021e-02 1.000000000000000021e-02 1.000000000000000021e-02 1.000000000000000021e-02 1.000000000000000021e-02 1.000000000000000021e-02 1.000000000000000021e-02 1.000000000000000021e-02 1.000000000000000021e-02 1.000000000000000021e-02 1.000000000000000021e-02 1.000000000000000021e-02 1.000000000000000021e-02 1.000000000000000021e-02 1.000000000000000021e-02 1.000000000000000021e-02 1.000000000000000021e-02 1.000000000000000021e-02 1.000000000000000021e-02 1.000000000000000021e-02 1.000000000000000021e-02 1.000000000000000021e-02 1.000000000000000021e-02 1.000000000000000021e-02 1.000000000000000021e-02 1.000000000000000021e-02 1.000000000000000021e-02 1.000000000000000021e-02 1.000000000000000021e-02 1.000000000000000021e-02 1.000000000000000021e-02 1.000000000000000021e-02 1.000000000000000021e-02 1.000000000000000021e-02 1.000000000000000021e-02 1.000000000000000021e-02 1.000000000000000021e-02 1.000000000000000021e-02 1.000000000000000021e-02 1.000000000000000021e-02 1.000000000000000021e-02 1.000000000000000021e-02 1.000000000000000021e-02 1.000000000000000021e-02 1.000000000000000021e-02 1.000000000000000021e-02 1.000000000000000021e-02 1.000000000000000021e-02 1.000000000000000021e-02 1.000000000000000021e-02 1.000000000000000021e-02 1.000000000000000021e-02 1.000000000000000021e-02 1.000000000000000021e-02 1.000000000000000021e-02 1.000000000000000021e-02 1.000000000000000021e-02 1.000000000000000021e-02 1.000000000000000021e-02 1.000000000000000021e-02 1.000000000000000021e-02 1.000000000000000021e-02 1.000000000000000021e-02 1.000000000000000021e-02 1.000000000000000021e-02 1.000000000000000021e-02 1.000000000000000021e-02 1.000000000000000021e-02 1.000000000000000021e-02 1.000000000000000021e-02 1.000000000000000021e-02 1.000000000000000021e-02 1.000000000000000021e-02 1.000000000000000021e-02 1.000000000000000021e-02 1.000000000000000021e-02 1.000000000000000021e-02 1.000000000000000021e-02 1.000000000000000021e-02 1.000000000000000021e-02 1.000000000000000021e-02 1.000000000000000021e-02 1.000000000000000021e-02 1.000000000000000021e-02 1.000000000000000021e-02 1.000000000000000021e-02 1.000000000000000021e-02 1.000000000000000021e-02 1.000000000000000021e-02 1.000000000000000021e-02 1.000000000000000021e-02 1.000000000000000021e-02 1.000000000000000021e-02 1.000000000000000021e-02 1.000000000000000021e-02 1.000000000000000021e-02 1.000000000000000021e-02 1.000000000000000021e-02 1.000000000000000021e-02 1.000000000000000021e-02 1.000000000000000021e-02 1.000000000000000021e-02 1.000000000000000021e-02 1.000000000000000021e-02 1.000000000000000021e-02 1.000000000000000021e-02 1.000000000000000021e-02 1.000000000000000021e-02 1.000000000000000021e-02 1.000000000000000021e-02 1.000000000000000021e-02 1.000000000000000021e-02 1.000000000000000021e-02 1.000000000000000021e-02 1.000000000000000021e-02 1.000000000000000021e-02 1.000000000000000021e-02 1.000000000000000021e-02 1.000000000000000021e-02 1.000000000000000021e-02 1.000000000000000021e-02 1.000000000000000021e-02 1.000000000000000021e-02 1.000000000000000021e-02 1.000000000000000021e-02 1.000000000000000021e-02 1.000000000000000021e-02 1.000000000000000021e-02 1.000000000000000021e-02 1.000000000000000021e-02 1.000000000000000021e-02 1.000000000000000021e-02 1.000000000000000021e-02 1.000000000000000021e-02 1.000000000000000021e-02 1.000000000000000021e-02 1.000000000000000021e-02 1.000000000000000021e-02 1.000000000000000021e-02 1.000000000000000021e-02 1.000000000000000021e-02 1.000000000000000021e-02 1.000000000000000021e-02 1.000000000000000021e-02 1.000000000000000021e-02 1.000000000000000021e-02 1.000000000000000021e-02 1.000000000000000021e-02 1.000000000000000021e-02 1.000000000000000021e-02 1.000000000000000021e-02 1.000000000000000021e-02 1.000000000000000021e-02 1.000000000000000021e-02 1.000000000000000021e-02 1.000000000000000021e-02 1.000000000000000021e-02 1.000000000000000021e-02 1.000000000000000021e-02 1.000000000000000021e-02 1.000000000000000021e-02 1.000000000000000021e-02 1.000000000000000021e-02 1.000000000000000021e-02 1.000000000000000021e-02 1.000000000000000021e-02 1.000000000000000021e-02 1.000000000000000021e-02 1.000000000000000021e-02 1.000000000000000021e-02 1.000000000000000021e-02 1.000000000000000021e-02 1.000000000000000021e-02 1.000000000000000021e-02 1.000000000000000021e-02 1.000000000000000021e-02 1.000000000000000021e-02 1.000000000000000021e-02 1.000000000000000021e-02 1.000000000000000021e-02 1.000000000000000021e-02 1.000000000000000021e-02 1.000000000000000021e-02 1.000000000000000021e-02 1.000000000000000021e-02 1.000000000000000021e-02 1.000000000000000021e-02 1.000000000000000021e-02 1.000000000000000021e-02 1.000000000000000021e-02 1.000000000000000021e-02 1.000000000000000021e-02 1.000000000000000021e-02 1.000000000000000021e-02 1.000000000000000021e-02 1.000000000000000021e-02 1.000000000000000021e-02 1.000000000000000021e-02 1.000000000000000021e-02 1.000000000000000021e-02
-1.108985501992145117e+02 1.685897737492639976e+02 3.909299489088661517e+01 -8.785172402980581552e+00 -8.734932528385833450e+01 -1.331003018939300553e+01 -2.066686650687603333e+02 6.876709844649707692e-01 -8.421143916611049463e+01 -1.398084204755879512e+01 -1.971765476365496994e+01 6.486028779376602493e+00 -1.771079827407179730e+00 1.667898856372115404e+02 8.411769895367375227e+01 -3.855798388280929601e+01 -5.248968811913601229e+01 7.874661136974830811e+01 3.262937569288489925e+01 -2.522250780161514427e+01 -7.837846653630802507e+01 -7.336621548599197240e+01 -1.372111118471064728e+01 2.876187335164357251e+01 -1.937639997284188667e+02 -9.814448330277272703e+01 -2.593535163903863960e+01 2.004362687034567045e+02 7.034456340804726437e+01 7.627613988552045043e+01 7.982103326985374281e+01 1.176844391266195444e+00 -7.878458240816043201e+01 2.062264481178789310e+02 -2.434104686677856364e+02 5.849310223870138259e+01 -1.194294099367992885e+02 -3.447962700967884331e+01 4.011004236319632099e+00 1.259686787185886772e+02 -1.221772757793183217e+02 -1.356365721069335351e+01 7.690002319884570170e+01 1.725842376689777780e+02 7.093264915024968786e+01 -6.800830189245408519e+01 4.097202342053818569e+01 -2.821941024714108082e+01 -6.567791867239664327e+01 1.556746106475210354e+02 -7.014037692213960895e+01 -5.180498877287670467e+01 -1.385248851020242853e+02 5.732900685228031534e+00 -5.023930558608043384e+01 3.844419415405078411e+01 -8.821381959280746798e+01 -4.976805049151419524e+01 -1.008218883925732996e+02 -1.545503756705948035e+02 1.933607080446816084e+01 4.510559965577073172e+01 -1.224171417350058277e+02 1.278211825391039191e+01 -7.883208420465599886e+01 4.883884547519954111e+01 1.656817829240688695e+02 -1.434407139212299569e+02 -4.305936267198489986e+01 7.159590709278550236e+00 2.914799310787118625e+00 4.214220961195430704e+01 8.350445636767113911e+01 8.576572833803663976e-01 -8.758076863421493385e+00 -6.962583247611586046e+01 7.781420781941329778e+01 -3.257182366343759128e+01 2.614847965192323542e+01 1.034279154880016165e+02 8.771938646405742190e+01 -4.251684085142539260e+01 5.746704217300664652e+01 1.466012024786062113e+02 1.155542660379610425e+02 -3.994581903827719493e+00 1.732205961670314878e+02 -1.108909112016539638e+02 4.169297513912688657e+00 -4.170209774532153801e+01 2.056671958811571415e+02 -2.110385674334224859e+01 2.869560518268469806e+00 -7.635120076098037600e+01 -7.099498820741718674e+00 -6.347945957631785774e+01 6.739355314420822651e+01 -9.402129597484221790e+01 6.820158438598751616e+01 -4.748517126700720326e+01 -4.947866801736275733e+01 -9.114713749961640588e+01 5.278627701468722933e+01 -5.440108198324369937e+01 -1.484942819408468324e+02 -7.901971842139313651e+01 -1.040253718992652097e+02 -1.563477420493019281e+02 1.351760068889434478e+02 -2.733068780642702933e+01 3.185491261166073684e+01 8.916525048120927011e+01 -1.034813045027570695e+02 5.664466430873758895e+01 -4.307740675650315865e+01 -6.896365038186721108e+01 -8.959466655099393506e+01 2.021183877592741567e+02 -5.642405103651361031e+01 -4.922326151530760541e+01 -4.693722969275076196e+01 7.995067945912592222e+01 -4.118075186422004208e+01 1.372099170817466529e+02 -4.961031901223755369e+01 5.479745513215041797e+01 4.517228834553705497e+00 -8.067072156347380485e+01 6.842348053607824454e+01 2.758463409684873682e+02 -9.152541998157363423e+01 4.722373400722866421e+01 -7.582777911427899653e+01 4.499101193904616025e+01 1.304788651432334348e+02 -5.111581099503279546e+01 1.451979016367663355e+01 -2.678671809806909110e+01 -1.013983739276755927e+02 -1.722229617275773350e+01 4.263190314467087738e+00 -7.775529947988592205e+00 -1.487043246693846932e+01 1.176048087944749625e+02 1.296870504474954089e+02 1.855006881229168698e+02 -3.027789345571846980e+02 3.801479515528748720e+01 -1.567993529225816474e+01 -6.203753350583458825e+01 1.794565149034282285e+02 7.581671188974651443e+01 -2.580578177151115149e+00 -1.154005858995601699e+02 -1.084312270607932049e+01 9.962358901130900790e+01 -1.337652615267401757e+02 -1.678536623020729337e+02 1.068794436655829116e+01 4.223846957304883176e+01 -6.075560509425736910e+01 4.185450897078656141e+01 -1.066209765806720071e+02 -1.506768292964909790e+02 2.101632471192205287e+01 4.838007632346771203e+01 4.791653477360645397e+00 -8.314032896988091181e+01 -9.322779535886915880e+01 -8.399033198846014159e+01 -8.722824762610211735e+01 1.259689379622099281e+01 5.663447136817469385e+01 1.161200214661095913e+02 7.917451963839639006e+01 8.923681910059224265e+01 1.071486149800139458e+02 -7.457984062670198000e+01 -8.229084756972171988e+01 7.034317557949002264e+01 6.833395401926013335e+01 5.909850837782141753e+01 -9.368927362916931401e+00 -9.090292383066781667e+01 5.389578175044865560e+01 -1.787457829394637656e+02 6.707720816335898917e+01 -4.448089199420603990e+01 -9.634123976839958914e+01 7.414869516387472004e+01 -1.713436212397547465e+01 -7.708912983384428230e+01 -5.744426319327934749e+01 -9.156812155064239178e+00 2.427276184450984147e+02 7.689889600514504764e+01 5.487083783684351346e+01 -1.039685249329880321e+02 1.484166736182119735e+02 1.054949017310166326e+00 -9.050506970915800764e+01 1.560605555092009809e+02 -1.544180317935476694e+02 1.580734605935749215e+01 -3.260637784536538675e+01 -2.226750923828870157e+02 -1.351497027178442920e+02 -8.838699388707287596e+01 -2.971477825307374943e+01 -1.208086933371958480e+02 5.841647132917323404e+01 6.585181899775132308e+01 -2.794851156905771816e+01 -1.010676743922214911e+02 1.145959916208612981e+02 1.197695291575054881e+02 4.683024730138656366e+01 1.771475112683788922e+01 2.649285321196534824e+02 4.426086210152314493e+01 -1.211002031236708802e+02 -4.568705851969533427e+01 -1.712012944222339001e+02 3.231842743411444729e+01 1.554703626546536555e+02 -1.504520556221710876e+02 1.336148141607908144e+02 -9.227047406666352458e+01 -1.918728710180922548e+01 -7.846620321741751836e-01 5.363667599232390160e+01 -1.176093393436364742e+01 -2.313859520177950202e+01 -1.915134478560333164e+01 -1.285971413833866563e+02 4.710235937021275276e+01 -3.080463743964284262e+01 -1.315231677004669564e+01 -1.087811255360801610e+01 2.293702106812769159e+02 1.768569689076072677e+02 2.361518248713472587e+02 1.338005970447581774e+02 -8.789050912655561376e+01 7.632492470747031632e+01 2.145047425419792475e+01 4.829384875875160787e+01 -4.031427494768721687e+01 2.593424760081715590e+02 -2.366522143343835083e+01 -1.388442587214913431e+02 -1.518190061089391918e+01 -4.654301937330798467e+01 -7.859750621213255783e+01 4.383004303467414786e+01 -1.189554593828056639e+01 1.847586937618812613e+02 9.382959683810805984e+01 4.152423489922923494e+01 9.955734938702610748e+01 9.603743187158008254e+01 -2.335073221466079119e+01 1.418460890797145453e+02 2.692599229644679326e+01 9.101280242660818942e+01 4.842556105494401919e+01 7.041505053090499899e+00 -1.176115291347086327e+02 -1.177007288658526392e+02 -9.147002141983142565e+01 -1.581962886503714749e+01 8.808192895834942249e+01 -3.113944394235250712e+01 1.004787531116873254e+02 4.451966798556384219e+01 -7.389493727598679129e+01 -3.044046627756801016e+01 -5.953620085428891429e+01 1.784838801009056297e+01 -4.706370405934542589e+01 -1.138500933765417926e+02 1.234837487209283609e+02 1.232963750727762573e+02 -8.023186955655792474e+01 5.518360783645318790e+00 -4.604851456759390516e+01 -3.311846428555062971e+01 -1.152473413040605799e+01 -3.173260783500563065e+01 4.518442289971745396e+01 -1.428047104331297135e+02 -5.369074093087644428e+01 -1.542910745338309084e+02 1.768743191865193580e+02 -2.053236305690603203e+01 5.985201239043022525e+01 1.210631707406430380e+01 1.466273582744792918e+02 4.531639026011082905e+01 3.626724423867067060e+01 1.567018626114266340e+02 -5.000563686018296039e+01 -9.907013902185360621e+01 2.759092211616598078e+01 -1.603493081333802479e+02 -5.418775543645693915e+01 1.038073918789209813e+02 -1.295069750628966005e+02 -3.688837343888850739e+01 9.260606211720643444e+01 -9.582543216938599073e+01 -9.076302088353490660e+01 -8.381893233438935908e+01 -6.471647428670247848e+01 2.525728335321801694e+02 2.009721912920528553e+02 1.044286420853293720e+02 -1.036158830692995423e+02 7.588257688343152552e+01 -6.707128049130270142e+01 -3.173839555103333154e+01 1.683273660089594514e+01 -3.265557355813710672e+01 -9.498435478271854038e+01 -2.793806545791810869e+00 1.497006799381433773e+01 1.101801076654244866e+02 -1.301132752429420236e+02 4.244515484828174579e+01 6.454854148003582281e+01 3.495496741360970816e+01 -9.170417657703798398e+01 -1.502807706746029908e+02 1.954545683397673486e+02 -1.801693824900978669e+01 2.547867947204900219e+01 1.583270796524515731e+02 2.696462949987875390e+01 2.804591594921649289e+01 -4.502665555062826286e+01 8.955986239952301275e+01 -1.378010640210333690e+02 -3.113008104121716357e+01 -6.200681118122790991e+00 -5.396210743865692905e+01 6.302085610152134088e+00 2.150109353992969474e+01 -3.615257983367042982e+01 1.380428107122070536e+01 2.158566950113431062e+02 -2.766650240079977152e+01 -2.826025091319842275e+01 -1.026551142741772509e+02 -1.662148263945308679e+00 -8.153071768235071204e+01 6.454042307006311319e+00 1.131503098332100734e+02 -5.252176136240570514e+01 6.103703783889389278e+00 -5.482905590310776489e+01 3.356060884265622768e+00 8.802024703875481748e+01 -1.169336041917567570e+02 -9.772199965115675013e+01 -1.035181557801321333e+02 7.203359535154433502e+01 8.735645401104814312e+01 -9.311846888075122308e+01 6.319491826292071579e+01 2.606008697926277407e+01 3.904056155709594833e+01 -1.791224368874528849e+01 9.217548852281983329e+01 8.043910604357004956e+01 -7.796516851760561906e+01 1.193670001847798190e+01 8.161568981742514950e+01 7.350753535186056808e+01 -2.007116124354854847e+01 2.519910455539123362e+01 -1.337750443484804066e+02 4.895684022460562801e+01 -3.306503725796679305e+01 -3.295360346700599052e+01 1.747224368112992181e+02 4.785172934950844592e+01 1.212746719433723541e+02 1.926478974509783200e+02 -1.389050174607603481e+02 1.503953990034380865e+02 -6.397342854602516837e+01 -1.363300542594079445e+02 8.304494194510360217e+01 -1.352508156932452437e+02 -2.896150355794373965e+01 5.690869351317325453e+01 8.141671153123303029e+00 -1.696159944982794059e+02 8.498430494230973409e+01 2.544640761734285306e+01 6.970154545375190480e+01 3.660649861298262664e+01 9.555183969790432386e+00 -6.770642118803486653e+01 1.167427099198148994e+02 5.496731510644812602e+01 -6.266725921220849216e+01 -1.021292257483371344e+02 3.927601674400318643e+01 2.591677576571270691e+01 8.311399203849838102e+01 1.853673709258862345e+02 -2.484507757584211873e+01 -1.111136766372680711e+02 -8.545660827343851906e+01 -5.176727496245750615e+01 -4.474803686000784353e+01 -1.480070153702899347e+02 -2.270554316990232735e+01 1.306283421687150792e+02 7.518613355501963724e+01 -1.234316397693911682e+02 -1.511690126024614926e+02 -6.868763727995420254e+01 -7.700916144392667206e+01 1.480419326975566605e+02 -1.719313667348923502e+02 8.729171897675600178e+01 -4.647276599929285545e+00 -4.339782841857850570e+01 1.341378029926736737e+01 9.194770603123239994e+01 5.000760205873908859e+01 1.393897215733917392e+02 -1.604954411013577555e+02 -8.166283101869080951e+01 2.556679483272262488e+01 4.229088424290650039e+01 2.078931060353504563e+02 1.466929082176874886e+02 6.608915305523632355e+01 7.271736125828316233e+01 -3.444710697728547899e+01 1.531074539261186658e+02 -1.808609976599696552e+02 -6.394322601924739757e+01 -5.413873535693153372e+01 -5.223128193658188678e+01 -1.041492905768222954e+02 -1.511430980487677544e+01 -6.921761443720174611e+01 7.177538618311191954e+01 -9.232921816089868727e+00 -5.857611020000357627e+01 -6.280097308785295951e+01 1.817008950719485938e+02 5.950227036450486651e+01 -1.382854509018797629e+01 2.106247151553005210e+02 -1.092379060986349231e+02 -3.562768156612813186e+01 6.751568064460236940e+01 -1.331833982875140487e-01 1.507500596018313210e+01 -1.261135032363599038e+02 1.776360803943973394e+02 -4.938058425543314911e+01 -2.715081438544794423e+01 -1.105858874835404038e+02 1.268489680920193763e+02 9.663040139919590388e+01 -7.812372505706451875e+01 -3.787588403189604946e+01 3.924621603370007250e+01 -1.525452492467408661e+02 -1.622950058719540567e-01 -7.526128374087664952e+01 7.755804397815379225e+00 -1.089085325525134067e+02 -1.596884979199044494e+02 -7.119022415156902639e+01 1.492283598107191835e+02 5.697276858961331669e+01 -9.024685136237233962e+01 8.979057336911019149e+01 3.446499623701957660e+01 8.891100028765913521e+01 -4.239612475459605179e+01 -8.464017197254194969e+01 1.721315100258077848e+02 4.191875546426413024e+01 2.913456754041924768e+01 -7.345585569140210680e+01 -4.257002799375260338e+01 9.602320759482589452e+00 -7.206425618591177695e+00 -1.738492654688639618e+02 -3.480994414086282518e+01 6.478414601251402871e+01 1.122352229751967343e+02 1.565784577458757099e+02 -1.334617352491157583e+01 9.009772159411838288e+01 1.585440458080325072e+02 6.374234114089082937e+01 1.484866261358268673e+02 1.614168886405063219e+01 1.319189649965233571e+02 -8.432246461001629712e+01 5.358983071960625466e+01 2.945335503001479438e+01 7.616767483759126378e+01 -1.066122961291657703e+02 1.987488573803933321e+02 -1.292015268753317514e+02 8.859120481603203245e+01 -1.077485835833102357e+02 4.628246796611216496e+01 1.383938322630405793e+01 9.093834153451234670e+01 -7.384504147247079686e+01 -7.568124807816838029e+01 -1.118029887361369035e+01 8.926458698556369598e+01 -2.964010053105837983e+01 -1.633321250503825439e+01 -1.966105626663771488e+01 4.742938144279658985e+00 9.823573595433397543e+01 -6.260730794840088009e+01 -2.713230862320867409e+00 -1.937441615922069786e+02 1.218068209500822121e+02 -1.246489927258852219e+02 -7.374200813410521960e+01 -2.349374506286127584e+01 -1.077313615346785980e+02 -5.305583866416024819e+01 -5.846118864394628645e+01 -1.963803999095357966e+01 1.359845572201948869e+02 5.395164707008967042e+01 1.002239450865507990e+02 -1.358184359401360553e+02 -1.382940014447116539e+02 -2.859960991456178476e+02 1.019512800997646451e+02 1.040454082427616669e+02 4.220544951268184519e+01 -4.235045293284077417e+01 -3.712616394981953505e+01 -1.832776609921465365e+02 1.458264338730482450e+02 -1.072017759609883996e+02 1.067480766012293856e+02 -1.588991310814022597e+02 -1.428418033179899638e+01 -5.526845957264028897e+01 -1.190239449253772221e+02 -4.601130559390227148e+01 -1.248384436456694857e+01 -9.248969271849580309e+01 -1.032967539441842035e+02 -1.233391611003839472e+01 7.106753539879923665e+01 -1.244027516537409497e+02 -1.563472333625829513e+01 -7.362604957528708383e+01 -1.311885253195056009e+02 6.636159383987304317e+00 9.499613344321915065e+01 1.652570846756102583e+02 -1.903845185664507866e+01 -4.598569639303155299e+01 -1.239764883639164026e+02 -1.633738380056577739e+02 1.036464595719811257e+02 -7.265370147945417045e+01 7.891660656385519701e+01 9.391662152423718268e+00 2.920786173050466417e+01 7.377376722125555375e+01 -8.466000087683995901e+01 8.259833237595613298e+01 1.151791514054124548e+02 1.573265991864868454e+02 -1.164773157742466765e+02 1.038729817345687110e+02 -4.773779629409769143e+01 -9.073653977226574341e+01 2.144359572442505737e+02 4.921000718624823378e+01 8.341622290075156343e+01 2.124997269997239968e+01 -6.317622980696364721e+01 -3.491526185413965777e+01 -2.102516456190513168e+02 1.055701136971196235e+02 8.145180488601657487e+01 -7.565481662008677688e+01 -7.309843592128963508e+01 1.451090074746192613e+02 1.010067174588908614e+02 5.108608361652793661e+01 7.603448459824902272e+01 -7.878048250462239999e+00 1.031361459520865083e+02 -1.034919713065047517e+02 1.862841217110688774e+02 -3.946075809340008078e+01 -1.219273077882478447e+02 -3.765816826442336662e+01 7.170483683119506679e+01 1.472591515974721119e+02 1.289342361544748528e+01 1.737295522953129421e+02 5.217205708887374271e+01 3.360384240986518734e+01 -1.112569623473590497e+02 4.477983478412472351e+01 -1.249578369673728133e+02 4.767543306311259954e+01 3.860160234843885974e+01 -1.232894526529351822e+02 -8.499313774317901959e+01 3.982205807515307328e+01 8.721352049023611386e+00 -2.321592826222048700e+01 4.184255675913431816e+01 -2.138917963027132885e+01 -6.305969468397810118e+01 -2.616113384119499585e+01 -2.243401963570141433e+01 -3.980630973117310845e+01 1.876515495050411886e+01 -8.046410594541055161e+01 1.188886150573451488e+02 -7.427458012138578169e+01 -4.259229224185148155e+00 6.551950701880990380e+01 3.889561692137976756e+00 1.594246195546947931e+01 1.595316327749764795e+01 -1.170688862164613511e+02 -4.412931061563399204e+00 6.501603164223014630e+01 -2.313101800279279416e+02 -8.481675589517872993e+01 -1.126528357366452724e+02 4.376805585580692082e+01 9.616518337476004774e+01 -9.170019986259079303e+01 -1.677877393261475163e+02 -1.850441366980528528e+02 1.995499200365686221e+01 -1.448300059383827829e+02 -6.316349607046585213e+00 1.474364536516294208e+02 -7.089260280503648204e+00 3.708089500479956513e+01 -9.870275275303738738e+01 7.963729702695754042e+01 -1.181824180858398563e+02 -1.536315826910296245e+01 -3.019058345134873278e+01 5.734785238133054719e+01 -8.830464842630965094e+00 1.051987130710816558e+02 -1.214739476111476790e+02 -4.982709146835671987e+01 8.611877867601992875e+01 6.577718602605536091e+01 -8.186059251850235796e+01 -5.407137179204424626e+01 -4.905186900076736833e+01 -2.874674017280373732e+02 1.922063086483942129e+02 7.556184796538879311e+01 -2.342032367888374367e+01 -2.944454050028826231e+01 4.121201752652043382e+01 -8.347917839197769752e+01 9.872319947515811123e+01 5.995983871244531827e+01 8.128989392029279770e+01 -8.336471213806257197e+01 -2.631261626847215496e+01 3.304010424760955544e+01 1.722352454100886376e+01 -4.243131796206308337e+01 1.564497826410315611e+02 -1.712671785839485139e+01 3.505635013928956312e+01 -2.276132303877885477e+02 -8.385352444128059801e+01 -7.243730159537257407e+01 2.279248507093376830e+01 1.080947730742294510e+02 -2.293742816770482023e+02 -1.851521550978039841e+02 2.194177421396413763e+02 -1.046108418591368583e+01 9.508864027399776830e+01 6.205805419252409649e+01 -5.479765192726114265e+01 -1.296678053002494266e+02 -9.419201368902996307e+01 -4.974626723210215573e+01 -3.704831267820402019e+01 -3.875803854650303037e+01 1.599541739677811059e+01 3.678525566302555916e+01 1.651274199126731048e+02 1.219567113831696332e+02 6.879012803267469778e+00 -4.348057287547201888e+00 -1.571580601892572417e+02 1.184278844136614737e+02 1.576872971958535743e+02 -1.023729896353482189e+02 7.297511000067390796e+01 1.729546494174908799e+00 5.434575524536076330e+01 1.241378623015081928e+02 7.021830712781029149e+01 -1.326677454629816566e+02 1.597391310725289237e+01 -2.908854657041447567e+01 1.102937433665288047e+01 -2.291416892242265746e+01 4.489651485992616387e+01 -2.580004141897958903e+02 1.794286666750183770e+02 7.227460552116278691e+00 1.579098369178645669e+02 -1.044985571492390974e+01 1.052006040736302737e+02 7.098269580244186727e+01 -4.162153933977737097e+01 2.965094912725352216e+01 -7.217619999151271770e+01 -8.822476928391390061e+01 -7.146684608820041262e+01 -3.178878717089745720e+01 4.481298223049846285e+01 1.092931703420752712e+02 2.826448909312890834e+01 6.164114372902427164e+01 -1.040257294005067337e+02 -1.361099826810778666e+02 -1.338412364382399389e+01 4.605706341279747562e+01 -4.516313181826995304e+01 9.388143356560168229e+01 5.513497129617207548e+01 -2.745464659071966906e+01 2.974150431110972193e+01 6.095612353989865539e+01 -7.161961352808619097e+01 -1.328237803493661602e+02 1.411362032870915186e+02 7.763634231167607425e+00 4.982345536973154765e+01 -1.483741506631504308e+02 -5.308491235804000041e+01 -4.520398358304905662e-01 -6.537134883867129531e+01 4.244647949474863680e+00 5.597985569509121717e+01 1.854485982927240570e+02 3.892475394987120296e+01 -1.090666178212652859e+01 7.186182337035405965e+01 -4.526193624017647466e+01 -1.084715631252575179e+02 -1.375708591065429687e+02 9.329711058889611053e+00 2.500668916889411264e+01 2.371016365631095013e+01 -5.665662116285719918e+01 1.203693702576047144e+02 -8.054158157727026435e+01 1.278792272278786584e+02 8.700457280033512575e+01 -6.483314662474607815e+01 -8.445255463436218690e+01 8.395292906415667744e+01 2.040373429029178354e+01 -5.235838445324755241e+01 -5.370659605365769096e+01 1.363684537033607569e+02 5.718074399224352078e+01 7.972107735503008996e+01 2.609284606633225678e+01 -4.199046888397548827e+01 1.072586897756436883e+02 -5.447610642389184932e+01 5.450579849365986274e-01 7.645383766470982323e+01 9.946093584987542613e+01 2.551978134734219736e+02 -1.749911621323803672e+02 1.608007799924562562e+02 -6.753479123539047180e+01 -1.521852735977213733e+01 -2.506591292683299343e+01 -2.072682962391033712e+01 -5.515161956165178481e+01 9.296435062323055831e+01 1.841273712487710554e+02 -1.188654770929860689e+02 3.095802004572287913e+01 -1.270449900918103907e+02 7.028892707970720721e+01 -4.456261956978705996e+01 -8.115598490111565866e+01 -5.401189532701090457e+01 4.128651172106509648e+01 1.943765005780976196e+01 -8.203445738209786953e+01 -1.415303722373382129e+02 2.084489618398859889e+01 1.582294726412529542e+02 1.434568621580312175e+01 1.832865058624848302e+02 7.497240240892836916e+00 1.352781243012723849e+02 -3.477287711397747927e+01 9.121136167376459980e+01 -7.184200415235427784e+01 -1.135666171877943214e+02 4.973553861624589700e+01 -5.837969461726159892e+01 -7.903867166495210483e+01 7.338664863458646437e+01 6.496847483257917055e+00 -9.497591328567604307e+01 -1.516878143971987640e+02 1.490566494444352941e+02 -8.989034273632073280e+01 -2.369036698823263620e+00 1.211039996232382805e+02 5.853476369943044944e+01 -9.908133760667924150e+01 1.072664267338018185e+01 2.846800936326382612e+02 5.382871696982472542e+01 -1.592819108487105666e+02 -4.819585274456569834e+01 -6.214942069521986667e+01 9.728599423500947196e+00 1.087026624221729350e+02 -1.045940483015948956e+02 2.180687162317000372e+01 1.319417830550503083e+02 1.898813098099090979e+01 -2.136698152066611840e+02 4.888860779515551513e+01 7.635755108565757610e+01 -1.373841946002728776e+01 3.318266647979070427e+01 1.474266534219049185e-01 2.277908491238245858e+01 2.806379683429708294e+01 1.171959662437507603e+02 9.919002016886155104e+01 1.575186889552116298e+01 1.508020016551283788e+02 -6.478590247459750628e+01 2.496031987824206340e+02 6.581152184245439685e+01 1.434114264603277604e+02 -2.223763814357397095e+01 9.116039070598688454e+01 -4.960822668271394775e+01 -1.481658452799148904e+02 2.650574081054330833e+01 9.622500791909415341e+01 -8.868228041259411043e+01 -1.060354210463633677e+02 -6.736309374017073992e+01 3.705240757914323524e+01 -1.156447815725375818e+02 7.565382952302272201e+01 2.841641521490447531e+01 -9.883313476903791184e+01 1.923160712942208193e+02 -1.191042859473611948e+01 -1.030307947164415054e+02 -1.355619896494532384e+01 -2.069221862753806107e+01 -1.419952940553625638e+02 -4.053729031792686044e+01 6.228074156745253731e+01 1.334417981725105449e+02 2.939076700396989494e+01 2.709951561532843201e+01 4.535580315381027816e+01 -3.620022406326577880e+01 -1.474417657240375377e+02 1.606253267060001377e+01 3.137840677803441736e+01 1.347906778944825703e+02 -1.005393160295123600e+01 -7.710746404839530044e+01 7.413952748171412566e+01 1.005179354628610078e+00 3.231248352354396047e+01 1.410482177034019173e+02 -1.797985034065298748e+02 -9.404169788612615832e+01 1.263285482491384499e+02 -2.123204783158898010e+02 -1.809951137707242310e+02 8.955591989736736025e+01 1.515551143371507408e+02 6.238648250662567563e+01 -4.384572857423473025e+00 1.532955229964404680e+02 -2.160182958128626467e+02 1.054581260169625097e+02 4.170850388957212118e+01 1.250632364232690463e+02 -1.856032440627569144e+02 1.048644017974604878e+02 -2.782226133294346226e+01 -1.315788649978419471e+02 -5.240977068607646672e+00 -9.093861352969422285e+01 -1.603302340448341212e+01 -4.231062645398409039e+00 -1.212400092510351186e+02 -1.213640300306455231e+02 -6.158199847789793324e+01 -1.268788643014219844e+02 1.978080925645655839e+02 -1.584947025296924892e+02 -4.937574623925602424e+01 1.698035220045233586e+02 3.338911142436734991e+01 -2.912951722866777686e+02 -1.250796072187622343e+02 3.495544755750555765e+01 5.378367667672809915e+01 8.451979535259612319e+00 -1.521704669864393225e+02 3.512136897333419228e+01 7.357825976810412172e+00 -7.314974825539214009e+01 1.995018608423191893e+02 1.993793970493352958e+02 4.266163242987816240e+00 -2.052264482860252315e+02 1.239902171358295107e+02 3.027868976946269086e+01 3.707645016295137985e+00 7.540384736618999284e+01 -2.041807783551054740e+02 -1.358433402426454677e+02 1.388000492349847548e+02 1.079049476174517679e+02 5.208580680018499720e+01 1.409440765259972750e+02 -1.754335887659723596e+02 -2.011658029403342951e+01 -1.283551253096206608e+02 4.291392997850462621e+01 -1.022172541399525159e+02 8.566957196992557044e+01 -3.334920251614809672e+01 1.218631955505171405e+01 1.746125046688458440e+02 2.805421424574288380e+01 -2.593817523424475553e+02 -1.243575123677181438e+02 -8.202692032601213157e+01 1.555932128480318113e+02 1.233677725240036693e+01 -5.297687034591940858e+01 2.988577503859076145e+01 6.151720545840941412e+01 -3.894508542554211772e+01 1.058041707560874016e+02 -9.913673027646889580e+01 4.843047427753840850e+01 1.101487021414906167e+02 -3.489907986142885932e+01 -9.656363140497636266e+01 -1.116222272408417240e+02 1.178547187096947084e+02 -4.887514231673318221e+01 1.934249397871193707e+02 5.629488568535251147e+01 1.091885176527835597e+02 1.815011182126954452e+02 8.423956284825289131e+00 -1.223078431341905628e+02 -1.631196843568320674e+02 -1.123681014487849126e+02 4.180587447629953601e+01
-1.308643431381734779e+01 -4.635389626304847077e+00 9.954527542561126552e+01 -2.201479230869579453e+02 1.493930609242622154e+02 6.105175779185809404e+01 1.462405471099991701e+02 -1.241501321414878873e+02 -2.671096954081991104e+00 -2.313802130899634690e+01 -2.109703890554182806e+02 3.145962954183156413e+01 -1.761253339925015027e+01 1.175546140563363338e+02 -1.202192659344584200e+02 5.931555913966477078e+01 1.204328551295635208e+02 -4.416314273497632570e+01 -4.771258948413567680e+01 -2.598063044037901648e+01 5.931444422246263315e+01 6.064975132274536662e+01 3.116237484352198095e+01 -2.234880487380526404e+02 -4.960001242148086220e+01 8.795648246332571318e+01 9.521434536395986470e+00 -9.957542204751575809e+00 -6.394417240473716646e+01 -1.486941662150443833e+01 7.048602881101585638e+01 -1.397491781400622131e+02 -5.951251836355849179e+01 8.637008060761660388e+00 1.994567442740146532e+02 2.037937021231475114e+02 -3.084488274931376495e+01 5.371023981970964911e+01 -2.602022126752026598e-01 -1.342186021314920765e+02 9.224104021694368782e+01 1.030577163670000544e+02 1.042896690412296863e+02 1.123199922130343253e+01 5.948042936164328864e+01 4.624766287254068686e+01 3.736784624538026378e+01 2.819445295056819134e+01 1.059868225236282626e+02 8.621953722802236086e+01 6.303802663716558641e+01 1.566301908680490556e+02 2.380628844710313672e+02 1.879522259200937242e+02 -5.682706749948685143e+01 4.734568513239037202e+01 -6.177689944696813740e+01 5.420843922483746269e+01 -1.846732519571057196e+02 5.429735936167978849e+01 -1.967817313180936196e+02 -1.621358515192922027e+02 1.244143411600431115e+01 -8.886941532679985656e+00 1.629242597492579421e+02 -1.998445503038022650e+02 7.234718623651710345e+01 2.208711901390548462e+02 -7.064903534168596622e+00 -1.871628050497287177e+02 3.418299679502531774e+01 1.895339486421713673e+02 -5.872831888787098364e+01 -2.561535304572452105e+02 -9.858073919081645897e+01 8.517874411572659454e+00 -2.211657261460447614e+02 3.080438018291747682e+01 -1.725166753386413916e+02 -1.784153591371985499e+02 -5.493047245594425476e+01 1.466018871762679225e+02 6.682134628910417007e+01 1.020302583577860034e+01 -8.525446119220745800e+01 -4.097875380306987125e+01 6.131991155218300094e+01 -2.232939844852697888e+02 5.205346280263488268e+01 -7.214967726929786807e+01 -7.516736901022493100e+01 -1.701310017186877417e+02 6.261699027771086179e+01 8.924859703372038666e+01 -1.562279442164001750e+02 1.662967240822534620e+02 -3.839870912706196293e+01 -1.628530914732915846e+01 8.432278669402394655e+01 1.504906003396209542e+02 2.089887435289039175e+01 1.458133626901093294e+02 -1.779430915647866840e+01 -8.733786795432558847e+01 -1.888659165254240691e+01 9.733061286663776457e+01 4.452490580276631249e+01 9.685597345383474988e+01 9.345830092562664504e+01 -8.224440767964914301e+01 -1.682346318537891534e+02 1.218408928629576025e+02 5.371698295923691546e+01 1.603050529644958999e+01 3.027762633731805053e+01 -6.726304371929035142e+01 9.510204460214403355e+01 8.897799613871940494e+01 -1.356081713374663700e+01 -7.056402781237292743e+01 3.045088432529440681e+01 6.218394175735602047e+00 -6.093571029719566212e+01 1.679658868959508027e+02 -3.260787521352307294e+01 1.204798444750046116e+02 -6.946277817822056022e+01 3.803700139220030962e+01 -3.577194130484727452e+01 8.866685645704964713e+01 2.327170526504979620e+01 1.145564539117790872e+02 -1.149898553347076131e+02 7.369884257481091083e+01 1.224170233725367609e+02 -4.432568144123596454e+01 7.544196590477334929e+00 -1.260015720939411210e+01 1.158152429734820430e+02 3.553365302599670539e+00 1.672761116700414732e+02 -1.402694892691983739e+02 1.157367424722519900e+02 -9.059725929343278494e+01 9.502564954468147107e+01 -1.359980040301353768e+02 2.929196514404385709e+01 2.455941594803621086e+01 1.790943422264869245e+00 3.604515343119291515e+01 4.560380200456293665e+01 -1.232299452620544500e+01 1.075766095719506410e+01 1.073227493564562565e+02 1.263614263803819284e+02 -8.608380583875634784e+01 -5.383125379474278560e+01 4.703060583895534563e+01 1.522304230402391934e+00 -1.360526906830449718e+02 -5.474426387648338022e+01 -3.521316621054548079e+01 4.859745110845525318e+01 -6.513398715770104275e+01 2.278208962706488094e+01 1.593990624950220365e+02 -7.899290198395551954e+01 8.033819902558563797e+01 8.360612149440086682e+01 1.118250919892876105e+01 1.227749369855670238e+02 6.255670960187126184e+01 1.671960546518830313e+02 -3.440307548735150789e+01 1.119255352184427750e+02 5.529593450657283427e+01 -1.600135473195842195e+01 2.032650829985329608e+02 -1.382376857896210254e+02 4.869599078165838790e+01 -1.868859524537998311e+02 -8.388425111293979342e+01 4.089451371804678814e+01 -7.198119322877361981e+01 -1.553620566187265979e+02 1.987580767318247865e+02 -8.554746551953877542e+01 -4.736858499623502894e+01 -4.616338637387733712e+01 1.214521141787402598e+02 1.943198637689162354e+02 6.460502844909201769e+01 1.459243626843683614e+02 2.189854652900446581e+02 -1.613296227416460393e+00 1.625600466504304507e+02 7.074272733246236555e+01 1.900091258945865604e+02 -1.255338014460248104e+02 -1.183524433265765552e+01 6.330967521536157605e+00 1.895715185877273541e+02 -9.070493111843285305e+01 -6.036666141475099323e+01 -5.284121623768242415e+01 -1.337160403517018494e+02 4.657127081908370769e+00 -1.007369000410673578e+02 1.538257122632227549e+02 2.351626572650379643e+01 1.198042560347995078e+01 7.216679460028403525e+01 -4.919602764836560560e+00 1.167398959354042205e+02 -1.585485100229585953e+02 4.532370270810154267e+01 -1.705017104002592703e+02 1.171975464687164674e+02 9.586278373727311930e+01 -6.717567580647956049e+01 4.668562963269169330e+01 2.376795480728931977e+02 -3.040244929051403133e+01 4.157655277156747076e+01 -3.261191714387588547e+01 5.782723632277284054e+01 6.415482832019939963e+01 -6.263794474483465713e+00 1.017147311709503867e+02 1.012922262967809246e+02 -1.934811002237291575e+02 -1.529280134010603831e+02 -1.195763352707627831e+02 -9.425622676418679902e+00 -1.494712602483714079e+02 1.153045714088186315e+02 1.101120054617944675e+02 5.885624531216176081e+01 1.113804183457141406e+01 1.573390578872290746e+02 8.377607964666347584e+01 6.734993712796190835e+01 -1.013972883979619155e+02 1.520230370304313396e+02 -3.577072920659482680e+00 1.090828889215988511e+02 8.797008061930705836e+00 3.665675240455494333e+01 -7.551525583312634637e+01 -9.052233505410956127e+01 7.140172213261108425e+01 -3.833637691930273483e+00 1.458453217539743321e+02 -1.253485676450856801e+01 -2.844936593981651995e+00 4.572394788997787884e+01 2.257114963190532819e+01 1.409905234606562487e+02 1.460742504218332627e+01 3.573159212431701093e+01 -1.541945792616198219e+02 6.561766860125290179e+01 1.331892754467474447e+02 -1.758258253340069999e+01 -2.271388022831766875e+02 8.406443200590543086e+01 1.354979546774748655e+02 2.022710135299092826e+01 1.879077503447670665e+02 -4.165784315296642504e+00 4.261097863145992193e+01 -4.329825983464901640e+01 -1.376343782375720366e+02 5.557489950233925668e+01 -4.709707536930129379e+01 -8.037525528064662694e+01 4.087058266000927631e+01 -1.831888596041818857e+02 7.106482837619576287e+01 1.629125602312290653e+02 -1.002893912760887787e+02 1.713456791945531563e+02 -9.670465314706801507e+01 -5.919519173561518244e+00 -1.042290881744687248e+01 7.584547715010300806e+01 -4.611253332501274826e+01 -1.066704837215409185e+02 -8.761192279226763446e+01 1.441914732986962520e+02 5.845130647711303595e+01 -1.302796781854578967e+02 4.383061297151956914e+00 4.292529014386104791e+01 8.159246912076652336e+01 -3.985265049762866596e+01 5.925484989811203462e+01 -6.813523463367310740e+01 -1.603633550751108885e+02 -3.420513990867560494e+01 1.392212493863033842e+02 -1.119609075731645476e+02 -6.328105179341858566e+00 -1.608307326425783401e+02 -4.737923320860799592e+00 -1.440014389931573362e+02 3.248582783001839402e+01 5.938898840902191267e+01 -4.966660961592167212e+01 -8.129322707897733835e+01 5.559308999625208969e+00 7.339352910413883535e+01 -6.685001210728552223e+01 1.328499568141513407e+02 1.040681065693431151e+02 -1.258623905584434510e+02 -1.039710404840356119e+02 1.331602960771507185e+02 7.030600383381475638e+01 1.480203767621495956e+02 9.867590424115360292e+01 7.995859071146259112e+01 -5.936665685170798668e+01 -8.052918247709472155e+01 -7.588760080303727307e+01 2.013392811434544285e+02 3.008045895303451545e+01 -2.451251801414148090e+01 -6.742867598343677571e+01 -4.918077806086007797e+01 -1.290773473430993192e+02 -1.621634891446804616e+01 -1.719717713352652595e+02 1.225503876577858051e+02 4.508974374761646686e+01 -1.129377433304122746e+02 -4.742765510838716381e+01 1.173546255424866871e+02 -9.501965302596344998e+01 1.007719351550748996e+02 -1.160890456969004276e+02 -1.153422958679950838e+01 -9.358548096134943250e+01 8.791778293149458534e+01 -4.162261045718918240e+01 1.009775130418854694e+01 2.874336767990298114e+01 -1.240829916207125336e+02 1.224689576746667186e+01 4.736332764673053930e+01 -2.192882594537363161e+01 -6.734051563412832309e+01 1.983926518402999761e+02 8.467868964940986132e+01 4.615340755465091860e+01 -3.076967611452616680e+01 7.857276734818445618e+01 1.641429665871241355e+02 -9.035908729867205125e+01 2.051303924489797055e+02 -1.303468484605594142e+02 -1.801100546359349721e+02 1.486785635458772674e+02 -2.291036797268655221e+02 -9.564108985509133243e-01 -2.398365756429175804e+02 -1.497289502663257679e+02 7.027012120921764904e+01 -1.425946994240504750e+02 5.716278794884708958e+01 1.076292243065920502e+02 -1.570213991134894229e+02 -2.949319637830289054e+01 7.383767070182537395e+01 1.311328041131042710e+02 -1.822234423287203242e+02 8.565249741609397915e+01 -9.591803585482799122e+01 -9.660032909008966939e+00 -1.358513753701284088e+01 -7.791678702602565920e+01 -8.842144505521197573e+01 1.775876720747785953e+02 -2.123773604502775569e+01 1.311524487619178947e+00 1.275335265981928785e+02 -8.491517326509455188e+01 -3.372059722054758879e+01 -1.054751909280065831e+02 -4.784702839565959920e+01 5.064726954416234328e+00 5.819316678592743131e+01 -1.324670173876775721e+02 2.327095624943080736e+02 -5.290393265882210727e+01 1.204375230203804534e+02 -4.795712661512452257e+01 1.176827764282222262e+02 1.367025173109790614e+02 4.715663650924727079e+01 1.200128426905409071e+02 -4.249526084289490768e+01 1.376182054423154000e+02 -1.538563194097135920e+02 -6.431148224605450991e+01 -6.193429164689977284e+01 2.512918135763696270e+01 -1.596467277596482575e+02 7.136531572265691636e+01 -3.033779890004342050e+01 -8.130066768902564434e+01 8.814658560927583153e+01 -1.486601282444709113e+02 -8.974650229752364794e+01 -5.177316578153895676e+01 3.254563236431084761e+01 1.277246210304041227e+02 1.149733764400598375e+02 6.800292975281109875e+01 -1.563911055266493655e+00 1.720613937622260039e+02 1.205516943585140979e+02 -9.293144810481611273e+01 -7.687907686826991949e+01 5.441719856694183477e+01 9.809287890045938596e+00 9.639432748578494170e+01 1.640011218038135894e+02 6.944538217920676004e+01 2.401466533661908187e+01 -1.005419060433029159e+02 1.689948289073313674e+02 -1.118162997824716456e+02 -1.625629793002382542e+02 6.463938591759452379e+01 1.096445142199785039e+02 1.931174475291569692e+01 -1.365281898373961837e+02 2.922763422331856731e+01 4.170549554413405957e+01 -3.290446082338713829e-01 1.287008033557401063e+02 9.599367224607046012e+01 1.681521194047034484e+01 7.699463535573279671e+01 -1.051414028399484977e+02 -6.221628197796805537e+00 9.662233881715570760e+01 2.916888197406365890e+01 -6.389141750632288108e+01 1.945534921956647167e+02 2.270197499877263851e+02 -1.232721876193280650e+02 -2.712356044779629372e+01 -2.064280227759042816e+02 -7.088301624778014798e+01 1.537678441857696896e+02 3.329318531188413033e+00 -6.969733460134669656e+01 1.607994416909719746e+02 -6.136063540039859987e+01 -1.576580582153812600e+02 1.340411250902405413e+02 -6.596525119019891292e+01 3.384195059010496465e+01 8.474244231113695491e+01 1.352736285049955711e+01 -2.337793830497677448e+02 4.150937972085197458e+01 -6.032842112451266559e+00 8.840080660319198103e+01 -2.311963059518632591e+01 9.922909188497996524e+01 1.665838153883859007e+01 -8.312836232421089733e+01 -2.009211312688421103e+01 -1.719095091632538015e+02 1.128059567310700260e+02 2.479558530066305977e+01 -4.083308496544651689e+01 -5.082287113451470617e+01 -6.169505096643855779e+01 4.033041362403023555e+01 1.576343638146098556e+02 1.301731005652206363e+02 4.223949636931529028e+01 -1.940939465405203634e+02 -3.805481819307466651e+01 4.298130163439106610e+01 1.150986820556259858e+02 8.555000183497153898e+01 1.515327865909676675e+01 -1.824846745267857671e+02 1.291879676658998619e+02 -2.194871126214399624e+02 -2.018869270774045219e+02 -1.804901215282265436e+00 -7.236660188218590406e+01 -2.363835185121021354e+01 8.546478157328179748e+01 5.485462010289939627e+01 -1.090816294468681349e+02 -1.485686085206134237e+02 1.431121937675491118e+01 1.213322876862894617e+02 2.029663367518124417e+01 -5.562860358410978989e+01 -5.064665152029020589e+01 -1.152565765039383550e+01 1.582985643359960477e+02 2.194473692036268986e+01 -1.734392241035762368e+02 1.281282929288309163e+02 -6.671936873481844543e+01 -4.169424694926298081e+00 1.537831973939790373e+02 -5.222563050934421369e+01 -1.955968971809856427e+01 -1.097013764747794653e+02 -5.997654745793865594e+00 -2.382193043169503355e+01 1.315203273500425496e+02 1.199209915207764965e+02 6.749000663729009375e+01 6.533903634103380398e+01 -1.868539346694356240e+01 1.350181674735728734e+02 -1.126041913894878377e+02 -4.254231133369692941e+00 -9.092936387036910162e+01 1.569083982024802140e+02 7.284080494104418335e+01 5.161545637961958732e+01 8.257470649198600299e+00 -5.321492777431322452e+01 3.433500396350629558e+01 6.732592688958107807e+00 3.615280350059301817e+00 2.407709552644623585e+01 5.969014004632834514e+01 1.700090227369375953e+02 -3.878308386819818310e+01 -5.190741295476514239e+01 6.668844743224826743e+01 1.154975401565884425e+02 -1.279198927942350927e+01 9.179535995287118055e+01 1.038950244020062144e+02 2.104404221080366142e+02 -8.640926273277236191e+01 -1.224910213599054174e+02 -2.859396794221443017e+01 6.204780637543658628e+01 -1.013054262004056838e+01 1.072330297248060447e+02 3.717467033698650170e+01 -1.623380790895406278e+02 4.497640726684765156e+01 -8.929184743648193034e+01 -1.350361835214621919e+02 1.342342730662377335e+02 -7.587564270698351265e+01 5.903061614786992095e+01 1.109459689530137325e+02 -9.879315522407917172e+01 2.342834639624249959e+01 -7.196955586703157337e+01 4.016817320210889619e+01 -1.143071305019096258e+02 6.141448491188703684e+01 5.452075744405542679e+01 3.894277586892051612e+00 8.380963964327990823e+01 -1.524561618443557336e+02 7.613994401728844252e+01 -2.917986949248288298e+01 -1.672088275404537683e+02 9.351842155560599679e+01 2.427879446472244140e+01 -1.941354088797820339e+02 2.328438456413414883e+02 -5.279907130713903385e-01 1.040886172431714698e+02 -1.193599719395718211e+02 -1.922054922956245946e+02 -9.235835844945782469e+01 2.458462083291220956e+00 1.414246754725472499e+02 3.953632128037591897e+00 -9.458909831981995353e+01 4.987290656920477971e+01 1.356365368506672269e+02 6.431227406227975507e+01 -5.120698423236346031e+01 -5.853447510924633690e+01 8.363830070272982198e+01 3.042580289159008089e+01 -1.935497057055600578e+02 -2.051960059530873082e+01 1.672960307594686071e+02 9.780602152382301995e+01 -5.673743081889492146e+01 -1.106551121879342503e+02 -4.223942795145334372e+01 -4.758677581525694222e+01 -1.132744979396111233e+02 -1.828055751432908593e+01 -4.519253616727405642e+01 -1.124489101128083490e+02 -1.305397379590641265e+02 -2.665985429595305689e+01 -1.243750375630000491e+02 -1.324240126810917104e+02 -3.793764066262131252e+01 -5.477636061940007295e+01 -1.098671936841354722e+02 1.908882127508008466e+02 1.079601519081224303e+01 -2.884863461353431546e+01 -1.743918713012288535e+01 8.066982519861704759e+01 1.603871253418789067e+01 2.568519157875862646e+01 -2.181700347447983646e+01 -4.742367760763308837e+01 2.144970391147962019e+01 -1.490681411802365233e+02 -1.632455800035242532e+02 -9.272045924370929981e+01 -1.957018736384197268e+02 -9.190074707984845759e+01 8.797835326038600101e+01 6.294636780308355384e+01 -2.672248580408218288e+01 6.231552312434640584e+01 -1.605463611006628355e+02 -4.187541114087409966e+01 -1.190877130255695420e+02 -6.845047959767077828e+01 2.163208299568770769e+02 -2.105112289020183027e+02 2.104904134188975036e+02 2.562466088611990855e+01 -5.790542083898372994e+01 9.458683916679143522e+01 1.272414267392407226e+02 -5.321053611234126635e+01 -2.089236989602821097e+02 -1.528936148304758831e+02 1.048749787813461580e+02 8.589340220188005048e+01 -1.390328833348166029e+02 3.276646568958566519e+01 -4.068018541077486816e+01 -7.937143818744129931e+01 -2.914871400695357551e+01 -5.622172567117345920e+01 -8.863791218125471971e+01 -3.490912467565581778e+01 4.602109377814588953e+00 -3.353025566320347650e+01 -4.001198498889388389e-01 -1.471591601871651633e+01 9.431307846640331150e+01 1.303268614799597174e+02 1.350219794957087593e+01 1.721983146282335042e+01 -6.472351754601213258e+01 -2.010257647839200388e+02 3.471495741195528950e+01 -9.406806268549217975e+01 2.648956066757346406e+01 -8.377659056075613009e+00 1.052897929256758180e+00 7.413487706099581942e+01 1.249872599758139273e+02 -7.226277169464839290e+01 3.896699128654902466e+01 -1.977673809696201204e+02 9.919278258748779109e+00 7.163929365666783511e+00 -1.256739487800308552e+02 -3.458299086896049346e+01 -4.545684692005832517e+01 4.891943405316022897e+00 -1.048556226528833122e+02 2.774423110397079029e+01 -1.001373028109789090e+02 5.753398055849484649e+01 6.958009214616299687e+01 3.782315744061803997e+01 -2.975638768956176961e+01 1.101880235086171353e+02 6.262576201184908342e+01 8.202510962589558119e+01 -6.869064937334603371e+01 2.080177205846129951e+01 1.311131508023021297e+02 -5.994725006346383367e+01 -7.087702813255134515e+00 3.279256310046284995e+01 -1.316182906621597226e+02 1.002592690343146273e+02 9.180363427069063675e+01 -1.036531128354681641e+02 -8.439135833470672310e+01 -5.689508920248819379e+01 -4.669587181865656333e+01 -1.641998122720642073e+02 -1.392502733068482996e+02 -1.357107500594247824e+02 1.082340907274701891e+02 6.122880438687244720e+01 1.633765101725696240e+02 7.371564322056432417e+00 -8.779210253332719560e+01 1.918425920368898474e+01 1.416152940121553172e+01 -6.502919474047943993e+01 7.580218212581611681e+01 1.208443501640201703e+02 1.022130914819082648e+01 1.467593903779998072e+02 2.303314596227312805e+01 1.135399017423616215e+02 1.544204121088658432e+01 -2.125851241888825882e+02 2.234094615820742717e+02 -5.006124184061813764e+01 -1.525276192131758819e+02 -6.872329722309115141e+01 -4.388631824435845630e+01 4.211345500061700875e+01 2.604601090143490083e+01 4.654431319256978128e+01 -7.538513027759064755e+01 1.244512729902631918e+02 -8.770248011586083692e+01 -7.126582863644922661e+00 1.447634055611598001e+02 1.113671289683145886e+02 5.891209738906761118e+01 -1.797404671434050840e+02 2.581580117577089339e+01 1.424830284450440274e+02 2.377340837505749604e+01 9.895830861359786468e+01 1.078827311731632363e+02 -2.142207836919349688e+02 7.791769272452729922e+01 -5.848370109382808124e+01 -2.276746921426333756e+02 8.953255866025040177e+01 2.484348692601713182e+01 -1.228201494201110506e+02 -5.886167031682518314e+01 1.393280353379187773e+02 1.478890916735358587e+02 -7.591238841940791815e+01 -1.278005690296673293e+02 -8.335087043370214133e+01 -1.655200727807213639e+02 1.950590535086788790e+01 3.778205674694648053e+01 -1.687526934351974717e+01 -1.230758646775087328e+01 -8.891161268004566409e+01 -8.769512433727004463e+01 -2.444301701763086854e+01 1.324031472083422898e+02 1.345629515462748884e+02 8.006373344056633812e+01 9.573843419785943354e+01 -7.741492201112339444e+01 -1.777229301587830435e+02 -1.300756713040838264e+01 -2.275896193649758814e+01 -6.975284051311213318e+01 1.468983232151248819e+00 7.175854745282494207e+01 -5.197371964456655746e+01 2.421136311767843452e+01 7.775923266838765358e+01 6.883911155620131694e+01 1.085419683134536513e+02 -1.464957975090525508e+02 3.892727066594198249e+01 8.181316829018943793e+01 9.305339073224322988e+01 5.800363828574816694e+01 -1.013801366309902221e+02 1.344693789325405930e+02 1.251699827339185731e+02 9.411361906504384933e+01 9.970417540578009152e+01 -8.270639692470800242e+01 -1.460250167968247936e+01 -1.269835232225647736e+01 7.566903883010013487e+01 6.379943643095423766e+01 5.496979345855854859e+01 9.582380041612856303e+01 1.143855012723623474e+02 1.216625990624459632e+02 -6.372467570900441558e+01 7.914805408609252879e+01 6.406977474127661765e+01 -1.155422690695159815e+02 1.292379775795538706e+02 -9.856176448828078307e+00 -2.742232196312631487e+01 1.957534567657768605e+02 8.692236231985803840e+01 1.219395863741330146e+02 -1.418434218918066279e+02 -1.550845554607495274e+02 -1.511257252867056877e+02 -1.201149373135648375e+02 -4.354724843189722350e+01 1.079989445597342410e+02 -1.659192703305868122e+02 3.200310106117668596e+01 1.420634185115603145e+02 -5.841626009949740705e+01 -8.993679221163300497e+01 -3.458120528687205564e+01 1.338275916646799999e+02 2.239132958989253837e+02 -6.567470919092087911e+01 1.952775496025721580e+01 -2.729451384901349797e+01 6.751320525058848432e+01 5.940400393240403787e+01 -2.102483132035220592e+02 -8.743675577380078323e+01 1.356928565331263883e+02 1.378994035381612662e+02 9.326286644798581449e+01 -4.914840708517522216e+01 -7.480081192714668248e+01 -4.480718251275672515e+01 -1.742395665777738714e+02 7.023421511154722907e+01 -2.533675986799305591e+01 1.642616169168316276e+02 -2.757659822956297191e+01 -3.106232355844137487e+02 1.430711429612203460e+02 4.966045530834524868e+01 -1.165116767201709678e+02 -2.188083162518792690e+01 3.488035036925667498e+01 -2.051618758031493144e+02 -1.129043140830439853e+02 -1.082949345856489032e+02 -5.575495806567071355e+01 6.205827925918398336e+01 -1.628839892134446643e+02 1.066572831974883826e+02 -5.368255704779137716e+01 2.879712850581087835e+00 -1.318722271530003241e+02 -1.024196784393783304e+02 1.738393374238521289e+02 8.567517887273984911e+01 -4.175626402392382630e+01 3.675067015834817852e+01 -2.774186700516245097e+01 4.276672354405434362e+01 -1.034609235867082617e+02 9.777315774245148816e+01 4.995411249461985648e+01 -1.176108555876640338e+02 1.154916388144558965e+02 -4.860402329179901670e+01 9.883971243864371559e+01 -4.887977083481273155e+01 8.744622592811221296e+01 -1.517896391106433214e+02 1.412103145171436438e+02 2.451124434273570785e+01 9.960598114123894220e+01 1.290751861661899227e+02 -1.451523537957365022e+02 -8.502689054495159837e+01 -1.045655776011523415e+02 6.620515191666034127e+01 -1.696399402724283050e+02 1.499980021092041511e+02 1.409836338011870396e+02 5.246291087620298299e+01 -8.406962081638336315e+01 5.650459856687390925e+01 -1.062738734508780283e+02 -1.084245910665104340e+01 3.464835484268939325e+01 -1.819960667949055448e+02 -8.081566167358668906e+01 -1.340777267947134277e+01 1.012521188972459214e+02 -4.974515107172240391e+01 1.077165634213782681e+02 -6.374916081055816619e+01 -2.089050476474266418e+02 -1.061373160177541735e+02 -3.376272543472962440e+01 -5.965744656848269045e+01 2.983292573211642917e+01 5.094467939102661092e+01 6.291996464701744785e+00 2.511267505025421087e+01 -1.163295167642879591e+02 5.339875640264401113e+01 3.236215061369417612e+01 -7.159000570049225587e+01 9.191164207975047518e+00 5.588551141898020092e+01 -9.465697666029363688e+01 -5.465038427258603093e+01 -2.396274434278609888e+01 9.684392806458289726e+01 -1.699960909622130245e+01 4.162330268276503098e+00 -2.263751257596607616e+02 -9.433397862035556614e+01 9.820815634161593266e+01 -8.856828697661029537e+01 3.111290249595681345e+01 3.084062747242864688e+01 3.765945268451999084e+01 6.561461566777194321e+01 -1.762054614192229280e+02 1.429634905704207029e+02 8.092568758061067058e+01 -7.468949947378892951e+00 -8.024832208333951655e+01 1.111377786394854752e+02 6.167132271034778768e+01 -1.997301579054298770e+02 -5.004174160379201908e+01 -8.114221813341545442e+01 -5.148468653891982427e+01 -6.151706981725084233e+01 -9.838267711355615575e+01 -5.996614612173429038e+01 1.902280826539994507e+02 -1.696458131333717461e+02 6.504807397946269987e+01 2.756052326831661503e+01 -7.468723644229284275e+01 1.031814303119246290e+01 -3.916381928835566129e+01 3.407812496040551142e+00 -9.551181936829729580e+01 -1.962813320015044383e+02 1.827533844082062231e+01 4.163982723268511421e+01 -1.271615915899856120e+01 -8.950178443600712797e+00 -3.952682221918324501e+01 -1.887186207604994479e+02 -3.045236353455166523e+01 -6.495209065956628081e+01 1.387329678333998473e+01 -1.551386297169730177e+01 8.999415497816437437e+01 -6.264273336391388369e+01 -1.030537131386839604e+02 -3.551225575937085210e+01 -8.950390846272364698e+00 4.521151589121308945e+01 -2.200101148135918550e+01 -7.330730012752471225e+01 -1.577883651429570300e+01 1.993953239051408843e+01 4.721606340510802369e+01 -1.133231371829199929e+02 -1.382015246707603353e+02 2.289792077876247447e+02 -2.169930178606320226e+02 -7.550151789893409671e+01 -4.606799560497371715e+01 1.390459003054585310e+02 6.291421456554903813e+01 2.275628721538366790e+02 2.433471100364999415e+02 -6.198461200106678604e+01 1.287271025373100315e+02 -5.565444939962228688e+01 -4.058138626569058260e+01 -1.000707665361238412e+02 -7.939040331552028817e+01 -6.917187517477191250e+01 -8.849975149294354537e+01 -2.424040140919455553e+02 -2.693426984413362106e+02 1.339369400271163215e+02 -2.638330938674087633e+01 5.296816042108431333e+01 1.301468082905124390e+02
