# 
#                 ----------------------------------------------------
#                 Data from a 3D direct N-body simulation. 
# 
#                 rows are i-particle; 
#                 coumns are :mass, tag, x ,y, z, vx, vy, vz, ax, ay, az
# 
#                 NTHU, Computational Physics Lab
# 
#                 ----------------------------------------------------
#                 Time = 7.299999999999889
1.000000000000000000e+00 2.000000000000000000e+00 3.000000000000000000e+00 4.000000000000000000e+00 5.000000000000000000e+00 6.000000000000000000e+00 7.000000000000000000e+00 8.000000000000000000e+00 9.000000000000000000e+00 1.000000000000000000e+01 1.100000000000000000e+01 1.200000000000000000e+01 1.300000000000000000e+01 1.400000000000000000e+01 1.500000000000000000e+01 1.600000000000000000e+01 1.700000000000000000e+01 1.800000000000000000e+01 1.900000000000000000e+01 2.000000000000000000e+01 2.100000000000000000e+01 2.200000000000000000e+01 2.300000000000000000e+01 2.400000000000000000e+01 2.500000000000000000e+01 2.600000000000000000e+01 2.700000000000000000e+01 2.800000000000000000e+01 2.900000000000000000e+01 3.000000000000000000e+01 3.100000000000000000e+01 3.200000000000000000e+01 3.300000000000000000e+01 3.400000000000000000e+01 3.500000000000000000e+01 3.600000000000000000e+01 3.700000000000000000e+01 3.800000000000000000e+01 3.900000000000000000e+01 4.000000000000000000e+01 4.100000000000000000e+01 4.200000000000000000e+01 4.300000000000000000e+01 4.400000000000000000e+01 4.500000000000000000e+01 4.600000000000000000e+01 4.700000000000000000e+01 4.800000000000000000e+01 4.900000000000000000e+01 5.000000000000000000e+01 5.100000000000000000e+01 5.200000000000000000e+01 5.300000000000000000e+01 5.400000000000000000e+01 5.500000000000000000e+01 5.600000000000000000e+01 5.700000000000000000e+01 5.800000000000000000e+01 5.900000000000000000e+01 6.000000000000000000e+01 6.100000000000000000e+01 6.200000000000000000e+01 6.300000000000000000e+01 6.400000000000000000e+01 6.500000000000000000e+01 6.600000000000000000e+01 6.700000000000000000e+01 6.800000000000000000e+01 6.900000000000000000e+01 7.000000000000000000e+01 7.100000000000000000e+01 7.200000000000000000e+01 7.300000000000000000e+01 7.400000000000000000e+01 7.500000000000000000e+01 7.600000000000000000e+01 7.700000000000000000e+01 7.800000000000000000e+01 7.900000000000000000e+01 8.000000000000000000e+01 8.100000000000000000e+01 8.200000000000000000e+01 8.300000000000000000e+01 8.400000000000000000e+01 8.500000000000000000e+01 8.600000000000000000e+01 8.700000000000000000e+01 8.800000000000000000e+01 8.900000000000000000e+01 9.000000000000000000e+01 9.100000000000000000e+01 9.200000000000000000e+01 9.300000000000000000e+01 9.400000000000000000e+01 9.500000000000000000e+01 9.600000000000000000e+01 9.700000000000000000e+01 9.800000000000000000e+01 9.900000000000000000e+01 1.000000000000000000e+02 1.010000000000000000e+02 1.020000000000000000e+02 1.030000000000000000e+02 1.040000000000000000e+02 1.050000000000000000e+02 1.060000000000000000e+02 1.070000000000000000e+02 1.080000000000000000e+02 1.090000000000000000e+02 1.100000000000000000e+02 1.110000000000000000e+02 1.120000000000000000e+02 1.130000000000000000e+02 1.140000000000000000e+02 1.150000000000000000e+02 1.160000000000000000e+02 1.170000000000000000e+02 1.180000000000000000e+02 1.190000000000000000e+02 1.200000000000000000e+02 1.210000000000000000e+02 1.220000000000000000e+02 1.230000000000000000e+02 1.240000000000000000e+02 1.250000000000000000e+02 1.260000000000000000e+02 1.270000000000000000e+02 1.280000000000000000e+02 1.290000000000000000e+02 1.300000000000000000e+02 1.310000000000000000e+02 1.320000000000000000e+02 1.330000000000000000e+02 1.340000000000000000e+02 1.350000000000000000e+02 1.360000000000000000e+02 1.370000000000000000e+02 1.380000000000000000e+02 1.390000000000000000e+02 1.400000000000000000e+02 1.410000000000000000e+02 1.420000000000000000e+02 1.430000000000000000e+02 1.440000000000000000e+02 1.450000000000000000e+02 1.460000000000000000e+02 1.470000000000000000e+02 1.480000000000000000e+02 1.490000000000000000e+02 1.500000000000000000e+02 1.510000000000000000e+02 1.520000000000000000e+02 1.530000000000000000e+02 1.540000000000000000e+02 1.550000000000000000e+02 1.560000000000000000e+02 1.570000000000000000e+02 1.580000000000000000e+02 1.590000000000000000e+02 1.600000000000000000e+02 1.610000000000000000e+02 1.620000000000000000e+02 1.630000000000000000e+02 1.640000000000000000e+02 1.650000000000000000e+02 1.660000000000000000e+02 1.670000000000000000e+02 1.680000000000000000e+02 1.690000000000000000e+02 1.700000000000000000e+02 1.710000000000000000e+02 1.720000000000000000e+02 1.730000000000000000e+02 1.740000000000000000e+02 1.750000000000000000e+02 1.760000000000000000e+02 1.770000000000000000e+02 1.780000000000000000e+02 1.790000000000000000e+02 1.800000000000000000e+02 1.810000000000000000e+02 1.820000000000000000e+02 1.830000000000000000e+02 1.840000000000000000e+02 1.850000000000000000e+02 1.860000000000000000e+02 1.870000000000000000e+02 1.880000000000000000e+02 1.890000000000000000e+02 1.900000000000000000e+02 1.910000000000000000e+02 1.920000000000000000e+02 1.930000000000000000e+02 1.940000000000000000e+02 1.950000000000000000e+02 1.960000000000000000e+02 1.970000000000000000e+02 1.980000000000000000e+02 1.990000000000000000e+02 2.000000000000000000e+02 2.010000000000000000e+02 2.020000000000000000e+02 2.030000000000000000e+02 2.040000000000000000e+02 2.050000000000000000e+02 2.060000000000000000e+02 2.070000000000000000e+02 2.080000000000000000e+02 2.090000000000000000e+02 2.100000000000000000e+02 2.110000000000000000e+02 2.120000000000000000e+02 2.130000000000000000e+02 2.140000000000000000e+02 2.150000000000000000e+02 2.160000000000000000e+02 2.170000000000000000e+02 2.180000000000000000e+02 2.190000000000000000e+02 2.200000000000000000e+02 2.210000000000000000e+02 2.220000000000000000e+02 2.230000000000000000e+02 2.240000000000000000e+02 2.250000000000000000e+02 2.260000000000000000e+02 2.270000000000000000e+02 2.280000000000000000e+02 2.290000000000000000e+02 2.300000000000000000e+02 2.310000000000000000e+02 2.320000000000000000e+02 2.330000000000000000e+02 2.340000000000000000e+02 2.350000000000000000e+02 2.360000000000000000e+02 2.370000000000000000e+02 2.380000000000000000e+02 2.390000000000000000e+02 2.400000000000000000e+02 2.410000000000000000e+02 2.420000000000000000e+02 2.430000000000000000e+02 2.440000000000000000e+02 2.450000000000000000e+02 2.460000000000000000e+02 2.470000000000000000e+02 2.480000000000000000e+02 2.490000000000000000e+02 2.500000000000000000e+02 2.510000000000000000e+02 2.520000000000000000e+02 2.530000000000000000e+02 2.540000000000000000e+02 2.550000000000000000e+02 2.560000000000000000e+02 2.570000000000000000e+02 2.580000000000000000e+02 2.590000000000000000e+02 2.600000000000000000e+02 2.610000000000000000e+02 2.620000000000000000e+02 2.630000000000000000e+02 2.640000000000000000e+02 2.650000000000000000e+02 2.660000000000000000e+02 2.670000000000000000e+02 2.680000000000000000e+02 2.690000000000000000e+02 2.700000000000000000e+02 2.710000000000000000e+02 2.720000000000000000e+02 2.730000000000000000e+02 2.740000000000000000e+02 2.750000000000000000e+02 2.760000000000000000e+02 2.770000000000000000e+02 2.780000000000000000e+02 2.790000000000000000e+02 2.800000000000000000e+02 2.810000000000000000e+02 2.820000000000000000e+02 2.830000000000000000e+02 2.840000000000000000e+02 2.850000000000000000e+02 2.860000000000000000e+02 2.870000000000000000e+02 2.880000000000000000e+02 2.890000000000000000e+02 2.900000000000000000e+02 2.910000000000000000e+02 2.920000000000000000e+02 2.930000000000000000e+02 2.940000000000000000e+02 2.950000000000000000e+02 2.960000000000000000e+02 2.970000000000000000e+02 2.980000000000000000e+02 2.990000000000000000e+02 3.000000000000000000e+02 3.010000000000000000e+02 3.020000000000000000e+02 3.030000000000000000e+02 3.040000000000000000e+02 3.050000000000000000e+02 3.060000000000000000e+02 3.070000000000000000e+02 3.080000000000000000e+02 3.090000000000000000e+02 3.100000000000000000e+02 3.110000000000000000e+02 3.120000000000000000e+02 3.130000000000000000e+02 3.140000000000000000e+02 3.150000000000000000e+02 3.160000000000000000e+02 3.170000000000000000e+02 3.180000000000000000e+02 3.190000000000000000e+02 3.200000000000000000e+02 3.210000000000000000e+02 3.220000000000000000e+02 3.230000000000000000e+02 3.240000000000000000e+02 3.250000000000000000e+02 3.260000000000000000e+02 3.270000000000000000e+02 3.280000000000000000e+02 3.290000000000000000e+02 3.300000000000000000e+02 3.310000000000000000e+02 3.320000000000000000e+02 3.330000000000000000e+02 3.340000000000000000e+02 3.350000000000000000e+02 3.360000000000000000e+02 3.370000000000000000e+02 3.380000000000000000e+02 3.390000000000000000e+02 3.400000000000000000e+02 3.410000000000000000e+02 3.420000000000000000e+02 3.430000000000000000e+02 3.440000000000000000e+02 3.450000000000000000e+02 3.460000000000000000e+02 3.470000000000000000e+02 3.480000000000000000e+02 3.490000000000000000e+02 3.500000000000000000e+02 3.510000000000000000e+02 3.520000000000000000e+02 3.530000000000000000e+02 3.540000000000000000e+02 3.550000000000000000e+02 3.560000000000000000e+02 3.570000000000000000e+02 3.580000000000000000e+02 3.590000000000000000e+02 3.600000000000000000e+02 3.610000000000000000e+02 3.620000000000000000e+02 3.630000000000000000e+02 3.640000000000000000e+02 3.650000000000000000e+02 3.660000000000000000e+02 3.670000000000000000e+02 3.680000000000000000e+02 3.690000000000000000e+02 3.700000000000000000e+02 3.710000000000000000e+02 3.720000000000000000e+02 3.730000000000000000e+02 3.740000000000000000e+02 3.750000000000000000e+02 3.760000000000000000e+02 3.770000000000000000e+02 3.780000000000000000e+02 3.790000000000000000e+02 3.800000000000000000e+02 3.810000000000000000e+02 3.820000000000000000e+02 3.830000000000000000e+02 3.840000000000000000e+02 3.850000000000000000e+02 3.860000000000000000e+02 3.870000000000000000e+02 3.880000000000000000e+02 3.890000000000000000e+02 3.900000000000000000e+02 3.910000000000000000e+02 3.920000000000000000e+02 3.930000000000000000e+02 3.940000000000000000e+02 3.950000000000000000e+02 3.960000000000000000e+02 3.970000000000000000e+02 3.980000000000000000e+02 3.990000000000000000e+02 4.000000000000000000e+02 4.010000000000000000e+02 4.020000000000000000e+02 4.030000000000000000e+02 4.040000000000000000e+02 4.050000000000000000e+02 4.060000000000000000e+02 4.070000000000000000e+02 4.080000000000000000e+02 4.090000000000000000e+02 4.100000000000000000e+02 4.110000000000000000e+02 4.120000000000000000e+02 4.130000000000000000e+02 4.140000000000000000e+02 4.150000000000000000e+02 4.160000000000000000e+02 4.170000000000000000e+02 4.180000000000000000e+02 4.190000000000000000e+02 4.200000000000000000e+02 4.210000000000000000e+02 4.220000000000000000e+02 4.230000000000000000e+02 4.240000000000000000e+02 4.250000000000000000e+02 4.260000000000000000e+02 4.270000000000000000e+02 4.280000000000000000e+02 4.290000000000000000e+02 4.300000000000000000e+02 4.310000000000000000e+02 4.320000000000000000e+02 4.330000000000000000e+02 4.340000000000000000e+02 4.350000000000000000e+02 4.360000000000000000e+02 4.370000000000000000e+02 4.380000000000000000e+02 4.390000000000000000e+02 4.400000000000000000e+02 4.410000000000000000e+02 4.420000000000000000e+02 4.430000000000000000e+02 4.440000000000000000e+02 4.450000000000000000e+02 4.460000000000000000e+02 4.470000000000000000e+02 4.480000000000000000e+02 4.490000000000000000e+02 4.500000000000000000e+02 4.510000000000000000e+02 4.520000000000000000e+02 4.530000000000000000e+02 4.540000000000000000e+02 4.550000000000000000e+02 4.560000000000000000e+02 4.570000000000000000e+02 4.580000000000000000e+02 4.590000000000000000e+02 4.600000000000000000e+02 4.610000000000000000e+02 4.620000000000000000e+02 4.630000000000000000e+02 4.640000000000000000e+02 4.650000000000000000e+02 4.660000000000000000e+02 4.670000000000000000e+02 4.680000000000000000e+02 4.690000000000000000e+02 4.700000000000000000e+02 4.710000000000000000e+02 4.720000000000000000e+02 4.730000000000000000e+02 4.740000000000000000e+02 4.750000000000000000e+02 4.760000000000000000e+02 4.770000000000000000e+02 4.780000000000000000e+02 4.790000000000000000e+02 4.800000000000000000e+02 4.810000000000000000e+02 4.820000000000000000e+02 4.830000000000000000e+02 4.840000000000000000e+02 4.850000000000000000e+02 4.860000000000000000e+02 4.870000000000000000e+02 4.880000000000000000e+02 4.890000000000000000e+02 4.900000000000000000e+02 4.910000000000000000e+02 4.920000000000000000e+02 4.930000000000000000e+02 4.940000000000000000e+02 4.950000000000000000e+02 4.960000000000000000e+02 4.970000000000000000e+02 4.980000000000000000e+02 4.990000000000000000e+02 5.000000000000000000e+02 5.010000000000000000e+02 5.020000000000000000e+02 5.030000000000000000e+02 5.040000000000000000e+02 5.050000000000000000e+02 5.060000000000000000e+02 5.070000000000000000e+02 5.080000000000000000e+02 5.090000000000000000e+02 5.100000000000000000e+02 5.110000000000000000e+02 5.120000000000000000e+02 5.130000000000000000e+02 5.140000000000000000e+02 5.150000000000000000e+02 5.160000000000000000e+02 5.170000000000000000e+02 5.180000000000000000e+02 5.190000000000000000e+02 5.200000000000000000e+02 5.210000000000000000e+02 5.220000000000000000e+02 5.230000000000000000e+02 5.240000000000000000e+02 5.250000000000000000e+02 5.260000000000000000e+02 5.270000000000000000e+02 5.280000000000000000e+02 5.290000000000000000e+02 5.300000000000000000e+02 5.310000000000000000e+02 5.320000000000000000e+02 5.330000000000000000e+02 5.340000000000000000e+02 5.350000000000000000e+02 5.360000000000000000e+02 5.370000000000000000e+02 5.380000000000000000e+02 5.390000000000000000e+02 5.400000000000000000e+02 5.410000000000000000e+02 5.420000000000000000e+02 5.430000000000000000e+02 5.440000000000000000e+02 5.450000000000000000e+02 5.460000000000000000e+02 5.470000000000000000e+02 5.480000000000000000e+02 5.490000000000000000e+02 5.500000000000000000e+02 5.510000000000000000e+02 5.520000000000000000e+02 5.530000000000000000e+02 5.540000000000000000e+02 5.550000000000000000e+02 5.560000000000000000e+02 5.570000000000000000e+02 5.580000000000000000e+02 5.590000000000000000e+02 5.600000000000000000e+02 5.610000000000000000e+02 5.620000000000000000e+02 5.630000000000000000e+02 5.640000000000000000e+02 5.650000000000000000e+02 5.660000000000000000e+02 5.670000000000000000e+02 5.680000000000000000e+02 5.690000000000000000e+02 5.700000000000000000e+02 5.710000000000000000e+02 5.720000000000000000e+02 5.730000000000000000e+02 5.740000000000000000e+02 5.750000000000000000e+02 5.760000000000000000e+02 5.770000000000000000e+02 5.780000000000000000e+02 5.790000000000000000e+02 5.800000000000000000e+02 5.810000000000000000e+02 5.820000000000000000e+02 5.830000000000000000e+02 5.840000000000000000e+02 5.850000000000000000e+02 5.860000000000000000e+02 5.870000000000000000e+02 5.880000000000000000e+02 5.890000000000000000e+02 5.900000000000000000e+02 5.910000000000000000e+02 5.920000000000000000e+02 5.930000000000000000e+02 5.940000000000000000e+02 5.950000000000000000e+02 5.960000000000000000e+02 5.970000000000000000e+02 5.980000000000000000e+02 5.990000000000000000e+02 6.000000000000000000e+02 6.010000000000000000e+02 6.020000000000000000e+02 6.030000000000000000e+02 6.040000000000000000e+02 6.050000000000000000e+02 6.060000000000000000e+02 6.070000000000000000e+02 6.080000000000000000e+02 6.090000000000000000e+02 6.100000000000000000e+02 6.110000000000000000e+02 6.120000000000000000e+02 6.130000000000000000e+02 6.140000000000000000e+02 6.150000000000000000e+02 6.160000000000000000e+02 6.170000000000000000e+02 6.180000000000000000e+02 6.190000000000000000e+02 6.200000000000000000e+02 6.210000000000000000e+02 6.220000000000000000e+02 6.230000000000000000e+02 6.240000000000000000e+02 6.250000000000000000e+02 6.260000000000000000e+02 6.270000000000000000e+02 6.280000000000000000e+02 6.290000000000000000e+02 6.300000000000000000e+02 6.310000000000000000e+02 6.320000000000000000e+02 6.330000000000000000e+02 6.340000000000000000e+02 6.350000000000000000e+02 6.360000000000000000e+02 6.370000000000000000e+02 6.380000000000000000e+02 6.390000000000000000e+02 6.400000000000000000e+02 6.410000000000000000e+02 6.420000000000000000e+02 6.430000000000000000e+02 6.440000000000000000e+02 6.450000000000000000e+02 6.460000000000000000e+02 6.470000000000000000e+02 6.480000000000000000e+02 6.490000000000000000e+02 6.500000000000000000e+02 6.510000000000000000e+02 6.520000000000000000e+02 6.530000000000000000e+02 6.540000000000000000e+02 6.550000000000000000e+02 6.560000000000000000e+02 6.570000000000000000e+02 6.580000000000000000e+02 6.590000000000000000e+02 6.600000000000000000e+02 6.610000000000000000e+02 6.620000000000000000e+02 6.630000000000000000e+02 6.640000000000000000e+02 6.650000000000000000e+02 6.660000000000000000e+02 6.670000000000000000e+02 6.680000000000000000e+02 6.690000000000000000e+02 6.700000000000000000e+02 6.710000000000000000e+02 6.720000000000000000e+02 6.730000000000000000e+02 6.740000000000000000e+02 6.750000000000000000e+02 6.760000000000000000e+02 6.770000000000000000e+02 6.780000000000000000e+02 6.790000000000000000e+02 6.800000000000000000e+02 6.810000000000000000e+02 6.820000000000000000e+02 6.830000000000000000e+02 6.840000000000000000e+02 6.850000000000000000e+02 6.860000000000000000e+02 6.870000000000000000e+02 6.880000000000000000e+02 6.890000000000000000e+02 6.900000000000000000e+02 6.910000000000000000e+02 6.920000000000000000e+02 6.930000000000000000e+02 6.940000000000000000e+02 6.950000000000000000e+02 6.960000000000000000e+02 6.970000000000000000e+02 6.980000000000000000e+02 6.990000000000000000e+02 7.000000000000000000e+02 7.010000000000000000e+02 7.020000000000000000e+02 7.030000000000000000e+02 7.040000000000000000e+02 7.050000000000000000e+02 7.060000000000000000e+02 7.070000000000000000e+02 7.080000000000000000e+02 7.090000000000000000e+02 7.100000000000000000e+02 7.110000000000000000e+02 7.120000000000000000e+02 7.130000000000000000e+02 7.140000000000000000e+02 7.150000000000000000e+02 7.160000000000000000e+02 7.170000000000000000e+02 7.180000000000000000e+02 7.190000000000000000e+02 7.200000000000000000e+02 7.210000000000000000e+02 7.220000000000000000e+02 7.230000000000000000e+02 7.240000000000000000e+02 7.250000000000000000e+02 7.260000000000000000e+02 7.270000000000000000e+02 7.280000000000000000e+02 7.290000000000000000e+02 7.300000000000000000e+02 7.310000000000000000e+02 7.320000000000000000e+02 7.330000000000000000e+02 7.340000000000000000e+02 7.350000000000000000e+02 7.360000000000000000e+02 7.370000000000000000e+02 7.380000000000000000e+02 7.390000000000000000e+02 7.400000000000000000e+02 7.410000000000000000e+02 7.420000000000000000e+02 7.430000000000000000e+02 7.440000000000000000e+02 7.450000000000000000e+02 7.460000000000000000e+02 7.470000000000000000e+02 7.480000000000000000e+02 7.490000000000000000e+02 7.500000000000000000e+02 7.510000000000000000e+02 7.520000000000000000e+02 7.530000000000000000e+02 7.540000000000000000e+02 7.550000000000000000e+02 7.560000000000000000e+02 7.570000000000000000e+02 7.580000000000000000e+02 7.590000000000000000e+02 7.600000000000000000e+02 7.610000000000000000e+02 7.620000000000000000e+02 7.630000000000000000e+02 7.640000000000000000e+02 7.650000000000000000e+02 7.660000000000000000e+02 7.670000000000000000e+02 7.680000000000000000e+02 7.690000000000000000e+02 7.700000000000000000e+02 7.710000000000000000e+02 7.720000000000000000e+02 7.730000000000000000e+02 7.740000000000000000e+02 7.750000000000000000e+02 7.760000000000000000e+02 7.770000000000000000e+02 7.780000000000000000e+02 7.790000000000000000e+02 7.800000000000000000e+02 7.810000000000000000e+02 7.820000000000000000e+02 7.830000000000000000e+02 7.840000000000000000e+02 7.850000000000000000e+02 7.860000000000000000e+02 7.870000000000000000e+02 7.880000000000000000e+02 7.890000000000000000e+02 7.900000000000000000e+02 7.910000000000000000e+02 7.920000000000000000e+02 7.930000000000000000e+02 7.940000000000000000e+02 7.950000000000000000e+02 7.960000000000000000e+02 7.970000000000000000e+02 7.980000000000000000e+02 7.990000000000000000e+02 8.000000000000000000e+02 8.010000000000000000e+02 8.020000000000000000e+02 8.030000000000000000e+02 8.040000000000000000e+02 8.050000000000000000e+02 8.060000000000000000e+02 8.070000000000000000e+02 8.080000000000000000e+02 8.090000000000000000e+02 8.100000000000000000e+02 8.110000000000000000e+02 8.120000000000000000e+02 8.130000000000000000e+02 8.140000000000000000e+02 8.150000000000000000e+02 8.160000000000000000e+02 8.170000000000000000e+02 8.180000000000000000e+02 8.190000000000000000e+02 8.200000000000000000e+02 8.210000000000000000e+02 8.220000000000000000e+02 8.230000000000000000e+02 8.240000000000000000e+02 8.250000000000000000e+02 8.260000000000000000e+02 8.270000000000000000e+02 8.280000000000000000e+02 8.290000000000000000e+02 8.300000000000000000e+02 8.310000000000000000e+02 8.320000000000000000e+02 8.330000000000000000e+02 8.340000000000000000e+02 8.350000000000000000e+02 8.360000000000000000e+02 8.370000000000000000e+02 8.380000000000000000e+02 8.390000000000000000e+02 8.400000000000000000e+02 8.410000000000000000e+02 8.420000000000000000e+02 8.430000000000000000e+02 8.440000000000000000e+02 8.450000000000000000e+02 8.460000000000000000e+02 8.470000000000000000e+02 8.480000000000000000e+02 8.490000000000000000e+02 8.500000000000000000e+02 8.510000000000000000e+02 8.520000000000000000e+02 8.530000000000000000e+02 8.540000000000000000e+02 8.550000000000000000e+02 8.560000000000000000e+02 8.570000000000000000e+02 8.580000000000000000e+02 8.590000000000000000e+02 8.600000000000000000e+02 8.610000000000000000e+02 8.620000000000000000e+02 8.630000000000000000e+02 8.640000000000000000e+02 8.650000000000000000e+02 8.660000000000000000e+02 8.670000000000000000e+02 8.680000000000000000e+02 8.690000000000000000e+02 8.700000000000000000e+02 8.710000000000000000e+02 8.720000000000000000e+02 8.730000000000000000e+02 8.740000000000000000e+02 8.750000000000000000e+02 8.760000000000000000e+02 8.770000000000000000e+02 8.780000000000000000e+02 8.790000000000000000e+02 8.800000000000000000e+02 8.810000000000000000e+02 8.820000000000000000e+02 8.830000000000000000e+02 8.840000000000000000e+02 8.850000000000000000e+02 8.860000000000000000e+02 8.870000000000000000e+02 8.880000000000000000e+02 8.890000000000000000e+02 8.900000000000000000e+02 8.910000000000000000e+02 8.920000000000000000e+02 8.930000000000000000e+02 8.940000000000000000e+02 8.950000000000000000e+02 8.960000000000000000e+02 8.970000000000000000e+02 8.980000000000000000e+02 8.990000000000000000e+02 9.000000000000000000e+02 9.010000000000000000e+02 9.020000000000000000e+02 9.030000000000000000e+02 9.040000000000000000e+02 9.050000000000000000e+02 9.060000000000000000e+02 9.070000000000000000e+02 9.080000000000000000e+02 9.090000000000000000e+02 9.100000000000000000e+02 9.110000000000000000e+02 9.120000000000000000e+02 9.130000000000000000e+02 9.140000000000000000e+02 9.150000000000000000e+02 9.160000000000000000e+02 9.170000000000000000e+02 9.180000000000000000e+02 9.190000000000000000e+02 9.200000000000000000e+02 9.210000000000000000e+02 9.220000000000000000e+02 9.230000000000000000e+02 9.240000000000000000e+02 9.250000000000000000e+02 9.260000000000000000e+02 9.270000000000000000e+02 9.280000000000000000e+02 9.290000000000000000e+02 9.300000000000000000e+02 9.310000000000000000e+02 9.320000000000000000e+02 9.330000000000000000e+02 9.340000000000000000e+02 9.350000000000000000e+02 9.360000000000000000e+02 9.370000000000000000e+02 9.380000000000000000e+02 9.390000000000000000e+02 9.400000000000000000e+02 9.410000000000000000e+02 9.420000000000000000e+02 9.430000000000000000e+02 9.440000000000000000e+02 9.450000000000000000e+02 9.460000000000000000e+02 9.470000000000000000e+02 9.480000000000000000e+02 9.490000000000000000e+02 9.500000000000000000e+02 9.510000000000000000e+02 9.520000000000000000e+02 9.530000000000000000e+02 9.540000000000000000e+02 9.550000000000000000e+02 9.560000000000000000e+02 9.570000000000000000e+02 9.580000000000000000e+02 9.590000000000000000e+02 9.600000000000000000e+02 9.610000000000000000e+02 9.620000000000000000e+02 9.630000000000000000e+02 9.640000000000000000e+02 9.650000000000000000e+02 9.660000000000000000e+02 9.670000000000000000e+02 9.680000000000000000e+02 9.690000000000000000e+02 9.700000000000000000e+02 9.710000000000000000e+02 9.720000000000000000e+02 9.730000000000000000e+02 9.740000000000000000e+02 9.750000000000000000e+02 9.760000000000000000e+02 9.770000000000000000e+02 9.780000000000000000e+02 9.790000000000000000e+02 9.800000000000000000e+02 9.810000000000000000e+02 9.820000000000000000e+02 9.830000000000000000e+02 9.840000000000000000e+02 9.850000000000000000e+02 9.860000000000000000e+02 9.870000000000000000e+02 9.880000000000000000e+02 9.890000000000000000e+02 9.900000000000000000e+02 9.910000000000000000e+02 9.920000000000000000e+02 9.930000000000000000e+02 9.940000000000000000e+02 9.950000000000000000e+02 9.960000000000000000e+02 9.970000000000000000e+02 9.980000000000000000e+02 9.990000000000000000e+02 1.000000000000000000e+03
1.000000000000000021e-02 1.000000000000000021e-02 1.000000000000000021e-02 1.000000000000000021e-02 1.000000000000000021e-02 1.000000000000000021e-02 1.000000000000000021e-02 1.000000000000000021e-02 1.000000000000000021e-02 1.000000000000000021e-02 1.000000000000000021e-02 1.000000000000000021e-02 1.000000000000000021e-02 1.000000000000000021e-02 1.000000000000000021e-02 1.000000000000000021e-02 1.000000000000000021e-02 1.000000000000000021e-02 1.000000000000000021e-02 1.000000000000000021e-02 1.000000000000000021e-02 1.000000000000000021e-02 1.000000000000000021e-02 1.000000000000000021e-02 1.000000000000000021e-02 1.000000000000000021e-02 1.000000000000000021e-02 1.000000000000000021e-02 1.000000000000000021e-02 1.000000000000000021e-02 1.000000000000000021e-02 1.000000000000000021e-02 1.000000000000000021e-02 1.000000000000000021e-02 1.000000000000000021e-02 1.000000000000000021e-02 1.000000000000000021e-02 1.000000000000000021e-02 1.000000000000000021e-02 1.000000000000000021e-02 1.000000000000000021e-02 1.000000000000000021e-02 1.000000000000000021e-02 1.000000000000000021e-02 1.000000000000000021e-02 1.000000000000000021e-02 1.000000000000000021e-02 1.000000000000000021e-02 1.000000000000000021e-02 1.000000000000000021e-02 1.000000000000000021e-02 1.000000000000000021e-02 1.000000000000000021e-02 1.000000000000000021e-02 1.000000000000000021e-02 1.000000000000000021e-02 1.000000000000000021e-02 1.000000000000000021e-02 1.000000000000000021e-02 1.000000000000000021e-02 1.000000000000000021e-02 1.000000000000000021e-02 1.000000000000000021e-02 1.000000000000000021e-02 1.000000000000000021e-02 1.000000000000000021e-02 1.000000000000000021e-02 1.000000000000000021e-02 1.000000000000000021e-02 1.000000000000000021e-02 1.000000000000000021e-02 1.000000000000000021e-02 1.000000000000000021e-02 1.000000000000000021e-02 1.000000000000000021e-02 1.000000000000000021e-02 1.000000000000000021e-02 1.000000000000000021e-02 1.000000000000000021e-02 1.000000000000000021e-02 1.000000000000000021e-02 1.000000000000000021e-02 1.000000000000000021e-02 1.000000000000000021e-02 1.000000000000000021e-02 1.000000000000000021e-02 1.000000000000000021e-02 1.000000000000000021e-02 1.000000000000000021e-02 1.000000000000000021e-02 1.000000000000000021e-02 1.000000000000000021e-02 1.000000000000000021e-02 1.000000000000000021e-02 1.000000000000000021e-02 1.000000000000000021e-02 1.000000000000000021e-02 1.000000000000000021e-02 1.000000000000000021e-02 1.000000000000000021e-02 1.000000000000000021e-02 1.000000000000000021e-02 1.000000000000000021e-02 1.000000000000000021e-02 1.000000000000000021e-02 1.000000000000000021e-02 1.000000000000000021e-02 1.000000000000000021e-02 1.000000000000000021e-02 1.000000000000000021e-02 1.000000000000000021e-02 1.000000000000000021e-02 1.000000000000000021e-02 1.000000000000000021e-02 1.000000000000000021e-02 1.000000000000000021e-02 1.000000000000000021e-02 1.000000000000000021e-02 1.000000000000000021e-02 1.000000000000000021e-02 1.000000000000000021e-02 1.000000000000000021e-02 1.000000000000000021e-02 1.000000000000000021e-02 1.000000000000000021e-02 1.000000000000000021e-02 1.000000000000000021e-02 1.000000000000000021e-02 1.000000000000000021e-02 1.000000000000000021e-02 1.000000000000000021e-02 1.000000000000000021e-02 1.000000000000000021e-02 1.000000000000000021e-02 1.000000000000000021e-02 1.000000000000000021e-02 1.000000000000000021e-02 1.000000000000000021e-02 1.000000000000000021e-02 1.000000000000000021e-02 1.000000000000000021e-02 1.000000000000000021e-02 1.000000000000000021e-02 1.000000000000000021e-02 1.000000000000000021e-02 1.000000000000000021e-02 1.000000000000000021e-02 1.000000000000000021e-02 1.000000000000000021e-02 1.000000000000000021e-02 1.000000000000000021e-02 1.000000000000000021e-02 1.000000000000000021e-02 1.000000000000000021e-02 1.000000000000000021e-02 1.000000000000000021e-02 1.000000000000000021e-02 1.000000000000000021e-02 1.000000000000000021e-02 1.000000000000000021e-02 1.000000000000000021e-02 1.000000000000000021e-02 1.000000000000000021e-02 1.000000000000000021e-02 1.000000000000000021e-02 1.000000000000000021e-02 1.000000000000000021e-02 1.000000000000000021e-02 1.000000000000000021e-02 1.000000000000000021e-02 1.000000000000000021e-02 1.000000000000000021e-02 1.000000000000000021e-02 1.000000000000000021e-02 1.000000000000000021e-02 1.000000000000000021e-02 1.000000000000000021e-02 1.000000000000000021e-02 1.000000000000000021e-02 1.000000000000000021e-02 1.000000000000000021e-02 1.000000000000000021e-02 1.000000000000000021e-02 1.000000000000000021e-02 1.000000000000000021e-02 1.000000000000000021e-02 1.000000000000000021e-02 1.000000000000000021e-02 1.000000000000000021e-02 1.000000000000000021e-02 1.000000000000000021e-02 1.000000000000000021e-02 1.000000000000000021e-02 1.000000000000000021e-02 1.000000000000000021e-02 1.000000000000000021e-02 1.000000000000000021e-02 1.000000000000000021e-02 1.000000000000000021e-02 1.000000000000000021e-02 1.000000000000000021e-02 1.000000000000000021e-02 1.000000000000000021e-02 1.000000000000000021e-02 1.000000000000000021e-02 1.000000000000000021e-02 1.000000000000000021e-02 1.000000000000000021e-02 1.000000000000000021e-02 1.000000000000000021e-02 1.000000000000000021e-02 1.000000000000000021e-02 1.000000000000000021e-02 1.000000000000000021e-02 1.000000000000000021e-02 1.000000000000000021e-02 1.000000000000000021e-02 1.000000000000000021e-02 1.000000000000000021e-02 1.000000000000000021e-02 1.000000000000000021e-02 1.000000000000000021e-02 1.000000000000000021e-02 1.000000000000000021e-02 1.000000000000000021e-02 1.000000000000000021e-02 1.000000000000000021e-02 1.000000000000000021e-02 1.000000000000000021e-02 1.000000000000000021e-02 1.000000000000000021e-02 1.000000000000000021e-02 1.000000000000000021e-02 1.000000000000000021e-02 1.000000000000000021e-02 1.000000000000000021e-02 1.000000000000000021e-02 1.000000000000000021e-02 1.000000000000000021e-02 1.000000000000000021e-02 1.000000000000000021e-02 1.000000000000000021e-02 1.000000000000000021e-02 1.000000000000000021e-02 1.000000000000000021e-02 1.000000000000000021e-02 1.000000000000000021e-02 1.000000000000000021e-02 1.000000000000000021e-02 1.000000000000000021e-02 1.000000000000000021e-02 1.000000000000000021e-02 1.000000000000000021e-02 1.000000000000000021e-02 1.000000000000000021e-02 1.000000000000000021e-02 1.000000000000000021e-02 1.000000000000000021e-02 1.000000000000000021e-02 1.000000000000000021e-02 1.000000000000000021e-02 1.000000000000000021e-02 1.000000000000000021e-02 1.000000000000000021e-02 1.000000000000000021e-02 1.000000000000000021e-02 1.000000000000000021e-02 1.000000000000000021e-02 1.000000000000000021e-02 1.000000000000000021e-02 1.000000000000000021e-02 1.000000000000000021e-02 1.000000000000000021e-02 1.000000000000000021e-02 1.000000000000000021e-02 1.000000000000000021e-02 1.000000000000000021e-02 1.000000000000000021e-02 1.000000000000000021e-02 1.000000000000000021e-02 1.000000000000000021e-02 1.000000000000000021e-02 1.000000000000000021e-02 1.000000000000000021e-02 1.000000000000000021e-02 1.000000000000000021e-02 1.000000000000000021e-02 1.000000000000000021e-02 1.000000000000000021e-02 1.000000000000000021e-02 1.000000000000000021e-02 1.000000000000000021e-02 1.000000000000000021e-02 1.000000000000000021e-02 1.000000000000000021e-02 1.000000000000000021e-02 1.000000000000000021e-02 1.000000000000000021e-02 1.000000000000000021e-02 1.000000000000000021e-02 1.000000000000000021e-02 1.000000000000000021e-02 1.000000000000000021e-02 1.000000000000000021e-02 1.000000000000000021e-02 1.000000000000000021e-02 1.000000000000000021e-02 1.000000000000000021e-02 1.000000000000000021e-02 1.000000000000000021e-02 1.000000000000000021e-02 1.000000000000000021e-02 1.000000000000000021e-02 1.000000000000000021e-02 1.000000000000000021e-02 1.000000000000000021e-02 1.000000000000000021e-02 1.000000000000000021e-02 1.000000000000000021e-02 1.000000000000000021e-02 1.000000000000000021e-02 1.000000000000000021e-02 1.000000000000000021e-02 1.000000000000000021e-02 1.000000000000000021e-02 1.000000000000000021e-02 1.000000000000000021e-02 1.000000000000000021e-02 1.000000000000000021e-02 1.000000000000000021e-02 1.000000000000000021e-02 1.000000000000000021e-02 1.000000000000000021e-02 1.000000000000000021e-02 1.000000000000000021e-02 1.000000000000000021e-02 1.000000000000000021e-02 1.000000000000000021e-02 1.000000000000000021e-02 1.000000000000000021e-02 1.000000000000000021e-02 1.000000000000000021e-02 1.000000000000000021e-02 1.000000000000000021e-02 1.000000000000000021e-02 1.000000000000000021e-02 1.000000000000000021e-02 1.000000000000000021e-02 1.000000000000000021e-02 1.000000000000000021e-02 1.000000000000000021e-02 1.000000000000000021e-02 1.000000000000000021e-02 1.000000000000000021e-02 1.000000000000000021e-02 1.000000000000000021e-02 1.000000000000000021e-02 1.000000000000000021e-02 1.000000000000000021e-02 1.000000000000000021e-02 1.000000000000000021e-02 1.000000000000000021e-02 1.000000000000000021e-02 1.000000000000000021e-02 1.000000000000000021e-02 1.000000000000000021e-02 1.000000000000000021e-02 1.000000000000000021e-02 1.000000000000000021e-02 1.000000000000000021e-02 1.000000000000000021e-02 1.000000000000000021e-02 1.000000000000000021e-02 1.000000000000000021e-02 1.000000000000000021e-02 1.000000000000000021e-02 1.000000000000000021e-02 1.000000000000000021e-02 1.000000000000000021e-02 1.000000000000000021e-02 1.000000000000000021e-02 1.000000000000000021e-02 1.000000000000000021e-02 1.000000000000000021e-02 1.000000000000000021e-02 1.000000000000000021e-02 1.000000000000000021e-02 1.000000000000000021e-02 1.000000000000000021e-02 1.000000000000000021e-02 1.000000000000000021e-02 1.000000000000000021e-02 1.000000000000000021e-02 1.000000000000000021e-02 1.000000000000000021e-02 1.000000000000000021e-02 1.000000000000000021e-02 1.000000000000000021e-02 1.000000000000000021e-02 1.000000000000000021e-02 1.000000000000000021e-02 1.000000000000000021e-02 1.000000000000000021e-02 1.000000000000000021e-02 1.000000000000000021e-02 1.000000000000000021e-02 1.000000000000000021e-02 1.000000000000000021e-02 1.000000000000000021e-02 1.000000000000000021e-02 1.000000000000000021e-02 1.000000000000000021e-02 1.000000000000000021e-02 1.000000000000000021e-02 1.000000000000000021e-02 1.000000000000000021e-02 1.000000000000000021e-02 1.000000000000000021e-02 1.000000000000000021e-02 1.000000000000000021e-02 1.000000000000000021e-02 1.000000000000000021e-02 1.000000000000000021e-02 1.000000000000000021e-02 1.000000000000000021e-02 1.000000000000000021e-02 1.000000000000000021e-02 1.000000000000000021e-02 1.000000000000000021e-02 1.000000000000000021e-02 1.000000000000000021e-02 1.000000000000000021e-02 1.000000000000000021e-02 1.000000000000000021e-02 1.000000000000000021e-02 1.000000000000000021e-02 1.000000000000000021e-02 1.000000000000000021e-02 1.000000000000000021e-02 1.000000000000000021e-02 1.000000000000000021e-02 1.000000000000000021e-02 1.000000000000000021e-02 1.000000000000000021e-02 1.000000000000000021e-02 1.000000000000000021e-02 1.000000000000000021e-02 1.000000000000000021e-02 1.000000000000000021e-02 1.000000000000000021e-02 1.000000000000000021e-02 1.000000000000000021e-02 1.000000000000000021e-02 1.000000000000000021e-02 1.000000000000000021e-02 1.000000000000000021e-02 1.000000000000000021e-02 1.000000000000000021e-02 1.000000000000000021e-02 1.000000000000000021e-02 1.000000000000000021e-02 1.000000000000000021e-02 1.000000000000000021e-02 1.000000000000000021e-02 1.000000000000000021e-02 1.000000000000000021e-02 1.000000000000000021e-02 1.000000000000000021e-02 1.000000000000000021e-02 1.000000000000000021e-02 1.000000000000000021e-02 1.000000000000000021e-02 1.000000000000000021e-02 1.000000000000000021e-02 1.000000000000000021e-02 1.000000000000000021e-02 1.000000000000000021e-02 1.000000000000000021e-02 1.000000000000000021e-02 1.000000000000000021e-02 1.000000000000000021e-02 1.000000000000000021e-02 1.000000000000000021e-02 1.000000000000000021e-02 1.000000000000000021e-02 1.000000000000000021e-02 1.000000000000000021e-02 1.000000000000000021e-02 1.000000000000000021e-02 1.000000000000000021e-02 1.000000000000000021e-02 1.000000000000000021e-02 1.000000000000000021e-02 1.000000000000000021e-02 1.000000000000000021e-02 1.000000000000000021e-02 1.000000000000000021e-02 1.000000000000000021e-02 1.000000000000000021e-02 1.000000000000000021e-02 1.000000000000000021e-02 1.000000000000000021e-02 1.000000000000000021e-02 1.000000000000000021e-02 1.000000000000000021e-02 1.000000000000000021e-02 1.000000000000000021e-02 1.000000000000000021e-02 1.000000000000000021e-02 1.000000000000000021e-02 1.000000000000000021e-02 1.000000000000000021e-02 1.000000000000000021e-02 1.000000000000000021e-02 1.000000000000000021e-02 1.000000000000000021e-02 1.000000000000000021e-02 1.000000000000000021e-02 1.000000000000000021e-02 1.000000000000000021e-02 1.000000000000000021e-02 1.000000000000000021e-02 1.000000000000000021e-02 1.000000000000000021e-02 1.000000000000000021e-02 1.000000000000000021e-02 1.000000000000000021e-02 1.000000000000000021e-02 1.000000000000000021e-02 1.000000000000000021e-02 1.000000000000000021e-02 1.000000000000000021e-02 1.000000000000000021e-02 1.000000000000000021e-02 1.000000000000000021e-02 1.000000000000000021e-02 1.000000000000000021e-02 1.000000000000000021e-02 1.000000000000000021e-02 1.000000000000000021e-02 1.000000000000000021e-02 1.000000000000000021e-02 1.000000000000000021e-02 1.000000000000000021e-02 1.000000000000000021e-02 1.000000000000000021e-02 1.000000000000000021e-02 1.000000000000000021e-02 1.000000000000000021e-02 1.000000000000000021e-02 1.000000000000000021e-02 1.000000000000000021e-02 1.000000000000000021e-02 1.000000000000000021e-02 1.000000000000000021e-02 1.000000000000000021e-02 1.000000000000000021e-02 1.000000000000000021e-02 1.000000000000000021e-02 1.000000000000000021e-02 1.000000000000000021e-02 1.000000000000000021e-02 1.000000000000000021e-02 1.000000000000000021e-02 1.000000000000000021e-02 1.000000000000000021e-02 1.000000000000000021e-02 1.000000000000000021e-02 1.000000000000000021e-02 1.000000000000000021e-02 1.000000000000000021e-02 1.000000000000000021e-02 1.000000000000000021e-02 1.000000000000000021e-02 1.000000000000000021e-02 1.000000000000000021e-02 1.000000000000000021e-02 1.000000000000000021e-02 1.000000000000000021e-02 1.000000000000000021e-02 1.000000000000000021e-02 1.000000000000000021e-02 1.000000000000000021e-02 1.000000000000000021e-02 1.000000000000000021e-02 1.000000000000000021e-02 1.000000000000000021e-02 1.000000000000000021e-02 1.000000000000000021e-02 1.000000000000000021e-02 1.000000000000000021e-02 1.000000000000000021e-02 1.000000000000000021e-02 1.000000000000000021e-02 1.000000000000000021e-02 1.000000000000000021e-02 1.000000000000000021e-02 1.000000000000000021e-02 1.000000000000000021e-02 1.000000000000000021e-02 1.000000000000000021e-02 1.000000000000000021e-02 1.000000000000000021e-02 1.000000000000000021e-02 1.000000000000000021e-02 1.000000000000000021e-02 1.000000000000000021e-02 1.000000000000000021e-02 1.000000000000000021e-02 1.000000000000000021e-02 1.000000000000000021e-02 1.000000000000000021e-02 1.000000000000000021e-02 1.000000000000000021e-02 1.000000000000000021e-02 1.000000000000000021e-02 1.000000000000000021e-02 1.000000000000000021e-02 1.000000000000000021e-02 1.000000000000000021e-02 1.000000000000000021e-02 1.000000000000000021e-02 1.000000000000000021e-02 1.000000000000000021e-02 1.000000000000000021e-02 1.000000000000000021e-02 1.000000000000000021e-02 1.000000000000000021e-02 1.000000000000000021e-02 1.000000000000000021e-02 1.000000000000000021e-02 1.000000000000000021e-02 1.000000000000000021e-02 1.000000000000000021e-02 1.000000000000000021e-02 1.000000000000000021e-02 1.000000000000000021e-02 1.000000000000000021e-02 1.000000000000000021e-02 1.000000000000000021e-02 1.000000000000000021e-02 1.000000000000000021e-02 1.000000000000000021e-02 1.000000000000000021e-02 1.000000000000000021e-02 1.000000000000000021e-02 1.000000000000000021e-02 1.000000000000000021e-02 1.000000000000000021e-02 1.000000000000000021e-02 1.000000000000000021e-02 1.000000000000000021e-02 1.000000000000000021e-02 1.000000000000000021e-02 1.000000000000000021e-02 1.000000000000000021e-02 1.000000000000000021e-02 1.000000000000000021e-02 1.000000000000000021e-02 1.000000000000000021e-02 1.000000000000000021e-02 1.000000000000000021e-02 1.000000000000000021e-02 1.000000000000000021e-02 1.000000000000000021e-02 1.000000000000000021e-02 1.000000000000000021e-02 1.000000000000000021e-02 1.000000000000000021e-02 1.000000000000000021e-02 1.000000000000000021e-02 1.000000000000000021e-02 1.000000000000000021e-02 1.000000000000000021e-02 1.000000000000000021e-02 1.000000000000000021e-02 1.000000000000000021e-02 1.000000000000000021e-02 1.000000000000000021e-02 1.000000000000000021e-02 1.000000000000000021e-02 1.000000000000000021e-02 1.000000000000000021e-02 1.000000000000000021e-02 1.000000000000000021e-02 1.000000000000000021e-02 1.000000000000000021e-02 1.000000000000000021e-02 1.000000000000000021e-02 1.000000000000000021e-02 1.000000000000000021e-02 1.000000000000000021e-02 1.000000000000000021e-02 1.000000000000000021e-02 1.000000000000000021e-02 1.000000000000000021e-02 1.000000000000000021e-02 1.000000000000000021e-02 1.000000000000000021e-02 1.000000000000000021e-02 1.000000000000000021e-02 1.000000000000000021e-02 1.000000000000000021e-02 1.000000000000000021e-02 1.000000000000000021e-02 1.000000000000000021e-02 1.000000000000000021e-02 1.000000000000000021e-02 1.000000000000000021e-02 1.000000000000000021e-02 1.000000000000000021e-02 1.000000000000000021e-02 1.000000000000000021e-02 1.000000000000000021e-02 1.000000000000000021e-02 1.000000000000000021e-02 1.000000000000000021e-02 1.000000000000000021e-02 1.000000000000000021e-02 1.000000000000000021e-02 1.000000000000000021e-02 1.000000000000000021e-02 1.000000000000000021e-02 1.000000000000000021e-02 1.000000000000000021e-02 1.000000000000000021e-02 1.000000000000000021e-02 1.000000000000000021e-02 1.000000000000000021e-02 1.000000000000000021e-02 1.000000000000000021e-02 1.000000000000000021e-02 1.000000000000000021e-02 1.000000000000000021e-02 1.000000000000000021e-02 1.000000000000000021e-02 1.000000000000000021e-02 1.000000000000000021e-02 1.000000000000000021e-02 1.000000000000000021e-02 1.000000000000000021e-02 1.000000000000000021e-02 1.000000000000000021e-02 1.000000000000000021e-02 1.000000000000000021e-02 1.000000000000000021e-02 1.000000000000000021e-02 1.000000000000000021e-02 1.000000000000000021e-02 1.000000000000000021e-02 1.000000000000000021e-02 1.000000000000000021e-02 1.000000000000000021e-02 1.000000000000000021e-02 1.000000000000000021e-02 1.000000000000000021e-02 1.000000000000000021e-02 1.000000000000000021e-02 1.000000000000000021e-02 1.000000000000000021e-02 1.000000000000000021e-02 1.000000000000000021e-02 1.000000000000000021e-02 1.000000000000000021e-02 1.000000000000000021e-02 1.000000000000000021e-02 1.000000000000000021e-02 1.000000000000000021e-02 1.000000000000000021e-02 1.000000000000000021e-02 1.000000000000000021e-02 1.000000000000000021e-02 1.000000000000000021e-02 1.000000000000000021e-02 1.000000000000000021e-02 1.000000000000000021e-02 1.000000000000000021e-02 1.000000000000000021e-02 1.000000000000000021e-02 1.000000000000000021e-02 1.000000000000000021e-02 1.000000000000000021e-02 1.000000000000000021e-02 1.000000000000000021e-02 1.000000000000000021e-02 1.000000000000000021e-02 1.000000000000000021e-02 1.000000000000000021e-02 1.000000000000000021e-02 1.000000000000000021e-02 1.000000000000000021e-02 1.000000000000000021e-02 1.000000000000000021e-02 1.000000000000000021e-02 1.000000000000000021e-02 1.000000000000000021e-02 1.000000000000000021e-02 1.000000000000000021e-02 1.000000000000000021e-02 1.000000000000000021e-02 1.000000000000000021e-02 1.000000000000000021e-02 1.000000000000000021e-02 1.000000000000000021e-02 1.000000000000000021e-02 1.000000000000000021e-02 1.000000000000000021e-02 1.000000000000000021e-02 1.000000000000000021e-02 1.000000000000000021e-02 1.000000000000000021e-02 1.000000000000000021e-02 1.000000000000000021e-02 1.000000000000000021e-02 1.000000000000000021e-02 1.000000000000000021e-02 1.000000000000000021e-02 1.000000000000000021e-02 1.000000000000000021e-02 1.000000000000000021e-02 1.000000000000000021e-02 1.000000000000000021e-02 1.000000000000000021e-02 1.000000000000000021e-02 1.000000000000000021e-02 1.000000000000000021e-02 1.000000000000000021e-02 1.000000000000000021e-02 1.000000000000000021e-02 1.000000000000000021e-02 1.000000000000000021e-02 1.000000000000000021e-02 1.000000000000000021e-02 1.000000000000000021e-02 1.000000000000000021e-02 1.000000000000000021e-02 1.000000000000000021e-02 1.000000000000000021e-02 1.000000000000000021e-02 1.000000000000000021e-02 1.000000000000000021e-02 1.000000000000000021e-02 1.000000000000000021e-02 1.000000000000000021e-02 1.000000000000000021e-02 1.000000000000000021e-02 1.000000000000000021e-02 1.000000000000000021e-02 1.000000000000000021e-02 1.000000000000000021e-02 1.000000000000000021e-02 1.000000000000000021e-02 1.000000000000000021e-02 1.000000000000000021e-02 1.000000000000000021e-02 1.000000000000000021e-02 1.000000000000000021e-02 1.000000000000000021e-02 1.000000000000000021e-02 1.000000000000000021e-02 1.000000000000000021e-02 1.000000000000000021e-02 1.000000000000000021e-02 1.000000000000000021e-02 1.000000000000000021e-02 1.000000000000000021e-02 1.000000000000000021e-02 1.000000000000000021e-02 1.000000000000000021e-02 1.000000000000000021e-02 1.000000000000000021e-02 1.000000000000000021e-02 1.000000000000000021e-02 1.000000000000000021e-02 1.000000000000000021e-02 1.000000000000000021e-02 1.000000000000000021e-02 1.000000000000000021e-02 1.000000000000000021e-02 1.000000000000000021e-02 1.000000000000000021e-02 1.000000000000000021e-02 1.000000000000000021e-02 1.000000000000000021e-02 1.000000000000000021e-02 1.000000000000000021e-02 1.000000000000000021e-02 1.000000000000000021e-02 1.000000000000000021e-02 1.000000000000000021e-02 1.000000000000000021e-02 1.000000000000000021e-02 1.000000000000000021e-02 1.000000000000000021e-02 1.000000000000000021e-02 1.000000000000000021e-02 1.000000000000000021e-02 1.000000000000000021e-02 1.000000000000000021e-02 1.000000000000000021e-02 1.000000000000000021e-02 1.000000000000000021e-02 1.000000000000000021e-02 1.000000000000000021e-02 1.000000000000000021e-02 1.000000000000000021e-02 1.000000000000000021e-02 1.000000000000000021e-02 1.000000000000000021e-02 1.000000000000000021e-02 1.000000000000000021e-02 1.000000000000000021e-02 1.000000000000000021e-02 1.000000000000000021e-02 1.000000000000000021e-02 1.000000000000000021e-02 1.000000000000000021e-02 1.000000000000000021e-02 1.000000000000000021e-02 1.000000000000000021e-02 1.000000000000000021e-02 1.000000000000000021e-02 1.000000000000000021e-02 1.000000000000000021e-02 1.000000000000000021e-02 1.000000000000000021e-02 1.000000000000000021e-02 1.000000000000000021e-02 1.000000000000000021e-02 1.000000000000000021e-02 1.000000000000000021e-02 1.000000000000000021e-02 1.000000000000000021e-02 1.000000000000000021e-02 1.000000000000000021e-02 1.000000000000000021e-02 1.000000000000000021e-02 1.000000000000000021e-02 1.000000000000000021e-02 1.000000000000000021e-02 1.000000000000000021e-02 1.000000000000000021e-02 1.000000000000000021e-02 1.000000000000000021e-02 1.000000000000000021e-02 1.000000000000000021e-02 1.000000000000000021e-02 1.000000000000000021e-02 1.000000000000000021e-02 1.000000000000000021e-02 1.000000000000000021e-02 1.000000000000000021e-02 1.000000000000000021e-02 1.000000000000000021e-02 1.000000000000000021e-02 1.000000000000000021e-02 1.000000000000000021e-02 1.000000000000000021e-02 1.000000000000000021e-02 1.000000000000000021e-02 1.000000000000000021e-02 1.000000000000000021e-02 1.000000000000000021e-02 1.000000000000000021e-02 1.000000000000000021e-02 1.000000000000000021e-02 1.000000000000000021e-02 1.000000000000000021e-02 1.000000000000000021e-02 1.000000000000000021e-02 1.000000000000000021e-02 1.000000000000000021e-02 1.000000000000000021e-02 1.000000000000000021e-02 1.000000000000000021e-02 1.000000000000000021e-02 1.000000000000000021e-02 1.000000000000000021e-02 1.000000000000000021e-02 1.000000000000000021e-02 1.000000000000000021e-02 1.000000000000000021e-02 1.000000000000000021e-02 1.000000000000000021e-02 1.000000000000000021e-02 1.000000000000000021e-02 1.000000000000000021e-02 1.000000000000000021e-02 1.000000000000000021e-02 1.000000000000000021e-02 1.000000000000000021e-02 1.000000000000000021e-02 1.000000000000000021e-02 1.000000000000000021e-02 1.000000000000000021e-02 1.000000000000000021e-02 1.000000000000000021e-02 1.000000000000000021e-02 1.000000000000000021e-02 1.000000000000000021e-02
-1.134100873653267030e+02 1.723282109788227672e+02 3.999700566292549553e+01 -8.992830380919691891e+00 -8.931542108203257158e+01 -1.361096083857244210e+01 -2.112757086629545995e+02 6.897147070137540359e-01 -8.612051231923018690e+01 -1.422237873094648464e+01 -2.014821851859993984e+01 6.610885454348666812e+00 -1.809814106156921509e+00 1.705321535344139363e+02 8.599823768269462221e+01 -3.939640870853956045e+01 -5.363309616911467259e+01 8.051270205907255217e+01 3.335448482974524609e+01 -2.577834679470297985e+01 -8.014743756939094510e+01 -7.502736027902538751e+01 -1.403852042336805717e+01 2.940668768949834444e+01 -1.981160176349184212e+02 -1.003603325467347389e+02 -2.651250427838237300e+01 2.049451323231317019e+02 7.192233202234642420e+01 7.796049426367382296e+01 8.160402126646933141e+01 1.206411089850597529e+00 -8.049021894218861917e+01 2.108018479142814954e+02 -2.488238589346503886e+02 5.976598342986579837e+01 -1.221423101720767193e+02 -3.524448247082289498e+01 4.097511827213013547e+00 1.287876148873871784e+02 -1.249264518155427481e+02 -1.388634334681755078e+01 7.864190162621606817e+01 1.764378370855877449e+02 7.254085100735180447e+01 -6.956277700793640406e+01 4.192570212774794669e+01 -2.883955173181845311e+01 -6.714985687124396918e+01 1.591681466672112322e+02 -7.176238754046703150e+01 -5.298200669121597173e+01 -1.415851871800756498e+02 5.815563488376694679e+00 -5.137923510581975250e+01 3.929606854054214438e+01 -9.018625434207922353e+01 -5.089188252606135876e+01 -1.030793269459535537e+02 -1.580022447910909307e+02 1.979548616425259056e+01 4.608321639690317539e+01 -1.251521435773331064e+02 1.307419798096491981e+01 -8.062163471866006148e+01 4.992871245739254249e+01 1.693545238924506009e+02 -1.466405205070543047e+02 -4.403664489109092983e+01 7.302078001303764054e+00 2.972703609832322957e+00 4.307814949785151271e+01 8.537494103228675613e+01 9.297311785441754184e-01 -8.930017424377215463e+00 -7.119889376211135357e+01 7.956831708964759287e+01 -3.333450269856671611e+01 2.672366036138964773e+01 1.057353396874870555e+02 8.970487352510318146e+01 -4.345721298854986259e+01 5.878635104277567081e+01 1.498906831090284300e+02 1.181351835755531141e+02 -4.103533133343160166e+00 1.771182795635082527e+02 -1.133655479582718186e+02 4.284896046953032389e+00 -4.263572563791699821e+01 2.102893971706528760e+02 -2.157637808666644830e+01 2.920830939470663967e+00 -7.806120528582673046e+01 -7.248545962404488563e+00 -6.492266730286743837e+01 6.889209786693410820e+01 -9.612019668712935072e+01 6.968700423478657058e+01 -4.853301422429827738e+01 -5.059924265732210813e+01 -9.318343940265178560e+01 5.399099444485712951e+01 -5.564518663438801127e+01 -1.518262289662239937e+02 -8.080440273718382116e+01 -1.063651303510014259e+02 -1.598551613615168776e+02 1.382186323576798372e+02 -2.797726364067855798e+01 3.255910300551303749e+01 9.116549063162466382e+01 -1.058253847370357619e+02 5.793070874311501228e+01 -4.404733430215085832e+01 -7.045975243965358459e+01 -9.156965461388520566e+01 2.066970439882469748e+02 -5.769351516169243155e+01 -5.030718557248095379e+01 -4.802109162533140108e+01 8.174942291518391357e+01 -4.209433452264682529e+01 1.403074407573953977e+02 -5.068580238942411142e+01 5.599778288896902723e+01 4.617862401389134952e+00 -8.251848674483527191e+01 6.998342139003486295e+01 2.820213990300073874e+02 -9.354799072087706691e+01 4.829822817178645522e+01 -7.750017337692288777e+01 4.599395443253123261e+01 1.333930693801944471e+02 -5.222847210851729471e+01 1.482628740019712588e+01 -2.737124902506929303e+01 -1.036535393436356856e+02 -1.756903089093646031e+01 4.337402384587006665e+00 -7.957151328784320299e+00 -1.521266650210596083e+01 1.202626337879385829e+02 1.325575466318641702e+02 1.896293523393624696e+02 -3.095084764231311283e+02 3.887102434760306835e+01 -1.601503080308807370e+01 -6.343101683761089760e+01 1.834550657963241633e+02 7.755069657452500564e+01 -2.613817899862568073e+00 -1.179950968202872730e+02 -1.110224480345924292e+01 1.018452411026343469e+02 -1.367773679866851637e+02 -1.716191841222241408e+02 1.092566961916504553e+01 4.319449867001551269e+01 -6.210154675061500029e+01 4.278723174996560630e+01 -1.090106261524911417e+02 -1.540625275653063397e+02 2.150347601036524026e+01 4.946544670163732604e+01 4.885628568903928048e+00 -8.503525077187308057e+01 -9.532276424662715897e+01 -8.590268621498259449e+01 -8.918013923627081851e+01 1.285771230877250204e+01 5.791691714471257768e+01 1.187156239178743959e+02 8.096136661300344883e+01 9.122875932617213834e+01 1.095253377401353561e+02 -7.626065137798013893e+01 -8.414484406488580248e+01 7.192011346939976590e+01 6.981237235098973315e+01 6.042517777683146107e+01 -9.585707493416199654e+00 -9.294386828214008744e+01 5.509648946114305801e+01 -1.826851075520454231e+02 6.856408883027187073e+01 -4.549766556874705969e+01 -9.851116824954164031e+01 7.580591904567359052e+01 -1.749858594349110419e+01 -7.883671965694396988e+01 -5.875081584237281618e+01 -9.346367977328581489e+00 2.481383023728576518e+02 7.856115822737353938e+01 5.609163913434503712e+01 -1.063166624812719618e+02 1.517247785926813037e+02 1.062252547523769852e+00 -9.254403471316311425e+01 1.595289578146172289e+02 -1.578757477159478242e+02 1.615820908191220795e+01 -3.335503542933179943e+01 -2.276381102362209958e+02 -1.382136464709777783e+02 -9.037856512368554718e+01 -3.032327326679482127e+01 -1.235394199604419327e+02 5.974047575648290120e+01 6.731867958145572572e+01 -2.855472493021089164e+01 -1.032980122852914491e+02 1.171666731068669947e+02 1.224839902322638210e+02 4.788388167267808626e+01 1.808635390102956464e+01 2.708307188655697360e+02 4.526464004495021243e+01 -1.237604318256851741e+02 -4.668975399012757066e+01 -1.750566797738476055e+02 3.304057019872889356e+01 1.589764915743006384e+02 -1.538790261817455587e+02 1.366085076230941979e+02 -9.433745758658832870e+01 -1.959703573946123001e+01 -7.692182348499014832e-01 5.482504665652914611e+01 -1.204172625511457007e+01 -2.363621908305904284e+01 -1.963330133312573977e+01 -1.314262448336871500e+02 4.817283830727122762e+01 -3.150830017540910077e+01 -1.348069053235285075e+01 -1.111599239001162864e+01 2.344928551810823194e+02 1.807758587729335318e+02 2.414284604788520028e+02 1.367909745249022251e+02 -8.985380592140239742e+01 7.805433706327426080e+01 2.191075349173013720e+01 4.941427816984023025e+01 -4.125189645076245881e+01 2.651524065872653182e+02 -2.418168826834989460e+01 -1.419457342245591178e+02 -1.553097423022357937e+01 -4.757395842478753423e+01 -8.037186962439918148e+01 4.481476897805122661e+01 -1.216257304912200610e+01 1.888963364383683086e+02 9.597376569930575840e+01 4.246105956682246330e+01 1.018164841917273833e+02 9.811744104601382332e+01 -2.387571813517620356e+01 1.450274118062775699e+02 2.750381173462818296e+01 9.303008326270942518e+01 4.948893597072469674e+01 7.205849600760538820e+00 -1.202562757927009187e+02 -1.203135732560465385e+02 -9.350197866599515351e+01 -1.617984850945945396e+01 9.004430055289321899e+01 -3.185674930633650348e+01 1.027305593221545621e+02 4.550500570261154110e+01 -7.554886281725782737e+01 -3.113567123695588990e+01 -6.087523357492510456e+01 1.824404859608845086e+01 -4.813985334247403358e+01 -1.163982672825806617e+02 1.262631135154474293e+02 1.260474815061551652e+02 -8.200893445390470049e+01 5.672939895974864477e+00 -4.706758030401448423e+01 -3.388898365095059972e+01 -1.178314780776778470e+01 -3.242858333987118868e+01 4.616725744227633044e+01 -1.459678231145528002e+02 -5.487630925400789295e+01 -1.577609575618332656e+02 1.808348936174153039e+02 -2.102226447127101494e+01 6.121583158340984454e+01 1.239120424109357010e+01 1.499193134790397721e+02 4.635705278731208523e+01 3.710234636936310437e+01 1.601952298794111300e+02 -5.112816609365781062e+01 -1.012665800727493064e+02 2.817822819374345755e+01 -1.639413509498621124e+02 -5.539551835321591966e+01 1.061115929403210458e+02 -1.324935470203539580e+02 -3.772006595943735618e+01 9.468947369073552522e+01 -9.800547584342268692e+01 -9.282799863232406778e+01 -8.571323583039874450e+01 -6.619977157861433170e+01 2.582145494516047393e+02 2.054805379958730214e+02 1.067950350493128440e+02 -1.059471290177445155e+02 7.760298978218199295e+01 -6.853542732426814155e+01 -3.235384101946147695e+01 1.720195613849182692e+01 -3.334383560182357797e+01 -9.712912333952898791e+01 -2.810325365536287201e+00 1.533130957866851496e+01 1.126298619434034975e+02 -1.330212573398311804e+02 4.334792549923250959e+01 6.598433004736027385e+01 3.576035583336830825e+01 -9.375056737334345769e+01 -1.536190404468420354e+02 1.998589336862334847e+02 -1.842766711434479276e+01 2.605046583886307943e+01 1.618310813679057389e+02 2.757217085097490639e+01 2.868195593661630838e+01 -4.602369281453805883e+01 9.155159977118209724e+01 -1.408924850956674106e+02 -3.183406982607753832e+01 -6.337528585455932451e+00 -5.518484514901084026e+01 6.381332124342197432e+00 2.201184038071883720e+01 -3.696237628612670534e+01 1.411375795732776339e+01 2.206871183049274237e+02 -2.827799706046846850e+01 -2.887144754787463441e+01 -1.049549186254072595e+02 -1.709497134867224988e+00 -8.336856042763072594e+01 6.616019404882682586e+00 1.156758497592524151e+02 -5.370566059637798162e+01 6.245488006197099651e+00 -5.607002612883081838e+01 3.442338626398480983e+00 9.000627213866422949e+01 -1.195632085107808962e+02 -9.989753166636273818e+01 -1.058252884892311556e+02 7.367590743077015247e+01 8.932038628876607333e+01 -9.524905023895209411e+01 6.459056141060412415e+01 2.663134454524355377e+01 3.991694910603786894e+01 -1.832265105220652757e+01 9.423303150368144543e+01 8.226648180812851763e+01 -7.973329328894855905e+01 1.223789501635699573e+01 8.346517106591471702e+01 7.517273134238958221e+01 -2.050582445561218492e+01 2.577842956624462900e+01 -1.367772907804458100e+02 5.004221419411617688e+01 -3.380032349422967286e+01 -3.367284749546833922e+01 1.786502639933946170e+02 4.894048787254151733e+01 1.240121134239194447e+02 1.969614510338971343e+02 -1.420386051676824763e+02 1.537565653474768226e+02 -6.537444437550848875e+01 -1.393840232437417797e+02 8.491532711589061933e+01 -1.383083184180258627e+02 -2.960568926489804298e+01 5.820064509420482324e+01 8.347298316454995870e+00 -1.733864113802881946e+02 8.686734389765192077e+01 2.600439258635201156e+01 7.127409544444390121e+01 3.740993941975649051e+01 9.775525997664347599e+00 -6.923003249613921639e+01 1.193856006736472040e+02 5.619781590402077143e+01 -6.408106161388992916e+01 -1.044215004115963410e+02 4.018230538492976223e+01 2.646390664396658465e+01 8.496873689650290373e+01 1.894928142927826116e+02 -2.541622772696758759e+01 -1.135999306875763608e+02 -8.741182513931308051e+01 -5.293318330137672234e+01 -4.578625574758266481e+01 -1.513423129176107125e+02 -2.319989292824262961e+01 1.335402941591756871e+02 7.688590312016518169e+01 -1.262072910825005891e+02 -1.545111311058154797e+02 -7.024726137905940959e+01 -7.877368951331838787e+01 1.513241649885074196e+02 -1.757844593928560357e+02 8.922861049398295563e+01 -4.752409097459736387e+00 -4.436177224239364847e+01 1.372658262714251620e+01 9.403411437098345971e+01 5.115809202602314798e+01 1.425205783200515555e+02 -1.640924248853969800e+02 -8.349737959110514396e+01 2.611725524758281836e+01 4.324580776292753370e+01 2.125830826147039545e+02 1.499755358646473553e+02 6.755568026072118926e+01 7.435079127002768473e+01 -3.530850719771985524e+01 1.565664702076133210e+02 -1.848900594168718783e+02 -6.535975491604484944e+01 -5.535815477517807182e+01 -5.340498725080086473e+01 -1.065081878468241428e+02 -1.544511143998988345e+01 -7.077992013823580919e+01 7.340122591753737424e+01 -9.452598448204627246e+00 -5.992095895518475857e+01 -6.425965786846565209e+01 1.857851629065252439e+02 6.080770777460159593e+01 -1.411757825100903219e+01 2.153459542975744228e+02 -1.116717687713491642e+02 -3.643478183153548144e+01 6.902638300352111855e+01 -1.314422735596355862e-01 1.539000998679915533e+01 -1.289042071005629566e+02 1.816171124488147086e+02 -5.051702645010670523e+01 -2.778900265877510023e+01 -1.130747170777324158e+02 1.296977976182598411e+02 9.882999209894333603e+01 -7.988964732675565017e+01 -3.868896593281680651e+01 4.011170947175556734e+01 -1.559839831249526014e+02 -1.370497576732185585e-01 -7.695098496686286182e+01 7.943058414531721567e+00 -1.113722039293422910e+02 -1.632764433223104277e+02 -7.278222292434158192e+01 1.525675740661398265e+02 5.827718260305208986e+01 -9.225711468533755522e+01 9.182295829922638575e+01 3.525890081086081551e+01 9.087589504770085114e+01 -4.334472663009391624e+01 -8.655520650883551070e+01 1.759816538241576325e+02 4.287751813714213966e+01 2.979443996534861938e+01 -7.511884766053944418e+01 -4.352281412985431786e+01 9.843044165178566729e+00 -7.359122951270813395e+00 -1.777384664863796786e+02 -3.557960070683163423e+01 6.624503967230351975e+01 1.147732651912187976e+02 1.600689359333003949e+02 -1.363401339905967014e+01 9.211375013363159781e+01 1.620770232962392186e+02 6.517989652789349009e+01 1.518702042750455519e+02 1.650119477337831952e+01 1.348669343294529028e+02 -8.620915324037554228e+01 5.480890773226276025e+01 3.013560834023871138e+01 7.788361149909154335e+01 -1.089973962904924463e+02 2.031752788668010794e+02 -1.321508418399589857e+02 9.055954309871525254e+01 -1.102022032948412260e+02 4.730354663151450723e+01 1.414386270547680091e+01 9.299277708953870558e+01 -7.552110218935980868e+01 -7.738350816073332794e+01 -1.144976502466883339e+01 9.127244458063856314e+01 -3.030300003579601054e+01 -1.670908138222176120e+01 -2.010472738974236506e+01 4.850927185309729772e+00 1.004582627660769845e+02 -6.403717917934328341e+01 -2.780924494967279337e+00 -1.980971742938869795e+02 1.245000881558979415e+02 -1.274429064164500005e+02 -7.540808780426573321e+01 -2.403423286633211475e+01 -1.101385134994284130e+02 -5.425656116703040510e+01 -5.976257550604412216e+01 -2.006481520766964621e+01 1.390632051450388929e+02 5.516430810047397415e+01 1.024902452766571344e+02 -1.388725675056648186e+02 -1.414128317552976171e+02 -2.923530705082669670e+02 1.042202539463729778e+02 1.064140789354916166e+02 4.312934644545399010e+01 -4.327332981439433013e+01 -3.799015019063042331e+01 -1.873814077096296558e+02 1.491386294456693520e+02 -1.096243296338993076e+02 1.091518936453799142e+02 -1.625007321714629995e+02 -1.459906549497361539e+01 -5.651334880585767451e+01 -1.216988084589048498e+02 -4.704296387374497357e+01 -1.273487211447802991e+01 -9.456161052262486066e+01 -1.056460750105655109e+02 -1.260776276490193126e+01 7.268025414299007991e+01 -1.272211750091629057e+02 -1.599908177716037727e+01 -7.529155637070152807e+01 -1.341517978386171990e+02 6.828396354376685906e+00 9.718533386958203835e+01 1.689666338232311773e+02 -1.947722790097864731e+01 -4.702847108578107793e+01 -1.267511529199574056e+02 -1.670195717509981250e+02 1.059580520837664892e+02 -7.429390066069539955e+01 8.070996263184879638e+01 9.606579231301651589e+00 2.988636899459993757e+01 7.543836312823259505e+01 -8.654178494161894264e+01 8.444181224483689618e+01 1.177588140206013207e+02 1.608115296207340350e+02 -1.191274362049679070e+02 1.061921162456298759e+02 -4.879401671898889958e+01 -9.276606642182191820e+01 2.192159269776576593e+02 5.033775665209243044e+01 8.528280674301623776e+01 2.176780457021408921e+01 -6.453916798578715941e+01 -3.569890794958844538e+01 -2.149505604744205129e+02 1.079276309993573761e+02 8.328962790661438476e+01 -7.735154940976144644e+01 -7.475977629080253450e+01 1.483647661454333786e+02 1.032701432170245539e+02 5.222651243998949155e+01 7.774990059416421673e+01 -8.082395812593063056e+00 1.054521756201789771e+02 -1.057838300129613884e+02 1.904921966911030324e+02 -4.034506382676853065e+01 -1.246493859515265541e+02 -3.847748259903472956e+01 7.331542786375807452e+01 1.505690359863881724e+02 1.322301883770583686e+01 1.776258548168011373e+02 5.335479662743089335e+01 3.434548007598807118e+01 -1.137619771408061951e+02 4.580366236890710496e+01 -1.277909366542413494e+02 4.873079770095822028e+01 3.950408157459609271e+01 -1.260345491478924203e+02 -8.689824307097697442e+01 4.070165465084870959e+01 8.917705872415464086e+00 -2.375305466331028015e+01 4.276370919160241613e+01 -2.186698802761536342e+01 -6.447738686050681167e+01 -2.669811529513560089e+01 -2.295935736552070239e+01 -4.070621486597585914e+01 1.919563408929611370e+01 -8.224878527876012413e+01 1.215651090428871584e+02 -7.597331557656171697e+01 -4.400017519112434883e+00 6.693442116468025915e+01 3.990816417035251362e+00 1.628835445441621133e+01 1.630354562878646263e+01 -1.197131547127657853e+02 -4.518932980326271220e+00 6.648186050285174531e+01 -2.365158610012570648e+02 -8.670149820137643815e+01 -1.152044864554107875e+02 4.474605844915451769e+01 9.833368631027758511e+01 -9.375129802978912608e+01 -1.715639593386243007e+02 -1.891777932536444382e+02 2.041438033629294679e+01 -1.481008323549492331e+02 -6.453068675837565493e+00 1.507511098843466755e+02 -7.270128698796182398e+00 3.792830220773343797e+01 -1.009563402125477296e+02 8.142730827529106818e+01 -1.208535791105510384e+02 -1.569411830738622804e+01 -3.088996279266903144e+01 5.862631774408945518e+01 -9.053632161055478633e+00 1.075725815340476714e+02 -1.241870935785682235e+02 -5.094474300720641935e+01 8.798956355858985035e+01 6.725261235041580221e+01 -8.372047519078697064e+01 -5.527287562646143471e+01 -5.013528195173734048e+01 -2.938898121937210135e+02 1.965093394185100806e+02 7.728122194671297507e+01 -2.396442449953238452e+01 -3.010027677862114359e+01 4.213641984568477739e+01 -8.538779398623637462e+01 1.009632007867362518e+02 6.128681469526302550e+01 8.317145148090845908e+01 -8.524151874588902444e+01 -2.694484991784080918e+01 3.380426568312550017e+01 1.761175544438619767e+01 -4.336546934552476529e+01 1.599293423731938333e+02 -1.751935723483562057e+01 3.582711445814427265e+01 -2.326884296265081105e+02 -8.575340046342026312e+01 -7.407709299157390603e+01 2.329778770542528932e+01 1.105241027572651547e+02 -2.344660700922177909e+02 -1.892949380010409186e+02 2.243583576954658270e+02 -1.069847710974195465e+01 9.723821853574857244e+01 6.349314216021673474e+01 -5.604364712793472592e+01 -1.325781447432674440e+02 -9.630561607604671792e+01 -5.087060056473893610e+01 -3.789513845217231847e+01 -3.962389371589784304e+01 1.637653765298410491e+01 3.757337401705147784e+01 1.688006006357331614e+02 1.246600593677672038e+02 6.998912412372007452e+00 -4.432183718269218531e+00 -1.607105323698879715e+02 1.210808327183383284e+02 1.612367917791405034e+02 -1.046407771249286185e+02 7.461677036260368823e+01 1.809083655862756101e+00 5.553753916423326586e+01 1.269541468683024732e+02 7.179162969872889732e+01 -1.356248118328356611e+02 1.634915959370595928e+01 -2.973879312886337090e+01 1.127277241238349248e+01 -2.346522139199282719e+01 4.591441017751354536e+01 -2.637201451809657442e+02 1.834730679969675862e+02 7.417447752469457534e+00 1.614627756498976794e+02 -1.070708044858215580e+01 1.075816087794650144e+02 7.257963084147645816e+01 -4.257821700798290010e+01 3.028871924059776433e+01 -7.377391083169210617e+01 -9.018606698746586403e+01 -7.309014078759582844e+01 -3.249689313852375250e+01 4.582871233268186018e+01 1.117593529622264299e+02 2.891774407085621945e+01 6.298591816225065543e+01 -1.063535512199213571e+02 -1.391673024538841617e+02 -1.368525593944024976e+01 4.710593240691937922e+01 -4.621939401097760225e+01 9.595785018248697895e+01 5.635570296502690724e+01 -2.807857556160116630e+01 3.041470107281085333e+01 6.231017483888479802e+01 -7.324143800324486620e+01 -1.358093994052616722e+02 1.443241673440635964e+02 7.940065844833315900e+00 5.094700061637220756e+01 -1.516931506689653588e+02 -5.427425683129710166e+01 -4.780829520041499636e-01 -6.679084685838108726e+01 4.346764240108998756e+00 5.722493421985463158e+01 1.895969693380368710e+02 3.979285068123676439e+01 -1.115454875371280430e+01 7.344072989406090812e+01 -4.628604935248004892e+01 -1.109031812981629201e+02 -1.406644615604424473e+02 9.545472551703298336e+00 2.556783383347072203e+01 2.421898251457581352e+01 -5.792323437742171421e+01 1.230754581629794302e+02 -8.235478562311880069e+01 1.307480968346655459e+02 8.895977494350029247e+01 -6.628871503990916381e+01 -8.630370456177480776e+01 8.582136054959465810e+01 2.089380269406846580e+01 -5.351014526620350864e+01 -5.491531849044368130e+01 1.393756920057238631e+02 5.844020692525107563e+01 8.147876192153054831e+01 2.667509622481229314e+01 -4.294862157667209601e+01 1.096838947642416002e+02 -5.568915870892922015e+01 5.386499336255945458e-01 7.818109470639096514e+01 1.016733857084880839e+02 2.608562034339591946e+02 -1.788638403470193623e+02 1.644017948768449457e+02 -6.907079374221359558e+01 -1.555317326796328459e+01 -2.558666646181327664e+01 -2.119113704630979456e+01 -5.641714032613540297e+01 9.500483989228224857e+01 1.882655599700512994e+02 -1.215404780569880501e+02 3.165018093981294811e+01 -1.298885621087527227e+02 7.186009907927413565e+01 -4.557796542562621056e+01 -8.294602532747754253e+01 -5.520329830208703470e+01 4.219611359292416353e+01 1.988603249637836257e+01 -8.388996047933748912e+01 -1.447124990777145968e+02 2.131770034900285182e+01 1.617775214805847099e+02 1.466626405438170977e+01 1.873969133102753517e+02 7.670807775963853992e+00 1.383035611507101805e+02 -3.555909921083605241e+01 9.323181880119634002e+01 -7.345690315814158566e+01 -1.161154724104279836e+02 5.085065355791201114e+01 -5.970005350314082193e+01 -8.080129237488866067e+01 7.506085229951420956e+01 6.625209918489742833e+00 -9.712466127847328323e+01 -1.550708990801671803e+02 1.523838231846062570e+02 -9.190679308621773203e+01 -2.405566952598898744e+00 1.238084708870636348e+02 5.986267972464956699e+01 -1.012916305659116887e+02 1.094816233980445830e+01 2.910567111211822748e+02 5.505136366780163115e+01 -1.628671078032596711e+02 -4.926768928885582710e+01 -6.356476799658658194e+01 9.956761630462885648e+00 1.111377428824713149e+02 -1.069221013864164718e+02 2.227923118093463373e+01 1.349119218429462421e+02 1.941704669330310296e+01 -2.184491832446823594e+02 5.001549992812007162e+01 7.806436975805966938e+01 -1.403500432087083816e+01 3.393562738702945580e+01 1.298872318529909475e-01 2.325472568079284841e+01 2.869251757123723223e+01 1.198037396742090408e+02 1.013879854420579250e+02 1.605701401560024166e+01 1.541777214042215576e+02 -6.623436757583797885e+01 2.551774156364834312e+02 6.727240508354502424e+01 1.465889773386176671e+02 -2.274047435250995974e+01 9.318623608371319733e+01 -5.077368998620918461e+01 -1.514726886779216386e+02 2.711525887152828673e+01 9.842616223325842384e+01 -9.069037194762664456e+01 -1.084020642255749181e+02 -6.886690361081285516e+01 3.786472883083528984e+01 -1.182564247386729619e+02 7.736283459352036118e+01 2.907163432910872558e+01 -1.010436954944863146e+02 1.966354839038904174e+02 -1.217846194336429910e+01 -1.053191431694159377e+02 -1.383962483014731504e+01 -2.115455926985343282e+01 -1.451807813572772830e+02 -4.145495740195787704e+01 6.366774084849263460e+01 1.364131907435534288e+02 3.003301551177477080e+01 2.772037232495179637e+01 4.637210043783466773e+01 -3.703480802110385639e+01 -1.507247055141347971e+02 1.639825815743809301e+01 3.210439129714495721e+01 1.377908156827258495e+02 -1.030808070925893283e+01 -7.884370124429779025e+01 7.580479761802916983e+01 1.040529994856535856e+00 3.310389714676713169e+01 1.442461402781838729e+02 -1.838632494999512232e+02 -9.614156105041995204e+01 1.291533903837693913e+02 -2.170777596921752490e+02 -1.850502535448968331e+02 9.153835652460833217e+01 1.549492692385237831e+02 6.376093946977562155e+01 -4.466671631500248374e+00 1.567571152777430541e+02 -2.208284400979122211e+02 1.078202858233348991e+02 4.264485280828316860e+01 1.278667597650197933e+02 -1.897605045423927379e+02 1.072569527176760147e+02 -2.847634812098861090e+01 -1.345312521359745688e+02 -5.360949124437156321e+00 -9.298572898910308027e+01 -1.644296806783060561e+01 -4.290457085941538296e+00 -1.239535581289811290e+02 -1.240817587254400678e+02 -6.296757933872117974e+01 -1.297331605121807456e+02 2.022492075775644196e+02 -1.619923483377607454e+02 -5.047361739077030762e+01 1.736030034610676864e+02 3.413301288435290815e+01 -2.978112833635966581e+02 -1.278514776019553381e+02 3.575130380075731296e+01 5.497801773367832823e+01 8.675970249261411027e+00 -1.556001629999323939e+02 3.590905924159453377e+01 7.500691659496366626e+00 -7.478633045279961777e+01 2.039526026585567990e+02 2.038600398803174016e+02 4.351699253242901300e+00 -2.098080238138021798e+02 1.267740415415196367e+02 3.096953710477064448e+01 3.757570536164089869e+00 7.711826844226801825e+01 -2.087386365954026246e+02 -1.388965424596270850e+02 1.419244921665749075e+02 1.103133734827093093e+02 5.326943875246364257e+01 1.441287738175226423e+02 -1.793606792785042785e+02 -2.054870873104593088e+01 -1.312477675558986050e+02 4.383089264178606470e+01 -1.044994566656599915e+02 8.757218585023201740e+01 -3.407029020933248376e+01 1.245731068533924280e+01 1.785125152007562122e+02 2.865106363175960880e+01 -2.651851223973384890e+02 -1.271209944156063187e+02 -8.387008308933945955e+01 1.590727331538252258e+02 1.260972667995106100e+01 -5.412041772997080358e+01 3.058925703964740705e+01 6.291323152959419218e+01 -3.983697469526446611e+01 1.081735524447483670e+02 -1.013488442785328800e+02 4.951380004926930667e+01 1.126098166009848711e+02 -3.563662601208231706e+01 -9.872281123162566985e+01 -1.140931056554564549e+02 1.204894326743855970e+02 -4.995429310474976603e+01 1.977524871720826809e+02 5.755387946712573211e+01 1.116385135551158925e+02 1.855068633019057245e+02 8.615708324962954023e+00 -1.250233613050856007e+02 -1.667925788815935277e+02 -1.148970118964862479e+02 4.272007327807881438e+01
-1.339680253990371916e+01 -4.721388316499568027e+00 1.017871962135339601e+02 -2.250619662177856526e+02 1.527342915038618401e+02 6.243781558861863346e+01 1.495076258762723853e+02 -1.269210713804906447e+02 -2.741049110585274562e+00 -2.366519475870437361e+01 -2.156842371436787857e+02 3.218130365069609411e+01 -1.801133402944489958e+01 1.201761701872043346e+02 -1.228813783361656391e+02 6.064017330113257742e+01 1.231454831446904876e+02 -4.514416113687256882e+01 -4.882281550622700195e+01 -2.660081888319305321e+01 6.062568566255540503e+01 6.203603525253271300e+01 3.184811923048383875e+01 -2.285087014046224567e+02 -5.074697478497186864e+01 8.989374770249041546e+01 9.728713915080117403e+00 -1.016469779404092399e+01 -6.538528453806127061e+01 -1.517843731221459436e+01 7.206577917738954397e+01 -1.428839128150709143e+02 -6.081860247685497711e+01 8.844448922311739736e+00 2.038868621535077637e+02 2.083498673154439871e+02 -3.149625814903908250e+01 5.491549435775701227e+01 -2.751512650923805814e-01 -1.372397721773254773e+02 9.431868870534923133e+01 1.053827695070924619e+02 1.066345540095014144e+02 1.149399711660139545e+01 6.082541505456145359e+01 4.728990195190591095e+01 3.821186256870648634e+01 2.880611483658259431e+01 1.083713125556704995e+02 8.816458286678044942e+01 6.446896974508992173e+01 1.601342663860427820e+02 2.433289214875865980e+02 1.921600321904447242e+02 -5.809609373244873609e+01 4.840706359774097223e+01 -6.318019758407698561e+01 5.544284869598107690e+01 -1.887878898439892055e+02 5.551729823719088586e+01 -2.012161027110449822e+02 -1.657689756568153996e+02 1.271479950954539717e+01 -9.071146579638822871e+00 1.665929555875605956e+02 -2.043009279912448051e+02 7.397745588051370191e+01 2.258016410221669901e+02 -7.189417762564017877e+00 -1.913095963754406057e+02 3.498090303921282640e+01 1.938065306550056448e+02 -6.003928839320188615e+01 -2.618494960051334033e+02 -1.007897021195732350e+02 8.669726161543541920e+00 -2.261235607873260278e+02 3.145749335237625033e+01 -1.763852328947181718e+02 -1.824335614563661920e+02 -5.612207284291213227e+01 1.499178023942966718e+02 6.835128939595772124e+01 1.042424644096023201e+01 -8.713893049107066702e+01 -4.190191318160204759e+01 6.270726873278365332e+01 -2.282687611135241639e+02 5.322501568489982304e+01 -7.380850891093368205e+01 -7.683119509882938303e+01 -1.739475068743941790e+02 6.405291679808456706e+01 9.128295834569163958e+01 -1.597461280599784459e+02 1.700125571046561674e+02 -3.927454148933968980e+01 -1.664852138904452516e+01 8.617138756697505642e+01 1.538490689629797430e+02 2.133535819705751635e+01 1.490757294394476844e+02 -1.817087690800607902e+01 -8.929823377609575630e+01 -1.931743546410691792e+01 9.952546222596642167e+01 4.551861631961975263e+01 9.901679891002157774e+01 9.555552826239090791e+01 -8.405596143129604059e+01 -1.719892070475813739e+02 1.245657511308701828e+02 5.492403578547936860e+01 1.634873337824597783e+01 3.095841529502224887e+01 -6.876559117626062800e+01 9.723214353034947521e+01 9.094939431001729702e+01 -1.383356409163232748e+01 -7.213063211490893423e+01 3.116778252719529263e+01 6.350825383018480430e+00 -6.232565837519964447e+01 1.716973064986747488e+02 -3.342378783095613670e+01 1.231772312768122362e+02 -7.102879136681603711e+01 3.888650914073868847e+01 -3.659809505979031741e+01 9.063679838881731143e+01 2.380122873705057529e+01 1.171168958883160656e+02 -1.175442813137347855e+02 7.534755073454961405e+01 1.251740506997928577e+02 -4.533396007319868914e+01 7.678329803435344658e+00 -1.282313509184840683e+01 1.183866697549734823e+02 3.575076189162030182e+00 1.710630055042256572e+02 -1.434153391294588005e+02 1.183549278171540493e+02 -9.266877527152037430e+01 9.713103764470481849e+01 -1.390483697660342557e+02 2.995699049485599019e+01 2.510231468886744821e+01 1.852429795323753403e+00 3.685420278815981732e+01 4.657620444243077173e+01 -1.262710904251776256e+01 1.094857715902479534e+01 1.097313184584211285e+02 1.292151982334608249e+02 -8.799637528071927761e+01 -5.506953520432819005e+01 4.811124455883999929e+01 1.570436430877876877e+00 -1.390920796074745169e+02 -5.594557706913591488e+01 -3.603325111516832635e+01 4.970608082830311503e+01 -6.662243148251421587e+01 2.330642247939902845e+01 1.629771670548008728e+02 -8.078183922293320052e+01 8.211683543043430689e+01 8.550365261394547645e+01 1.140578122626929947e+01 1.255268621630316801e+02 6.396353688136772320e+01 1.709545688432774000e+02 -3.513850055054272303e+01 1.144548817941562646e+02 5.652595496670750208e+01 -1.636977444063197851e+01 2.078194458351894980e+02 -1.413519178506905121e+02 4.977793305056091810e+01 -1.910636899234013981e+02 -8.576904424363888779e+01 4.179608609651229045e+01 -7.358414316581469450e+01 -1.588562292332186416e+02 2.031903734645114525e+02 -8.745934274631085259e+01 -4.842391015217121009e+01 -4.719773255887557895e+01 1.241626900328677863e+02 1.986679339929354171e+02 6.605277174333960488e+01 1.491864750341767660e+02 2.238650599732638682e+02 -1.665890171540033604e+00 1.662139420095389255e+02 7.232750107458539901e+01 1.942558562984960986e+02 -1.283210505383225382e+02 -1.212087710781343830e+01 6.460276875888249393e+00 1.938215440967924224e+02 -9.276038096660410304e+01 -6.168249253145388877e+01 -5.403353427928836084e+01 -1.366646000136470036e+02 4.755969212119002698e+00 -1.029969092564911648e+02 1.572229718508010308e+02 2.405735266606399136e+01 1.226108048470420542e+01 7.378291265082155803e+01 -5.045165313271163576e+00 1.193178594580000009e+02 -1.620718334546767494e+02 4.632230463990930502e+01 -1.743495752054947729e+02 1.198175581787559878e+02 9.795921068057133141e+01 -6.869695449138981758e+01 4.770639047690954726e+01 2.429883660324501591e+02 -3.106947333602134620e+01 4.251187681977468458e+01 -3.333563504286826173e+01 5.911470046431423242e+01 6.560495805823477156e+01 -6.395230715059597060e+00 1.040092757335812905e+02 1.035943534069154452e+02 -1.978128034808138125e+02 -1.563526975078715395e+02 -1.222315476482381911e+02 -9.652549524288039251e+00 -1.528342941106897968e+02 1.178811048903517644e+02 1.125926914408139083e+02 6.015244158899658089e+01 1.138445441170024530e+01 1.608683823567211277e+02 8.565213352279643289e+01 6.884595320210011948e+01 -1.036934616567236560e+02 1.553740994445676336e+02 -3.639849984670127991e+00 1.115031185175591872e+02 8.989773764739446449e+00 3.747877890497667153e+01 -7.722127025715822413e+01 -9.256051140515417330e+01 7.299661649048529455e+01 -3.900166969590534549e+00 1.491478951761897918e+02 -1.282711181819550639e+01 -2.916913065660552196e+00 4.674742071170782509e+01 2.308758525840772080e+01 1.441480903222917505e+02 1.489896834373563550e+01 3.652262225307230636e+01 -1.576652039348213066e+02 6.710757725116040717e+01 1.361857758878661571e+02 -1.802562226190246264e+01 -2.322396902874930618e+02 8.595479702390423427e+01 1.385214816370452695e+02 2.064425366418342378e+01 1.920866215118839762e+02 -4.195035633800090480e+00 4.357993536681633628e+01 -4.424404602438856671e+01 -1.407420033462777553e+02 5.679762098806661186e+01 -4.814301758258650210e+01 -8.221350705817842197e+01 4.177794649233633351e+01 -1.873077520966130294e+02 7.269952294873266396e+01 1.665214701637521273e+02 -1.025402650533081896e+02 1.751530002465934786e+02 -9.890650841663310189e+01 -6.065244705525571156e+00 -1.064018071817125133e+01 7.751847936398812067e+01 -4.711746412956647845e+01 -1.090796906116295162e+02 -8.954145440597601180e+01 1.474061232810075524e+02 5.975396910265214245e+01 -1.331417494089734532e+02 4.494492152330163748e+00 4.390269104773642539e+01 8.342631475275894104e+01 -4.074817261210603903e+01 6.060497408067244862e+01 -6.966038189665404445e+01 -1.639848462034991599e+02 -3.497767629690329727e+01 1.423535232850242664e+02 -1.144450137628839599e+02 -6.489336001411296628e+00 -1.644738812926167384e+02 -4.804954610333616927e+00 -1.472263119689396547e+02 3.318686595928856065e+01 6.067702857503425662e+01 -5.078397981707126263e+01 -8.313345562645854159e+01 5.677562789801863019e+00 7.503361891627527314e+01 -6.835012553642512501e+01 1.358491987581957687e+02 1.063703749956908808e+02 -1.286893959978279440e+02 -1.062979264611314534e+02 1.361524878473015860e+02 7.190618161701409861e+01 1.513369790223247833e+02 1.010037512730576310e+02 8.177759027633864264e+01 -6.069334135281390274e+01 -8.236051750456844900e+01 -7.760986944250059594e+01 2.058782639262051077e+02 3.071829296664471443e+01 -2.505331233370522170e+01 -6.897570133248689217e+01 -5.033809075904558483e+01 -1.319681434952447603e+02 -1.660225717425075942e+01 -1.758226045988688782e+02 1.253102710564715352e+02 4.612696491260284404e+01 -1.154933644393492216e+02 -4.848200749259321185e+01 1.200007176911764617e+02 -9.719158148003702991e+01 1.030293807651223545e+02 -1.186832282830199574e+02 -1.178610145940529463e+01 -9.568739818936586516e+01 8.987254204817973857e+01 -4.256355809850849425e+01 1.036181831024802413e+01 2.937362403428247504e+01 -1.268811836921958189e+02 1.252462738341034587e+01 4.840376355790572660e+01 -2.245511531961686558e+01 -6.885514660698780176e+01 2.028010059958478735e+02 8.657264919989935947e+01 4.720913631412705058e+01 -3.146685179692070022e+01 8.035721961129587498e+01 1.678220982034276574e+02 -9.242009474039276995e+01 2.097193779672930418e+02 -1.332688812376594285e+02 -1.841695733547279588e+02 1.520572046502500427e+02 -2.342351823946367233e+02 -1.005105920618239113e+00 -2.452134983359276816e+02 -1.531140623095937769e+02 7.183665966566572081e+01 -1.458193846284954418e+02 5.845537772261514675e+01 1.100058042647235936e+02 -1.605752008426279644e+02 -3.018184425378575142e+01 7.548470022975982374e+01 1.340868080473987334e+02 -1.862886573388496174e+02 8.755184628229450539e+01 -9.805998419762828178e+01 -9.892129227974193029e+00 -1.391036295135686807e+01 -7.967673447996546088e+01 -9.042198595398299688e+01 1.815678268155306796e+02 -2.169238444199602611e+01 1.329420512185248038e+00 1.303808608837079817e+02 -8.678382864320803947e+01 -3.447312616685311326e+01 -1.078124977399375126e+02 -4.892872024651753549e+01 5.198045085400520016e+00 5.951465254461060539e+01 -1.354362528572700057e+02 2.379191467097192856e+02 -5.410332693992995701e+01 1.231737970201406824e+02 -4.903687570949794861e+01 1.203470210736347070e+02 1.397299745583075037e+02 4.825240298668820316e+01 1.227344902436218774e+02 -4.344983964374949892e+01 1.407102625456733449e+02 -1.572815804371898309e+02 -6.575202045468275003e+01 -6.332574900797215633e+01 2.566581944353260880e+01 -1.632391435990146249e+02 7.297607821477399170e+01 -3.101522248004901883e+01 -8.312649104791263710e+01 9.014256403238670146e+01 -1.519929663738070076e+02 -9.174849309295305488e+01 -5.290425357689676389e+01 3.328280799540238633e+01 1.306026066201684728e+02 1.175804093518933229e+02 6.955378997377495409e+01 -1.628716169387229407e+00 1.758896006453516918e+02 1.232557450046278547e+02 -9.498487099827723057e+01 -7.863281471848704030e+01 5.579276528412600555e+01 1.005423454612561152e+01 9.855518532000124310e+01 1.676288440152849546e+02 7.099106853476330059e+01 2.451734986253030613e+01 -1.027726649696226957e+02 1.728000746517980133e+02 -1.143289783246754894e+02 -1.662069342293287946e+02 6.607806284999161051e+01 1.120830567021241535e+02 1.972931901507510588e+01 -1.395782754885485701e+02 2.989788559766781617e+01 4.265229758162560358e+01 -3.075938808040956651e-01 1.315672411658902092e+02 9.803415906234367583e+01 1.718670268133393364e+01 7.871710515970201527e+01 -1.075410910873949035e+02 -6.325558136375435403e+00 9.877070210069142320e+01 2.981411393287116596e+01 -6.532475926656013598e+01 1.988809996873834507e+02 2.320856508601444830e+02 -1.260647917148142625e+02 -2.771314843601634337e+01 -2.110777831521401140e+02 -7.247006670503418491e+01 1.572469394859217573e+02 3.430263233428116898e+00 -7.125609728437400747e+01 1.644260109161882326e+02 -6.275598772023500516e+01 -1.611817964716095162e+02 1.370384786761082125e+02 -6.746705869587574966e+01 3.456227191161479340e+01 8.666091202918983072e+01 1.382154392647306373e+01 -2.390016302314198526e+02 4.241666886116991719e+01 -6.140548394798662102e+00 9.035719710287294504e+01 -2.363413999180914615e+01 1.014911603343093134e+02 1.701140380203467117e+01 -8.503757309527442487e+01 -2.053514594457855225e+01 -1.757446434099404655e+02 1.153424061951449460e+02 2.534211793064709539e+01 -4.175730093140689547e+01 -5.197030350015450040e+01 -6.304600637390030471e+01 4.121559647971844242e+01 1.611578044130109504e+02 1.330946061208977937e+02 4.320389251557075738e+01 -1.984365868545943954e+02 -3.890544542125226002e+01 4.393564109576622911e+01 1.176927638164921461e+02 8.749449043607874898e+01 1.550545482951377174e+01 -1.865907858665970309e+02 1.321169565422405299e+02 -2.244200051414040615e+02 -2.064157904230897600e+02 -1.859033823781099937e+00 -7.399637094820072036e+01 -2.414028054079299324e+01 8.739159824483527927e+01 5.608861034153361658e+01 -1.115472067659409987e+02 -1.518872173771417238e+02 1.464217262435664324e+01 1.240588080413546237e+02 2.077697857742619902e+01 -5.687849612377461739e+01 -5.175633255109793396e+01 -1.183033048147982846e+01 1.618521426479798322e+02 2.244576494690525692e+01 -1.772861300051004889e+02 1.309555497892430651e+02 -6.818689388863744227e+01 -4.264737044634079766e+00 1.572290591004945099e+02 -5.341632786382436393e+01 -1.998913892501799694e+01 -1.121586458304893767e+02 -6.138529596617384065e+00 -2.436466318790842678e+01 1.344947608847338927e+02 1.226310879052983154e+02 6.900309186456584598e+01 6.677891717117945802e+01 -1.910890480384281176e+01 1.380840343550047180e+02 -1.151129649258286634e+02 -4.356320624463359437e+00 -9.296993892977918961e+01 1.604676097133842916e+02 7.448495105907596781e+01 5.279456431384291903e+01 8.462041425425542940e+00 -5.439094050440807848e+01 3.510774225498332868e+01 6.902552841735376532e+00 3.657124723724675341e+00 2.463077887862602111e+01 6.103130489287281080e+01 1.738213856852011077e+02 -3.962858657721805855e+01 -5.308471945600187780e+01 6.817903536365328421e+01 1.180966036316434753e+02 -1.307403727300142116e+01 9.383190584876028595e+01 1.061783367054004117e+02 2.151295652214536744e+02 -8.835345424839697159e+01 -1.252543264743925988e+02 -2.922816828717285631e+01 6.341945462145383061e+01 -1.035626378493208577e+01 1.096405999758159595e+02 3.799598968080160688e+01 -1.659802853883117280e+02 4.598956348125712879e+01 -9.129408987253313512e+01 -1.380674271651248830e+02 1.372396136473142860e+02 -7.755491715850489243e+01 6.032624600560912853e+01 1.134617299934176486e+02 -1.010366913988584372e+02 2.393231581724266022e+01 -7.358838639957670580e+01 4.104875591974484905e+01 -1.168255273384547195e+02 6.276667625937172090e+01 5.572683719910973110e+01 4.016630837028981382e+00 8.571289457212664331e+01 -1.559050046675869510e+02 7.785285576437983934e+01 -2.978918666202699583e+01 -1.709501520729647552e+02 9.558622262002221248e+01 2.480124574350137578e+01 -1.985141745806314475e+02 2.380261209604744579e+02 -5.344004716830559332e-01 1.064267771553057145e+02 -1.220369837720569421e+02 -1.965130242605503668e+02 -9.442427613405423870e+01 2.496056515462842018e+00 1.446144406056733658e+02 4.071916064618115172e+00 -9.669998465355689632e+01 5.102689003473552276e+01 1.386761381358184906e+02 6.576841490027148041e+01 -5.237144813822204270e+01 -5.983996516964814560e+01 8.551490197204510935e+01 3.113088534000184993e+01 -1.978560395538051750e+02 -2.098153816922086534e+01 1.710527648163509298e+02 1.000239324805658754e+02 -5.799460327186111641e+01 -1.131340353451842162e+02 -4.319288438160396026e+01 -4.865190658110030597e+01 -1.158145713415573539e+02 -1.872235328635137463e+01 -4.620850252805660574e+01 -1.149643906793122454e+02 -1.334323602367247759e+02 -2.723555443314696589e+01 -1.271476402299533959e+02 -1.353505267377836105e+02 -3.878698540429299868e+01 -5.602095730760051140e+01 -1.123045893417657766e+02 1.951824698529683531e+02 1.104533647523247275e+01 -2.950332014337951136e+01 -1.783981607711731954e+01 8.248392789249101043e+01 1.639189938849331440e+01 2.626381485309703123e+01 -2.234153211925291771e+01 -4.845215800249396665e+01 2.193993650745326462e+01 -1.524090205983872295e+02 -1.669308923804171059e+02 -9.484584015336659490e+01 -2.001077341254433861e+02 -9.398169992699094166e+01 8.998994468662156976e+01 6.435833704029579394e+01 -2.733414225898998495e+01 6.372128113512054171e+01 -1.641402959663306831e+02 -4.277467697320167872e+01 -1.217562839942416417e+02 -6.999701543639783097e+01 2.211519523259054836e+02 -2.152525405486931334e+02 2.152349306732586740e+02 2.622561193070440666e+01 -5.923098014269175593e+01 9.675103335816102401e+01 1.301114011836110365e+02 -5.441262301681663160e+01 -2.136017318491921060e+02 -1.563407608749107851e+02 1.072256353177272672e+02 8.783147970854794551e+01 -1.421798183869715615e+02 3.352243965710120222e+01 -4.157868841145903360e+01 -8.115812636241116707e+01 -2.980292819649292468e+01 -5.749966251969777176e+01 -9.065032632855817951e+01 -3.567676976045178350e+01 4.673126080765672263e+00 -3.431934672122572039e+01 -4.278515981383990696e-01 -1.507747942373048033e+01 9.646694846623108788e+01 1.332382589070442975e+02 1.381348211956147409e+01 1.759770653655103345e+01 -6.615505112939297305e+01 -2.055216534801071759e+02 3.550113590951863074e+01 -9.620146190929173713e+01 2.707655349422684665e+01 -8.606853207486178547e+00 1.047541775458314062e+00 7.573399098612158298e+01 1.277917205516361321e+02 -7.387160299395659990e+01 3.984414270973213235e+01 -2.021738876699574803e+02 1.012984817746004929e+01 7.370224254370412176e+00 -1.284915168680535942e+02 -3.537355023340322191e+01 -4.647909024484723517e+01 5.008288025601762783e+00 -1.072233947912173591e+02 2.837265696611314780e+01 -1.023985036987660351e+02 5.887274982094709230e+01 7.112750694286074804e+01 3.866152944152914728e+01 -3.042845607424631282e+01 1.126464415071529004e+02 6.401351662090777950e+01 8.386077080917273463e+01 -7.022121844019721948e+01 2.129987405458571104e+01 1.340673287253079309e+02 -6.127680273180810389e+01 -7.242911313995413991e+00 3.353330050090406189e+01 -1.345536003130139591e+02 1.025202061496470520e+02 9.386200492065952972e+01 -1.059468400812858420e+02 -8.628742423858382438e+01 -5.815837689984397940e+01 -4.769147943799721645e+01 -1.679127712897530103e+02 -1.423872660254469622e+02 -1.387380244074876146e+02 1.106557807376158991e+02 6.257493047643990991e+01 1.670175645170544101e+02 7.528859270123549940e+00 -8.979362318786586172e+01 1.959491499541633885e+01 1.448200185565954179e+01 -6.644674369596341990e+01 7.749604333731353734e+01 1.235487172501090924e+02 1.047231839277377219e+01 1.500788785895157105e+02 2.356325871393540083e+01 1.160902621495196030e+02 1.580611448846438627e+01 -2.173373156250166289e+02 2.284065675725125288e+02 -5.118223154064350666e+01 -1.559783264789373334e+02 -7.026211586774866191e+01 -4.491213793946477040e+01 4.301934782617717445e+01 2.661825906073820391e+01 4.756011915335761842e+01 -7.708448678842640334e+01 1.272145234039946899e+02 -8.965099809829662547e+01 -7.283356959325278268e+00 1.480197077441080751e+02 1.138795247677152247e+02 6.020376635587140868e+01 -1.837519750932238765e+02 2.639357875770433282e+01 1.456884783433704342e+02 2.431276986235733162e+01 1.011735807855588831e+02 1.103076591802581419e+02 -2.189694641458364401e+02 7.966367596139576790e+01 -5.979584565687659392e+01 -2.327595705668096002e+02 9.153632053181455319e+01 2.540941989433714809e+01 -1.255824225662625366e+02 -6.018911770954102280e+01 1.424881594995462137e+02 1.511924195161391538e+02 -7.758744603039224330e+01 -1.306615364439137466e+02 -8.522893126073155656e+01 -1.692468190754573811e+02 1.993594229707735010e+01 3.860946073033314718e+01 -1.721982340788807520e+01 -1.257744839205637000e+01 -9.087537640614959855e+01 -8.969273186673501641e+01 -2.497879037554346127e+01 1.353641101186901494e+02 1.376168980597166751e+02 8.187427067120562185e+01 9.787438635995850689e+01 -7.919906956593962377e+01 -1.816829401937979469e+02 -1.332409948820300727e+01 -2.330331082496346440e+01 -7.130211795634434679e+01 1.510629893546572067e+00 7.338813663589594682e+01 -5.315440392181440643e+01 2.471788673247487367e+01 7.950583227495535255e+01 7.038470020336670530e+01 1.109717864552583961e+02 -1.498115990586480564e+02 3.980967869676111803e+01 8.365679488101208960e+01 9.515187629324182694e+01 5.932637006977898864e+01 -1.036687381536551413e+02 1.375101182724604882e+02 1.279766287233301227e+02 9.622564926375387984e+01 1.019478420925866260e+02 -8.458116833768791309e+01 -1.494025405939113504e+01 -1.297035131412820519e+01 7.738934615869166578e+01 6.523386889904605823e+01 5.617820311003367806e+01 9.799874739656149814e+01 1.169444179554025851e+02 1.243585734538252012e+02 -6.520378776999035608e+01 8.092182980183562790e+01 6.552507560194190717e+01 -1.181436775077699082e+02 1.321479421846601952e+02 -1.008779247372837951e+01 -2.803289386585177567e+01 2.001320842316227129e+02 8.885198534340446486e+01 1.246580381622743090e+02 -1.450089845875156982e+02 -1.585474339004103683e+02 -1.545533246284222741e+02 -1.228193553467283579e+02 -4.452233494218194920e+01 1.104495642428091600e+02 -1.696206568540690114e+02 3.273581776193271509e+01 1.452480943052493103e+02 -5.971468890321381906e+01 -9.195685909068141939e+01 -3.534110595881439565e+01 1.368420291909934576e+02 2.289376869952031939e+02 -6.710907730349774170e+01 1.995832565824134264e+01 -2.791769982546696482e+01 6.901767190059268842e+01 6.074735236715866904e+01 -2.149423416223941672e+02 -8.938428816245652797e+01 1.387120668035392725e+02 1.409831686349917845e+02 9.534698789952074094e+01 -5.022430927461429917e+01 -7.648437926392671216e+01 -4.582862912225546381e+01 -1.780989750454802163e+02 7.181950251300584398e+01 -2.591702783608646499e+01 1.679373942197892973e+02 -2.818147729897169640e+01 -3.175240915240792674e+02 1.462756195036876079e+02 5.081730567480436633e+01 -1.191301456060759278e+02 -2.234682545355188665e+01 3.566871223961999959e+01 -2.097368609487267292e+02 -1.154436344336737363e+02 -1.106855403054859153e+02 -5.702996048052796141e+01 6.346258701606237906e+01 -1.665079793622093689e+02 1.090699350048580669e+02 -5.487997288449376754e+01 2.933096140183615308e+00 -1.348234557812972980e+02 -1.046676746096490263e+02 1.777389815056340012e+02 8.759054724157081750e+01 -4.269334546267116082e+01 3.759284554620916197e+01 -2.837198571176044837e+01 4.367973286968368996e+01 -1.057760110493212267e+02 9.991375747278426900e+01 5.108694594784905263e+01 -1.202547714433602835e+02 1.180864177200788419e+02 -4.971368142820877267e+01 1.010648293592979883e+02 -4.998555597153814034e+01 8.942259276246861077e+01 -1.552091600766551380e+02 1.443636526628680485e+02 2.506865006574317434e+01 1.018282256689913226e+02 1.319648900334069879e+02 -1.484040764362371760e+02 -8.693075541112737881e+01 -1.069089685066736592e+02 6.769998018889711489e+01 -1.734451667411874212e+02 1.533259344464179321e+02 1.441774747391865503e+02 5.364913582170721185e+01 -8.595720274992081045e+01 5.776652125838296570e+01 -1.086368532499567863e+02 -1.110395166035004699e+01 3.543925015910968312e+01 -1.860877854313656883e+02 -8.265057802953114674e+01 -1.370993304891293363e+01 1.035459886610303215e+02 -5.085652751961954010e+01 1.101100907162007019e+02 -6.519570010801167825e+01 -2.136241899635665504e+02 -1.085295744668598985e+02 -3.455238549637898160e+01 -6.100951645594745543e+01 3.051491393203270874e+01 5.206143924660614175e+01 6.443430352154209118e+00 2.562629098142187090e+01 -1.189077769751373808e+02 5.456679259869885357e+01 3.308325359663306386e+01 -7.321961986964842595e+01 9.382544888218887991e+00 5.709854007564329237e+01 -9.678760230542302168e+01 -5.586073842761516062e+01 -2.447941867388179205e+01 9.903121648390265364e+01 -1.737854087853467888e+01 4.253873583907504141e+00 -2.313984166892639394e+02 -9.645933891930243931e+01 1.003969365774086526e+02 -9.059363819550320329e+01 3.181295257194745218e+01 3.153691479856388113e+01 3.852637242998401490e+01 6.708710152691745066e+01 -1.801512353929948063e+02 1.461526653556166195e+02 8.269002326187167284e+01 -7.620293425834560708e+00 -8.204669551803402783e+01 1.136597795032924836e+02 6.304915859504870213e+01 -2.041752192552991971e+02 -5.117037736272984461e+01 -8.294132501897432519e+01 -5.266174187236999416e+01 -6.291646698528801807e+01 -1.006172580382741870e+02 -6.131732065632888151e+01 1.944595034234459661e+02 -1.734702557613267402e+02 6.651607315000528331e+01 2.817441153777875584e+01 -7.634919844524954158e+01 1.053887160630637432e+01 -4.002598452482259006e+01 3.476468573110390814e+00 -9.763462444848173050e+01 -2.006561428398382816e+02 1.868251763654957642e+01 4.258376890323766872e+01 -1.300324693624103567e+01 -9.188917585544139399e+00 -4.041260288534515865e+01 -1.929602941903722808e+02 -3.114606461982145191e+01 -6.641308630289033488e+01 1.420457826699830228e+01 -1.585647357796732848e+01 9.197877431362547895e+01 -6.404125297710791642e+01 -1.053698862897744846e+02 -3.633839724010249483e+01 -9.174046609183417189e+00 4.626696558827220684e+01 -2.250948618610723173e+01 -7.489471137825398728e+01 -1.612605355588831557e+01 2.040138316871821544e+01 4.827355721871315097e+01 -1.158790360914984348e+02 -1.413035091110847077e+02 2.340967576448657326e+02 -2.218383540934346172e+02 -7.720970509541784565e+01 -4.711579325308331789e+01 1.421682301376642954e+02 6.432713972390800450e+01 2.326130910930973812e+02 2.487826401520158868e+02 -6.335338607240355202e+01 1.316274451344916372e+02 -5.684852254395764959e+01 -4.148144018791185772e+01 -1.023317554725864369e+02 -8.117061301689005859e+01 -7.074040498898163776e+01 -9.046070019418324648e+01 -2.478210636874269142e+02 -2.753925843401385123e+02 1.369479562403196269e+02 -2.696471644314958382e+01 5.414966459000214627e+01 1.330273025378655234e+02
