# 
#                 ----------------------------------------------------
#                 Data from a 3D direct N-body simulation. 
# 
#                 rows are i-particle; 
#                 coumns are :mass, tag, x ,y, z, vx, vy, vz, ax, ay, az
# 
#                 NTHU, Computational Physics Lab
# 
#                 ----------------------------------------------------
#                 Time = 9.09999999999985
1.000000000000000000e+00 2.000000000000000000e+00 3.000000000000000000e+00 4.000000000000000000e+00 5.000000000000000000e+00 6.000000000000000000e+00 7.000000000000000000e+00 8.000000000000000000e+00 9.000000000000000000e+00 1.000000000000000000e+01 1.100000000000000000e+01 1.200000000000000000e+01 1.300000000000000000e+01 1.400000000000000000e+01 1.500000000000000000e+01 1.600000000000000000e+01 1.700000000000000000e+01 1.800000000000000000e+01 1.900000000000000000e+01 2.000000000000000000e+01 2.100000000000000000e+01 2.200000000000000000e+01 2.300000000000000000e+01 2.400000000000000000e+01 2.500000000000000000e+01 2.600000000000000000e+01 2.700000000000000000e+01 2.800000000000000000e+01 2.900000000000000000e+01 3.000000000000000000e+01 3.100000000000000000e+01 3.200000000000000000e+01 3.300000000000000000e+01 3.400000000000000000e+01 3.500000000000000000e+01 3.600000000000000000e+01 3.700000000000000000e+01 3.800000000000000000e+01 3.900000000000000000e+01 4.000000000000000000e+01 4.100000000000000000e+01 4.200000000000000000e+01 4.300000000000000000e+01 4.400000000000000000e+01 4.500000000000000000e+01 4.600000000000000000e+01 4.700000000000000000e+01 4.800000000000000000e+01 4.900000000000000000e+01 5.000000000000000000e+01 5.100000000000000000e+01 5.200000000000000000e+01 5.300000000000000000e+01 5.400000000000000000e+01 5.500000000000000000e+01 5.600000000000000000e+01 5.700000000000000000e+01 5.800000000000000000e+01 5.900000000000000000e+01 6.000000000000000000e+01 6.100000000000000000e+01 6.200000000000000000e+01 6.300000000000000000e+01 6.400000000000000000e+01 6.500000000000000000e+01 6.600000000000000000e+01 6.700000000000000000e+01 6.800000000000000000e+01 6.900000000000000000e+01 7.000000000000000000e+01 7.100000000000000000e+01 7.200000000000000000e+01 7.300000000000000000e+01 7.400000000000000000e+01 7.500000000000000000e+01 7.600000000000000000e+01 7.700000000000000000e+01 7.800000000000000000e+01 7.900000000000000000e+01 8.000000000000000000e+01 8.100000000000000000e+01 8.200000000000000000e+01 8.300000000000000000e+01 8.400000000000000000e+01 8.500000000000000000e+01 8.600000000000000000e+01 8.700000000000000000e+01 8.800000000000000000e+01 8.900000000000000000e+01 9.000000000000000000e+01 9.100000000000000000e+01 9.200000000000000000e+01 9.300000000000000000e+01 9.400000000000000000e+01 9.500000000000000000e+01 9.600000000000000000e+01 9.700000000000000000e+01 9.800000000000000000e+01 9.900000000000000000e+01 1.000000000000000000e+02 1.010000000000000000e+02 1.020000000000000000e+02 1.030000000000000000e+02 1.040000000000000000e+02 1.050000000000000000e+02 1.060000000000000000e+02 1.070000000000000000e+02 1.080000000000000000e+02 1.090000000000000000e+02 1.100000000000000000e+02 1.110000000000000000e+02 1.120000000000000000e+02 1.130000000000000000e+02 1.140000000000000000e+02 1.150000000000000000e+02 1.160000000000000000e+02 1.170000000000000000e+02 1.180000000000000000e+02 1.190000000000000000e+02 1.200000000000000000e+02 1.210000000000000000e+02 1.220000000000000000e+02 1.230000000000000000e+02 1.240000000000000000e+02 1.250000000000000000e+02 1.260000000000000000e+02 1.270000000000000000e+02 1.280000000000000000e+02 1.290000000000000000e+02 1.300000000000000000e+02 1.310000000000000000e+02 1.320000000000000000e+02 1.330000000000000000e+02 1.340000000000000000e+02 1.350000000000000000e+02 1.360000000000000000e+02 1.370000000000000000e+02 1.380000000000000000e+02 1.390000000000000000e+02 1.400000000000000000e+02 1.410000000000000000e+02 1.420000000000000000e+02 1.430000000000000000e+02 1.440000000000000000e+02 1.450000000000000000e+02 1.460000000000000000e+02 1.470000000000000000e+02 1.480000000000000000e+02 1.490000000000000000e+02 1.500000000000000000e+02 1.510000000000000000e+02 1.520000000000000000e+02 1.530000000000000000e+02 1.540000000000000000e+02 1.550000000000000000e+02 1.560000000000000000e+02 1.570000000000000000e+02 1.580000000000000000e+02 1.590000000000000000e+02 1.600000000000000000e+02 1.610000000000000000e+02 1.620000000000000000e+02 1.630000000000000000e+02 1.640000000000000000e+02 1.650000000000000000e+02 1.660000000000000000e+02 1.670000000000000000e+02 1.680000000000000000e+02 1.690000000000000000e+02 1.700000000000000000e+02 1.710000000000000000e+02 1.720000000000000000e+02 1.730000000000000000e+02 1.740000000000000000e+02 1.750000000000000000e+02 1.760000000000000000e+02 1.770000000000000000e+02 1.780000000000000000e+02 1.790000000000000000e+02 1.800000000000000000e+02 1.810000000000000000e+02 1.820000000000000000e+02 1.830000000000000000e+02 1.840000000000000000e+02 1.850000000000000000e+02 1.860000000000000000e+02 1.870000000000000000e+02 1.880000000000000000e+02 1.890000000000000000e+02 1.900000000000000000e+02 1.910000000000000000e+02 1.920000000000000000e+02 1.930000000000000000e+02 1.940000000000000000e+02 1.950000000000000000e+02 1.960000000000000000e+02 1.970000000000000000e+02 1.980000000000000000e+02 1.990000000000000000e+02 2.000000000000000000e+02 2.010000000000000000e+02 2.020000000000000000e+02 2.030000000000000000e+02 2.040000000000000000e+02 2.050000000000000000e+02 2.060000000000000000e+02 2.070000000000000000e+02 2.080000000000000000e+02 2.090000000000000000e+02 2.100000000000000000e+02 2.110000000000000000e+02 2.120000000000000000e+02 2.130000000000000000e+02 2.140000000000000000e+02 2.150000000000000000e+02 2.160000000000000000e+02 2.170000000000000000e+02 2.180000000000000000e+02 2.190000000000000000e+02 2.200000000000000000e+02 2.210000000000000000e+02 2.220000000000000000e+02 2.230000000000000000e+02 2.240000000000000000e+02 2.250000000000000000e+02 2.260000000000000000e+02 2.270000000000000000e+02 2.280000000000000000e+02 2.290000000000000000e+02 2.300000000000000000e+02 2.310000000000000000e+02 2.320000000000000000e+02 2.330000000000000000e+02 2.340000000000000000e+02 2.350000000000000000e+02 2.360000000000000000e+02 2.370000000000000000e+02 2.380000000000000000e+02 2.390000000000000000e+02 2.400000000000000000e+02 2.410000000000000000e+02 2.420000000000000000e+02 2.430000000000000000e+02 2.440000000000000000e+02 2.450000000000000000e+02 2.460000000000000000e+02 2.470000000000000000e+02 2.480000000000000000e+02 2.490000000000000000e+02 2.500000000000000000e+02 2.510000000000000000e+02 2.520000000000000000e+02 2.530000000000000000e+02 2.540000000000000000e+02 2.550000000000000000e+02 2.560000000000000000e+02 2.570000000000000000e+02 2.580000000000000000e+02 2.590000000000000000e+02 2.600000000000000000e+02 2.610000000000000000e+02 2.620000000000000000e+02 2.630000000000000000e+02 2.640000000000000000e+02 2.650000000000000000e+02 2.660000000000000000e+02 2.670000000000000000e+02 2.680000000000000000e+02 2.690000000000000000e+02 2.700000000000000000e+02 2.710000000000000000e+02 2.720000000000000000e+02 2.730000000000000000e+02 2.740000000000000000e+02 2.750000000000000000e+02 2.760000000000000000e+02 2.770000000000000000e+02 2.780000000000000000e+02 2.790000000000000000e+02 2.800000000000000000e+02 2.810000000000000000e+02 2.820000000000000000e+02 2.830000000000000000e+02 2.840000000000000000e+02 2.850000000000000000e+02 2.860000000000000000e+02 2.870000000000000000e+02 2.880000000000000000e+02 2.890000000000000000e+02 2.900000000000000000e+02 2.910000000000000000e+02 2.920000000000000000e+02 2.930000000000000000e+02 2.940000000000000000e+02 2.950000000000000000e+02 2.960000000000000000e+02 2.970000000000000000e+02 2.980000000000000000e+02 2.990000000000000000e+02 3.000000000000000000e+02 3.010000000000000000e+02 3.020000000000000000e+02 3.030000000000000000e+02 3.040000000000000000e+02 3.050000000000000000e+02 3.060000000000000000e+02 3.070000000000000000e+02 3.080000000000000000e+02 3.090000000000000000e+02 3.100000000000000000e+02 3.110000000000000000e+02 3.120000000000000000e+02 3.130000000000000000e+02 3.140000000000000000e+02 3.150000000000000000e+02 3.160000000000000000e+02 3.170000000000000000e+02 3.180000000000000000e+02 3.190000000000000000e+02 3.200000000000000000e+02 3.210000000000000000e+02 3.220000000000000000e+02 3.230000000000000000e+02 3.240000000000000000e+02 3.250000000000000000e+02 3.260000000000000000e+02 3.270000000000000000e+02 3.280000000000000000e+02 3.290000000000000000e+02 3.300000000000000000e+02 3.310000000000000000e+02 3.320000000000000000e+02 3.330000000000000000e+02 3.340000000000000000e+02 3.350000000000000000e+02 3.360000000000000000e+02 3.370000000000000000e+02 3.380000000000000000e+02 3.390000000000000000e+02 3.400000000000000000e+02 3.410000000000000000e+02 3.420000000000000000e+02 3.430000000000000000e+02 3.440000000000000000e+02 3.450000000000000000e+02 3.460000000000000000e+02 3.470000000000000000e+02 3.480000000000000000e+02 3.490000000000000000e+02 3.500000000000000000e+02 3.510000000000000000e+02 3.520000000000000000e+02 3.530000000000000000e+02 3.540000000000000000e+02 3.550000000000000000e+02 3.560000000000000000e+02 3.570000000000000000e+02 3.580000000000000000e+02 3.590000000000000000e+02 3.600000000000000000e+02 3.610000000000000000e+02 3.620000000000000000e+02 3.630000000000000000e+02 3.640000000000000000e+02 3.650000000000000000e+02 3.660000000000000000e+02 3.670000000000000000e+02 3.680000000000000000e+02 3.690000000000000000e+02 3.700000000000000000e+02 3.710000000000000000e+02 3.720000000000000000e+02 3.730000000000000000e+02 3.740000000000000000e+02 3.750000000000000000e+02 3.760000000000000000e+02 3.770000000000000000e+02 3.780000000000000000e+02 3.790000000000000000e+02 3.800000000000000000e+02 3.810000000000000000e+02 3.820000000000000000e+02 3.830000000000000000e+02 3.840000000000000000e+02 3.850000000000000000e+02 3.860000000000000000e+02 3.870000000000000000e+02 3.880000000000000000e+02 3.890000000000000000e+02 3.900000000000000000e+02 3.910000000000000000e+02 3.920000000000000000e+02 3.930000000000000000e+02 3.940000000000000000e+02 3.950000000000000000e+02 3.960000000000000000e+02 3.970000000000000000e+02 3.980000000000000000e+02 3.990000000000000000e+02 4.000000000000000000e+02 4.010000000000000000e+02 4.020000000000000000e+02 4.030000000000000000e+02 4.040000000000000000e+02 4.050000000000000000e+02 4.060000000000000000e+02 4.070000000000000000e+02 4.080000000000000000e+02 4.090000000000000000e+02 4.100000000000000000e+02 4.110000000000000000e+02 4.120000000000000000e+02 4.130000000000000000e+02 4.140000000000000000e+02 4.150000000000000000e+02 4.160000000000000000e+02 4.170000000000000000e+02 4.180000000000000000e+02 4.190000000000000000e+02 4.200000000000000000e+02 4.210000000000000000e+02 4.220000000000000000e+02 4.230000000000000000e+02 4.240000000000000000e+02 4.250000000000000000e+02 4.260000000000000000e+02 4.270000000000000000e+02 4.280000000000000000e+02 4.290000000000000000e+02 4.300000000000000000e+02 4.310000000000000000e+02 4.320000000000000000e+02 4.330000000000000000e+02 4.340000000000000000e+02 4.350000000000000000e+02 4.360000000000000000e+02 4.370000000000000000e+02 4.380000000000000000e+02 4.390000000000000000e+02 4.400000000000000000e+02 4.410000000000000000e+02 4.420000000000000000e+02 4.430000000000000000e+02 4.440000000000000000e+02 4.450000000000000000e+02 4.460000000000000000e+02 4.470000000000000000e+02 4.480000000000000000e+02 4.490000000000000000e+02 4.500000000000000000e+02 4.510000000000000000e+02 4.520000000000000000e+02 4.530000000000000000e+02 4.540000000000000000e+02 4.550000000000000000e+02 4.560000000000000000e+02 4.570000000000000000e+02 4.580000000000000000e+02 4.590000000000000000e+02 4.600000000000000000e+02 4.610000000000000000e+02 4.620000000000000000e+02 4.630000000000000000e+02 4.640000000000000000e+02 4.650000000000000000e+02 4.660000000000000000e+02 4.670000000000000000e+02 4.680000000000000000e+02 4.690000000000000000e+02 4.700000000000000000e+02 4.710000000000000000e+02 4.720000000000000000e+02 4.730000000000000000e+02 4.740000000000000000e+02 4.750000000000000000e+02 4.760000000000000000e+02 4.770000000000000000e+02 4.780000000000000000e+02 4.790000000000000000e+02 4.800000000000000000e+02 4.810000000000000000e+02 4.820000000000000000e+02 4.830000000000000000e+02 4.840000000000000000e+02 4.850000000000000000e+02 4.860000000000000000e+02 4.870000000000000000e+02 4.880000000000000000e+02 4.890000000000000000e+02 4.900000000000000000e+02 4.910000000000000000e+02 4.920000000000000000e+02 4.930000000000000000e+02 4.940000000000000000e+02 4.950000000000000000e+02 4.960000000000000000e+02 4.970000000000000000e+02 4.980000000000000000e+02 4.990000000000000000e+02 5.000000000000000000e+02 5.010000000000000000e+02 5.020000000000000000e+02 5.030000000000000000e+02 5.040000000000000000e+02 5.050000000000000000e+02 5.060000000000000000e+02 5.070000000000000000e+02 5.080000000000000000e+02 5.090000000000000000e+02 5.100000000000000000e+02 5.110000000000000000e+02 5.120000000000000000e+02 5.130000000000000000e+02 5.140000000000000000e+02 5.150000000000000000e+02 5.160000000000000000e+02 5.170000000000000000e+02 5.180000000000000000e+02 5.190000000000000000e+02 5.200000000000000000e+02 5.210000000000000000e+02 5.220000000000000000e+02 5.230000000000000000e+02 5.240000000000000000e+02 5.250000000000000000e+02 5.260000000000000000e+02 5.270000000000000000e+02 5.280000000000000000e+02 5.290000000000000000e+02 5.300000000000000000e+02 5.310000000000000000e+02 5.320000000000000000e+02 5.330000000000000000e+02 5.340000000000000000e+02 5.350000000000000000e+02 5.360000000000000000e+02 5.370000000000000000e+02 5.380000000000000000e+02 5.390000000000000000e+02 5.400000000000000000e+02 5.410000000000000000e+02 5.420000000000000000e+02 5.430000000000000000e+02 5.440000000000000000e+02 5.450000000000000000e+02 5.460000000000000000e+02 5.470000000000000000e+02 5.480000000000000000e+02 5.490000000000000000e+02 5.500000000000000000e+02 5.510000000000000000e+02 5.520000000000000000e+02 5.530000000000000000e+02 5.540000000000000000e+02 5.550000000000000000e+02 5.560000000000000000e+02 5.570000000000000000e+02 5.580000000000000000e+02 5.590000000000000000e+02 5.600000000000000000e+02 5.610000000000000000e+02 5.620000000000000000e+02 5.630000000000000000e+02 5.640000000000000000e+02 5.650000000000000000e+02 5.660000000000000000e+02 5.670000000000000000e+02 5.680000000000000000e+02 5.690000000000000000e+02 5.700000000000000000e+02 5.710000000000000000e+02 5.720000000000000000e+02 5.730000000000000000e+02 5.740000000000000000e+02 5.750000000000000000e+02 5.760000000000000000e+02 5.770000000000000000e+02 5.780000000000000000e+02 5.790000000000000000e+02 5.800000000000000000e+02 5.810000000000000000e+02 5.820000000000000000e+02 5.830000000000000000e+02 5.840000000000000000e+02 5.850000000000000000e+02 5.860000000000000000e+02 5.870000000000000000e+02 5.880000000000000000e+02 5.890000000000000000e+02 5.900000000000000000e+02 5.910000000000000000e+02 5.920000000000000000e+02 5.930000000000000000e+02 5.940000000000000000e+02 5.950000000000000000e+02 5.960000000000000000e+02 5.970000000000000000e+02 5.980000000000000000e+02 5.990000000000000000e+02 6.000000000000000000e+02 6.010000000000000000e+02 6.020000000000000000e+02 6.030000000000000000e+02 6.040000000000000000e+02 6.050000000000000000e+02 6.060000000000000000e+02 6.070000000000000000e+02 6.080000000000000000e+02 6.090000000000000000e+02 6.100000000000000000e+02 6.110000000000000000e+02 6.120000000000000000e+02 6.130000000000000000e+02 6.140000000000000000e+02 6.150000000000000000e+02 6.160000000000000000e+02 6.170000000000000000e+02 6.180000000000000000e+02 6.190000000000000000e+02 6.200000000000000000e+02 6.210000000000000000e+02 6.220000000000000000e+02 6.230000000000000000e+02 6.240000000000000000e+02 6.250000000000000000e+02 6.260000000000000000e+02 6.270000000000000000e+02 6.280000000000000000e+02 6.290000000000000000e+02 6.300000000000000000e+02 6.310000000000000000e+02 6.320000000000000000e+02 6.330000000000000000e+02 6.340000000000000000e+02 6.350000000000000000e+02 6.360000000000000000e+02 6.370000000000000000e+02 6.380000000000000000e+02 6.390000000000000000e+02 6.400000000000000000e+02 6.410000000000000000e+02 6.420000000000000000e+02 6.430000000000000000e+02 6.440000000000000000e+02 6.450000000000000000e+02 6.460000000000000000e+02 6.470000000000000000e+02 6.480000000000000000e+02 6.490000000000000000e+02 6.500000000000000000e+02 6.510000000000000000e+02 6.520000000000000000e+02 6.530000000000000000e+02 6.540000000000000000e+02 6.550000000000000000e+02 6.560000000000000000e+02 6.570000000000000000e+02 6.580000000000000000e+02 6.590000000000000000e+02 6.600000000000000000e+02 6.610000000000000000e+02 6.620000000000000000e+02 6.630000000000000000e+02 6.640000000000000000e+02 6.650000000000000000e+02 6.660000000000000000e+02 6.670000000000000000e+02 6.680000000000000000e+02 6.690000000000000000e+02 6.700000000000000000e+02 6.710000000000000000e+02 6.720000000000000000e+02 6.730000000000000000e+02 6.740000000000000000e+02 6.750000000000000000e+02 6.760000000000000000e+02 6.770000000000000000e+02 6.780000000000000000e+02 6.790000000000000000e+02 6.800000000000000000e+02 6.810000000000000000e+02 6.820000000000000000e+02 6.830000000000000000e+02 6.840000000000000000e+02 6.850000000000000000e+02 6.860000000000000000e+02 6.870000000000000000e+02 6.880000000000000000e+02 6.890000000000000000e+02 6.900000000000000000e+02 6.910000000000000000e+02 6.920000000000000000e+02 6.930000000000000000e+02 6.940000000000000000e+02 6.950000000000000000e+02 6.960000000000000000e+02 6.970000000000000000e+02 6.980000000000000000e+02 6.990000000000000000e+02 7.000000000000000000e+02 7.010000000000000000e+02 7.020000000000000000e+02 7.030000000000000000e+02 7.040000000000000000e+02 7.050000000000000000e+02 7.060000000000000000e+02 7.070000000000000000e+02 7.080000000000000000e+02 7.090000000000000000e+02 7.100000000000000000e+02 7.110000000000000000e+02 7.120000000000000000e+02 7.130000000000000000e+02 7.140000000000000000e+02 7.150000000000000000e+02 7.160000000000000000e+02 7.170000000000000000e+02 7.180000000000000000e+02 7.190000000000000000e+02 7.200000000000000000e+02 7.210000000000000000e+02 7.220000000000000000e+02 7.230000000000000000e+02 7.240000000000000000e+02 7.250000000000000000e+02 7.260000000000000000e+02 7.270000000000000000e+02 7.280000000000000000e+02 7.290000000000000000e+02 7.300000000000000000e+02 7.310000000000000000e+02 7.320000000000000000e+02 7.330000000000000000e+02 7.340000000000000000e+02 7.350000000000000000e+02 7.360000000000000000e+02 7.370000000000000000e+02 7.380000000000000000e+02 7.390000000000000000e+02 7.400000000000000000e+02 7.410000000000000000e+02 7.420000000000000000e+02 7.430000000000000000e+02 7.440000000000000000e+02 7.450000000000000000e+02 7.460000000000000000e+02 7.470000000000000000e+02 7.480000000000000000e+02 7.490000000000000000e+02 7.500000000000000000e+02 7.510000000000000000e+02 7.520000000000000000e+02 7.530000000000000000e+02 7.540000000000000000e+02 7.550000000000000000e+02 7.560000000000000000e+02 7.570000000000000000e+02 7.580000000000000000e+02 7.590000000000000000e+02 7.600000000000000000e+02 7.610000000000000000e+02 7.620000000000000000e+02 7.630000000000000000e+02 7.640000000000000000e+02 7.650000000000000000e+02 7.660000000000000000e+02 7.670000000000000000e+02 7.680000000000000000e+02 7.690000000000000000e+02 7.700000000000000000e+02 7.710000000000000000e+02 7.720000000000000000e+02 7.730000000000000000e+02 7.740000000000000000e+02 7.750000000000000000e+02 7.760000000000000000e+02 7.770000000000000000e+02 7.780000000000000000e+02 7.790000000000000000e+02 7.800000000000000000e+02 7.810000000000000000e+02 7.820000000000000000e+02 7.830000000000000000e+02 7.840000000000000000e+02 7.850000000000000000e+02 7.860000000000000000e+02 7.870000000000000000e+02 7.880000000000000000e+02 7.890000000000000000e+02 7.900000000000000000e+02 7.910000000000000000e+02 7.920000000000000000e+02 7.930000000000000000e+02 7.940000000000000000e+02 7.950000000000000000e+02 7.960000000000000000e+02 7.970000000000000000e+02 7.980000000000000000e+02 7.990000000000000000e+02 8.000000000000000000e+02 8.010000000000000000e+02 8.020000000000000000e+02 8.030000000000000000e+02 8.040000000000000000e+02 8.050000000000000000e+02 8.060000000000000000e+02 8.070000000000000000e+02 8.080000000000000000e+02 8.090000000000000000e+02 8.100000000000000000e+02 8.110000000000000000e+02 8.120000000000000000e+02 8.130000000000000000e+02 8.140000000000000000e+02 8.150000000000000000e+02 8.160000000000000000e+02 8.170000000000000000e+02 8.180000000000000000e+02 8.190000000000000000e+02 8.200000000000000000e+02 8.210000000000000000e+02 8.220000000000000000e+02 8.230000000000000000e+02 8.240000000000000000e+02 8.250000000000000000e+02 8.260000000000000000e+02 8.270000000000000000e+02 8.280000000000000000e+02 8.290000000000000000e+02 8.300000000000000000e+02 8.310000000000000000e+02 8.320000000000000000e+02 8.330000000000000000e+02 8.340000000000000000e+02 8.350000000000000000e+02 8.360000000000000000e+02 8.370000000000000000e+02 8.380000000000000000e+02 8.390000000000000000e+02 8.400000000000000000e+02 8.410000000000000000e+02 8.420000000000000000e+02 8.430000000000000000e+02 8.440000000000000000e+02 8.450000000000000000e+02 8.460000000000000000e+02 8.470000000000000000e+02 8.480000000000000000e+02 8.490000000000000000e+02 8.500000000000000000e+02 8.510000000000000000e+02 8.520000000000000000e+02 8.530000000000000000e+02 8.540000000000000000e+02 8.550000000000000000e+02 8.560000000000000000e+02 8.570000000000000000e+02 8.580000000000000000e+02 8.590000000000000000e+02 8.600000000000000000e+02 8.610000000000000000e+02 8.620000000000000000e+02 8.630000000000000000e+02 8.640000000000000000e+02 8.650000000000000000e+02 8.660000000000000000e+02 8.670000000000000000e+02 8.680000000000000000e+02 8.690000000000000000e+02 8.700000000000000000e+02 8.710000000000000000e+02 8.720000000000000000e+02 8.730000000000000000e+02 8.740000000000000000e+02 8.750000000000000000e+02 8.760000000000000000e+02 8.770000000000000000e+02 8.780000000000000000e+02 8.790000000000000000e+02 8.800000000000000000e+02 8.810000000000000000e+02 8.820000000000000000e+02 8.830000000000000000e+02 8.840000000000000000e+02 8.850000000000000000e+02 8.860000000000000000e+02 8.870000000000000000e+02 8.880000000000000000e+02 8.890000000000000000e+02 8.900000000000000000e+02 8.910000000000000000e+02 8.920000000000000000e+02 8.930000000000000000e+02 8.940000000000000000e+02 8.950000000000000000e+02 8.960000000000000000e+02 8.970000000000000000e+02 8.980000000000000000e+02 8.990000000000000000e+02 9.000000000000000000e+02 9.010000000000000000e+02 9.020000000000000000e+02 9.030000000000000000e+02 9.040000000000000000e+02 9.050000000000000000e+02 9.060000000000000000e+02 9.070000000000000000e+02 9.080000000000000000e+02 9.090000000000000000e+02 9.100000000000000000e+02 9.110000000000000000e+02 9.120000000000000000e+02 9.130000000000000000e+02 9.140000000000000000e+02 9.150000000000000000e+02 9.160000000000000000e+02 9.170000000000000000e+02 9.180000000000000000e+02 9.190000000000000000e+02 9.200000000000000000e+02 9.210000000000000000e+02 9.220000000000000000e+02 9.230000000000000000e+02 9.240000000000000000e+02 9.250000000000000000e+02 9.260000000000000000e+02 9.270000000000000000e+02 9.280000000000000000e+02 9.290000000000000000e+02 9.300000000000000000e+02 9.310000000000000000e+02 9.320000000000000000e+02 9.330000000000000000e+02 9.340000000000000000e+02 9.350000000000000000e+02 9.360000000000000000e+02 9.370000000000000000e+02 9.380000000000000000e+02 9.390000000000000000e+02 9.400000000000000000e+02 9.410000000000000000e+02 9.420000000000000000e+02 9.430000000000000000e+02 9.440000000000000000e+02 9.450000000000000000e+02 9.460000000000000000e+02 9.470000000000000000e+02 9.480000000000000000e+02 9.490000000000000000e+02 9.500000000000000000e+02 9.510000000000000000e+02 9.520000000000000000e+02 9.530000000000000000e+02 9.540000000000000000e+02 9.550000000000000000e+02 9.560000000000000000e+02 9.570000000000000000e+02 9.580000000000000000e+02 9.590000000000000000e+02 9.600000000000000000e+02 9.610000000000000000e+02 9.620000000000000000e+02 9.630000000000000000e+02 9.640000000000000000e+02 9.650000000000000000e+02 9.660000000000000000e+02 9.670000000000000000e+02 9.680000000000000000e+02 9.690000000000000000e+02 9.700000000000000000e+02 9.710000000000000000e+02 9.720000000000000000e+02 9.730000000000000000e+02 9.740000000000000000e+02 9.750000000000000000e+02 9.760000000000000000e+02 9.770000000000000000e+02 9.780000000000000000e+02 9.790000000000000000e+02 9.800000000000000000e+02 9.810000000000000000e+02 9.820000000000000000e+02 9.830000000000000000e+02 9.840000000000000000e+02 9.850000000000000000e+02 9.860000000000000000e+02 9.870000000000000000e+02 9.880000000000000000e+02 9.890000000000000000e+02 9.900000000000000000e+02 9.910000000000000000e+02 9.920000000000000000e+02 9.930000000000000000e+02 9.940000000000000000e+02 9.950000000000000000e+02 9.960000000000000000e+02 9.970000000000000000e+02 9.980000000000000000e+02 9.990000000000000000e+02 1.000000000000000000e+03
1.000000000000000021e-02 1.000000000000000021e-02 1.000000000000000021e-02 1.000000000000000021e-02 1.000000000000000021e-02 1.000000000000000021e-02 1.000000000000000021e-02 1.000000000000000021e-02 1.000000000000000021e-02 1.000000000000000021e-02 1.000000000000000021e-02 1.000000000000000021e-02 1.000000000000000021e-02 1.000000000000000021e-02 1.000000000000000021e-02 1.000000000000000021e-02 1.000000000000000021e-02 1.000000000000000021e-02 1.000000000000000021e-02 1.000000000000000021e-02 1.000000000000000021e-02 1.000000000000000021e-02 1.000000000000000021e-02 1.000000000000000021e-02 1.000000000000000021e-02 1.000000000000000021e-02 1.000000000000000021e-02 1.000000000000000021e-02 1.000000000000000021e-02 1.000000000000000021e-02 1.000000000000000021e-02 1.000000000000000021e-02 1.000000000000000021e-02 1.000000000000000021e-02 1.000000000000000021e-02 1.000000000000000021e-02 1.000000000000000021e-02 1.000000000000000021e-02 1.000000000000000021e-02 1.000000000000000021e-02 1.000000000000000021e-02 1.000000000000000021e-02 1.000000000000000021e-02 1.000000000000000021e-02 1.000000000000000021e-02 1.000000000000000021e-02 1.000000000000000021e-02 1.000000000000000021e-02 1.000000000000000021e-02 1.000000000000000021e-02 1.000000000000000021e-02 1.000000000000000021e-02 1.000000000000000021e-02 1.000000000000000021e-02 1.000000000000000021e-02 1.000000000000000021e-02 1.000000000000000021e-02 1.000000000000000021e-02 1.000000000000000021e-02 1.000000000000000021e-02 1.000000000000000021e-02 1.000000000000000021e-02 1.000000000000000021e-02 1.000000000000000021e-02 1.000000000000000021e-02 1.000000000000000021e-02 1.000000000000000021e-02 1.000000000000000021e-02 1.000000000000000021e-02 1.000000000000000021e-02 1.000000000000000021e-02 1.000000000000000021e-02 1.000000000000000021e-02 1.000000000000000021e-02 1.000000000000000021e-02 1.000000000000000021e-02 1.000000000000000021e-02 1.000000000000000021e-02 1.000000000000000021e-02 1.000000000000000021e-02 1.000000000000000021e-02 1.000000000000000021e-02 1.000000000000000021e-02 1.000000000000000021e-02 1.000000000000000021e-02 1.000000000000000021e-02 1.000000000000000021e-02 1.000000000000000021e-02 1.000000000000000021e-02 1.000000000000000021e-02 1.000000000000000021e-02 1.000000000000000021e-02 1.000000000000000021e-02 1.000000000000000021e-02 1.000000000000000021e-02 1.000000000000000021e-02 1.000000000000000021e-02 1.000000000000000021e-02 1.000000000000000021e-02 1.000000000000000021e-02 1.000000000000000021e-02 1.000000000000000021e-02 1.000000000000000021e-02 1.000000000000000021e-02 1.000000000000000021e-02 1.000000000000000021e-02 1.000000000000000021e-02 1.000000000000000021e-02 1.000000000000000021e-02 1.000000000000000021e-02 1.000000000000000021e-02 1.000000000000000021e-02 1.000000000000000021e-02 1.000000000000000021e-02 1.000000000000000021e-02 1.000000000000000021e-02 1.000000000000000021e-02 1.000000000000000021e-02 1.000000000000000021e-02 1.000000000000000021e-02 1.000000000000000021e-02 1.000000000000000021e-02 1.000000000000000021e-02 1.000000000000000021e-02 1.000000000000000021e-02 1.000000000000000021e-02 1.000000000000000021e-02 1.000000000000000021e-02 1.000000000000000021e-02 1.000000000000000021e-02 1.000000000000000021e-02 1.000000000000000021e-02 1.000000000000000021e-02 1.000000000000000021e-02 1.000000000000000021e-02 1.000000000000000021e-02 1.000000000000000021e-02 1.000000000000000021e-02 1.000000000000000021e-02 1.000000000000000021e-02 1.000000000000000021e-02 1.000000000000000021e-02 1.000000000000000021e-02 1.000000000000000021e-02 1.000000000000000021e-02 1.000000000000000021e-02 1.000000000000000021e-02 1.000000000000000021e-02 1.000000000000000021e-02 1.000000000000000021e-02 1.000000000000000021e-02 1.000000000000000021e-02 1.000000000000000021e-02 1.000000000000000021e-02 1.000000000000000021e-02 1.000000000000000021e-02 1.000000000000000021e-02 1.000000000000000021e-02 1.000000000000000021e-02 1.000000000000000021e-02 1.000000000000000021e-02 1.000000000000000021e-02 1.000000000000000021e-02 1.000000000000000021e-02 1.000000000000000021e-02 1.000000000000000021e-02 1.000000000000000021e-02 1.000000000000000021e-02 1.000000000000000021e-02 1.000000000000000021e-02 1.000000000000000021e-02 1.000000000000000021e-02 1.000000000000000021e-02 1.000000000000000021e-02 1.000000000000000021e-02 1.000000000000000021e-02 1.000000000000000021e-02 1.000000000000000021e-02 1.000000000000000021e-02 1.000000000000000021e-02 1.000000000000000021e-02 1.000000000000000021e-02 1.000000000000000021e-02 1.000000000000000021e-02 1.000000000000000021e-02 1.000000000000000021e-02 1.000000000000000021e-02 1.000000000000000021e-02 1.000000000000000021e-02 1.000000000000000021e-02 1.000000000000000021e-02 1.000000000000000021e-02 1.000000000000000021e-02 1.000000000000000021e-02 1.000000000000000021e-02 1.000000000000000021e-02 1.000000000000000021e-02 1.000000000000000021e-02 1.000000000000000021e-02 1.000000000000000021e-02 1.000000000000000021e-02 1.000000000000000021e-02 1.000000000000000021e-02 1.000000000000000021e-02 1.000000000000000021e-02 1.000000000000000021e-02 1.000000000000000021e-02 1.000000000000000021e-02 1.000000000000000021e-02 1.000000000000000021e-02 1.000000000000000021e-02 1.000000000000000021e-02 1.000000000000000021e-02 1.000000000000000021e-02 1.000000000000000021e-02 1.000000000000000021e-02 1.000000000000000021e-02 1.000000000000000021e-02 1.000000000000000021e-02 1.000000000000000021e-02 1.000000000000000021e-02 1.000000000000000021e-02 1.000000000000000021e-02 1.000000000000000021e-02 1.000000000000000021e-02 1.000000000000000021e-02 1.000000000000000021e-02 1.000000000000000021e-02 1.000000000000000021e-02 1.000000000000000021e-02 1.000000000000000021e-02 1.000000000000000021e-02 1.000000000000000021e-02 1.000000000000000021e-02 1.000000000000000021e-02 1.000000000000000021e-02 1.000000000000000021e-02 1.000000000000000021e-02 1.000000000000000021e-02 1.000000000000000021e-02 1.000000000000000021e-02 1.000000000000000021e-02 1.000000000000000021e-02 1.000000000000000021e-02 1.000000000000000021e-02 1.000000000000000021e-02 1.000000000000000021e-02 1.000000000000000021e-02 1.000000000000000021e-02 1.000000000000000021e-02 1.000000000000000021e-02 1.000000000000000021e-02 1.000000000000000021e-02 1.000000000000000021e-02 1.000000000000000021e-02 1.000000000000000021e-02 1.000000000000000021e-02 1.000000000000000021e-02 1.000000000000000021e-02 1.000000000000000021e-02 1.000000000000000021e-02 1.000000000000000021e-02 1.000000000000000021e-02 1.000000000000000021e-02 1.000000000000000021e-02 1.000000000000000021e-02 1.000000000000000021e-02 1.000000000000000021e-02 1.000000000000000021e-02 1.000000000000000021e-02 1.000000000000000021e-02 1.000000000000000021e-02 1.000000000000000021e-02 1.000000000000000021e-02 1.000000000000000021e-02 1.000000000000000021e-02 1.000000000000000021e-02 1.000000000000000021e-02 1.000000000000000021e-02 1.000000000000000021e-02 1.000000000000000021e-02 1.000000000000000021e-02 1.000000000000000021e-02 1.000000000000000021e-02 1.000000000000000021e-02 1.000000000000000021e-02 1.000000000000000021e-02 1.000000000000000021e-02 1.000000000000000021e-02 1.000000000000000021e-02 1.000000000000000021e-02 1.000000000000000021e-02 1.000000000000000021e-02 1.000000000000000021e-02 1.000000000000000021e-02 1.000000000000000021e-02 1.000000000000000021e-02 1.000000000000000021e-02 1.000000000000000021e-02 1.000000000000000021e-02 1.000000000000000021e-02 1.000000000000000021e-02 1.000000000000000021e-02 1.000000000000000021e-02 1.000000000000000021e-02 1.000000000000000021e-02 1.000000000000000021e-02 1.000000000000000021e-02 1.000000000000000021e-02 1.000000000000000021e-02 1.000000000000000021e-02 1.000000000000000021e-02 1.000000000000000021e-02 1.000000000000000021e-02 1.000000000000000021e-02 1.000000000000000021e-02 1.000000000000000021e-02 1.000000000000000021e-02 1.000000000000000021e-02 1.000000000000000021e-02 1.000000000000000021e-02 1.000000000000000021e-02 1.000000000000000021e-02 1.000000000000000021e-02 1.000000000000000021e-02 1.000000000000000021e-02 1.000000000000000021e-02 1.000000000000000021e-02 1.000000000000000021e-02 1.000000000000000021e-02 1.000000000000000021e-02 1.000000000000000021e-02 1.000000000000000021e-02 1.000000000000000021e-02 1.000000000000000021e-02 1.000000000000000021e-02 1.000000000000000021e-02 1.000000000000000021e-02 1.000000000000000021e-02 1.000000000000000021e-02 1.000000000000000021e-02 1.000000000000000021e-02 1.000000000000000021e-02 1.000000000000000021e-02 1.000000000000000021e-02 1.000000000000000021e-02 1.000000000000000021e-02 1.000000000000000021e-02 1.000000000000000021e-02 1.000000000000000021e-02 1.000000000000000021e-02 1.000000000000000021e-02 1.000000000000000021e-02 1.000000000000000021e-02 1.000000000000000021e-02 1.000000000000000021e-02 1.000000000000000021e-02 1.000000000000000021e-02 1.000000000000000021e-02 1.000000000000000021e-02 1.000000000000000021e-02 1.000000000000000021e-02 1.000000000000000021e-02 1.000000000000000021e-02 1.000000000000000021e-02 1.000000000000000021e-02 1.000000000000000021e-02 1.000000000000000021e-02 1.000000000000000021e-02 1.000000000000000021e-02 1.000000000000000021e-02 1.000000000000000021e-02 1.000000000000000021e-02 1.000000000000000021e-02 1.000000000000000021e-02 1.000000000000000021e-02 1.000000000000000021e-02 1.000000000000000021e-02 1.000000000000000021e-02 1.000000000000000021e-02 1.000000000000000021e-02 1.000000000000000021e-02 1.000000000000000021e-02 1.000000000000000021e-02 1.000000000000000021e-02 1.000000000000000021e-02 1.000000000000000021e-02 1.000000000000000021e-02 1.000000000000000021e-02 1.000000000000000021e-02 1.000000000000000021e-02 1.000000000000000021e-02 1.000000000000000021e-02 1.000000000000000021e-02 1.000000000000000021e-02 1.000000000000000021e-02 1.000000000000000021e-02 1.000000000000000021e-02 1.000000000000000021e-02 1.000000000000000021e-02 1.000000000000000021e-02 1.000000000000000021e-02 1.000000000000000021e-02 1.000000000000000021e-02 1.000000000000000021e-02 1.000000000000000021e-02 1.000000000000000021e-02 1.000000000000000021e-02 1.000000000000000021e-02 1.000000000000000021e-02 1.000000000000000021e-02 1.000000000000000021e-02 1.000000000000000021e-02 1.000000000000000021e-02 1.000000000000000021e-02 1.000000000000000021e-02 1.000000000000000021e-02 1.000000000000000021e-02 1.000000000000000021e-02 1.000000000000000021e-02 1.000000000000000021e-02 1.000000000000000021e-02 1.000000000000000021e-02 1.000000000000000021e-02 1.000000000000000021e-02 1.000000000000000021e-02 1.000000000000000021e-02 1.000000000000000021e-02 1.000000000000000021e-02 1.000000000000000021e-02 1.000000000000000021e-02 1.000000000000000021e-02 1.000000000000000021e-02 1.000000000000000021e-02 1.000000000000000021e-02 1.000000000000000021e-02 1.000000000000000021e-02 1.000000000000000021e-02 1.000000000000000021e-02 1.000000000000000021e-02 1.000000000000000021e-02 1.000000000000000021e-02 1.000000000000000021e-02 1.000000000000000021e-02 1.000000000000000021e-02 1.000000000000000021e-02 1.000000000000000021e-02 1.000000000000000021e-02 1.000000000000000021e-02 1.000000000000000021e-02 1.000000000000000021e-02 1.000000000000000021e-02 1.000000000000000021e-02 1.000000000000000021e-02 1.000000000000000021e-02 1.000000000000000021e-02 1.000000000000000021e-02 1.000000000000000021e-02 1.000000000000000021e-02 1.000000000000000021e-02 1.000000000000000021e-02 1.000000000000000021e-02 1.000000000000000021e-02 1.000000000000000021e-02 1.000000000000000021e-02 1.000000000000000021e-02 1.000000000000000021e-02 1.000000000000000021e-02 1.000000000000000021e-02 1.000000000000000021e-02 1.000000000000000021e-02 1.000000000000000021e-02 1.000000000000000021e-02 1.000000000000000021e-02 1.000000000000000021e-02 1.000000000000000021e-02 1.000000000000000021e-02 1.000000000000000021e-02 1.000000000000000021e-02 1.000000000000000021e-02 1.000000000000000021e-02 1.000000000000000021e-02 1.000000000000000021e-02 1.000000000000000021e-02 1.000000000000000021e-02 1.000000000000000021e-02 1.000000000000000021e-02 1.000000000000000021e-02 1.000000000000000021e-02 1.000000000000000021e-02 1.000000000000000021e-02 1.000000000000000021e-02 1.000000000000000021e-02 1.000000000000000021e-02 1.000000000000000021e-02 1.000000000000000021e-02 1.000000000000000021e-02 1.000000000000000021e-02 1.000000000000000021e-02 1.000000000000000021e-02 1.000000000000000021e-02 1.000000000000000021e-02 1.000000000000000021e-02 1.000000000000000021e-02 1.000000000000000021e-02 1.000000000000000021e-02 1.000000000000000021e-02 1.000000000000000021e-02 1.000000000000000021e-02 1.000000000000000021e-02 1.000000000000000021e-02 1.000000000000000021e-02 1.000000000000000021e-02 1.000000000000000021e-02 1.000000000000000021e-02 1.000000000000000021e-02 1.000000000000000021e-02 1.000000000000000021e-02 1.000000000000000021e-02 1.000000000000000021e-02 1.000000000000000021e-02 1.000000000000000021e-02 1.000000000000000021e-02 1.000000000000000021e-02 1.000000000000000021e-02 1.000000000000000021e-02 1.000000000000000021e-02 1.000000000000000021e-02 1.000000000000000021e-02 1.000000000000000021e-02 1.000000000000000021e-02 1.000000000000000021e-02 1.000000000000000021e-02 1.000000000000000021e-02 1.000000000000000021e-02 1.000000000000000021e-02 1.000000000000000021e-02 1.000000000000000021e-02 1.000000000000000021e-02 1.000000000000000021e-02 1.000000000000000021e-02 1.000000000000000021e-02 1.000000000000000021e-02 1.000000000000000021e-02 1.000000000000000021e-02 1.000000000000000021e-02 1.000000000000000021e-02 1.000000000000000021e-02 1.000000000000000021e-02 1.000000000000000021e-02 1.000000000000000021e-02 1.000000000000000021e-02 1.000000000000000021e-02 1.000000000000000021e-02 1.000000000000000021e-02 1.000000000000000021e-02 1.000000000000000021e-02 1.000000000000000021e-02 1.000000000000000021e-02 1.000000000000000021e-02 1.000000000000000021e-02 1.000000000000000021e-02 1.000000000000000021e-02 1.000000000000000021e-02 1.000000000000000021e-02 1.000000000000000021e-02 1.000000000000000021e-02 1.000000000000000021e-02 1.000000000000000021e-02 1.000000000000000021e-02 1.000000000000000021e-02 1.000000000000000021e-02 1.000000000000000021e-02 1.000000000000000021e-02 1.000000000000000021e-02 1.000000000000000021e-02 1.000000000000000021e-02 1.000000000000000021e-02 1.000000000000000021e-02 1.000000000000000021e-02 1.000000000000000021e-02 1.000000000000000021e-02 1.000000000000000021e-02 1.000000000000000021e-02 1.000000000000000021e-02 1.000000000000000021e-02 1.000000000000000021e-02 1.000000000000000021e-02 1.000000000000000021e-02 1.000000000000000021e-02 1.000000000000000021e-02 1.000000000000000021e-02 1.000000000000000021e-02 1.000000000000000021e-02 1.000000000000000021e-02 1.000000000000000021e-02 1.000000000000000021e-02 1.000000000000000021e-02 1.000000000000000021e-02 1.000000000000000021e-02 1.000000000000000021e-02 1.000000000000000021e-02 1.000000000000000021e-02 1.000000000000000021e-02 1.000000000000000021e-02 1.000000000000000021e-02 1.000000000000000021e-02 1.000000000000000021e-02 1.000000000000000021e-02 1.000000000000000021e-02 1.000000000000000021e-02 1.000000000000000021e-02 1.000000000000000021e-02 1.000000000000000021e-02 1.000000000000000021e-02 1.000000000000000021e-02 1.000000000000000021e-02 1.000000000000000021e-02 1.000000000000000021e-02 1.000000000000000021e-02 1.000000000000000021e-02 1.000000000000000021e-02 1.000000000000000021e-02 1.000000000000000021e-02 1.000000000000000021e-02 1.000000000000000021e-02 1.000000000000000021e-02 1.000000000000000021e-02 1.000000000000000021e-02 1.000000000000000021e-02 1.000000000000000021e-02 1.000000000000000021e-02 1.000000000000000021e-02 1.000000000000000021e-02 1.000000000000000021e-02 1.000000000000000021e-02 1.000000000000000021e-02 1.000000000000000021e-02 1.000000000000000021e-02 1.000000000000000021e-02 1.000000000000000021e-02 1.000000000000000021e-02 1.000000000000000021e-02 1.000000000000000021e-02 1.000000000000000021e-02 1.000000000000000021e-02 1.000000000000000021e-02 1.000000000000000021e-02 1.000000000000000021e-02 1.000000000000000021e-02 1.000000000000000021e-02 1.000000000000000021e-02 1.000000000000000021e-02 1.000000000000000021e-02 1.000000000000000021e-02 1.000000000000000021e-02 1.000000000000000021e-02 1.000000000000000021e-02 1.000000000000000021e-02 1.000000000000000021e-02 1.000000000000000021e-02 1.000000000000000021e-02 1.000000000000000021e-02 1.000000000000000021e-02 1.000000000000000021e-02 1.000000000000000021e-02 1.000000000000000021e-02 1.000000000000000021e-02 1.000000000000000021e-02 1.000000000000000021e-02 1.000000000000000021e-02 1.000000000000000021e-02 1.000000000000000021e-02 1.000000000000000021e-02 1.000000000000000021e-02 1.000000000000000021e-02 1.000000000000000021e-02 1.000000000000000021e-02 1.000000000000000021e-02 1.000000000000000021e-02 1.000000000000000021e-02 1.000000000000000021e-02 1.000000000000000021e-02 1.000000000000000021e-02 1.000000000000000021e-02 1.000000000000000021e-02 1.000000000000000021e-02 1.000000000000000021e-02 1.000000000000000021e-02 1.000000000000000021e-02 1.000000000000000021e-02 1.000000000000000021e-02 1.000000000000000021e-02 1.000000000000000021e-02 1.000000000000000021e-02 1.000000000000000021e-02 1.000000000000000021e-02 1.000000000000000021e-02 1.000000000000000021e-02 1.000000000000000021e-02 1.000000000000000021e-02 1.000000000000000021e-02 1.000000000000000021e-02 1.000000000000000021e-02 1.000000000000000021e-02 1.000000000000000021e-02 1.000000000000000021e-02 1.000000000000000021e-02 1.000000000000000021e-02 1.000000000000000021e-02 1.000000000000000021e-02 1.000000000000000021e-02 1.000000000000000021e-02 1.000000000000000021e-02 1.000000000000000021e-02 1.000000000000000021e-02 1.000000000000000021e-02 1.000000000000000021e-02 1.000000000000000021e-02 1.000000000000000021e-02 1.000000000000000021e-02 1.000000000000000021e-02 1.000000000000000021e-02 1.000000000000000021e-02 1.000000000000000021e-02 1.000000000000000021e-02 1.000000000000000021e-02 1.000000000000000021e-02 1.000000000000000021e-02 1.000000000000000021e-02 1.000000000000000021e-02 1.000000000000000021e-02 1.000000000000000021e-02 1.000000000000000021e-02 1.000000000000000021e-02 1.000000000000000021e-02 1.000000000000000021e-02 1.000000000000000021e-02 1.000000000000000021e-02 1.000000000000000021e-02 1.000000000000000021e-02 1.000000000000000021e-02 1.000000000000000021e-02 1.000000000000000021e-02 1.000000000000000021e-02 1.000000000000000021e-02 1.000000000000000021e-02 1.000000000000000021e-02 1.000000000000000021e-02 1.000000000000000021e-02 1.000000000000000021e-02 1.000000000000000021e-02 1.000000000000000021e-02 1.000000000000000021e-02 1.000000000000000021e-02 1.000000000000000021e-02 1.000000000000000021e-02 1.000000000000000021e-02 1.000000000000000021e-02 1.000000000000000021e-02 1.000000000000000021e-02 1.000000000000000021e-02 1.000000000000000021e-02 1.000000000000000021e-02 1.000000000000000021e-02 1.000000000000000021e-02 1.000000000000000021e-02 1.000000000000000021e-02 1.000000000000000021e-02 1.000000000000000021e-02 1.000000000000000021e-02 1.000000000000000021e-02 1.000000000000000021e-02 1.000000000000000021e-02 1.000000000000000021e-02 1.000000000000000021e-02 1.000000000000000021e-02 1.000000000000000021e-02 1.000000000000000021e-02 1.000000000000000021e-02 1.000000000000000021e-02 1.000000000000000021e-02 1.000000000000000021e-02 1.000000000000000021e-02 1.000000000000000021e-02 1.000000000000000021e-02 1.000000000000000021e-02 1.000000000000000021e-02 1.000000000000000021e-02 1.000000000000000021e-02 1.000000000000000021e-02 1.000000000000000021e-02 1.000000000000000021e-02 1.000000000000000021e-02 1.000000000000000021e-02 1.000000000000000021e-02 1.000000000000000021e-02 1.000000000000000021e-02 1.000000000000000021e-02 1.000000000000000021e-02 1.000000000000000021e-02 1.000000000000000021e-02 1.000000000000000021e-02 1.000000000000000021e-02 1.000000000000000021e-02 1.000000000000000021e-02 1.000000000000000021e-02 1.000000000000000021e-02 1.000000000000000021e-02 1.000000000000000021e-02 1.000000000000000021e-02 1.000000000000000021e-02 1.000000000000000021e-02 1.000000000000000021e-02 1.000000000000000021e-02 1.000000000000000021e-02 1.000000000000000021e-02 1.000000000000000021e-02 1.000000000000000021e-02 1.000000000000000021e-02 1.000000000000000021e-02 1.000000000000000021e-02 1.000000000000000021e-02 1.000000000000000021e-02 1.000000000000000021e-02 1.000000000000000021e-02 1.000000000000000021e-02 1.000000000000000021e-02 1.000000000000000021e-02 1.000000000000000021e-02 1.000000000000000021e-02 1.000000000000000021e-02 1.000000000000000021e-02 1.000000000000000021e-02 1.000000000000000021e-02 1.000000000000000021e-02 1.000000000000000021e-02 1.000000000000000021e-02 1.000000000000000021e-02 1.000000000000000021e-02 1.000000000000000021e-02 1.000000000000000021e-02 1.000000000000000021e-02 1.000000000000000021e-02 1.000000000000000021e-02 1.000000000000000021e-02 1.000000000000000021e-02 1.000000000000000021e-02 1.000000000000000021e-02 1.000000000000000021e-02 1.000000000000000021e-02 1.000000000000000021e-02 1.000000000000000021e-02 1.000000000000000021e-02 1.000000000000000021e-02 1.000000000000000021e-02 1.000000000000000021e-02 1.000000000000000021e-02 1.000000000000000021e-02 1.000000000000000021e-02 1.000000000000000021e-02 1.000000000000000021e-02 1.000000000000000021e-02 1.000000000000000021e-02 1.000000000000000021e-02 1.000000000000000021e-02 1.000000000000000021e-02 1.000000000000000021e-02 1.000000000000000021e-02 1.000000000000000021e-02 1.000000000000000021e-02 1.000000000000000021e-02 1.000000000000000021e-02 1.000000000000000021e-02 1.000000000000000021e-02 1.000000000000000021e-02 1.000000000000000021e-02 1.000000000000000021e-02 1.000000000000000021e-02 1.000000000000000021e-02 1.000000000000000021e-02 1.000000000000000021e-02 1.000000000000000021e-02 1.000000000000000021e-02 1.000000000000000021e-02 1.000000000000000021e-02 1.000000000000000021e-02 1.000000000000000021e-02 1.000000000000000021e-02 1.000000000000000021e-02 1.000000000000000021e-02 1.000000000000000021e-02 1.000000000000000021e-02 1.000000000000000021e-02 1.000000000000000021e-02 1.000000000000000021e-02 1.000000000000000021e-02 1.000000000000000021e-02 1.000000000000000021e-02 1.000000000000000021e-02 1.000000000000000021e-02 1.000000000000000021e-02 1.000000000000000021e-02 1.000000000000000021e-02 1.000000000000000021e-02 1.000000000000000021e-02 1.000000000000000021e-02 1.000000000000000021e-02 1.000000000000000021e-02 1.000000000000000021e-02 1.000000000000000021e-02 1.000000000000000021e-02 1.000000000000000021e-02 1.000000000000000021e-02 1.000000000000000021e-02 1.000000000000000021e-02 1.000000000000000021e-02 1.000000000000000021e-02 1.000000000000000021e-02 1.000000000000000021e-02 1.000000000000000021e-02 1.000000000000000021e-02 1.000000000000000021e-02 1.000000000000000021e-02 1.000000000000000021e-02 1.000000000000000021e-02 1.000000000000000021e-02 1.000000000000000021e-02 1.000000000000000021e-02 1.000000000000000021e-02 1.000000000000000021e-02 1.000000000000000021e-02 1.000000000000000021e-02 1.000000000000000021e-02 1.000000000000000021e-02 1.000000000000000021e-02 1.000000000000000021e-02 1.000000000000000021e-02 1.000000000000000021e-02 1.000000000000000021e-02 1.000000000000000021e-02 1.000000000000000021e-02 1.000000000000000021e-02 1.000000000000000021e-02 1.000000000000000021e-02 1.000000000000000021e-02 1.000000000000000021e-02 1.000000000000000021e-02 1.000000000000000021e-02 1.000000000000000021e-02 1.000000000000000021e-02 1.000000000000000021e-02 1.000000000000000021e-02 1.000000000000000021e-02 1.000000000000000021e-02 1.000000000000000021e-02 1.000000000000000021e-02 1.000000000000000021e-02 1.000000000000000021e-02 1.000000000000000021e-02 1.000000000000000021e-02 1.000000000000000021e-02 1.000000000000000021e-02 1.000000000000000021e-02 1.000000000000000021e-02 1.000000000000000021e-02 1.000000000000000021e-02 1.000000000000000021e-02 1.000000000000000021e-02 1.000000000000000021e-02 1.000000000000000021e-02 1.000000000000000021e-02 1.000000000000000021e-02 1.000000000000000021e-02 1.000000000000000021e-02 1.000000000000000021e-02 1.000000000000000021e-02 1.000000000000000021e-02 1.000000000000000021e-02 1.000000000000000021e-02 1.000000000000000021e-02 1.000000000000000021e-02 1.000000000000000021e-02 1.000000000000000021e-02 1.000000000000000021e-02 1.000000000000000021e-02 1.000000000000000021e-02 1.000000000000000021e-02 1.000000000000000021e-02 1.000000000000000021e-02 1.000000000000000021e-02 1.000000000000000021e-02 1.000000000000000021e-02 1.000000000000000021e-02 1.000000000000000021e-02 1.000000000000000021e-02 1.000000000000000021e-02 1.000000000000000021e-02 1.000000000000000021e-02 1.000000000000000021e-02
-1.157895492188760187e+02 1.758699965798274434e+02 4.085348269690911138e+01 -9.189569181030343259e+00 -9.117811905934047445e+01 -1.389606523694338236e+01 -2.156403607125336634e+02 6.916643410533510616e-01 -8.792917356011351160e+01 -1.445121321922711743e+01 -2.055613324864662417e+01 6.729172822352887273e+00 -1.846479802653017588e+00 1.740775606623883505e+02 8.777987370556365931e+01 -4.019077174066249825e+01 -5.471635547382554421e+01 8.218593624850937829e+01 3.404148319201689077e+01 -2.630494063889632628e+01 -8.182338141449369573e+01 -7.660112824513009855e+01 -1.433920371214222200e+01 3.001757180340612052e+01 -2.022390957126943078e+02 -1.024596953856989074e+02 -2.705931783352524178e+01 2.092167938470178115e+02 7.341712378691302376e+01 7.955623014757360068e+01 8.329328744018752673e+01 1.234429231342508926e+00 -8.210620536084429943e+01 2.151365325374710835e+02 -2.539523914773250794e+02 6.097189403799045238e+01 -1.247125425401283820e+02 -3.596909409724897699e+01 4.179478984615455417e+00 1.314582661673910025e+02 -1.275310246001281911e+02 -1.419204049140575030e+01 8.029219777767372079e+01 1.800887071572359162e+02 7.406446402757320868e+01 -7.103545491424937097e+01 4.282931185553291442e+01 -2.942710731921596690e+01 -6.854438810656330361e+01 1.624778855537789468e+02 -7.329906326039235864e+01 -5.409704180382150440e+01 -1.444844501972974911e+02 5.893883406630465061e+00 -5.245925156027971781e+01 4.010313478767940865e+01 -9.205494073921920517e+01 -5.195656278765941494e+01 -1.052180208094570304e+02 -1.612726252109993652e+02 2.023071128085388182e+01 4.700942450220697566e+01 -1.277433298359282077e+02 1.335091763765482753e+01 -8.231705843756994057e+01 5.096125607275961045e+01 1.728340611473299191e+02 -1.496719801692428575e+02 -4.496263577258669386e+01 7.437112276141220057e+00 3.027597879832324423e+00 4.396486011715611397e+01 8.714704323870934388e+01 9.980083051662170801e-01 -9.092910588943416528e+00 -7.268917162088405348e+01 8.123013535710815347e+01 -3.405719211902504640e+01 2.726856479953367085e+01 1.079213807057076195e+02 9.158589648730780652e+01 -4.434814149451411680e+01 6.003624996642641065e+01 1.530071411361843445e+02 1.205803152894735888e+02 -4.206738497837913648e+00 1.808109426819550833e+02 -1.157099913224511454e+02 4.394445202839548870e+00 -4.352030100258874512e+01 2.146684362418893670e+02 -2.202404199856160005e+01 2.969408719216610759e+00 -7.968122322524980916e+01 -7.389752050241549242e+00 -6.629000837877384811e+01 7.031186335866135551e+01 -9.810873599822544122e+01 7.109426841557683474e+01 -4.952572930255702488e+01 -5.166090874155553081e+01 -9.511265595987299548e+01 5.513237861546926410e+01 -5.682389621765897658e+01 -1.549829286586546573e+02 -8.249519426179561776e+01 -1.085818718638437446e+02 -1.631780639778331476e+02 1.411011898291984039e+02 -2.858988528422821673e+01 3.322622034358895604e+01 9.306059601478844456e+01 -1.080462634517125053e+02 5.914914352409410725e+01 -4.496623892528941013e+01 -7.187716882945017005e+01 -9.344075970791071484e+01 2.110348383575429239e+02 -5.889622373317254755e+01 -5.133403274801768390e+01 -4.904794821083546452e+01 8.345356178364441746e+01 -4.295986952080065890e+01 1.432420072319137887e+02 -5.170477206707519713e+01 5.713498984652806456e+01 4.713199816659662922e+00 -8.426909454983520220e+01 7.146125262269669065e+01 2.878715403382691989e+02 -9.546421828605420501e+01 4.931627323969919985e+01 -7.908463731490081727e+01 4.694416671606204972e+01 1.361539768080061776e+02 -5.328263583219121102e+01 1.511669274481542224e+01 -2.792499937165434432e+01 -1.057900677217696028e+02 -1.789714824440865470e+01 4.407723090068757621e+00 -8.129216199530457487e+00 -1.553690639319205857e+01 1.227806891612007405e+02 1.352770662391630765e+02 1.935408168573876821e+02 -3.158839173772072968e+02 3.968219031662058427e+01 -1.633280001449451646e+01 -6.475127037337934155e+01 1.872430112949293459e+02 7.919352997682827322e+01 -2.645387717498638658e+00 -1.204531667511205484e+02 -1.134771031204236458e+01 1.039500518514152958e+02 -1.396310722933090744e+02 -1.751866055431002849e+02 1.115091803006476923e+01 4.410034605127528096e+01 -6.337670481802846467e+01 4.367090794860200020e+01 -1.112745691028981838e+02 -1.572701786167010027e+02 2.196502925222503677e+01 5.049376167495070433e+01 4.974688692712674332e+00 -8.683051187258494963e+01 -9.730759698391651114e+01 -8.771457474631488083e+01 -9.102938285363174487e+01 1.310481937458155599e+01 5.913190181490924147e+01 1.211747139467851895e+02 8.265424367148250440e+01 9.311598817810187256e+01 1.117770982597603791e+02 -7.785303776501980622e+01 -8.590133683575763257e+01 7.341417297751428350e+01 7.121301767276533212e+01 6.168211851168439352e+01 -9.790996080317432515e+00 -9.487748194302852767e+01 5.623405371612349057e+01 -1.864171651901916391e+02 6.997276758563491228e+01 -4.646092237638433176e+01 -1.005670141237656026e+02 7.737594791723525134e+01 -1.784367258905954046e+01 -8.049245031867199884e+01 -5.998866660392878458e+01 -9.525962052364480570e+00 2.532643333671832693e+02 8.013597244685713861e+01 5.724828890812203497e+01 -1.085413056636191413e+02 1.548588722597723688e+02 1.069208723035101949e+00 -9.447571509385525701e+01 1.628149093069687297e+02 -1.611516317714335287e+02 1.649059540251720790e+01 -3.406437115848881092e+01 -2.323400078058412248e+02 -1.411165244234219074e+02 -9.226544447496152657e+01 -3.089975734721111422e+01 -1.261265171772713103e+02 6.099499565054055239e+01 6.870841510856908485e+01 -2.912884583486430401e+01 -1.054110185439869554e+02 1.196021494580974149e+02 1.250556931784143870e+02 4.888209865506907903e+01 1.843833737910672710e+01 2.764223104197005227e+02 4.621569312771103455e+01 -1.262807702722234211e+02 -4.763968731689954694e+01 -1.787093232883916869e+02 3.372478060476773010e+01 1.622982530130663008e+02 -1.571257825266058603e+02 1.394447757906899596e+02 -9.629579109945218818e+01 -1.998524787752004173e+01 -7.545221433777804521e-01 5.595091675352085758e+01 -1.230780684647980650e+01 -2.410765181929289369e+01 -2.008998898128115229e+01 -1.341065348062799103e+02 4.918707157176874034e+01 -3.217494665341274640e+01 -1.379180629812663561e+01 -1.134121036973513519e+01 2.393459807245461661e+02 1.844885518381251757e+02 2.464275019758105429e+02 1.396241095526631852e+02 -9.171385738792585585e+01 7.969286535580782527e+01 2.234680400266914191e+01 5.047577778011902438e+01 -4.214023432710334305e+01 2.706566573199716572e+02 -2.467098203646394339e+01 -1.448841564992116844e+02 -1.586168271230240912e+01 -4.855065295211461063e+01 -8.205303667654129640e+01 4.574775920157195230e+01 -1.241551981863991116e+01 1.928163967904823153e+02 9.800518670801525900e+01 4.334871372303645387e+01 1.039568212065937018e+02 1.000880442288556651e+02 -2.437308573173515924e+01 1.480414627483127390e+02 2.805127999661696947e+01 9.494123491411632187e+01 5.049642654251920248e+01 7.361624044461124505e+00 -1.227620521973144037e+02 -1.227889952269853922e+02 -9.542701895477253515e+01 -1.652121919507788306e+01 9.190349991631106263e+01 -3.253636172558836392e+01 1.048639974186560977e+02 4.643853415569627430e+01 -7.711588189430655405e+01 -3.179433021265279891e+01 -6.214380939794274639e+01 1.861900245559770539e+01 -4.915940872429948172e+01 -1.188124346035026662e+02 1.288963034563160477e+02 1.286539118039642915e+02 -8.369257256097564834e+01 5.819418880601467059e+00 -4.803313015898332594e+01 -3.461897652140874726e+01 -1.202800057848907755e+01 -3.308791221118528370e+01 4.709841362573521195e+01 -1.489646848308680092e+02 -5.599949484449961545e+01 -1.610483749416953856e+02 1.845874590989886883e+02 -2.148641491530270997e+01 6.250808830981956987e+01 1.266114336130216067e+01 1.530381554858203970e+02 4.734305181256848272e+01 3.789361864117301337e+01 1.635047944711579078e+02 -5.219163591036519279e+01 -1.033476490556895016e+02 2.873461429465147887e+01 -1.673444242835752220e+02 -5.653975901304936968e+01 1.082946744979703055e+02 -1.353231291872990596e+02 -3.850805810202760426e+01 9.666332588526447012e+01 -1.000709321500791873e+02 -9.478442338955795776e+01 -8.750799838920228524e+01 -6.760511591653873609e+01 2.635594511290656783e+02 2.097517169641034513e+02 1.090369720232113053e+02 -1.081557407582172772e+02 7.923299755837473413e+01 -6.992254927324579228e+01 -3.293678781765499508e+01 1.755182129533529434e+01 -3.399591483939563119e+01 -9.916108980074973545e+01 -2.825936779612955085e+00 1.567356890352518128e+01 1.149508261198394621e+02 -1.357762681749460114e+02 4.420318612488197374e+01 6.734468187007659878e+01 3.652333510994631638e+01 -9.568935145956164945e+01 -1.567816803445076630e+02 2.040316243260971305e+02 -1.881675798650091380e+01 2.659221734782423852e+01 1.651507444621071272e+02 2.814787789038461696e+01 2.928455529896112708e+01 -4.696835394931251528e+01 9.343864083061518500e+01 -1.438214036006609149e+02 -3.250101188411240116e+01 -6.467173279164951438e+00 -5.634334884844719937e+01 6.456391732420065033e+00 2.249574368467294505e+01 -3.772955023375988048e+01 1.440697288652532215e+01 2.252634176813629381e+02 -2.885731863400120289e+01 -2.945047669743621199e+01 -1.071337193823222265e+02 -1.754330770651912896e+00 -8.510974371266692629e+01 6.769557233336715107e+00 1.180686311694558128e+02 -5.482726346895335467e+01 6.379845694030342962e+00 -5.724570385091126212e+01 3.524107310591217068e+00 9.188786416191202022e+01 -1.220545798527587777e+02 -1.019586265210694904e+02 -1.080110407056292132e+02 7.523181625096175651e+01 9.118105340545062631e+01 -9.726765888322661624e+01 6.591278653002427745e+01 2.717260724653747417e+01 4.074718844087721692e+01 -1.871146893642875497e+01 9.618245302277206576e+01 8.399780824086042230e+01 -8.140849059429655199e+01 1.252324111551511976e+01 8.521739745596593707e+01 7.675043522826042874e+01 -2.091757729148711320e+01 2.632717606331848970e+01 -1.396216873831157557e+02 5.107052831854248609e+01 -3.449695032201139355e+01 -3.435429069352402820e+01 1.823715110185396497e+02 4.997204984072484990e+01 1.266056874654729683e+02 2.010481198730472556e+02 -1.450074045109376186e+02 1.569410988228855786e+02 -6.670186570618206190e+01 -1.422773853455533697e+02 8.668737937648630520e+01 -1.412049588638232080e+02 -3.021590530830614796e+01 5.942460460516639387e+01 8.542152086849746695e+00 -1.769585121823543830e+02 8.865144539616208874e+01 2.653304279762425466e+01 7.276397006034510184e+01 3.817116561573082834e+01 9.984242024261725135e+00 -7.067356967056116446e+01 1.218895453236668800e+02 5.736369600303734728e+01 -6.542055196085239288e+01 -1.065932534878810429e+02 4.104097328965345071e+01 2.698227431865224091e+01 8.672600111473202844e+01 1.934012606945518939e+02 -2.595727459880010812e+01 -1.159554861004699831e+02 -8.926428118035944692e+01 -5.403781332739263377e+01 -4.676991309089970628e+01 -1.545022500039123940e+02 -2.366822239117346882e+01 1.362989557065787096e+02 7.849632905197158550e+01 -1.288369998364282480e+02 -1.576775473111519261e+02 -7.172493227262307869e+01 -8.044542647571284988e+01 1.544337817677508724e+02 -1.794348797268110332e+02 9.106363072137267523e+01 -4.852040499301512710e+00 -4.527505965928361320e+01 1.402299737411213165e+01 9.601080322115520005e+01 5.224811007024414522e+01 1.454867751016673765e+02 -1.675003169099552167e+02 -8.523546902412608972e+01 2.663880117724043828e+01 4.415051939513268309e+01 2.170264014795448304e+02 1.530855197921092383e+02 6.894515951526364006e+01 7.589835171269247382e+01 -3.612494621208468715e+01 1.598435947983069525e+02 -1.887072477762166614e+02 -6.670188872815425896e+01 -5.651351027478476396e+01 -5.451693355497647531e+01 -1.087432323683883624e+02 -1.575846230729421116e+01 -7.226007130364297382e+01 7.494153932050861044e+01 -9.660749189952403171e+00 -6.119517753375800595e+01 -6.564160871359736404e+01 1.896546217418365359e+02 6.204436687525223704e+01 -1.439134848474181361e+01 2.198189353035351132e+02 -1.139776393743296268e+02 -3.719948016439865057e+01 7.045765235088005340e+01 -1.298384439052400752e-01 1.568844095919175174e+01 -1.315482543244258409e+02 1.853888328628075897e+02 -5.159375541321167447e+01 -2.839362193899302156e+01 -1.154327028221034226e+02 1.323970758454225347e+02 1.009139848613047121e+02 -8.156270728276599868e+01 -3.945932212510747661e+01 4.093164609974684254e+01 -1.592419270006625140e+02 -1.130423068903047695e-01 -7.855183151770943084e+01 8.120460292109839884e+00 -1.137062523769444624e+02 -1.666757563608243515e+02 -7.429021450134320048e+01 1.557311953587222604e+02 5.951313166778941621e+01 -9.416171111174490704e+01 9.374843931907642514e+01 3.601113765087025342e+01 9.273745862224716063e+01 -4.424351745781864764e+01 -8.836961582309059793e+01 1.796293050992964595e+02 4.378585078216130455e+01 3.041962088065017866e+01 -7.669439187737813768e+01 -4.442549966583486309e+01 1.007112474011986691e+01 -7.503811735881446232e+00 -1.814231794738366830e+02 -3.630884657137128357e+01 6.762916426207652876e+01 1.171778770808851959e+02 1.633758808396738971e+02 -1.390672332972459557e+01 9.402378822202764752e+01 1.654243111454534017e+02 6.654187210256471019e+01 1.550758431925034415e+02 1.684179183376990707e+01 1.376598869495228712e+02 -8.799667068903916345e+01 5.596400386441128205e+01 3.078196996768604166e+01 7.950924706723490942e+01 -1.112570549881892958e+02 2.073688432083963562e+02 -1.349451527230656041e+02 9.242437273910712747e+01 -1.125268483622533466e+02 4.827104217710193979e+01 1.443233639447980998e+01 9.493920466533893432e+01 -7.710910096754602705e+01 -7.899621954101300503e+01 -1.170508352288023346e+01 9.317474691219842953e+01 -3.093106513091010967e+01 -1.706518488640486453e+01 -2.052503937717379046e+01 4.953181826874235583e+00 1.025639779133305183e+02 -6.539189403882595286e+01 -2.845071926119990380e+00 -2.022212879074068894e+02 1.270517725073942188e+02 -1.300898919105248126e+02 -7.698709197082872890e+01 -2.454633710892291631e+01 -1.124191085220648034e+02 -5.539418421530745462e+01 -6.099558483899292582e+01 -2.046916862862355657e+01 1.419799949520247537e+02 5.631322767384355643e+01 1.046373881708608877e+02 -1.417661538488337953e+02 -1.443676956527845903e+02 -2.983755339538890325e+02 1.063698742409211064e+02 1.086579751213127025e+02 4.400464477374656980e+01 -4.414771875497016396e+01 -3.880872224167401896e+01 -1.912692876231597268e+02 1.522766621894159869e+02 -1.119195500401250172e+02 1.114296213172925150e+02 -1.659130278827478548e+02 -1.489738973256168642e+01 -5.769279642214757331e+01 -1.242329745009603243e+02 -4.802038128408356243e+01 -1.297273447567853921e+01 -9.652463722120052125e+01 -1.078718550330213048e+02 -1.286720037479130596e+01 7.420820159036104258e+01 -1.298914491595186576e+02 -1.634429340865720448e+01 -7.686956614436068946e+01 -1.369592545468396452e+02 7.010562140871640757e+00 9.925939106115615118e+01 1.724811512155060882e+02 -1.989292835505180790e+01 -4.801641773687340020e+01 -1.293799323708185227e+02 -1.704736013157456398e+02 1.081480824485365275e+02 -7.584789445530600460e+01 8.240906366814223816e+01 9.810228188801250582e+00 3.052916788033619966e+01 7.701552337470938880e+01 -8.832462677421553110e+01 8.618839245508657143e+01 1.202028108076317920e+02 1.641132114175267702e+02 -1.216383537721051624e+02 1.083893120781865633e+02 -4.979472908483050020e+01 -9.468892335870877730e+01 2.237443907125010014e+02 5.140615849398306381e+01 8.705130902674922311e+01 2.225843413157438633e+01 -6.583042783770029871e+01 -3.644134488989327281e+01 -2.194023070500276731e+02 1.101611242829901869e+02 8.503087337808231894e+01 -7.895906492073920901e+01 -7.633382470207128279e+01 1.514492648743912184e+02 1.054145809770044480e+02 5.330704307332075587e+01 7.937515580953005667e+01 -8.276013763486011143e+00 1.076465371223100931e+02 -1.079552409444271746e+02 1.944789421513442846e+02 -4.118290159386597082e+01 -1.272282695355233386e+02 -3.925370293404039757e+01 7.484134455644155537e+01 1.537048615933549343e+02 1.353524448408161085e+01 1.813172048865213810e+02 5.447534132714531552e+01 3.504812692525184303e+01 -1.161352782442929765e+02 4.677370834093706975e+01 -1.304750436275913614e+02 4.973067730869897218e+01 4.035921612602982123e+01 -1.286352858623105533e+02 -8.870307201032389344e+01 4.153517409809462180e+01 9.103744835860883455e+00 -2.426193699535405557e+01 4.363648923847058825e+01 -2.231973764108803948e+01 -6.582053635814261838e+01 -2.720674836299265209e+01 -2.345709403880031019e+01 -4.155886606025593011e+01 1.960352591295226432e+01 -8.393962839029593681e+01 1.241009166798860832e+02 -7.758275075128169362e+01 -4.533396761441029987e+00 6.827491101883298086e+01 4.086728284054696125e+00 1.661603768460395969e+01 1.663547133709322878e+01 -1.222183984180086185e+02 -4.619366294298207443e+00 6.787053981719691365e+01 -2.414476976517194373e+02 -8.848712876615013556e+01 -1.176219590683169685e+02 4.567247879443843317e+01 1.003882820384481391e+02 -9.569459816860656076e+01 -1.751415331312507533e+02 -1.930940523945088216e+02 2.084963571457085507e+01 -1.511996882912242199e+02 -6.582576735830204306e+00 1.538914510881755291e+02 -7.441503818138040849e+00 3.873157864405402506e+01 -1.030915460547308129e+02 8.312323405161831147e+01 -1.233842274424892054e+02 -1.600767291266852510e+01 -3.155257855414816248e+01 5.983760663099203470e+01 -9.265068816935823293e+00 1.098216526460444271e+02 -1.267575294694572108e+02 -5.200362853512871197e+01 8.976197497953582172e+01 6.865049142166182605e+01 -8.548260040955908323e+01 -5.641119826961161721e+01 -5.116177036712085169e+01 -2.999742781459723346e+02 2.005860413621067551e+02 7.891039224126959084e+01 -2.447985749370894837e+01 -3.072151481505632731e+01 4.301183977829657579e+01 -8.719604289167504874e+01 1.030853890011837848e+02 6.254400396456463085e+01 8.495406959266107094e+01 -8.701968477735256613e+01 -2.754420879699822322e+01 3.452824320473004605e+01 1.797955860182546672e+01 -4.425052308045324878e+01 1.632259553989527774e+02 -1.789140271055342879e+01 3.655736366580769214e+01 -2.374966535294889525e+02 -8.755344837745633413e+01 -7.563071644024553564e+01 2.377649335217269666e+01 1.128256905703267279e+02 -2.392900039986637637e+02 -1.932197738193225689e+02 2.290390648736704122e+02 -1.092341400602202306e+01 9.927479173791904543e+01 6.485285566067923924e+01 -5.722420780503549764e+01 -1.353355237815250973e+02 -9.830814145958692052e+01 -5.193586378027348616e+01 -3.869741623208457781e+01 -4.044419806512769355e+01 1.673763250380065770e+01 3.832013754311096676e+01 1.722806020223907240e+02 1.272211899341289296e+02 7.112319018149442229e+00 -4.511922562201438502e+00 -1.640762549406885853e+02 1.235943139294694930e+02 1.645996910957011323e+02 -1.067892910857754885e+02 7.617207806638427314e+01 1.884555375617934070e+00 5.666667283017786616e+01 1.296223757383969541e+02 7.328215535207553444e+01 -1.384264431109925226e+02 1.670466100206886040e+01 -3.035482614301460913e+01 1.150297627938600264e+01 -2.398736423420447395e+01 4.687883282411926444e+01 -2.691389076726212011e+02 1.873047850257741800e+02 7.597365712646979574e+00 1.648288945174711841e+02 -1.095080306174897622e+01 1.098374307042771250e+02 7.409260212257346723e+01 -4.348465080209230393e+01 3.089296903997131238e+01 -7.528740470233259430e+01 -9.204427766460445071e+01 -7.462807090152277567e+01 -3.316744466451843465e+01 4.679093540525596495e+01 1.140957498895404285e+02 2.953669735677587482e+01 6.425996764580541765e+01 -1.085589031620642544e+02 -1.420638069540009099e+02 -1.397061648509494702e+01 4.809963227477199865e+01 -4.722010243213010483e+01 9.792505080528047756e+01 5.751225834236695533e+01 -2.866969577548377046e+01 3.105249640553831725e+01 6.359297530509454077e+01 -7.477797981499044511e+01 -1.386380009244864766e+02 1.473443913746406793e+02 8.107221664907966030e+00 5.201153418461390032e+01 -1.548376184942256373e+02 -5.540109429708186184e+01 -5.027908794450880459e-01 -6.813564268230666698e+01 4.443545206494531108e+00 5.840450970854602986e+01 1.935271073428034754e+02 4.061532827383606303e+01 -1.138940193969622072e+01 7.493658642882380150e+01 -4.725631136162264312e+01 -1.132068821618812109e+02 -1.435954003608937910e+02 9.749853582409480524e+00 2.609945332734599788e+01 2.470100554579550334e+01 -5.912325640401528659e+01 1.256392499805918419e+02 -8.407268333611399669e+01 1.334661178928077163e+02 9.081217595670685228e+01 -6.766795459145720315e+01 -8.805748193798611112e+01 8.759138593110894533e+01 2.135806592401344872e+01 -5.460131280802434617e+01 -5.606047148653182433e+01 1.422247846060951417e+02 5.963356071782752821e+01 8.314396802205068582e+01 2.722671147039125117e+01 -4.385644179829809985e+01 1.119815929726334360e+02 -5.683844280209223143e+01 5.325290624077987367e-01 7.981755227825252064e+01 1.037695112197017124e+02 2.662169053123309368e+02 -1.825327967935629090e+02 1.678134210284794392e+02 -7.052605084889961518e+01 -1.587026258143615465e+01 -2.608003368938500444e+01 -2.163107269375307951e+01 -5.761611438771205940e+01 9.693797964123054101e+01 1.921860685382760607e+02 -1.240747970665465090e+02 3.230592065762279930e+01 -1.325825535702666684e+02 7.334871869919044229e+01 -4.653996549909884806e+01 -8.464191853620388883e+01 -5.633197274644926722e+01 4.305789748052482224e+01 2.031079443807146845e+01 -8.564790851808939465e+01 -1.477272602315713073e+02 2.176569468273543961e+01 1.651389213240091465e+02 1.496990136632846813e+01 1.912910759749153442e+02 7.835280786565094857e+00 1.411698882716065668e+02 -3.630396624343900669e+01 9.514608328481803312e+01 -7.498687813274990788e+01 -1.185302635568853731e+02 5.190714188338663604e+01 -6.095093966682480868e+01 -8.247119867902785018e+01 7.664704430464672669e+01 6.746823502505696624e+00 -9.916037091504885836e+01 -1.582760732909415253e+02 1.555360138554157743e+02 -9.381721814017180350e+01 -2.440216319672945833e+00 1.263707047685314535e+02 6.112075926973945883e+01 -1.033857090694691578e+02 1.115805146290796301e+01 2.970978093845313310e+02 5.620967497601630924e+01 -1.662636933780651702e+02 -5.028321563689419804e+01 -6.490567823168213124e+01 1.017298555961922979e+01 1.134447823112666214e+02 -1.091276816567739019e+02 2.272676946672471132e+01 1.377258454258996210e+02 1.982348948844486713e+01 -2.229771324668038517e+02 5.108310475606431567e+01 7.968143335395622273e+01 -1.431596351801800893e+01 3.464901801896616007e+01 1.132955801140645702e-01 2.370527791316353827e+01 2.928816029595802917e+01 1.222744042697662081e+02 1.034703924671027693e+02 1.634612727864273651e+01 1.573759248060024447e+02 -6.760662583877005716e+01 2.604583193169715969e+02 6.865639246970395959e+01 1.495980089073391639e+02 -2.321686153270302810e+01 9.510557736823894004e+01 -5.187787091438787002e+01 -1.546055742250564151e+02 2.769274425216860180e+01 1.005115472596685180e+02 -9.259284244360098626e+01 -1.106441728087728364e+02 -7.029165073260047336e+01 3.863429800005651771e+01 -1.207308230556466526e+02 7.898196648042619472e+01 2.969245239819229099e+01 -1.031379937357133372e+02 2.007276805348753328e+02 -1.243238857704740141e+01 -1.074871006489232457e+02 -1.410816974862202144e+01 -2.159263162411989256e+01 -1.481986563269843771e+02 -4.232434504872621517e+01 6.498178347530370047e+01 1.392283152200190273e+02 3.064152556620373957e+01 2.830856896577240533e+01 4.733492982125329718e+01 -3.782556181775327531e+01 -1.538350295837336716e+02 1.671668553004247926e+01 3.279216673160567552e+01 1.406331377982472191e+02 -1.054885238517824320e+01 -8.048860275422161692e+01 7.738256766429356048e+01 1.074033454057228942e+00 3.385366935456402615e+01 1.472772238580873250e+02 -1.877142004118259706e+02 -9.813102282504056006e+01 1.318296498538843196e+02 -2.215847719692499140e+02 -1.888920525881484025e+02 9.341651233086672335e+01 1.581648905616493721e+02 6.506308742299124503e+01 -4.544469118991153245e+00 1.600366574960080754e+02 -2.253855697212804046e+02 1.100582388749262464e+02 4.353196888238446860e+01 1.305228728550283392e+02 -1.936990242039430825e+02 1.095236776967830679e+02 -2.909604551275302242e+01 -1.373284415452196754e+02 -5.474690421605152402e+00 -9.492523311109056294e+01 -1.683135619262732519e+01 -4.346736721505665813e+00 -1.265243651643323375e+02 -1.266565452650583978e+02 -6.428030801556447216e+01 -1.324373180790077242e+02 2.064566545717409838e+02 -1.653059816851030064e+02 -5.151377495106311244e+01 1.772025852380030528e+02 3.483779085559842770e+01 -3.039845173219051162e+02 -1.304775599802915735e+02 3.650535798298714951e+01 5.610955757468046556e+01 8.888230497068317248e+00 -1.588494148865133297e+02 3.665531961207507550e+01 7.636047783771967801e+00 -7.633685780682318978e+01 2.081692113370522179e+02 2.081049819927822000e+02 4.432726957568949189e+00 -2.141486201266475007e+02 1.294114283051061705e+02 3.162406749417945306e+01 3.804874332910131773e+00 7.874252550385895688e+01 -2.130566898504950188e+02 -1.417891595380254444e+02 1.448846150944136468e+02 1.125950840683877061e+02 5.439084395951604733e+01 1.471459412918799217e+02 -1.830812007510546948e+02 -2.095812841380171321e+01 -1.339882720148075919e+02 4.469952668874128676e+01 -1.066616154690341887e+02 8.937474097408512819e+01 -3.475341636686088975e+01 1.271406842516071123e+01 1.822073847028846387e+02 2.921651379285512817e+01 -2.706830789300093443e+02 -1.297391175121313438e+02 -8.561631735577047664e+01 1.623692294138907073e+02 1.286832045871140728e+01 -5.520380183866798518e+01 3.125573620727210056e+01 6.423582820008837757e+01 -4.068197877419576969e+01 1.104183182567434045e+02 -1.034446357652553843e+02 5.054012768286460755e+01 1.149414426449122715e+02 -3.633530811148340689e+01 -1.007684206088791257e+02 -1.164340409578177429e+02 1.229855444046625479e+02 -5.097669168941597917e+01 2.018523914368339263e+02 5.874669010083197662e+01 1.139596599205315499e+02 1.893018200050052258e+02 8.797370185210608540e+00 -1.275959524942267933e+02 -1.702722686434559307e+02 -1.172929127324321144e+02 4.358613113329120381e+01
-1.369086316815926097e+01 -4.802863787809838136e+00 1.039112122330898700e+02 -2.297174654124688971e+02 1.558997790354521555e+02 6.375100384833910283e+01 1.526028038617900506e+02 -1.295462626223703921e+02 -2.807330855879234477e+00 -2.416462979369393693e+01 -2.201501013099172610e+02 3.286503715158088568e+01 -1.838918420617294203e+01 1.226598096657144765e+02 -1.254034738936064031e+02 6.189515158221740876e+01 1.257154272038146843e+02 -4.607360793534238752e+01 -4.987468448873607940e+01 -2.718842579848526952e+01 6.186794949111282449e+01 6.334944718815609832e+01 3.249781560000680258e+01 -2.332652047450293367e+02 -5.183360532729044223e+01 9.172914215725536735e+01 9.925093282756613178e+00 -1.036096228963569921e+01 -6.675059443676838100e+01 -1.547113364430744120e+01 7.356244090040527794e+01 -1.458537379374057821e+02 -6.205595886725927812e+01 9.040972668759298614e+00 2.080838613037620632e+02 2.126663334755356516e+02 -3.211337062805274201e+01 5.605736233012753900e+01 -2.893462947924614337e-01 -1.401019981518539339e+02 9.628705492482067996e+01 1.075855069767475243e+02 1.088560887502314785e+02 1.174220960744712094e+01 6.209964715453311612e+01 4.827729523978037207e+01 3.901156244987424060e+01 2.938564051597889204e+01 1.106303836132724285e+02 9.000729062556267479e+01 6.582469900213811798e+01 1.634539835532988263e+02 2.483178498970547139e+02 1.961464799438247724e+02 -5.929838490817503782e+01 4.941260949311940465e+01 -6.450968577266395698e+01 5.661232776239562980e+01 -1.926860738227748300e+02 5.667305973569356325e+01 -2.054172221825264160e+02 -1.692110277531588736e+02 1.297379034293960132e+01 -9.245660223625979057e+00 1.700686803139637107e+02 -2.085229080960356782e+02 7.552195787345522149e+01 2.304726815302200578e+02 -7.307429437389598270e+00 -1.952381460319172959e+02 3.573689527510907027e+01 1.978543938505742119e+02 -6.128127859087624074e+01 -2.672457095657769628e+02 -1.028825253072013197e+02 8.813596685797648433e+00 -2.308205466188629202e+02 3.207628785845496111e+01 -1.800503196284078058e+02 -1.862403767759905691e+02 -5.725098628368424869e+01 1.530593420708337931e+02 6.980079185680403953e+01 1.063382171798793152e+01 -8.892425069793473824e+01 -4.277651459724043548e+01 6.402164229857524447e+01 -2.329818120328210398e+02 5.433482704279252573e+01 -7.538016951574866198e+01 -7.840748827744850757e+01 -1.775632905368603645e+02 6.541343897236934879e+01 9.321036945373138849e+01 -1.630792626056250185e+02 1.735329911674651271e+02 -4.010429883184629318e+01 -1.699263310820229123e+01 8.792272699206309028e+01 1.570308830305513368e+02 2.174882276477267240e+01 1.521664888184159850e+02 -1.852765449851056445e+01 -9.115548022484483681e+01 -1.972563091687261760e+01 1.016048524173226753e+02 4.646008800123388482e+01 1.010639489932019046e+02 9.754241582898566776e+01 -8.577220292212594188e+01 -1.755462818097742854e+02 1.271473031241627041e+02 5.606748717352203215e+01 1.665024686837776713e+01 3.160339377567919428e+01 -7.018914530069825730e+01 9.925021758493133461e+01 9.281707994660499139e+01 -1.409199286261764783e+01 -7.361487788662523712e+01 3.184700967609753164e+01 6.476283260289397603e+00 -6.364248377533803591e+01 1.752324333360535888e+02 -3.419674395961487789e+01 1.257327493431381953e+02 -7.251241782202208697e+01 3.969128551811476058e+01 -3.738086517646758722e+01 9.250308477740185253e+01 2.430291439711522017e+01 1.195427857097282640e+02 -1.199644151975858080e+02 7.690951630124573057e+01 1.277860648379854496e+02 -4.628923842345466255e+01 7.805369160087747282e+00 -1.303432033708184434e+01 1.208228480074350699e+02 3.595284447980809261e+00 1.746507289187674132e+02 -1.463957647941333278e+02 1.208354302058187528e+02 -9.463132306789441373e+01 9.912568629816550470e+01 -1.419382672901214164e+02 3.058702080730412121e+01 2.561659700944643703e+01 1.911033912468484086e+00 3.762069792487773867e+01 4.749715753628493076e+01 -1.291525309314239145e+01 1.112935127803713975e+01 1.120132097037848382e+02 1.319189245745657217e+02 -8.980832733373769372e+01 -5.624271040928223186e+01 4.913505012483474133e+01 1.616026167992424600e+00 -1.419716721549748684e+02 -5.708371497182525900e+01 -3.681022465331506055e+01 5.075643449495149184e+01 -6.803259132925548158e+01 2.380316418449353222e+01 1.663670917468487858e+02 -8.247668475257975729e+01 8.380192664936778613e+01 8.730141997811159627e+01 1.161732481518888171e+01 1.281340625765535890e+02 6.529629278293280947e+01 1.745153721802728057e+02 -3.583522803212995456e+01 1.168512169556689457e+02 5.769127944262218932e+01 -1.671884051142967209e+01 2.121342392270512676e+02 -1.443023568181964720e+02 5.080294841472365874e+01 -1.950216485088083118e+02 -8.755472046549517984e+01 4.265019326731133020e+01 -7.510280243126923949e+01 -1.621665704721633006e+02 2.073894731569732812e+02 -8.927065875849100962e+01 -4.942383987237582232e+01 -4.817770373324106714e+01 1.267307175070737770e+02 2.027873095858326167e+02 6.742436778697776845e+01 1.522770886738908587e+02 2.284880100768380373e+02 -1.715724605033445149e+00 1.696756379810648241e+02 7.382890478200994266e+01 1.982791950545501436e+02 -1.309616876826843566e+02 -1.239146226492054659e+01 6.582780891650442889e+00 1.978479922254774124e+02 -9.470775022039238422e+01 -6.292909288626049857e+01 -5.516309645880334500e+01 -1.394580288277112459e+02 4.849637652017288580e+00 -1.051380783597838473e+02 1.604415645601374649e+02 2.456996292744288013e+01 1.252700925859693903e+01 7.531402649297503160e+01 -5.164208472772592984e+00 1.217602385795325262e+02 -1.654098027162141591e+02 4.726836769498114421e+01 -1.779950131103509818e+02 1.222997742063026436e+02 9.994532140713425861e+01 -7.013824125158333800e+01 4.867345231247817594e+01 2.480179029193239444e+02 -3.170141372928360113e+01 4.339800579188511875e+01 -3.402122411879697950e+01 6.033447070905148735e+01 6.697882982744772562e+01 -6.519743869156016558e+00 1.061832380462743401e+02 1.057754845261684693e+02 -2.019166377977110187e+02 -1.595972670885366540e+02 -1.247471254337824575e+02 -9.867497696988456468e+00 -1.560204348472780680e+02 1.203221148274738539e+02 1.149429123956424519e+02 6.138048740311231199e+01 1.161788072280366180e+01 1.642120205512969449e+02 8.742943077752320846e+01 7.026326084944533079e+01 -1.058688630280304324e+02 1.585489207562466447e+02 -3.699377026629677268e+00 1.137960845554685108e+02 9.172348342397333099e+00 3.825765165111958055e+01 -7.883751938678764759e+01 -9.449154165859621912e+01 7.450761642101157634e+01 -3.963210958178876364e+00 1.522768102199744646e+02 -1.310401128931215453e+01 -2.985115244044778127e+00 4.771725776519301832e+01 2.357685142698534619e+01 1.471396436083735466e+02 1.517514001539827895e+01 3.727199350865745942e+01 -1.609533337834290023e+02 6.851911916421175874e+01 1.390246759392057072e+02 -1.844569503284677126e+01 -2.370722254534615274e+02 8.774583460252389955e+01 1.413860891962218602e+02 2.103946717291284685e+01 1.960456649286693960e+02 -4.222735949764056862e+00 4.449789203938182425e+01 -4.514009503942766344e+01 -1.436861635532197852e+02 5.795604151272103621e+01 -4.913399821214069618e+01 -8.395516857713130321e+01 4.263756870911768715e+01 -1.912099254193900322e+02 7.424837262528596682e+01 1.699406378970718947e+02 -1.046727903979262493e+02 1.787600637735658324e+02 -1.009926806717073617e+02 -6.203377415600574984e+00 -1.084601840512278947e+01 7.910348186626146116e+01 -4.806956306704879012e+01 -1.113622855048643743e+02 -9.136950862996688727e+01 1.504517569546729874e+02 6.098815150559773457e+01 -1.358532200336039466e+02 4.600043613480607085e+00 4.482897055107330431e+01 8.516371766646773267e+01 -4.159654195750017180e+01 6.188410476939253613e+01 -7.110531431017682280e+01 -1.674159011176504919e+02 -3.570962165668697708e+01 1.453210163182576764e+02 -1.167985692912151734e+02 -6.641977474424346717e+00 -1.679254549092564446e+02 -4.868457239969981920e+00 -1.502816059637588069e+02 3.385103896290020487e+01 6.189739965357001950e+01 -5.184264272005391661e+01 -8.487696708698801729e+01 5.789608000717962888e+00 7.658754032267054868e+01 -6.977141193176967704e+01 1.386907219190613034e+02 1.085515200461008476e+02 -1.313676761530365695e+02 -1.085024883223650676e+02 1.389872908922436068e+02 7.342227663934644966e+01 1.544791469025115589e+02 1.032093995014318040e+02 8.350101242701020965e+01 -6.195036379770314738e+01 -8.409556557586080316e+01 -7.924165270110867709e+01 2.101785232300325958e+02 3.132257172160321446e+01 -2.556565332538342616e+01 -7.044139338130092654e+01 -5.143460164232550369e+01 -1.347068768097641680e+02 -1.696790506873639970e+01 -1.794708221049264694e+02 1.279249634136889142e+02 4.710974505713021898e+01 -1.179145939181216818e+02 -4.948094629585411752e+01 1.225076849860456605e+02 -9.924931493216638501e+01 1.051681571180960759e+02 -1.211409859049947926e+02 -1.202475972221192535e+01 -9.767897755185980202e+01 9.172449212692784215e+01 -4.345510843549120494e+01 1.061198281549415867e+01 2.997061721075627716e+01 -1.295322096493562753e+02 1.278775249218069554e+01 4.938945735751735810e+01 -2.295380518364441258e+01 -7.029025894437648958e+01 2.069774940956053513e+02 8.836710286295932804e+01 4.820933266842462217e+01 -3.212741592220019271e+01 8.204781981904764621e+01 1.713076624892685516e+02 -9.437275136909524065e+01 2.140670376808135984e+02 -1.360373185366995017e+02 -1.880155585724802165e+02 1.552581812990912056e+02 -2.390967402697057480e+02 -1.051388594630047635e+00 -2.503075056460019709e+02 -1.563211867749475061e+02 7.332086935054623211e+01 -1.488744391044498059e+02 5.968001293967866161e+01 1.122573742505852579e+02 -1.639421246051513776e+02 -3.083430298052140017e+01 7.704511579656688980e+01 1.368854771045128302e+02 -1.901400677364724174e+02 8.935126314596595876e+01 -1.000893298338034469e+02 -1.011194739769090845e+01 -1.421829017112192517e+01 -8.134412267845326028e+01 -9.231740635039761855e+01 1.853386813040218044e+02 -2.212314256327382722e+01 1.346352241642779113e+00 1.330784452320480682e+02 -8.855415373130813350e+01 -3.518605711186678775e+01 -1.100269277056494559e+02 -4.995356344754668498e+01 5.324373357312753186e+00 6.076666861676830678e+01 -1.382493365809608576e+02 2.428546449393008970e+02 -5.523963308546316853e+01 1.257662242895410145e+02 -5.005988465931899611e+01 1.228711135916087187e+02 1.425982025223448204e+02 4.929061200352592209e+01 1.253130429405520658e+02 -4.435427062038835544e+01 1.436397385434679563e+02 -1.605267347211013487e+02 -6.711681881384004100e+01 -6.464404564829573019e+01 2.617425577593551722e+01 -1.666426251163479435e+02 7.450217283435492277e+01 -3.165694317301873895e+01 -8.485633442038714236e+01 9.203355038249567599e+01 -1.551504759877917934e+02 -9.364522666409476415e+01 -5.397589003783811279e+01 3.398123377941433887e+01 1.333293030984870029e+02 1.200503238144234501e+02 7.102312848718231919e+01 -1.690352432052323550e+00 1.795165407040198318e+02 1.258176141153520575e+02 -9.693029788328510676e+01 -8.029437901837859215e+01 5.709602554229946492e+01 1.028627104626237454e+01 1.006024218865563284e+02 1.710657477049416286e+02 7.245549066207097155e+01 2.499367687064341581e+01 -1.048861495168778220e+02 1.764052620271673106e+02 -1.167095012541744410e+02 -1.696592278677353818e+02 6.744109055346453374e+01 1.143933557373510155e+02 2.012496504484464666e+01 -1.424680069143837500e+02 3.053288400864786567e+01 4.354930007024562855e+01 -2.872731726915280781e-01 1.342829698448416877e+02 9.996721976253304831e+01 1.753864537602428797e+01 8.034897837439177692e+01 -1.098146154734038760e+02 -6.424019277071012723e+00 1.008061482395525843e+02 3.042527989698115576e+01 -6.668271382748085330e+01 2.029808973929025910e+02 2.368850404214188927e+02 -1.287105555231445919e+02 -2.827175148306059427e+01 -2.154829965261509415e+02 -7.397364045271376654e+01 1.605432541345618063e+02 3.525925789753037609e+00 -7.273288371232209215e+01 1.678618777013289787e+02 -6.407801855426248494e+01 -1.645202897703779001e+02 1.398781916985469138e+02 -6.888986580305046914e+01 3.524467372977595403e+01 8.847856037415158426e+01 1.410036427573186657e+01 -2.439491881652142240e+02 4.327623558502257595e+01 -6.242343571042352046e+00 9.221072379403790364e+01 -2.412158241574886475e+01 1.036343374798383365e+02 1.734586167838843807e+01 -8.684636046228962414e+01 -2.095487143610846204e+01 -1.793780876158529338e+02 1.177455563380051586e+02 2.586008349682103358e+01 -4.263293252829250690e+01 -5.305700335321309069e+01 -6.432592519627965544e+01 4.205427053041413643e+01 1.644959695648888953e+02 1.358625180045577281e+02 4.411764771194226853e+01 -2.025508245437884796e+02 -3.971135957731578969e+01 4.483980462171005854e+01 1.201503721790069505e+02 8.933673672115298814e+01 1.583914411942467737e+01 -1.904809392838095050e+02 1.348919813247503328e+02 -2.290934679725139915e+02 -2.107064899207875897e+02 -1.910346069714412121e+00 -7.554053226227765094e+01 -2.461583003901585442e+01 8.921710430547018689e+01 5.725775711825721004e+01 -1.138831805018184156e+02 -1.550312991371490625e+02 1.495568584332593431e+01 1.266419869417454436e+02 2.123208186145705056e+01 -5.806277908205181859e+01 -5.280764952127528034e+01 -1.211908173965037072e+01 1.652188209903983704e+02 2.292041013878014866e+01 -1.809305998553787163e+02 1.336341079315657225e+02 -6.957722116801112122e+01 -4.355086447384906911e+00 1.604937378175476965e+02 -5.454443950562521337e+01 -2.039604231818202962e+01 -1.144867546891445897e+02 -6.271979274561702233e+00 -2.487888668415402194e+01 1.373128320781164291e+02 1.251987866025082354e+02 7.043655885131700245e+01 6.814315433728563676e+01 -1.951018842159313849e+01 1.409886878838128155e+02 -1.174898461616056267e+02 -4.453051067332085999e+00 -9.490321919011157092e+01 1.638397240458784268e+02 7.604261005890265324e+01 5.391165483166191308e+01 8.655872754543054270e+00 -5.550550941135698935e+01 3.583986629247974065e+01 7.063513357110599244e+00 3.696730470589706830e+00 2.515534932280986524e+01 6.230192036060130789e+01 1.774332689147078099e+02 -4.042967471318759465e+01 -5.420013970675523751e+01 6.959125585184652607e+01 1.205589897466961560e+02 -1.334124850876252744e+01 9.576117533571698459e+01 1.083413045389886236e+02 2.195720711599831532e+02 -9.019541479612050239e+01 -1.278723943952609403e+02 -2.982900971323342176e+01 6.471897606854631135e+01 -1.057015436155626809e+01 1.119219271954448800e+02 3.877402439723969252e+01 -1.694309514385931550e+02 4.694945688723510813e+01 -9.319110018479115354e+01 -1.409392484669770624e+02 1.400869378829457901e+02 -7.914587704384265976e+01 6.155373719560306256e+01 1.158452678585578326e+02 -1.031623354368515635e+02 2.440974132131435326e+01 -7.512220047203095419e+01 4.188307515745947995e+01 -1.192114882103863494e+02 6.404777225903416138e+01 5.686954753103390203e+01 4.132519734269735068e+00 8.751614467434929168e+01 -1.591725196762631072e+02 7.947558824727964577e+01 -3.036647585189671616e+01 -1.744947043477753823e+02 9.754532247880341345e+01 2.529625641469813857e+01 -2.026626153015066336e+02 2.429357576203613007e+02 -5.404236641724757817e-01 1.086419783345899077e+02 -1.245731804698881433e+02 -2.005939900226250643e+02 -9.638157455835207088e+01 2.531695062008032071e+00 1.476365006715568313e+02 4.183879002201035036e+00 -9.869988464984675147e+01 5.212013302192268327e+01 1.415558683828745927e+02 6.714796593388369672e+01 -5.347467433809245563e+01 -6.107685199119337227e+01 8.729295073295004670e+01 3.179887592342637959e+01 -2.019358431591649605e+02 -2.141920534212148652e+01 1.746119366269169291e+02 1.021252296225888188e+02 -5.918561800653236560e+01 -1.154826426406556976e+02 -4.409622033076858827e+01 -4.966104562591767291e+01 -1.182210607454243672e+02 -1.914096483367772095e+01 -4.717103699613819145e+01 -1.173475830851934489e+02 -1.361727427509413246e+02 -2.778100080820151874e+01 -1.297744248217824463e+02 -1.381231594388153212e+02 -3.959164535784843508e+01 -5.720011415824208711e+01 -1.146137660646075034e+02 1.992509328809403542e+02 1.128148376544302600e+01 -3.012364095901435235e+01 -1.821942272616253433e+01 8.420264603130331693e+01 1.672671888897454195e+01 2.681203638478286067e+01 -2.283845684825388034e+01 -4.942661655514068286e+01 2.240449247791149645e+01 -1.555742439651475308e+02 -1.704224528887206418e+02 -9.685941413610295569e+01 -2.042819568149329825e+02 -9.595328616900111740e+01 9.189571745637387323e+01 6.569611421401452844e+01 -2.791372427991560201e+01 6.505315445794222740e+01 -1.675451136948704232e+02 -4.362661805467863729e+01 -1.242845603915550612e+02 -7.146230809559796171e+01 2.257289680351271386e+02 -2.197444854200646489e+02 2.197299380802105588e+02 2.679504127709533634e+01 -6.048687753297281233e+01 9.880145370832509855e+01 1.328305285406604810e+02 -5.555149762017330062e+01 -2.180337113808809875e+02 -1.596066036525310210e+02 1.094526967170826879e+02 8.966772120389957479e+01 -1.451612588266634987e+02 3.423865706380217944e+01 -4.242995839153147841e+01 -8.285092927763386683e+01 -3.042279916056957134e+01 -5.871041106249477082e+01 -9.255691772401397088e+01 -3.640402822812065153e+01 4.740597969950073320e+00 -3.506695512429287476e+01 -4.541063834595406856e-01 -1.541999050105194868e+01 9.850753357108905561e+01 1.359965928097880692e+02 1.410839541357371729e+01 1.795571319270911914e+01 -6.751132430991398792e+01 -2.097810310117344272e+02 3.624599565893494457e+01 -9.822271921232200498e+01 2.763268485313204081e+01 -8.824009708136381747e+00 1.042416739921808500e+00 7.724899424128260250e+01 1.304486054467421070e+02 -7.539580850162703030e+01 4.067518756150453640e+01 -2.063485553627934905e+02 1.032935964450852495e+01 7.565273134417963341e+00 -1.311608694163289215e+02 -3.612248692574957687e+01 -4.744761389450840738e+01 5.118493959995924492e+00 -1.094666869092360741e+02 2.896791864587307330e+01 -1.045408774312471394e+02 6.014113007231683383e+01 7.259355663065990427e+01 3.945596742371022003e+01 -3.106521469795235291e+01 1.149755893842743717e+02 6.532825173968612376e+01 8.559991330732736969e+01 -7.167127960558939037e+01 2.177177424925157823e+01 1.368660962049534078e+02 -6.253637847436935715e+01 -7.389969828869954682e+00 3.423508736579967149e+01 -1.373345094045680241e+02 1.046622381444287981e+02 9.581224356199486181e+01 -1.081198596106877687e+02 -8.808374325553161555e+01 -5.935529094317561771e+01 -4.863474262477251386e+01 -1.714304474996140186e+02 -1.453593937407735552e+02 -1.416061292582153328e+02 1.129500441842712632e+02 6.385024218191326639e+01 1.704670697110988158e+02 7.677972421921178459e+00 -9.168995779356882281e+01 1.998401374866456592e+01 1.478563110557471560e+01 -6.778976102793538416e+01 7.910085352566362360e+01 1.261108611576640612e+02 1.071007591216958410e+01 1.532238313208327725e+02 2.406548039168726305e+01 1.185064695465459295e+02 1.615103709912811070e+01 -2.218395403204597471e+02 2.331408137516801276e+02 -5.224432795641688898e+01 -1.592476063030165960e+02 -7.172003866371503022e+01 -4.588398927622953494e+01 4.387758445724782064e+01 2.716046714564984299e+01 4.852235859893897896e+01 -7.869445619959594751e+01 1.298324908859249263e+02 -9.149710718497831863e+01 -7.431891296968280436e+00 1.511047844858757401e+02 1.162597882668120235e+02 6.142752377077577108e+01 -1.875524661186186108e+02 2.694111737856815125e+01 1.487254098592123910e+02 2.482378571661465827e+01 1.032724082616098542e+02 1.126050472478266613e+02 -2.234683446215372840e+02 8.131780741819154912e+01 -6.103902555229351634e+01 -2.375769650545517209e+02 9.343472604595454811e+01 2.594560256822421707e+01 -1.281995083061060825e+02 -6.144675724111740323e+01 1.454821519459713386e+02 1.543219683992377043e+02 -7.917446297843808622e+01 -1.333720258092490099e+02 -8.700820543685668440e+01 -1.727775995759841692e+02 2.034336861031207278e+01 3.939334887224738679e+01 -1.754628376491405106e+01 -1.283313857908037292e+01 -9.273585652650169209e+01 -9.158533572656320132e+01 -2.548633304355869456e+01 1.381693010047489452e+02 1.405101850661464482e+02 8.358960603492432995e+01 9.989803363325002294e+01 -8.088939307136867285e+01 -1.854346244643518276e+02 -1.362396576893431899e+01 -2.381902557423504518e+01 -7.276999768884421371e+01 1.550027484352335616e+00 7.493205723399273666e+01 -5.427302745625333813e+01 2.519773911646245423e+01 8.116054908410320934e+01 7.184900342673684293e+01 1.132739070256481000e+02 -1.529531132878465201e+02 4.064567625066189294e+01 8.540335241642735298e+01 9.714005240364990357e+01 6.057951932357403990e+01 -1.058369793220845736e+02 1.403909577911523456e+02 1.306357409184346920e+02 9.822659955215799243e+01 1.040735255298443462e+02 -8.635736121425858869e+01 -1.526021753631009403e+01 -1.322803175197765135e+01 7.901920193906798318e+01 6.659286897626463997e+01 5.732303934807197265e+01 1.000592642614479360e+02 1.193687507005839166e+02 1.269127669652590527e+02 -6.660515607876565980e+01 8.260234354161732995e+01 6.690375057590117081e+01 -1.206083833225176107e+02 1.349048991445863805e+02 -1.030723833768619535e+01 -2.861135226986590752e+01 2.042803707668967945e+02 9.068019852053997454e+01 1.272334701466013058e+02 -1.480080845821295554e+02 -1.618281762322745863e+02 -1.578006621028459904e+02 -1.253815491925088992e+02 -4.544601898148543029e+01 1.127713080551846758e+02 -1.731273253219452215e+02 3.342999910003146624e+01 1.482652523078773186e+02 -6.094487402723866865e+01 -9.387065711745002261e+01 -3.606100392323483561e+01 1.396979294227896844e+02 2.336977419451045250e+02 -6.846798055881106393e+01 2.036626859904809450e+01 -2.850812416736360433e+01 7.044301555948437965e+01 6.202002633071901272e+01 -2.193894239184216701e+02 -9.122937703250549646e+01 1.415725149889546230e+02 1.439047461639125913e+02 9.732149995312460078e+01 -5.124362884393829631e+01 -7.807939227621172051e+01 -4.679636964664967280e+01 -1.817553419314469068e+02 7.332139704491443410e+01 -2.646677806639568331e+01 1.714198191160501494e+02 -2.875452443240491007e+01 -3.240618248154907519e+02 1.493115173958075275e+02 5.191334310170525868e+01 -1.216108921815041981e+02 -2.278844655768650540e+01 3.641564555774172618e+01 -2.140711763355827202e+02 -1.178493941075738149e+02 -1.129504080826296644e+02 -5.823795383036700457e+01 6.479304150247050131e+01 -1.699413285264557203e+02 1.113557445327648026e+02 -5.601442216950132291e+01 2.983643398156827775e+00 -1.376194616770748382e+02 -1.067975203613015225e+02 1.814335568616957062e+02 8.940517250678541927e+01 -4.358119638960825881e+01 3.839069056652314060e+01 -2.896895679329880480e+01 4.454472949035364593e+01 -1.079692832680352126e+02 1.019416017986413436e+02 5.216073509635306493e+01 -1.227595925587749548e+02 1.205446882893929086e+02 -5.076497102467212130e+01 1.031729596567581524e+02 -5.103336440161829302e+01 9.129498643806003599e+01 -1.584487995073217519e+02 1.473511580305756752e+02 2.559674584943318365e+01 1.039335899911226591e+02 1.347026923337240305e+02 -1.514847725597788326e+02 -8.873447807357362649e+01 -1.091290915637043639e+02 6.911619383190125632e+01 -1.770502568102131420e+02 1.564787337541654040e+02 1.472033791664648845e+02 5.477309529030482338e+01 -8.774551406768991058e+01 5.896210713060577291e+01 -1.108756099462256657e+02 -1.135168174158794585e+01 3.618853299740114693e+01 -1.899642337287642988e+02 -8.438904485651288212e+01 -1.399623764528092806e+01 1.057192253738442389e+02 -5.190943900161685320e+01 1.123777481024697096e+02 -6.656614835051122725e+01 -2.180950664476548013e+02 -1.107959817279393917e+02 -3.530051422893566837e+01 -6.229045366233412295e+01 3.116112955824868536e+01 5.311886985709209341e+01 6.586895331924613295e+00 2.611287896097049810e+01 -1.213504677805566416e+02 5.567336292025557043e+01 3.376641535972999009e+01 -7.476358150570520422e+01 9.563882295002292366e+00 5.824781230972197932e+01 -9.880610712342298996e+01 -5.700742161510836326e+01 -2.496893310536647093e+01 1.011034613815509005e+02 -1.773753676812514968e+01 4.340601544253178012e+00 -2.361573901263102755e+02 -9.847295090905390680e+01 1.024706544889417472e+02 -9.251241895772461987e+01 3.247620584543053468e+01 3.219660224729354070e+01 3.934769320592874209e+01 6.848215286080386477e+01 -1.838894208458481785e+02 1.491741288705605939e+02 8.436159909506747567e+01 -7.763673602059365741e+00 -8.375045164883819382e+01 1.160490926847938624e+02 6.435454217318904568e+01 -2.083864133276548785e+02 -5.223965295838078760e+01 -8.464576869116339708e+01 -5.377694417827041207e+01 -6.424227497748495352e+01 -1.027343163166384272e+02 -6.259738305794832769e+01 1.984682969108441455e+02 -1.770935196815261463e+02 6.790686562034882456e+01 2.875599633840826641e+01 -7.792374523444337342e+01 1.074798207621448931e+01 -4.084278854830552064e+01 3.541519335354063269e+00 -9.964579535344699934e+01 -2.048008507918428904e+02 1.906822576125487956e+01 4.347804670003918659e+01 -1.327520965298397115e+01 -9.415093620040691391e+00 -4.125177032025943902e+01 -1.969788329973833072e+02 -3.180329258597090814e+01 -6.779724603870630517e+01 1.451842855137498312e+01 -1.618104040632564633e+01 9.385903278223941015e+01 -6.536617188675992907e+01 -1.075642125807640213e+02 -3.712109205581655402e+01 -9.385940490600553687e+00 4.726693380928222865e+01 -2.299122835369513496e+01 -7.639859136698572684e+01 -1.645499757966458887e+01 2.083894014446065057e+01 4.927543347892120096e+01 -1.183004804269516086e+02 -1.442423477115532080e+02 2.389450526712554392e+02 -2.264288048705925007e+02 -7.882803908830754835e+01 -4.810848985333843331e+01 1.451263421054215712e+02 6.566574732932096481e+01 2.373976091582179038e+02 2.539321793842525494e+02 -6.465014874343081885e+01 1.343752282108559086e+02 -5.797980528674413847e+01 -4.233416410715084055e+01 -1.044738416396468494e+02 -8.285717058376656041e+01 -7.222643156745061788e+01 -9.231845605374354591e+01 -2.529530505715240452e+02 -2.811241611388697379e+02 1.398004743100060807e+02 -2.751554206333584673e+01 5.526903017853556577e+01 1.357563085217967966e+02
