# 
#                 ----------------------------------------------------
#                 Data from a 3D direct N-body simulation. 
# 
#                 rows are i-particle; 
#                 coumns are :mass, tag, x ,y, z, vx, vy, vz, ax, ay, az
# 
#                 NTHU, Computational Physics Lab
# 
#                 ----------------------------------------------------
#                 Time = 3.4999999999999694
1.000000000000000000e+00 2.000000000000000000e+00 3.000000000000000000e+00 4.000000000000000000e+00 5.000000000000000000e+00 6.000000000000000000e+00 7.000000000000000000e+00 8.000000000000000000e+00 9.000000000000000000e+00 1.000000000000000000e+01 1.100000000000000000e+01 1.200000000000000000e+01 1.300000000000000000e+01 1.400000000000000000e+01 1.500000000000000000e+01 1.600000000000000000e+01 1.700000000000000000e+01 1.800000000000000000e+01 1.900000000000000000e+01 2.000000000000000000e+01 2.100000000000000000e+01 2.200000000000000000e+01 2.300000000000000000e+01 2.400000000000000000e+01 2.500000000000000000e+01 2.600000000000000000e+01 2.700000000000000000e+01 2.800000000000000000e+01 2.900000000000000000e+01 3.000000000000000000e+01 3.100000000000000000e+01 3.200000000000000000e+01 3.300000000000000000e+01 3.400000000000000000e+01 3.500000000000000000e+01 3.600000000000000000e+01 3.700000000000000000e+01 3.800000000000000000e+01 3.900000000000000000e+01 4.000000000000000000e+01 4.100000000000000000e+01 4.200000000000000000e+01 4.300000000000000000e+01 4.400000000000000000e+01 4.500000000000000000e+01 4.600000000000000000e+01 4.700000000000000000e+01 4.800000000000000000e+01 4.900000000000000000e+01 5.000000000000000000e+01 5.100000000000000000e+01 5.200000000000000000e+01 5.300000000000000000e+01 5.400000000000000000e+01 5.500000000000000000e+01 5.600000000000000000e+01 5.700000000000000000e+01 5.800000000000000000e+01 5.900000000000000000e+01 6.000000000000000000e+01 6.100000000000000000e+01 6.200000000000000000e+01 6.300000000000000000e+01 6.400000000000000000e+01 6.500000000000000000e+01 6.600000000000000000e+01 6.700000000000000000e+01 6.800000000000000000e+01 6.900000000000000000e+01 7.000000000000000000e+01 7.100000000000000000e+01 7.200000000000000000e+01 7.300000000000000000e+01 7.400000000000000000e+01 7.500000000000000000e+01 7.600000000000000000e+01 7.700000000000000000e+01 7.800000000000000000e+01 7.900000000000000000e+01 8.000000000000000000e+01 8.100000000000000000e+01 8.200000000000000000e+01 8.300000000000000000e+01 8.400000000000000000e+01 8.500000000000000000e+01 8.600000000000000000e+01 8.700000000000000000e+01 8.800000000000000000e+01 8.900000000000000000e+01 9.000000000000000000e+01 9.100000000000000000e+01 9.200000000000000000e+01 9.300000000000000000e+01 9.400000000000000000e+01 9.500000000000000000e+01 9.600000000000000000e+01 9.700000000000000000e+01 9.800000000000000000e+01 9.900000000000000000e+01 1.000000000000000000e+02 1.010000000000000000e+02 1.020000000000000000e+02 1.030000000000000000e+02 1.040000000000000000e+02 1.050000000000000000e+02 1.060000000000000000e+02 1.070000000000000000e+02 1.080000000000000000e+02 1.090000000000000000e+02 1.100000000000000000e+02 1.110000000000000000e+02 1.120000000000000000e+02 1.130000000000000000e+02 1.140000000000000000e+02 1.150000000000000000e+02 1.160000000000000000e+02 1.170000000000000000e+02 1.180000000000000000e+02 1.190000000000000000e+02 1.200000000000000000e+02 1.210000000000000000e+02 1.220000000000000000e+02 1.230000000000000000e+02 1.240000000000000000e+02 1.250000000000000000e+02 1.260000000000000000e+02 1.270000000000000000e+02 1.280000000000000000e+02 1.290000000000000000e+02 1.300000000000000000e+02 1.310000000000000000e+02 1.320000000000000000e+02 1.330000000000000000e+02 1.340000000000000000e+02 1.350000000000000000e+02 1.360000000000000000e+02 1.370000000000000000e+02 1.380000000000000000e+02 1.390000000000000000e+02 1.400000000000000000e+02 1.410000000000000000e+02 1.420000000000000000e+02 1.430000000000000000e+02 1.440000000000000000e+02 1.450000000000000000e+02 1.460000000000000000e+02 1.470000000000000000e+02 1.480000000000000000e+02 1.490000000000000000e+02 1.500000000000000000e+02 1.510000000000000000e+02 1.520000000000000000e+02 1.530000000000000000e+02 1.540000000000000000e+02 1.550000000000000000e+02 1.560000000000000000e+02 1.570000000000000000e+02 1.580000000000000000e+02 1.590000000000000000e+02 1.600000000000000000e+02 1.610000000000000000e+02 1.620000000000000000e+02 1.630000000000000000e+02 1.640000000000000000e+02 1.650000000000000000e+02 1.660000000000000000e+02 1.670000000000000000e+02 1.680000000000000000e+02 1.690000000000000000e+02 1.700000000000000000e+02 1.710000000000000000e+02 1.720000000000000000e+02 1.730000000000000000e+02 1.740000000000000000e+02 1.750000000000000000e+02 1.760000000000000000e+02 1.770000000000000000e+02 1.780000000000000000e+02 1.790000000000000000e+02 1.800000000000000000e+02 1.810000000000000000e+02 1.820000000000000000e+02 1.830000000000000000e+02 1.840000000000000000e+02 1.850000000000000000e+02 1.860000000000000000e+02 1.870000000000000000e+02 1.880000000000000000e+02 1.890000000000000000e+02 1.900000000000000000e+02 1.910000000000000000e+02 1.920000000000000000e+02 1.930000000000000000e+02 1.940000000000000000e+02 1.950000000000000000e+02 1.960000000000000000e+02 1.970000000000000000e+02 1.980000000000000000e+02 1.990000000000000000e+02 2.000000000000000000e+02 2.010000000000000000e+02 2.020000000000000000e+02 2.030000000000000000e+02 2.040000000000000000e+02 2.050000000000000000e+02 2.060000000000000000e+02 2.070000000000000000e+02 2.080000000000000000e+02 2.090000000000000000e+02 2.100000000000000000e+02 2.110000000000000000e+02 2.120000000000000000e+02 2.130000000000000000e+02 2.140000000000000000e+02 2.150000000000000000e+02 2.160000000000000000e+02 2.170000000000000000e+02 2.180000000000000000e+02 2.190000000000000000e+02 2.200000000000000000e+02 2.210000000000000000e+02 2.220000000000000000e+02 2.230000000000000000e+02 2.240000000000000000e+02 2.250000000000000000e+02 2.260000000000000000e+02 2.270000000000000000e+02 2.280000000000000000e+02 2.290000000000000000e+02 2.300000000000000000e+02 2.310000000000000000e+02 2.320000000000000000e+02 2.330000000000000000e+02 2.340000000000000000e+02 2.350000000000000000e+02 2.360000000000000000e+02 2.370000000000000000e+02 2.380000000000000000e+02 2.390000000000000000e+02 2.400000000000000000e+02 2.410000000000000000e+02 2.420000000000000000e+02 2.430000000000000000e+02 2.440000000000000000e+02 2.450000000000000000e+02 2.460000000000000000e+02 2.470000000000000000e+02 2.480000000000000000e+02 2.490000000000000000e+02 2.500000000000000000e+02 2.510000000000000000e+02 2.520000000000000000e+02 2.530000000000000000e+02 2.540000000000000000e+02 2.550000000000000000e+02 2.560000000000000000e+02 2.570000000000000000e+02 2.580000000000000000e+02 2.590000000000000000e+02 2.600000000000000000e+02 2.610000000000000000e+02 2.620000000000000000e+02 2.630000000000000000e+02 2.640000000000000000e+02 2.650000000000000000e+02 2.660000000000000000e+02 2.670000000000000000e+02 2.680000000000000000e+02 2.690000000000000000e+02 2.700000000000000000e+02 2.710000000000000000e+02 2.720000000000000000e+02 2.730000000000000000e+02 2.740000000000000000e+02 2.750000000000000000e+02 2.760000000000000000e+02 2.770000000000000000e+02 2.780000000000000000e+02 2.790000000000000000e+02 2.800000000000000000e+02 2.810000000000000000e+02 2.820000000000000000e+02 2.830000000000000000e+02 2.840000000000000000e+02 2.850000000000000000e+02 2.860000000000000000e+02 2.870000000000000000e+02 2.880000000000000000e+02 2.890000000000000000e+02 2.900000000000000000e+02 2.910000000000000000e+02 2.920000000000000000e+02 2.930000000000000000e+02 2.940000000000000000e+02 2.950000000000000000e+02 2.960000000000000000e+02 2.970000000000000000e+02 2.980000000000000000e+02 2.990000000000000000e+02 3.000000000000000000e+02 3.010000000000000000e+02 3.020000000000000000e+02 3.030000000000000000e+02 3.040000000000000000e+02 3.050000000000000000e+02 3.060000000000000000e+02 3.070000000000000000e+02 3.080000000000000000e+02 3.090000000000000000e+02 3.100000000000000000e+02 3.110000000000000000e+02 3.120000000000000000e+02 3.130000000000000000e+02 3.140000000000000000e+02 3.150000000000000000e+02 3.160000000000000000e+02 3.170000000000000000e+02 3.180000000000000000e+02 3.190000000000000000e+02 3.200000000000000000e+02 3.210000000000000000e+02 3.220000000000000000e+02 3.230000000000000000e+02 3.240000000000000000e+02 3.250000000000000000e+02 3.260000000000000000e+02 3.270000000000000000e+02 3.280000000000000000e+02 3.290000000000000000e+02 3.300000000000000000e+02 3.310000000000000000e+02 3.320000000000000000e+02 3.330000000000000000e+02 3.340000000000000000e+02 3.350000000000000000e+02 3.360000000000000000e+02 3.370000000000000000e+02 3.380000000000000000e+02 3.390000000000000000e+02 3.400000000000000000e+02 3.410000000000000000e+02 3.420000000000000000e+02 3.430000000000000000e+02 3.440000000000000000e+02 3.450000000000000000e+02 3.460000000000000000e+02 3.470000000000000000e+02 3.480000000000000000e+02 3.490000000000000000e+02 3.500000000000000000e+02 3.510000000000000000e+02 3.520000000000000000e+02 3.530000000000000000e+02 3.540000000000000000e+02 3.550000000000000000e+02 3.560000000000000000e+02 3.570000000000000000e+02 3.580000000000000000e+02 3.590000000000000000e+02 3.600000000000000000e+02 3.610000000000000000e+02 3.620000000000000000e+02 3.630000000000000000e+02 3.640000000000000000e+02 3.650000000000000000e+02 3.660000000000000000e+02 3.670000000000000000e+02 3.680000000000000000e+02 3.690000000000000000e+02 3.700000000000000000e+02 3.710000000000000000e+02 3.720000000000000000e+02 3.730000000000000000e+02 3.740000000000000000e+02 3.750000000000000000e+02 3.760000000000000000e+02 3.770000000000000000e+02 3.780000000000000000e+02 3.790000000000000000e+02 3.800000000000000000e+02 3.810000000000000000e+02 3.820000000000000000e+02 3.830000000000000000e+02 3.840000000000000000e+02 3.850000000000000000e+02 3.860000000000000000e+02 3.870000000000000000e+02 3.880000000000000000e+02 3.890000000000000000e+02 3.900000000000000000e+02 3.910000000000000000e+02 3.920000000000000000e+02 3.930000000000000000e+02 3.940000000000000000e+02 3.950000000000000000e+02 3.960000000000000000e+02 3.970000000000000000e+02 3.980000000000000000e+02 3.990000000000000000e+02 4.000000000000000000e+02 4.010000000000000000e+02 4.020000000000000000e+02 4.030000000000000000e+02 4.040000000000000000e+02 4.050000000000000000e+02 4.060000000000000000e+02 4.070000000000000000e+02 4.080000000000000000e+02 4.090000000000000000e+02 4.100000000000000000e+02 4.110000000000000000e+02 4.120000000000000000e+02 4.130000000000000000e+02 4.140000000000000000e+02 4.150000000000000000e+02 4.160000000000000000e+02 4.170000000000000000e+02 4.180000000000000000e+02 4.190000000000000000e+02 4.200000000000000000e+02 4.210000000000000000e+02 4.220000000000000000e+02 4.230000000000000000e+02 4.240000000000000000e+02 4.250000000000000000e+02 4.260000000000000000e+02 4.270000000000000000e+02 4.280000000000000000e+02 4.290000000000000000e+02 4.300000000000000000e+02 4.310000000000000000e+02 4.320000000000000000e+02 4.330000000000000000e+02 4.340000000000000000e+02 4.350000000000000000e+02 4.360000000000000000e+02 4.370000000000000000e+02 4.380000000000000000e+02 4.390000000000000000e+02 4.400000000000000000e+02 4.410000000000000000e+02 4.420000000000000000e+02 4.430000000000000000e+02 4.440000000000000000e+02 4.450000000000000000e+02 4.460000000000000000e+02 4.470000000000000000e+02 4.480000000000000000e+02 4.490000000000000000e+02 4.500000000000000000e+02 4.510000000000000000e+02 4.520000000000000000e+02 4.530000000000000000e+02 4.540000000000000000e+02 4.550000000000000000e+02 4.560000000000000000e+02 4.570000000000000000e+02 4.580000000000000000e+02 4.590000000000000000e+02 4.600000000000000000e+02 4.610000000000000000e+02 4.620000000000000000e+02 4.630000000000000000e+02 4.640000000000000000e+02 4.650000000000000000e+02 4.660000000000000000e+02 4.670000000000000000e+02 4.680000000000000000e+02 4.690000000000000000e+02 4.700000000000000000e+02 4.710000000000000000e+02 4.720000000000000000e+02 4.730000000000000000e+02 4.740000000000000000e+02 4.750000000000000000e+02 4.760000000000000000e+02 4.770000000000000000e+02 4.780000000000000000e+02 4.790000000000000000e+02 4.800000000000000000e+02 4.810000000000000000e+02 4.820000000000000000e+02 4.830000000000000000e+02 4.840000000000000000e+02 4.850000000000000000e+02 4.860000000000000000e+02 4.870000000000000000e+02 4.880000000000000000e+02 4.890000000000000000e+02 4.900000000000000000e+02 4.910000000000000000e+02 4.920000000000000000e+02 4.930000000000000000e+02 4.940000000000000000e+02 4.950000000000000000e+02 4.960000000000000000e+02 4.970000000000000000e+02 4.980000000000000000e+02 4.990000000000000000e+02 5.000000000000000000e+02 5.010000000000000000e+02 5.020000000000000000e+02 5.030000000000000000e+02 5.040000000000000000e+02 5.050000000000000000e+02 5.060000000000000000e+02 5.070000000000000000e+02 5.080000000000000000e+02 5.090000000000000000e+02 5.100000000000000000e+02 5.110000000000000000e+02 5.120000000000000000e+02 5.130000000000000000e+02 5.140000000000000000e+02 5.150000000000000000e+02 5.160000000000000000e+02 5.170000000000000000e+02 5.180000000000000000e+02 5.190000000000000000e+02 5.200000000000000000e+02 5.210000000000000000e+02 5.220000000000000000e+02 5.230000000000000000e+02 5.240000000000000000e+02 5.250000000000000000e+02 5.260000000000000000e+02 5.270000000000000000e+02 5.280000000000000000e+02 5.290000000000000000e+02 5.300000000000000000e+02 5.310000000000000000e+02 5.320000000000000000e+02 5.330000000000000000e+02 5.340000000000000000e+02 5.350000000000000000e+02 5.360000000000000000e+02 5.370000000000000000e+02 5.380000000000000000e+02 5.390000000000000000e+02 5.400000000000000000e+02 5.410000000000000000e+02 5.420000000000000000e+02 5.430000000000000000e+02 5.440000000000000000e+02 5.450000000000000000e+02 5.460000000000000000e+02 5.470000000000000000e+02 5.480000000000000000e+02 5.490000000000000000e+02 5.500000000000000000e+02 5.510000000000000000e+02 5.520000000000000000e+02 5.530000000000000000e+02 5.540000000000000000e+02 5.550000000000000000e+02 5.560000000000000000e+02 5.570000000000000000e+02 5.580000000000000000e+02 5.590000000000000000e+02 5.600000000000000000e+02 5.610000000000000000e+02 5.620000000000000000e+02 5.630000000000000000e+02 5.640000000000000000e+02 5.650000000000000000e+02 5.660000000000000000e+02 5.670000000000000000e+02 5.680000000000000000e+02 5.690000000000000000e+02 5.700000000000000000e+02 5.710000000000000000e+02 5.720000000000000000e+02 5.730000000000000000e+02 5.740000000000000000e+02 5.750000000000000000e+02 5.760000000000000000e+02 5.770000000000000000e+02 5.780000000000000000e+02 5.790000000000000000e+02 5.800000000000000000e+02 5.810000000000000000e+02 5.820000000000000000e+02 5.830000000000000000e+02 5.840000000000000000e+02 5.850000000000000000e+02 5.860000000000000000e+02 5.870000000000000000e+02 5.880000000000000000e+02 5.890000000000000000e+02 5.900000000000000000e+02 5.910000000000000000e+02 5.920000000000000000e+02 5.930000000000000000e+02 5.940000000000000000e+02 5.950000000000000000e+02 5.960000000000000000e+02 5.970000000000000000e+02 5.980000000000000000e+02 5.990000000000000000e+02 6.000000000000000000e+02 6.010000000000000000e+02 6.020000000000000000e+02 6.030000000000000000e+02 6.040000000000000000e+02 6.050000000000000000e+02 6.060000000000000000e+02 6.070000000000000000e+02 6.080000000000000000e+02 6.090000000000000000e+02 6.100000000000000000e+02 6.110000000000000000e+02 6.120000000000000000e+02 6.130000000000000000e+02 6.140000000000000000e+02 6.150000000000000000e+02 6.160000000000000000e+02 6.170000000000000000e+02 6.180000000000000000e+02 6.190000000000000000e+02 6.200000000000000000e+02 6.210000000000000000e+02 6.220000000000000000e+02 6.230000000000000000e+02 6.240000000000000000e+02 6.250000000000000000e+02 6.260000000000000000e+02 6.270000000000000000e+02 6.280000000000000000e+02 6.290000000000000000e+02 6.300000000000000000e+02 6.310000000000000000e+02 6.320000000000000000e+02 6.330000000000000000e+02 6.340000000000000000e+02 6.350000000000000000e+02 6.360000000000000000e+02 6.370000000000000000e+02 6.380000000000000000e+02 6.390000000000000000e+02 6.400000000000000000e+02 6.410000000000000000e+02 6.420000000000000000e+02 6.430000000000000000e+02 6.440000000000000000e+02 6.450000000000000000e+02 6.460000000000000000e+02 6.470000000000000000e+02 6.480000000000000000e+02 6.490000000000000000e+02 6.500000000000000000e+02 6.510000000000000000e+02 6.520000000000000000e+02 6.530000000000000000e+02 6.540000000000000000e+02 6.550000000000000000e+02 6.560000000000000000e+02 6.570000000000000000e+02 6.580000000000000000e+02 6.590000000000000000e+02 6.600000000000000000e+02 6.610000000000000000e+02 6.620000000000000000e+02 6.630000000000000000e+02 6.640000000000000000e+02 6.650000000000000000e+02 6.660000000000000000e+02 6.670000000000000000e+02 6.680000000000000000e+02 6.690000000000000000e+02 6.700000000000000000e+02 6.710000000000000000e+02 6.720000000000000000e+02 6.730000000000000000e+02 6.740000000000000000e+02 6.750000000000000000e+02 6.760000000000000000e+02 6.770000000000000000e+02 6.780000000000000000e+02 6.790000000000000000e+02 6.800000000000000000e+02 6.810000000000000000e+02 6.820000000000000000e+02 6.830000000000000000e+02 6.840000000000000000e+02 6.850000000000000000e+02 6.860000000000000000e+02 6.870000000000000000e+02 6.880000000000000000e+02 6.890000000000000000e+02 6.900000000000000000e+02 6.910000000000000000e+02 6.920000000000000000e+02 6.930000000000000000e+02 6.940000000000000000e+02 6.950000000000000000e+02 6.960000000000000000e+02 6.970000000000000000e+02 6.980000000000000000e+02 6.990000000000000000e+02 7.000000000000000000e+02 7.010000000000000000e+02 7.020000000000000000e+02 7.030000000000000000e+02 7.040000000000000000e+02 7.050000000000000000e+02 7.060000000000000000e+02 7.070000000000000000e+02 7.080000000000000000e+02 7.090000000000000000e+02 7.100000000000000000e+02 7.110000000000000000e+02 7.120000000000000000e+02 7.130000000000000000e+02 7.140000000000000000e+02 7.150000000000000000e+02 7.160000000000000000e+02 7.170000000000000000e+02 7.180000000000000000e+02 7.190000000000000000e+02 7.200000000000000000e+02 7.210000000000000000e+02 7.220000000000000000e+02 7.230000000000000000e+02 7.240000000000000000e+02 7.250000000000000000e+02 7.260000000000000000e+02 7.270000000000000000e+02 7.280000000000000000e+02 7.290000000000000000e+02 7.300000000000000000e+02 7.310000000000000000e+02 7.320000000000000000e+02 7.330000000000000000e+02 7.340000000000000000e+02 7.350000000000000000e+02 7.360000000000000000e+02 7.370000000000000000e+02 7.380000000000000000e+02 7.390000000000000000e+02 7.400000000000000000e+02 7.410000000000000000e+02 7.420000000000000000e+02 7.430000000000000000e+02 7.440000000000000000e+02 7.450000000000000000e+02 7.460000000000000000e+02 7.470000000000000000e+02 7.480000000000000000e+02 7.490000000000000000e+02 7.500000000000000000e+02 7.510000000000000000e+02 7.520000000000000000e+02 7.530000000000000000e+02 7.540000000000000000e+02 7.550000000000000000e+02 7.560000000000000000e+02 7.570000000000000000e+02 7.580000000000000000e+02 7.590000000000000000e+02 7.600000000000000000e+02 7.610000000000000000e+02 7.620000000000000000e+02 7.630000000000000000e+02 7.640000000000000000e+02 7.650000000000000000e+02 7.660000000000000000e+02 7.670000000000000000e+02 7.680000000000000000e+02 7.690000000000000000e+02 7.700000000000000000e+02 7.710000000000000000e+02 7.720000000000000000e+02 7.730000000000000000e+02 7.740000000000000000e+02 7.750000000000000000e+02 7.760000000000000000e+02 7.770000000000000000e+02 7.780000000000000000e+02 7.790000000000000000e+02 7.800000000000000000e+02 7.810000000000000000e+02 7.820000000000000000e+02 7.830000000000000000e+02 7.840000000000000000e+02 7.850000000000000000e+02 7.860000000000000000e+02 7.870000000000000000e+02 7.880000000000000000e+02 7.890000000000000000e+02 7.900000000000000000e+02 7.910000000000000000e+02 7.920000000000000000e+02 7.930000000000000000e+02 7.940000000000000000e+02 7.950000000000000000e+02 7.960000000000000000e+02 7.970000000000000000e+02 7.980000000000000000e+02 7.990000000000000000e+02 8.000000000000000000e+02 8.010000000000000000e+02 8.020000000000000000e+02 8.030000000000000000e+02 8.040000000000000000e+02 8.050000000000000000e+02 8.060000000000000000e+02 8.070000000000000000e+02 8.080000000000000000e+02 8.090000000000000000e+02 8.100000000000000000e+02 8.110000000000000000e+02 8.120000000000000000e+02 8.130000000000000000e+02 8.140000000000000000e+02 8.150000000000000000e+02 8.160000000000000000e+02 8.170000000000000000e+02 8.180000000000000000e+02 8.190000000000000000e+02 8.200000000000000000e+02 8.210000000000000000e+02 8.220000000000000000e+02 8.230000000000000000e+02 8.240000000000000000e+02 8.250000000000000000e+02 8.260000000000000000e+02 8.270000000000000000e+02 8.280000000000000000e+02 8.290000000000000000e+02 8.300000000000000000e+02 8.310000000000000000e+02 8.320000000000000000e+02 8.330000000000000000e+02 8.340000000000000000e+02 8.350000000000000000e+02 8.360000000000000000e+02 8.370000000000000000e+02 8.380000000000000000e+02 8.390000000000000000e+02 8.400000000000000000e+02 8.410000000000000000e+02 8.420000000000000000e+02 8.430000000000000000e+02 8.440000000000000000e+02 8.450000000000000000e+02 8.460000000000000000e+02 8.470000000000000000e+02 8.480000000000000000e+02 8.490000000000000000e+02 8.500000000000000000e+02 8.510000000000000000e+02 8.520000000000000000e+02 8.530000000000000000e+02 8.540000000000000000e+02 8.550000000000000000e+02 8.560000000000000000e+02 8.570000000000000000e+02 8.580000000000000000e+02 8.590000000000000000e+02 8.600000000000000000e+02 8.610000000000000000e+02 8.620000000000000000e+02 8.630000000000000000e+02 8.640000000000000000e+02 8.650000000000000000e+02 8.660000000000000000e+02 8.670000000000000000e+02 8.680000000000000000e+02 8.690000000000000000e+02 8.700000000000000000e+02 8.710000000000000000e+02 8.720000000000000000e+02 8.730000000000000000e+02 8.740000000000000000e+02 8.750000000000000000e+02 8.760000000000000000e+02 8.770000000000000000e+02 8.780000000000000000e+02 8.790000000000000000e+02 8.800000000000000000e+02 8.810000000000000000e+02 8.820000000000000000e+02 8.830000000000000000e+02 8.840000000000000000e+02 8.850000000000000000e+02 8.860000000000000000e+02 8.870000000000000000e+02 8.880000000000000000e+02 8.890000000000000000e+02 8.900000000000000000e+02 8.910000000000000000e+02 8.920000000000000000e+02 8.930000000000000000e+02 8.940000000000000000e+02 8.950000000000000000e+02 8.960000000000000000e+02 8.970000000000000000e+02 8.980000000000000000e+02 8.990000000000000000e+02 9.000000000000000000e+02 9.010000000000000000e+02 9.020000000000000000e+02 9.030000000000000000e+02 9.040000000000000000e+02 9.050000000000000000e+02 9.060000000000000000e+02 9.070000000000000000e+02 9.080000000000000000e+02 9.090000000000000000e+02 9.100000000000000000e+02 9.110000000000000000e+02 9.120000000000000000e+02 9.130000000000000000e+02 9.140000000000000000e+02 9.150000000000000000e+02 9.160000000000000000e+02 9.170000000000000000e+02 9.180000000000000000e+02 9.190000000000000000e+02 9.200000000000000000e+02 9.210000000000000000e+02 9.220000000000000000e+02 9.230000000000000000e+02 9.240000000000000000e+02 9.250000000000000000e+02 9.260000000000000000e+02 9.270000000000000000e+02 9.280000000000000000e+02 9.290000000000000000e+02 9.300000000000000000e+02 9.310000000000000000e+02 9.320000000000000000e+02 9.330000000000000000e+02 9.340000000000000000e+02 9.350000000000000000e+02 9.360000000000000000e+02 9.370000000000000000e+02 9.380000000000000000e+02 9.390000000000000000e+02 9.400000000000000000e+02 9.410000000000000000e+02 9.420000000000000000e+02 9.430000000000000000e+02 9.440000000000000000e+02 9.450000000000000000e+02 9.460000000000000000e+02 9.470000000000000000e+02 9.480000000000000000e+02 9.490000000000000000e+02 9.500000000000000000e+02 9.510000000000000000e+02 9.520000000000000000e+02 9.530000000000000000e+02 9.540000000000000000e+02 9.550000000000000000e+02 9.560000000000000000e+02 9.570000000000000000e+02 9.580000000000000000e+02 9.590000000000000000e+02 9.600000000000000000e+02 9.610000000000000000e+02 9.620000000000000000e+02 9.630000000000000000e+02 9.640000000000000000e+02 9.650000000000000000e+02 9.660000000000000000e+02 9.670000000000000000e+02 9.680000000000000000e+02 9.690000000000000000e+02 9.700000000000000000e+02 9.710000000000000000e+02 9.720000000000000000e+02 9.730000000000000000e+02 9.740000000000000000e+02 9.750000000000000000e+02 9.760000000000000000e+02 9.770000000000000000e+02 9.780000000000000000e+02 9.790000000000000000e+02 9.800000000000000000e+02 9.810000000000000000e+02 9.820000000000000000e+02 9.830000000000000000e+02 9.840000000000000000e+02 9.850000000000000000e+02 9.860000000000000000e+02 9.870000000000000000e+02 9.880000000000000000e+02 9.890000000000000000e+02 9.900000000000000000e+02 9.910000000000000000e+02 9.920000000000000000e+02 9.930000000000000000e+02 9.940000000000000000e+02 9.950000000000000000e+02 9.960000000000000000e+02 9.970000000000000000e+02 9.980000000000000000e+02 9.990000000000000000e+02 1.000000000000000000e+03
1.000000000000000021e-02 1.000000000000000021e-02 1.000000000000000021e-02 1.000000000000000021e-02 1.000000000000000021e-02 1.000000000000000021e-02 1.000000000000000021e-02 1.000000000000000021e-02 1.000000000000000021e-02 1.000000000000000021e-02 1.000000000000000021e-02 1.000000000000000021e-02 1.000000000000000021e-02 1.000000000000000021e-02 1.000000000000000021e-02 1.000000000000000021e-02 1.000000000000000021e-02 1.000000000000000021e-02 1.000000000000000021e-02 1.000000000000000021e-02 1.000000000000000021e-02 1.000000000000000021e-02 1.000000000000000021e-02 1.000000000000000021e-02 1.000000000000000021e-02 1.000000000000000021e-02 1.000000000000000021e-02 1.000000000000000021e-02 1.000000000000000021e-02 1.000000000000000021e-02 1.000000000000000021e-02 1.000000000000000021e-02 1.000000000000000021e-02 1.000000000000000021e-02 1.000000000000000021e-02 1.000000000000000021e-02 1.000000000000000021e-02 1.000000000000000021e-02 1.000000000000000021e-02 1.000000000000000021e-02 1.000000000000000021e-02 1.000000000000000021e-02 1.000000000000000021e-02 1.000000000000000021e-02 1.000000000000000021e-02 1.000000000000000021e-02 1.000000000000000021e-02 1.000000000000000021e-02 1.000000000000000021e-02 1.000000000000000021e-02 1.000000000000000021e-02 1.000000000000000021e-02 1.000000000000000021e-02 1.000000000000000021e-02 1.000000000000000021e-02 1.000000000000000021e-02 1.000000000000000021e-02 1.000000000000000021e-02 1.000000000000000021e-02 1.000000000000000021e-02 1.000000000000000021e-02 1.000000000000000021e-02 1.000000000000000021e-02 1.000000000000000021e-02 1.000000000000000021e-02 1.000000000000000021e-02 1.000000000000000021e-02 1.000000000000000021e-02 1.000000000000000021e-02 1.000000000000000021e-02 1.000000000000000021e-02 1.000000000000000021e-02 1.000000000000000021e-02 1.000000000000000021e-02 1.000000000000000021e-02 1.000000000000000021e-02 1.000000000000000021e-02 1.000000000000000021e-02 1.000000000000000021e-02 1.000000000000000021e-02 1.000000000000000021e-02 1.000000000000000021e-02 1.000000000000000021e-02 1.000000000000000021e-02 1.000000000000000021e-02 1.000000000000000021e-02 1.000000000000000021e-02 1.000000000000000021e-02 1.000000000000000021e-02 1.000000000000000021e-02 1.000000000000000021e-02 1.000000000000000021e-02 1.000000000000000021e-02 1.000000000000000021e-02 1.000000000000000021e-02 1.000000000000000021e-02 1.000000000000000021e-02 1.000000000000000021e-02 1.000000000000000021e-02 1.000000000000000021e-02 1.000000000000000021e-02 1.000000000000000021e-02 1.000000000000000021e-02 1.000000000000000021e-02 1.000000000000000021e-02 1.000000000000000021e-02 1.000000000000000021e-02 1.000000000000000021e-02 1.000000000000000021e-02 1.000000000000000021e-02 1.000000000000000021e-02 1.000000000000000021e-02 1.000000000000000021e-02 1.000000000000000021e-02 1.000000000000000021e-02 1.000000000000000021e-02 1.000000000000000021e-02 1.000000000000000021e-02 1.000000000000000021e-02 1.000000000000000021e-02 1.000000000000000021e-02 1.000000000000000021e-02 1.000000000000000021e-02 1.000000000000000021e-02 1.000000000000000021e-02 1.000000000000000021e-02 1.000000000000000021e-02 1.000000000000000021e-02 1.000000000000000021e-02 1.000000000000000021e-02 1.000000000000000021e-02 1.000000000000000021e-02 1.000000000000000021e-02 1.000000000000000021e-02 1.000000000000000021e-02 1.000000000000000021e-02 1.000000000000000021e-02 1.000000000000000021e-02 1.000000000000000021e-02 1.000000000000000021e-02 1.000000000000000021e-02 1.000000000000000021e-02 1.000000000000000021e-02 1.000000000000000021e-02 1.000000000000000021e-02 1.000000000000000021e-02 1.000000000000000021e-02 1.000000000000000021e-02 1.000000000000000021e-02 1.000000000000000021e-02 1.000000000000000021e-02 1.000000000000000021e-02 1.000000000000000021e-02 1.000000000000000021e-02 1.000000000000000021e-02 1.000000000000000021e-02 1.000000000000000021e-02 1.000000000000000021e-02 1.000000000000000021e-02 1.000000000000000021e-02 1.000000000000000021e-02 1.000000000000000021e-02 1.000000000000000021e-02 1.000000000000000021e-02 1.000000000000000021e-02 1.000000000000000021e-02 1.000000000000000021e-02 1.000000000000000021e-02 1.000000000000000021e-02 1.000000000000000021e-02 1.000000000000000021e-02 1.000000000000000021e-02 1.000000000000000021e-02 1.000000000000000021e-02 1.000000000000000021e-02 1.000000000000000021e-02 1.000000000000000021e-02 1.000000000000000021e-02 1.000000000000000021e-02 1.000000000000000021e-02 1.000000000000000021e-02 1.000000000000000021e-02 1.000000000000000021e-02 1.000000000000000021e-02 1.000000000000000021e-02 1.000000000000000021e-02 1.000000000000000021e-02 1.000000000000000021e-02 1.000000000000000021e-02 1.000000000000000021e-02 1.000000000000000021e-02 1.000000000000000021e-02 1.000000000000000021e-02 1.000000000000000021e-02 1.000000000000000021e-02 1.000000000000000021e-02 1.000000000000000021e-02 1.000000000000000021e-02 1.000000000000000021e-02 1.000000000000000021e-02 1.000000000000000021e-02 1.000000000000000021e-02 1.000000000000000021e-02 1.000000000000000021e-02 1.000000000000000021e-02 1.000000000000000021e-02 1.000000000000000021e-02 1.000000000000000021e-02 1.000000000000000021e-02 1.000000000000000021e-02 1.000000000000000021e-02 1.000000000000000021e-02 1.000000000000000021e-02 1.000000000000000021e-02 1.000000000000000021e-02 1.000000000000000021e-02 1.000000000000000021e-02 1.000000000000000021e-02 1.000000000000000021e-02 1.000000000000000021e-02 1.000000000000000021e-02 1.000000000000000021e-02 1.000000000000000021e-02 1.000000000000000021e-02 1.000000000000000021e-02 1.000000000000000021e-02 1.000000000000000021e-02 1.000000000000000021e-02 1.000000000000000021e-02 1.000000000000000021e-02 1.000000000000000021e-02 1.000000000000000021e-02 1.000000000000000021e-02 1.000000000000000021e-02 1.000000000000000021e-02 1.000000000000000021e-02 1.000000000000000021e-02 1.000000000000000021e-02 1.000000000000000021e-02 1.000000000000000021e-02 1.000000000000000021e-02 1.000000000000000021e-02 1.000000000000000021e-02 1.000000000000000021e-02 1.000000000000000021e-02 1.000000000000000021e-02 1.000000000000000021e-02 1.000000000000000021e-02 1.000000000000000021e-02 1.000000000000000021e-02 1.000000000000000021e-02 1.000000000000000021e-02 1.000000000000000021e-02 1.000000000000000021e-02 1.000000000000000021e-02 1.000000000000000021e-02 1.000000000000000021e-02 1.000000000000000021e-02 1.000000000000000021e-02 1.000000000000000021e-02 1.000000000000000021e-02 1.000000000000000021e-02 1.000000000000000021e-02 1.000000000000000021e-02 1.000000000000000021e-02 1.000000000000000021e-02 1.000000000000000021e-02 1.000000000000000021e-02 1.000000000000000021e-02 1.000000000000000021e-02 1.000000000000000021e-02 1.000000000000000021e-02 1.000000000000000021e-02 1.000000000000000021e-02 1.000000000000000021e-02 1.000000000000000021e-02 1.000000000000000021e-02 1.000000000000000021e-02 1.000000000000000021e-02 1.000000000000000021e-02 1.000000000000000021e-02 1.000000000000000021e-02 1.000000000000000021e-02 1.000000000000000021e-02 1.000000000000000021e-02 1.000000000000000021e-02 1.000000000000000021e-02 1.000000000000000021e-02 1.000000000000000021e-02 1.000000000000000021e-02 1.000000000000000021e-02 1.000000000000000021e-02 1.000000000000000021e-02 1.000000000000000021e-02 1.000000000000000021e-02 1.000000000000000021e-02 1.000000000000000021e-02 1.000000000000000021e-02 1.000000000000000021e-02 1.000000000000000021e-02 1.000000000000000021e-02 1.000000000000000021e-02 1.000000000000000021e-02 1.000000000000000021e-02 1.000000000000000021e-02 1.000000000000000021e-02 1.000000000000000021e-02 1.000000000000000021e-02 1.000000000000000021e-02 1.000000000000000021e-02 1.000000000000000021e-02 1.000000000000000021e-02 1.000000000000000021e-02 1.000000000000000021e-02 1.000000000000000021e-02 1.000000000000000021e-02 1.000000000000000021e-02 1.000000000000000021e-02 1.000000000000000021e-02 1.000000000000000021e-02 1.000000000000000021e-02 1.000000000000000021e-02 1.000000000000000021e-02 1.000000000000000021e-02 1.000000000000000021e-02 1.000000000000000021e-02 1.000000000000000021e-02 1.000000000000000021e-02 1.000000000000000021e-02 1.000000000000000021e-02 1.000000000000000021e-02 1.000000000000000021e-02 1.000000000000000021e-02 1.000000000000000021e-02 1.000000000000000021e-02 1.000000000000000021e-02 1.000000000000000021e-02 1.000000000000000021e-02 1.000000000000000021e-02 1.000000000000000021e-02 1.000000000000000021e-02 1.000000000000000021e-02 1.000000000000000021e-02 1.000000000000000021e-02 1.000000000000000021e-02 1.000000000000000021e-02 1.000000000000000021e-02 1.000000000000000021e-02 1.000000000000000021e-02 1.000000000000000021e-02 1.000000000000000021e-02 1.000000000000000021e-02 1.000000000000000021e-02 1.000000000000000021e-02 1.000000000000000021e-02 1.000000000000000021e-02 1.000000000000000021e-02 1.000000000000000021e-02 1.000000000000000021e-02 1.000000000000000021e-02 1.000000000000000021e-02 1.000000000000000021e-02 1.000000000000000021e-02 1.000000000000000021e-02 1.000000000000000021e-02 1.000000000000000021e-02 1.000000000000000021e-02 1.000000000000000021e-02 1.000000000000000021e-02 1.000000000000000021e-02 1.000000000000000021e-02 1.000000000000000021e-02 1.000000000000000021e-02 1.000000000000000021e-02 1.000000000000000021e-02 1.000000000000000021e-02 1.000000000000000021e-02 1.000000000000000021e-02 1.000000000000000021e-02 1.000000000000000021e-02 1.000000000000000021e-02 1.000000000000000021e-02 1.000000000000000021e-02 1.000000000000000021e-02 1.000000000000000021e-02 1.000000000000000021e-02 1.000000000000000021e-02 1.000000000000000021e-02 1.000000000000000021e-02 1.000000000000000021e-02 1.000000000000000021e-02 1.000000000000000021e-02 1.000000000000000021e-02 1.000000000000000021e-02 1.000000000000000021e-02 1.000000000000000021e-02 1.000000000000000021e-02 1.000000000000000021e-02 1.000000000000000021e-02 1.000000000000000021e-02 1.000000000000000021e-02 1.000000000000000021e-02 1.000000000000000021e-02 1.000000000000000021e-02 1.000000000000000021e-02 1.000000000000000021e-02 1.000000000000000021e-02 1.000000000000000021e-02 1.000000000000000021e-02 1.000000000000000021e-02 1.000000000000000021e-02 1.000000000000000021e-02 1.000000000000000021e-02 1.000000000000000021e-02 1.000000000000000021e-02 1.000000000000000021e-02 1.000000000000000021e-02 1.000000000000000021e-02 1.000000000000000021e-02 1.000000000000000021e-02 1.000000000000000021e-02 1.000000000000000021e-02 1.000000000000000021e-02 1.000000000000000021e-02 1.000000000000000021e-02 1.000000000000000021e-02 1.000000000000000021e-02 1.000000000000000021e-02 1.000000000000000021e-02 1.000000000000000021e-02 1.000000000000000021e-02 1.000000000000000021e-02 1.000000000000000021e-02 1.000000000000000021e-02 1.000000000000000021e-02 1.000000000000000021e-02 1.000000000000000021e-02 1.000000000000000021e-02 1.000000000000000021e-02 1.000000000000000021e-02 1.000000000000000021e-02 1.000000000000000021e-02 1.000000000000000021e-02 1.000000000000000021e-02 1.000000000000000021e-02 1.000000000000000021e-02 1.000000000000000021e-02 1.000000000000000021e-02 1.000000000000000021e-02 1.000000000000000021e-02 1.000000000000000021e-02 1.000000000000000021e-02 1.000000000000000021e-02 1.000000000000000021e-02 1.000000000000000021e-02 1.000000000000000021e-02 1.000000000000000021e-02 1.000000000000000021e-02 1.000000000000000021e-02 1.000000000000000021e-02 1.000000000000000021e-02 1.000000000000000021e-02 1.000000000000000021e-02 1.000000000000000021e-02 1.000000000000000021e-02 1.000000000000000021e-02 1.000000000000000021e-02 1.000000000000000021e-02 1.000000000000000021e-02 1.000000000000000021e-02 1.000000000000000021e-02 1.000000000000000021e-02 1.000000000000000021e-02 1.000000000000000021e-02 1.000000000000000021e-02 1.000000000000000021e-02 1.000000000000000021e-02 1.000000000000000021e-02 1.000000000000000021e-02 1.000000000000000021e-02 1.000000000000000021e-02 1.000000000000000021e-02 1.000000000000000021e-02 1.000000000000000021e-02 1.000000000000000021e-02 1.000000000000000021e-02 1.000000000000000021e-02 1.000000000000000021e-02 1.000000000000000021e-02 1.000000000000000021e-02 1.000000000000000021e-02 1.000000000000000021e-02 1.000000000000000021e-02 1.000000000000000021e-02 1.000000000000000021e-02 1.000000000000000021e-02 1.000000000000000021e-02 1.000000000000000021e-02 1.000000000000000021e-02 1.000000000000000021e-02 1.000000000000000021e-02 1.000000000000000021e-02 1.000000000000000021e-02 1.000000000000000021e-02 1.000000000000000021e-02 1.000000000000000021e-02 1.000000000000000021e-02 1.000000000000000021e-02 1.000000000000000021e-02 1.000000000000000021e-02 1.000000000000000021e-02 1.000000000000000021e-02 1.000000000000000021e-02 1.000000000000000021e-02 1.000000000000000021e-02 1.000000000000000021e-02 1.000000000000000021e-02 1.000000000000000021e-02 1.000000000000000021e-02 1.000000000000000021e-02 1.000000000000000021e-02 1.000000000000000021e-02 1.000000000000000021e-02 1.000000000000000021e-02 1.000000000000000021e-02 1.000000000000000021e-02 1.000000000000000021e-02 1.000000000000000021e-02 1.000000000000000021e-02 1.000000000000000021e-02 1.000000000000000021e-02 1.000000000000000021e-02 1.000000000000000021e-02 1.000000000000000021e-02 1.000000000000000021e-02 1.000000000000000021e-02 1.000000000000000021e-02 1.000000000000000021e-02 1.000000000000000021e-02 1.000000000000000021e-02 1.000000000000000021e-02 1.000000000000000021e-02 1.000000000000000021e-02 1.000000000000000021e-02 1.000000000000000021e-02 1.000000000000000021e-02 1.000000000000000021e-02 1.000000000000000021e-02 1.000000000000000021e-02 1.000000000000000021e-02 1.000000000000000021e-02 1.000000000000000021e-02 1.000000000000000021e-02 1.000000000000000021e-02 1.000000000000000021e-02 1.000000000000000021e-02 1.000000000000000021e-02 1.000000000000000021e-02 1.000000000000000021e-02 1.000000000000000021e-02 1.000000000000000021e-02 1.000000000000000021e-02 1.000000000000000021e-02 1.000000000000000021e-02 1.000000000000000021e-02 1.000000000000000021e-02 1.000000000000000021e-02 1.000000000000000021e-02 1.000000000000000021e-02 1.000000000000000021e-02 1.000000000000000021e-02 1.000000000000000021e-02 1.000000000000000021e-02 1.000000000000000021e-02 1.000000000000000021e-02 1.000000000000000021e-02 1.000000000000000021e-02 1.000000000000000021e-02 1.000000000000000021e-02 1.000000000000000021e-02 1.000000000000000021e-02 1.000000000000000021e-02 1.000000000000000021e-02 1.000000000000000021e-02 1.000000000000000021e-02 1.000000000000000021e-02 1.000000000000000021e-02 1.000000000000000021e-02 1.000000000000000021e-02 1.000000000000000021e-02 1.000000000000000021e-02 1.000000000000000021e-02 1.000000000000000021e-02 1.000000000000000021e-02 1.000000000000000021e-02 1.000000000000000021e-02 1.000000000000000021e-02 1.000000000000000021e-02 1.000000000000000021e-02 1.000000000000000021e-02 1.000000000000000021e-02 1.000000000000000021e-02 1.000000000000000021e-02 1.000000000000000021e-02 1.000000000000000021e-02 1.000000000000000021e-02 1.000000000000000021e-02 1.000000000000000021e-02 1.000000000000000021e-02 1.000000000000000021e-02 1.000000000000000021e-02 1.000000000000000021e-02 1.000000000000000021e-02 1.000000000000000021e-02 1.000000000000000021e-02 1.000000000000000021e-02 1.000000000000000021e-02 1.000000000000000021e-02 1.000000000000000021e-02 1.000000000000000021e-02 1.000000000000000021e-02 1.000000000000000021e-02 1.000000000000000021e-02 1.000000000000000021e-02 1.000000000000000021e-02 1.000000000000000021e-02 1.000000000000000021e-02 1.000000000000000021e-02 1.000000000000000021e-02 1.000000000000000021e-02 1.000000000000000021e-02 1.000000000000000021e-02 1.000000000000000021e-02 1.000000000000000021e-02 1.000000000000000021e-02 1.000000000000000021e-02 1.000000000000000021e-02 1.000000000000000021e-02 1.000000000000000021e-02 1.000000000000000021e-02 1.000000000000000021e-02 1.000000000000000021e-02 1.000000000000000021e-02 1.000000000000000021e-02 1.000000000000000021e-02 1.000000000000000021e-02 1.000000000000000021e-02 1.000000000000000021e-02 1.000000000000000021e-02 1.000000000000000021e-02 1.000000000000000021e-02 1.000000000000000021e-02 1.000000000000000021e-02 1.000000000000000021e-02 1.000000000000000021e-02 1.000000000000000021e-02 1.000000000000000021e-02 1.000000000000000021e-02 1.000000000000000021e-02 1.000000000000000021e-02 1.000000000000000021e-02 1.000000000000000021e-02 1.000000000000000021e-02 1.000000000000000021e-02 1.000000000000000021e-02 1.000000000000000021e-02 1.000000000000000021e-02 1.000000000000000021e-02 1.000000000000000021e-02 1.000000000000000021e-02 1.000000000000000021e-02 1.000000000000000021e-02 1.000000000000000021e-02 1.000000000000000021e-02 1.000000000000000021e-02 1.000000000000000021e-02 1.000000000000000021e-02 1.000000000000000021e-02 1.000000000000000021e-02 1.000000000000000021e-02 1.000000000000000021e-02 1.000000000000000021e-02 1.000000000000000021e-02 1.000000000000000021e-02 1.000000000000000021e-02 1.000000000000000021e-02 1.000000000000000021e-02 1.000000000000000021e-02 1.000000000000000021e-02 1.000000000000000021e-02 1.000000000000000021e-02 1.000000000000000021e-02 1.000000000000000021e-02 1.000000000000000021e-02 1.000000000000000021e-02 1.000000000000000021e-02 1.000000000000000021e-02 1.000000000000000021e-02 1.000000000000000021e-02 1.000000000000000021e-02 1.000000000000000021e-02 1.000000000000000021e-02 1.000000000000000021e-02 1.000000000000000021e-02 1.000000000000000021e-02 1.000000000000000021e-02 1.000000000000000021e-02 1.000000000000000021e-02 1.000000000000000021e-02 1.000000000000000021e-02 1.000000000000000021e-02 1.000000000000000021e-02 1.000000000000000021e-02 1.000000000000000021e-02 1.000000000000000021e-02 1.000000000000000021e-02 1.000000000000000021e-02 1.000000000000000021e-02 1.000000000000000021e-02 1.000000000000000021e-02 1.000000000000000021e-02 1.000000000000000021e-02 1.000000000000000021e-02 1.000000000000000021e-02 1.000000000000000021e-02 1.000000000000000021e-02 1.000000000000000021e-02 1.000000000000000021e-02 1.000000000000000021e-02 1.000000000000000021e-02 1.000000000000000021e-02 1.000000000000000021e-02 1.000000000000000021e-02 1.000000000000000021e-02 1.000000000000000021e-02 1.000000000000000021e-02 1.000000000000000021e-02 1.000000000000000021e-02 1.000000000000000021e-02 1.000000000000000021e-02 1.000000000000000021e-02 1.000000000000000021e-02 1.000000000000000021e-02 1.000000000000000021e-02 1.000000000000000021e-02 1.000000000000000021e-02 1.000000000000000021e-02 1.000000000000000021e-02 1.000000000000000021e-02 1.000000000000000021e-02 1.000000000000000021e-02 1.000000000000000021e-02 1.000000000000000021e-02 1.000000000000000021e-02 1.000000000000000021e-02 1.000000000000000021e-02 1.000000000000000021e-02 1.000000000000000021e-02 1.000000000000000021e-02 1.000000000000000021e-02 1.000000000000000021e-02 1.000000000000000021e-02 1.000000000000000021e-02 1.000000000000000021e-02 1.000000000000000021e-02 1.000000000000000021e-02 1.000000000000000021e-02 1.000000000000000021e-02 1.000000000000000021e-02 1.000000000000000021e-02 1.000000000000000021e-02 1.000000000000000021e-02 1.000000000000000021e-02 1.000000000000000021e-02 1.000000000000000021e-02 1.000000000000000021e-02 1.000000000000000021e-02 1.000000000000000021e-02 1.000000000000000021e-02 1.000000000000000021e-02 1.000000000000000021e-02 1.000000000000000021e-02 1.000000000000000021e-02 1.000000000000000021e-02 1.000000000000000021e-02 1.000000000000000021e-02 1.000000000000000021e-02 1.000000000000000021e-02 1.000000000000000021e-02 1.000000000000000021e-02 1.000000000000000021e-02 1.000000000000000021e-02 1.000000000000000021e-02 1.000000000000000021e-02 1.000000000000000021e-02 1.000000000000000021e-02 1.000000000000000021e-02 1.000000000000000021e-02 1.000000000000000021e-02 1.000000000000000021e-02 1.000000000000000021e-02 1.000000000000000021e-02 1.000000000000000021e-02 1.000000000000000021e-02 1.000000000000000021e-02 1.000000000000000021e-02 1.000000000000000021e-02 1.000000000000000021e-02 1.000000000000000021e-02 1.000000000000000021e-02 1.000000000000000021e-02 1.000000000000000021e-02 1.000000000000000021e-02 1.000000000000000021e-02 1.000000000000000021e-02 1.000000000000000021e-02 1.000000000000000021e-02 1.000000000000000021e-02 1.000000000000000021e-02 1.000000000000000021e-02 1.000000000000000021e-02 1.000000000000000021e-02 1.000000000000000021e-02 1.000000000000000021e-02 1.000000000000000021e-02 1.000000000000000021e-02 1.000000000000000021e-02 1.000000000000000021e-02 1.000000000000000021e-02 1.000000000000000021e-02 1.000000000000000021e-02 1.000000000000000021e-02 1.000000000000000021e-02 1.000000000000000021e-02 1.000000000000000021e-02 1.000000000000000021e-02 1.000000000000000021e-02 1.000000000000000021e-02 1.000000000000000021e-02 1.000000000000000021e-02 1.000000000000000021e-02 1.000000000000000021e-02 1.000000000000000021e-02 1.000000000000000021e-02 1.000000000000000021e-02 1.000000000000000021e-02 1.000000000000000021e-02 1.000000000000000021e-02 1.000000000000000021e-02 1.000000000000000021e-02 1.000000000000000021e-02 1.000000000000000021e-02 1.000000000000000021e-02 1.000000000000000021e-02 1.000000000000000021e-02 1.000000000000000021e-02 1.000000000000000021e-02 1.000000000000000021e-02 1.000000000000000021e-02 1.000000000000000021e-02 1.000000000000000021e-02 1.000000000000000021e-02 1.000000000000000021e-02 1.000000000000000021e-02 1.000000000000000021e-02 1.000000000000000021e-02 1.000000000000000021e-02 1.000000000000000021e-02 1.000000000000000021e-02 1.000000000000000021e-02 1.000000000000000021e-02 1.000000000000000021e-02 1.000000000000000021e-02 1.000000000000000021e-02 1.000000000000000021e-02 1.000000000000000021e-02 1.000000000000000021e-02 1.000000000000000021e-02 1.000000000000000021e-02 1.000000000000000021e-02 1.000000000000000021e-02 1.000000000000000021e-02 1.000000000000000021e-02 1.000000000000000021e-02 1.000000000000000021e-02 1.000000000000000021e-02 1.000000000000000021e-02 1.000000000000000021e-02 1.000000000000000021e-02 1.000000000000000021e-02 1.000000000000000021e-02 1.000000000000000021e-02 1.000000000000000021e-02 1.000000000000000021e-02 1.000000000000000021e-02 1.000000000000000021e-02 1.000000000000000021e-02 1.000000000000000021e-02 1.000000000000000021e-02 1.000000000000000021e-02 1.000000000000000021e-02 1.000000000000000021e-02 1.000000000000000021e-02 1.000000000000000021e-02 1.000000000000000021e-02 1.000000000000000021e-02 1.000000000000000021e-02 1.000000000000000021e-02 1.000000000000000021e-02 1.000000000000000021e-02 1.000000000000000021e-02 1.000000000000000021e-02 1.000000000000000021e-02 1.000000000000000021e-02 1.000000000000000021e-02 1.000000000000000021e-02 1.000000000000000021e-02 1.000000000000000021e-02 1.000000000000000021e-02 1.000000000000000021e-02 1.000000000000000021e-02 1.000000000000000021e-02 1.000000000000000021e-02 1.000000000000000021e-02 1.000000000000000021e-02 1.000000000000000021e-02 1.000000000000000021e-02 1.000000000000000021e-02 1.000000000000000021e-02 1.000000000000000021e-02 1.000000000000000021e-02 1.000000000000000021e-02 1.000000000000000021e-02 1.000000000000000021e-02 1.000000000000000021e-02 1.000000000000000021e-02 1.000000000000000021e-02 1.000000000000000021e-02 1.000000000000000021e-02 1.000000000000000021e-02 1.000000000000000021e-02 1.000000000000000021e-02 1.000000000000000021e-02 1.000000000000000021e-02 1.000000000000000021e-02 1.000000000000000021e-02 1.000000000000000021e-02 1.000000000000000021e-02 1.000000000000000021e-02 1.000000000000000021e-02 1.000000000000000021e-02 1.000000000000000021e-02 1.000000000000000021e-02 1.000000000000000021e-02 1.000000000000000021e-02 1.000000000000000021e-02 1.000000000000000021e-02 1.000000000000000021e-02 1.000000000000000021e-02 1.000000000000000021e-02 1.000000000000000021e-02 1.000000000000000021e-02 1.000000000000000021e-02 1.000000000000000021e-02 1.000000000000000021e-02 1.000000000000000021e-02 1.000000000000000021e-02 1.000000000000000021e-02 1.000000000000000021e-02 1.000000000000000021e-02 1.000000000000000021e-02 1.000000000000000021e-02 1.000000000000000021e-02 1.000000000000000021e-02 1.000000000000000021e-02 1.000000000000000021e-02 1.000000000000000021e-02 1.000000000000000021e-02 1.000000000000000021e-02 1.000000000000000021e-02 1.000000000000000021e-02 1.000000000000000021e-02 1.000000000000000021e-02 1.000000000000000021e-02 1.000000000000000021e-02 1.000000000000000021e-02 1.000000000000000021e-02 1.000000000000000021e-02 1.000000000000000021e-02 1.000000000000000021e-02 1.000000000000000021e-02 1.000000000000000021e-02 1.000000000000000021e-02 1.000000000000000021e-02 1.000000000000000021e-02 1.000000000000000021e-02 1.000000000000000021e-02 1.000000000000000021e-02 1.000000000000000021e-02 1.000000000000000021e-02
-1.083871385659056870e+02 1.648514590690967339e+02 3.818903594242548394e+01 -8.577525962892169176e+00 -8.538332110587188595e+01 -1.300911338762337444e+01 -2.020617170921327954e+02 6.856425929346200432e-01 -8.230244029490461344e+01 -1.373931692230662449e+01 -1.928710486106657740e+01 6.361174494953962366e+00 -1.732311661127901470e+00 1.630477317709015779e+02 8.223724290661435532e+01 -3.771963352613472154e+01 -5.134631466951011447e+01 7.698062898843416235e+01 3.190432640292812394e+01 -2.466667971692181283e+01 -7.660958217559554839e+01 -7.170512946089377238e+01 -1.340367914203577726e+01 2.811706736136456897e+01 -1.894121106290792511e+02 -9.592878947433504777e+01 -2.535824127888588819e+01 1.959275256961285834e+02 6.876686682806878537e+01 7.459182096165523035e+01 7.803818076098056622e+01 1.147286284234795284e+00 -7.707908238678284363e+01 2.016511562400519892e+02 -2.379971435630208703e+02 5.722024728980962038e+01 -1.167166414138952177e+02 -3.371478479988242327e+01 3.924510915584717985e+00 1.231498333416818554e+02 -1.194282019475520400e+02 -1.324096480787577690e+01 7.515825291187925927e+01 1.687307420684899171e+02 6.932450771566676906e+01 -6.645384613748728952e+01 4.001848589935040934e+01 -2.759932961175443467e+01 -6.420605239787788321e+01 1.521811574923808337e+02 -6.851840487457002382e+01 -5.062793188587063753e+01 -1.354646164322478796e+02 5.650246710249193782e+00 -4.909947046332284515e+01 3.759235073734490129e+01 -8.624145732723235369e+01 -4.864421539008667850e+01 -9.856452667270805534e+01 -1.510987203767463711e+02 1.887664354265306343e+01 4.412803373405905205e+01 -1.196822892244001935e+02 1.249005277268705605e+01 -7.704260157508058171e+01 4.774902155208624777e+01 1.620091533895303826e+02 -1.402409797395987994e+02 -4.208224264997782882e+01 7.017155696395316333e+00 2.856937470091335474e+00 4.120630449635429216e+01 8.163404425677171616e+01 7.855795242158205571e-01 -8.586138675511772789e+00 -6.805278146617835944e+01 7.606013313148713451e+01 -3.180931531730950113e+01 2.557329492919366487e+01 1.011205594641375995e+02 8.573393932631483949e+01 -4.157652475532268710e+01 5.614776439707831202e+01 1.433118440931235398e+02 1.129734066333167846e+02 -3.885617465627449807e+00 1.693230497728454793e+02 -1.084163317811102587e+02 4.053738153224846208e+00 -4.076856728501304872e+01 2.010451208915008863e+02 -2.063134917218359377e+01 2.818296885431251564e+00 -7.464121158337326278e+01 -6.950455650740753555e+00 -6.203635566746181240e+01 6.589511249698369966e+01 -9.192251644785957865e+01 6.671619208589771688e+01 -4.643735294235595745e+01 -4.835817191684880356e+01 -8.911093571787795042e+01 5.158164217072607727e+01 -5.315707267771904299e+01 -1.451624688841656905e+02 -7.723507710370648738e+01 -1.016857586751607698e+02 -1.528404181651993952e+02 1.321334608953648058e+02 -2.668419828125207616e+01 3.115071046380786868e+01 8.716517025114966088e+01 -1.011374180501581037e+02 5.535870419436803047e+01 -4.210750859532424784e+01 -6.746761237134134603e+01 -8.761975073717273688e+01 1.975398674635922305e+02 -5.515465294234362403e+01 -4.813930514404161443e+01 -4.585341341550117988e+01 7.815201088440890942e+01 -4.026720952472869186e+01 1.341124730615066767e+02 -4.853493822251970613e+01 5.359718903488473529e+01 4.416595680122084033e+00 -7.882306209459237323e+01 6.686353006875071969e+01 2.696713806200170325e+02 -8.950297074927605934e+01 4.614935692306396930e+01 -7.415548720748556377e+01 4.398813293241568800e+01 1.275647541883357263e+02 -5.000322217373022937e+01 1.421333768424963040e+01 -2.620216878176704256e+01 -9.914327187334973246e+01 -1.687515901422716524e+01 4.188994704614030340e+00 -7.593911287680715105e+00 -1.452821911184300951e+01 1.149471150299808784e+02 1.268166698825695136e+02 1.813721353898920086e+02 -2.960494894841752966e+02 3.715856783768510496e+01 -1.534517741157380222e+01 -6.064417578675415399e+01 1.754577968134432524e+02 7.408285308133216063e+01 -2.547427202079584507e+00 -1.128062019681937898e+02 -1.058397959538882915e+01 9.740203611303844866e+01 -1.307533020290250079e+02 -1.640882363708822425e+02 1.045025896257552844e+01 4.128259445451699605e+01 -5.940972620470139276e+01 4.092183621896440826e+01 -1.042313997416987661e+02 -1.472912979662475550e+02 2.052922021586388723e+01 4.729478449274584051e+01 4.697713646573387081e+00 -8.124548873428828699e+01 -9.113296845760865494e+01 -8.207818681254413207e+01 -8.527645001156287208e+01 1.233609257721249541e+01 5.535206641363129165e+01 1.135245298366563986e+02 7.738775720813066528e+01 8.724502343152585127e+01 1.047720376185221340e+02 -7.289907441913543096e+01 -8.043693603552132743e+01 6.876637162264650271e+01 6.685557927917966481e+01 5.777194769927619689e+01 -9.152053387616211566e+00 -8.886207840192963658e+01 5.269513275421008558e+01 -1.748065329392808849e+02 6.559038971890861092e+01 -4.346411609259506292e+01 -9.417145186996593509e+01 7.249150169275860378e+01 -1.677017506569241334e+01 -7.534167551531292872e+01 -5.613778281616123422e+01 -8.967273177010664398e+00 2.373170702398759317e+02 7.523667846797734171e+01 5.365015104644130872e+01 -1.016204921993264350e+02 1.451086812122534297e+02 1.047687046815686474e+00 -8.846613791010021544e+01 1.525922626864508516e+02 -1.509604893031144002e+02 1.545647138534570786e+01 -3.185781200486310993e+01 -2.177121777323257277e+02 -1.320859790619622629e+02 -8.639556718075947117e+01 -2.910630033047874932e+01 -1.180780721288247435e+02 5.709269222072077810e+01 6.438504695129900313e+01 -2.734208928761354684e+01 -9.883739797888837586e+01 1.120254164288917025e+02 1.170551905783811719e+02 4.577665484011846075e+01 1.734307926128832733e+01 2.590263976784557372e+02 4.325720361699646332e+01 -1.184401126073151858e+02 -4.468437586600138189e+01 -1.673461051873173915e+02 3.159636979714361260e+01 1.519644211878122064e+02 -1.470252574863629604e+02 1.306212764162456779e+02 -9.020364780845478947e+01 -1.877757177439378822e+01 -8.000320178689037665e-01 5.244835656128181256e+01 -1.148021685646784107e+01 -2.264097102430709540e+01 -1.866949791869443587e+01 -1.257681361419913486e+02 4.603198819146820853e+01 -3.010099568197009035e+01 -1.282397114089810053e+01 -1.064007350156004428e+01 2.242476724947249238e+02 1.729381470581531914e+02 2.308753291213287753e+02 1.308103847387560563e+02 -8.592730974677827760e+01 7.459566849539362465e+01 2.099019120620149792e+01 4.717346557841801769e+01 -3.937672689350269195e+01 2.535326654245840530e+02 -2.314876516708632082e+01 -1.357429900151481377e+02 -1.483283531737777139e+01 -4.551209794427551714e+01 -7.682335953661815608e+01 4.284542132913881574e+01 -1.162848778031450081e+01 1.806212643247659457e+02 9.168554475771605894e+01 4.058756702027668695e+01 9.729833229415775975e+01 9.395750010489226156e+01 -2.282576040039058896e+01 1.386649545073807701e+02 2.634824863918976945e+01 8.899557083434513061e+01 4.736227988255383536e+01 6.877250078997063198e+00 -1.149670394364039367e+02 -1.150879918221395286e+02 -8.943809567988900255e+01 -1.545953398197292117e+01 8.611968247337595983e+01 -3.042220660720850489e+01 9.822711451758966916e+01 4.353438762372830695e+01 -7.224117250507087817e+01 -2.974531118869557744e+01 -5.819718908530957435e+01 1.745286105696496293e+01 -4.598760611296302159e+01 -1.113020416166343125e+02 1.207045055706293368e+02 1.205454045381251547e+02 -7.845492137380145437e+01 5.363822306210555446e+00 -4.502958405555322940e+01 -3.234797535311994210e+01 -1.126636535787178950e+01 -3.103661373015804514e+01 4.420164476662628772e+01 -1.396418582950716711e+02 -5.250519025603946233e+01 -1.508213724846743844e+02 1.729142366198525167e+02 -2.004249895147789573e+01 5.848843969156146017e+01 1.182148193494754551e+01 1.433355701071108399e+02 4.427585006543147017e+01 3.543228132246663620e+01 1.532085618929000930e+02 -4.888313163042658971e+01 -9.687395634116271026e+01 2.700360564456532586e+01 -1.567573620086475330e+02 -5.298004248022483154e+01 1.015033654450281659e+02 -1.265206258059108961e+02 -3.605676323481490186e+01 9.052275673327251582e+01 -9.364556030009411813e+01 -8.869819055547252162e+01 -8.192480924242605056e+01 -6.323330765845866352e+01 2.469312513910880682e+02 1.964639732889269794e+02 1.020623516365354817e+02 -1.012847082942948589e+02 7.416232589295249511e+01 -6.560717391334395643e+01 -3.112279266955611234e+01 1.646360567731734292e+01 -3.196735926023394825e+01 -9.283967737055979796e+01 -2.777244576416992405e+00 1.460886088171982777e+01 1.077305167640911208e+02 -1.272053841194457817e+02 4.154238837804822282e+01 6.311290132411614451e+01 3.414955576604929632e+01 -8.965789663745269422e+01 -1.469425784921354818e+02 1.910503547444101287e+02 -1.760618725445369748e+01 2.490696008916227200e+01 1.548231721959969889e+02 2.635724810487520386e+01 2.740991599349895225e+01 -4.402973101784841958e+01 8.756827434263512089e+01 -1.347098738342407955e+02 -3.042609799069167664e+01 -6.063834386661867804e+00 -5.273950596313333250e+01 6.222820750134401280e+00 2.099039020871573413e+01 -3.534278159337039682e+01 1.349483424444946600e+01 2.110263949229881746e+02 -2.705502034623588870e+01 -2.764905534364810080e+01 -1.003553537902317743e+02 -1.614772908880550251e+00 -7.969295331307513663e+01 6.292162555514043909e+00 1.106249563676158800e+02 -5.133787845730108046e+01 5.961959951226139864e+00 -5.358811017301380986e+01 3.269819307288413412e+00 8.603432960364351345e+01 -1.143041893527146726e+02 -9.554654068414396306e+01 -1.012110790064920991e+02 7.039132200671765816e+01 8.539263465057034352e+01 -9.098807190148568225e+01 6.179931699533320000e+01 2.548891036597189341e+01 3.816414828990637176e+01 -1.750184879713572528e+01 9.011813871242597429e+01 7.861187563335333550e+01 -7.619719293504776658e+01 1.163550914272542514e+01 7.976630650485873275e+01 7.184250905892228900e+01 -1.963646058854722654e+01 2.461967306969072311e+01 -1.307729825932083259e+02 4.787153981562754979e+01 -3.232979637928384165e+01 -3.223442042397623197e+01 1.707947766430155809e+02 4.676309028376541477e+01 1.185374664741237751e+02 1.883345073573025559e+02 -1.357715852448252178e+02 1.470345382660089513e+02 -6.257257378719768326e+01 -1.332762302812668906e+02 8.117467943471774561e+01 -1.321933795845027646e+02 -2.831724336457655156e+01 5.561674895955145104e+01 7.936099669887637376e+00 -1.658457213500923615e+02 8.310145729655891955e+01 2.488845996820744944e+01 6.812909788436294889e+01 3.580313898057922728e+01 9.334809610931051438e+00 -6.618294086552101874e+01 1.140999929926979064e+02 5.373697591808279839e+01 -6.125356846412723399e+01 -9.983709196603339819e+01 3.836981706161510886e+01 2.536968224304576580e+01 8.125940286654915212e+01 1.812420768080757512e+02 -2.427387934438790396e+01 -1.086276002199569177e+02 -8.350155622361725705e+01 -5.060146334531449952e+01 -4.370991035182924378e+01 -1.446719231632366700e+02 -2.221119204378470258e+01 1.277163618683626822e+02 7.348649744161734532e+01 -1.206561519652058081e+02 -1.478271190945299054e+02 -6.712816305300620456e+01 -7.524472234379936708e+01 1.447598517703869447e+02 -1.680784122860691241e+02 8.535490704430287678e+01 -4.542179989483032365e+00 -4.243397215852419180e+01 1.310106346309901681e+01 8.986140141679237558e+01 4.885720281745690130e+01 1.362590029259302185e+02 -1.568987097970979789e+02 -7.982839087276829559e+01 2.501639853863670737e+01 4.133601416543547202e+01 2.032033368237688933e+02 1.434104233365489733e+02 6.462278176239303207e+01 7.108404518466353750e+01 -3.358616917516514633e+01 1.496486206372397589e+02 -1.768321424996814812e+02 -6.252687693099981914e+01 -5.291944864723826925e+01 -5.105759224256070894e+01 -1.017907324355585530e+02 -1.478346290082826187e+01 -6.765539038400633842e+01 7.014959643440796810e+01 -9.013286520222731468e+00 -5.723143295586551460e+01 -6.134233238868176130e+01 1.776167999188483009e+02 5.819675490317615640e+01 -1.353945473543311628e+01 2.059037344308233628e+02 -1.068041634605005328e+02 -3.482066788065244367e+01 6.600506620829133908e+01 -1.349761230304814819e-01 1.476000905690325027e+01 -1.233230513479272190e+02 1.736552932730484144e+02 -4.824425344620664191e+01 -2.651264861487899438e+01 -1.080972246050875469e+02 1.240005715204133026e+02 9.443100295936993405e+01 -7.635789459425467385e+01 -3.706287954392286110e+01 3.838071747537293987e+01 -1.491067371630745981e+02 -1.874376297379279632e-01 -7.357166968751954528e+01 7.568554279867099943e+00 -1.064449114769250713e+02 -1.561007866393432550e+02 -6.959795049434765701e+01 1.458893209547111383e+02 5.566856794492005633e+01 -8.823674248187387548e+01 8.775826117780415814e+01 3.367122393269895042e+01 8.694620100652937822e+01 -4.144765350652280489e+01 -8.272532532406435735e+01 1.682815322059563243e+02 4.096002800647089970e+01 2.847473885758414269e+01 -7.179295223172444196e+01 -4.161729400337938500e+01 9.361627606255243705e+00 -7.053760273036184358e+00 -1.699602985520113521e+02 -3.404039845418201793e+01 6.332338826692285494e+01 1.096973513819299484e+02 1.530881789411946841e+02 -1.305835555495456468e+01 8.808182470655864904e+01 1.550113584677982317e+02 6.230487754033899250e+01 1.451032112426388210e+02 1.578219732646630469e+01 1.289711537492660227e+02 -8.243592080134921218e+01 5.237095619091449095e+01 2.877112027283325801e+01 7.445175035035923372e+01 -1.042272980633018591e+02 1.943225628680194461e+02 -1.262524646110714599e+02 8.662296622008284430e+01 -1.052951482896728805e+02 4.526156802232051746e+01 1.353492562131789967e+01 8.888404198041318693e+01 -7.216915268547184326e+01 -7.397903762403447558e+01 -1.091087220282345349e+01 8.725686676794641983e+01 -2.897726323569896323e+01 -1.595736305596226146e+01 -1.921737604982957492e+01 4.634891632730824718e+00 9.601339434845176868e+01 -6.117754979552948669e+01 -2.645556056921065213e+00 -1.893913830029440248e+02 1.191137439222046766e+02 -1.218552147795307548e+02 -7.207665083572797471e+01 -2.295332878915347052e+01 -1.053243619923342749e+02 -5.185522541715112510e+01 -5.715993412657514483e+01 -1.921131068634351635e+01 1.329061091055191923e+02 5.273908007726974745e+01 9.795778274142568876e+01 -1.327645292322737873e+02 -1.351753779093930063e+02 -2.796392064561088091e+02 9.968237998942734635e+01 1.016766684711189583e+02 4.128158379012531753e+01 -4.142767189958792073e+01 -3.626224502987219012e+01 -1.791740499609115602e+02 1.425144231722557890e+02 -1.047794146649408020e+02 1.043446909691170106e+02 -1.552978165148163896e+02 -1.396930878970481871e+01 -5.402365964233219842e+01 -1.163491770387124973e+02 -4.497971190718843104e+01 -1.223286951973338610e+01 -9.041795265132715542e+01 -1.009475533656390098e+02 -1.206007419343080578e+01 6.945493950232301472e+01 -1.215845422000878102e+02 -1.527039855979886163e+01 -7.196072519374514798e+01 -1.282254180211276378e+02 6.443975050865678789e+00 9.280702117470906387e+01 1.615477705458704634e+02 -1.859969577637964733e+01 -4.494298370358234251e+01 -1.212019937434762369e+02 -1.597283037184506327e+02 1.013349810174252497e+02 -7.101363946074948785e+01 7.712340023352066964e+01 9.176794207429033179e+00 2.852935738383673581e+01 7.210936914616388549e+01 -8.277832897261252754e+01 8.075499470707789840e+01 1.125996086880939799e+02 1.538418597795350991e+02 -1.138275099238400685e+02 1.015539842281453531e+02 -4.668167023656689452e+01 -8.870718023542784181e+01 2.096560681016619299e+02 4.808226582255876025e+01 8.154981994648686339e+01 2.073219959626076303e+01 -6.181335399735466041e+01 -3.413165512471051954e+01 -2.055528926790728974e+02 1.032126595758803518e+02 7.961415220601647036e+01 -7.395817945057983422e+01 -7.143726214048368206e+01 1.418533578934727473e+02 9.874344990342567030e+01 4.994579539964516357e+01 7.431920931115313067e+01 -7.673729507145984563e+00 1.008203744603392380e+02 -1.012003120959465576e+02 1.820762144821148354e+02 -3.857653686793649683e+01 -1.192053115119365287e+02 -3.683888461558378680e+01 7.009435181808775894e+01 1.439494320816381787e+02 1.256380245534792728e+01 1.698333811702851222e+02 5.098937934336405675e+01 3.286225387740029902e+01 -1.087520938406531030e+02 4.375612734041605023e+01 -1.221248707532101889e+02 4.662013485672793678e+01 3.769929747841955958e+01 -1.205444904848151566e+02 -8.308802497331308246e+01 3.894270707078619864e+01 8.525020369704542134e+00 -2.267883099608380348e+01 4.092152697541858686e+01 -2.091147038981461748e+01 -6.164208443926413850e+01 -2.562405405302663652e+01 -2.190873634538262849e+01 -3.890652825853761954e+01 1.833475458383204781e+01 -7.867953299501246534e+01 1.162123270253603238e+02 -7.257596563534251288e+01 -4.118441843271489766e+00 6.410464372319661663e+01 3.788291561053086287e+00 1.559656442062832404e+01 1.560276256883232193e+01 -1.144247844640069900e+02 -4.306941253780447454e+00 6.355020044237532062e+01 -2.261046566283084474e+02 -8.293211011236377317e+01 -1.101013200788131030e+02 4.278993083914711093e+01 9.399693609203990263e+01 -8.964927672749058729e+01 -1.640116341392885033e+02 -1.809106651710232256e+02 1.949565501663874301e+01 -1.415593817706538005e+02 -6.179613092638522431e+00 1.441219565723560265e+02 -6.908421307104429587e+00 3.623402401838212938e+01 -9.644942347307630826e+01 7.784742786295873884e+01 -1.155113419870422575e+02 -1.503221337348581876e+01 -2.949125592800932338e+01 5.606951283666452213e+01 -8.607312725377987306e+00 1.028250067193490906e+02 -1.187609001410716161e+02 -4.870950519773284526e+01 8.424809436275617713e+01 6.430188145272821032e+01 -8.000085837901779939e+01 -5.286993154204280643e+01 -4.796856640930390370e+01 -2.810450785406260934e+02 1.879034437191851339e+02 7.384279950735194120e+01 -2.287618954067703214e+01 -2.878882046936578831e+01 4.028723578612148515e+01 -8.157066093763970116e+01 9.648329024640555929e+01 5.863292402556767513e+01 7.940843807915069874e+01 -8.148806237078262882e+01 -2.568083410048264170e+01 3.227598365513190970e+01 1.683529960641843104e+01 -4.149724320801934141e+01 1.529704347473697226e+02 -1.673415940872911278e+01 3.428564422427132996e+01 -2.225381901415309756e+02 -8.195383522704375423e+01 -7.079766501002592349e+01 2.228717966919887772e+01 1.056655766588984164e+02 -2.242826450514735939e+02 -1.810094787386032920e+02 2.144772670938435510e+02 -1.022373471834460368e+01 9.293920992020439087e+01 6.062314259325125931e+01 -5.355182054695416838e+01 -1.267577100270750350e+02 -9.207859849649805994e+01 -4.862205321803306646e+01 -3.620151135770083783e+01 -3.789220674493044072e+01 1.561433519239152368e+01 3.599727834959886508e+01 1.614544040437840238e+02 1.192534353642872134e+02 6.758909033372285435e+00 -4.263976391350184691e+00 -1.536058401946960998e+02 1.157751190689850489e+02 1.541380514659719836e+02 -1.001052971474729532e+02 7.133350644748172442e+01 1.650144204004043047e+00 5.315405689590318161e+01 1.213217701053235800e+02 6.864499559715252985e+01 -1.297109056051310461e+02 1.559867186553557161e+01 -2.843831128670707997e+01 1.078557152904694760e+01 -2.236322206474858731e+01 4.387873349343030327e+01 -2.522807624371748432e+02 1.753844679467393064e+02 7.037394540676347177e+00 1.543570997660548016e+02 -1.019267193486676248e+01 1.028197502243247499e+02 6.938585541546615332e+01 -4.066498328347329050e+01 2.901323225633001002e+01 -7.057834618541728844e+01 -8.626362994889343838e+01 -6.984363287951038046e+01 -3.108036129786096069e+01 4.379719753994003639e+01 1.068270030960687649e+02 2.761132480323753668e+01 6.029642893932563652e+01 -1.016979608194551332e+02 -1.330527719439648706e+02 -1.308307847724582906e+01 4.500823344884398836e+01 -4.410691371602415956e+01 9.180509510575731724e+01 5.391432203752703600e+01 -2.683075113939703016e+01 2.906834163458319154e+01 5.960208926518640027e+01 -6.999787566138317629e+01 -1.298382975357145597e+02 1.379482931469759421e+02 7.587214068086684193e+00 4.870004854068491795e+01 -1.450553227704875781e+02 -5.189566991443778221e+01 -4.260365160990445266e-01 -6.395186021347061711e+01 4.142576216093033281e+00 5.473480534815719523e+01 1.813003430770535829e+02 3.805673712747781678e+01 -1.065878945440249481e+01 7.028297374700586886e+01 -4.423787925292575096e+01 -1.060400158326332729e+02 -1.344774351387814590e+02 9.113921465960636681e+00 2.444555400493289810e+01 2.320132920797409426e+01 -5.539009034996088587e+01 1.176634289911075797e+02 -7.872851954546308662e+01 1.250105212154437595e+02 8.504948817467771960e+01 -6.337789419497959642e+01 -8.260146879334482151e+01 8.208442267688727156e+01 1.991365229816807059e+01 -5.120665263456396588e+01 -5.249792750509372752e+01 1.333613625515021681e+02 5.592148357249099888e+01 7.796342825278547650e+01 2.551060702320675233e+01 -4.103242558728395295e+01 1.048336384748293710e+02 -5.326314067950683295e+01 5.514090021630306815e-01 7.472670406260633058e+01 9.724862236458474740e+01 2.495395614450625885e+02 -1.711186009168660007e+02 1.571999217598041696e+02 -6.599889832357031594e+01 -1.488394558715128113e+01 -2.454518461590872747e+01 -2.026259637599966013e+01 -5.388616634580513676e+01 9.092391146297731552e+01 1.799893175369701055e+02 -1.161905976939522986e+02 3.026586859345876590e+01 -1.242015098760503378e+02 6.871791580505255581e+01 -4.354737915396086834e+01 -7.936601858281888155e+01 -5.282046616197885669e+01 4.037697305879613907e+01 1.898924190001072176e+01 -8.017907094706319526e+01 -1.383483752308355577e+02 2.037217638116071328e+01 1.546815261188460795e+02 1.402503120710998274e+01 1.791762030330370692e+02 7.323718595756302463e+00 1.322528276137577450e+02 -3.398668338113723308e+01 8.919107149500129594e+01 -7.022718508220589229e+01 -1.110178595831171435e+02 4.862049600337043387e+01 -5.705935822276116909e+01 -7.727611337209745557e+01 7.171256510192833389e+01 6.368493110193103490e+00 -9.282722605899910207e+01 -1.483048957298086066e+02 1.457296240915136138e+02 -8.787400972036628843e+01 -2.332553314763762931e+00 1.183996453752709641e+02 5.720690864266819631e+01 -9.687117696152593282e+01 1.050515514879187329e+01 2.783035805813861430e+02 5.260608659873471993e+01 -1.556968080973334168e+02 -4.712413185256243509e+01 -6.073413558586090488e+01 9.500516984215046534e+00 1.062677191309649203e+02 -1.022660589793060808e+02 2.133455702251754715e+01 1.289717664585684531e+02 1.855933051417095569e+01 -2.088905908426935696e+02 4.776174149002787317e+01 7.465082000741203672e+01 -1.344181637980434907e+01 3.242977262954966022e+01 1.649939825600073018e-01 2.230338210928200837e+01 2.743509033497955585e+01 1.145883537812995314e+02 9.699219579887058273e+01 1.544675639960873781e+01 1.474264552267201509e+02 -6.333746902857001260e+01 2.440290573781786918e+02 6.435063157359149955e+01 1.402325227262236638e+02 -2.173482008889313377e+01 8.913468017374377439e+01 -4.844282860985028805e+01 -1.448590999252890299e+02 2.589627806992669079e+01 9.402394545635469569e+01 -8.667426584359705544e+01 -1.036688070063712104e+02 -6.585938026549730751e+01 3.624008820330398351e+01 -1.130333763233155082e+02 7.394490871047430858e+01 2.776129127185282286e+01 -9.662266782910424467e+01 1.879967964444612392e+02 -1.164239556139119003e+01 -1.007425010344781242e+02 -1.327281406257762342e+01 -2.022995206902237797e+01 -1.388098573924765446e+02 -3.961964446158084741e+01 6.089379143069694322e+01 1.304705426202023375e+02 2.874859072829491424e+01 2.647867770668602461e+01 4.433953033187383141e+01 -3.536574793878570233e+01 -1.441590191639493241e+02 1.572719838668962566e+01 3.065242277986299868e+01 1.317906381391389914e+02 -9.799781068475830637e+00 -7.537127807614568553e+01 7.247442265517582882e+01 9.698434366054325961e-01 3.152108402928334030e+01 1.378518689258043537e+02 -1.757339145318334772e+02 -9.194196822266043512e+01 1.235038115819563416e+02 -2.075633261424810598e+02 -1.769400732650048269e+02 8.757354875364954694e+01 1.481610796555998775e+02 6.101206061779427614e+01 -4.302495922624680169e+00 1.498340882504082572e+02 -2.112083220357456241e+02 1.030960991802509739e+02 4.077221005883421157e+01 1.222598756279344343e+02 -1.814460541688743831e+02 1.024719616216080880e+02 -2.716821556517711400e+01 -1.286266938851912585e+02 -5.121099578766672877e+00 -8.889164668474116127e+01 -1.562310074693708906e+01 -4.171680717935054794e+00 -1.185265470214389296e+02 -1.186464101784521290e+02 -6.019650045296835117e+01 -1.240246671761419464e+02 1.933670623602166927e+02 -1.549971406111050101e+02 -4.827795341810151797e+01 1.660041232275063692e+02 3.264524307525343971e+01 -2.847791473789941392e+02 -1.223078500235479993e+02 3.415968773617581888e+01 5.258940228497775848e+01 8.228055206051548609e+00 -1.487408459129376865e+02 3.433370982502405155e+01 7.214971356277079195e+00 -7.151325787939767054e+01 1.950512508123936470e+02 1.948988930414587628e+02 4.180619995579454518e+00 -2.006450497836289628e+02 1.212064827040476302e+02 2.958789161688916636e+01 3.657726218358021253e+00 7.368950405446446439e+01 -1.996230135301707378e+02 -1.327902622807368971e+02 1.356757469710302928e+02 1.054965714395488448e+02 5.090225376901501875e+01 1.377594763894761911e+02 -1.715066340413480361e+02 -1.968449119144582227e+01 -1.254626036640745212e+02 4.199689118687508227e+01 -9.993513338605797003e+01 8.376704741815112243e+01 -3.262810451366274123e+01 1.191536154929407409e+01 1.707126331081268518e+02 2.745738082777829447e+01 -2.535784128670497921e+02 -1.215941294027566073e+02 -8.018384830799756458e+01 1.521138155788485733e+02 1.206383925889437059e+01 -5.183334951073148034e+01 2.918231850690323625e+01 6.012123109470933002e+01 -3.805325996760005580e+01 1.034348892444653814e+02 -9.692473470419774628e+01 4.734717001929040947e+01 1.076876374266792595e+02 -3.416148228257843300e+01 -9.440453153785691143e+01 -1.091514656346181766e+02 1.152200804260477582e+02 -4.779604278020934771e+01 1.890975311799875556e+02 5.503598216220800765e+01 1.067386323928788698e+02 1.774954187646218315e+02 8.232206543665990139e+00 -1.195923201034117511e+02 -1.594469092914221164e+02 -1.098392939605036105e+02 4.089164686510394375e+01
-1.277609729860721544e+01 -4.549394385930001228e+00 9.730345778771106779e+01 -2.152339818031792333e+02 1.460519562914304856e+02 5.966579161903856487e+01 1.429735257988415071e+02 -1.213792958153015604e+02 -2.601157571332921581e+00 -2.261085654350807062e+01 -2.062566692986445389e+02 3.073800348056507303e+01 -1.721377707458776030e+01 1.149331258729232275e+02 -1.175572603842496022e+02 5.799103639122345299e+01 1.177203246796539560e+02 -4.318219333747713762e+01 -4.660244940101347311e+01 -2.536051010322398369e+01 5.800324259443769392e+01 5.926356970481845821e+01 3.047667997240166571e+01 -2.184675042679756700e+02 -4.845308924210131352e+01 8.601931974548493542e+01 9.314165723671512964e+00 -9.750400019507834415e+00 -6.250311209716752359e+01 -1.456032794056398494e+01 6.890634197242881953e+01 -1.366145300666899800e+02 -5.820644939026972509e+01 8.429568050187377537e+00 1.950266777636952611e+02 1.992376491812484005e+02 -3.019352997939087757e+01 5.250503952965219412e+01 -2.452903873099675780e-01 -1.311975055517752651e+02 9.016346833653567217e+01 1.007327260499442474e+02 1.019448573713481636e+02 1.097000582194534779e+01 5.813548342953062331e+01 4.520543375765297611e+01 3.652394975265846000e+01 2.758285494788018966e+01 1.036024238407507454e+02 8.427452888267001185e+01 6.160719536693748921e+01 1.531261906894332014e+02 2.327969054066758758e+02 1.837445384831392232e+02 -5.555810481052481720e+01 4.628434001312385249e+01 -6.037365549083919802e+01 5.297407336273940359e+01 -1.805587340822139879e+02 5.307745411795801260e+01 -1.923475139708456254e+02 -1.585028916054328363e+02 1.216808347920213862e+01 -8.702740557779218733e+00 1.592556978772831826e+02 -1.953883408888821691e+02 7.071695734921935639e+01 2.159408377973623203e+02 -6.940447116856091725e+00 -1.830160255147356168e+02 3.338518260583027342e+01 1.852615409719300033e+02 -5.741737087528409944e+01 -2.504576052106895361e+02 -9.637191378867237290e+01 8.366035333616945735e+00 -2.162079932441338883e+02 3.015132975491934886e+01 -1.686482733554989579e+02 -1.743972670423016211e+02 -5.373890490711847434e+01 1.432861375867667562e+02 6.529149686915945949e+01 9.981802807666415589e+00 -8.337002934826254830e+01 -4.005562757678718810e+01 5.993259420944590943e+01 -2.183193263219071980e+02 5.088181772983989504e+01 -7.049100024271886866e+01 -7.350358469562353037e+01 -1.663146632085182262e+02 6.118125753372331133e+01 8.721437302105472611e+01 -1.527098942944554381e+02 1.625810849928124924e+02 -3.752290101230303776e+01 -1.592211492427188801e+01 8.247422365988784065e+01 1.471322526750924453e+02 2.046233787120155867e+01 1.425511048456158676e+02 -1.741777445404368052e+01 -8.537756768107516336e+01 -1.845577911421561623e+01 9.513583056626298173e+01 4.353126508037174602e+01 9.469520719722645197e+01 9.136111958316597281e+01 -8.043289197616742570e+01 -1.644801798927048537e+02 1.191161561018394650e+02 5.250984872898627742e+01 1.571231561251533471e+01 2.959686064192448995e+01 -6.576059611485104028e+01 9.297204247593396076e+01 8.700664924800868505e+01 -1.328811239965530788e+01 -6.899752906150716569e+01 2.973405506480525062e+01 6.085959269211192790e+00 -5.954579902121444945e+01 1.642345779656894251e+02 -3.179194810937437410e+01 1.177825700021267039e+02 -6.789680465569288970e+01 3.718747065088387416e+01 -3.494589920790843962e+01 8.669694352710889973e+01 2.274221735866366956e+01 1.119962468173613530e+02 -1.124356008252765946e+02 7.205016998209217149e+01 1.196601019206821803e+02 -4.331747865396375374e+01 7.410024736571731552e+00 -1.237711370246789322e+01 1.132439185861651083e+02 3.531249273719068604e+00 1.634893761312036418e+02 -1.371238057786055720e+02 1.131186889768872845e+02 -8.852581001903105573e+01 9.292034129789655594e+01 -1.329477258762992449e+02 2.862694691704955474e+01 2.401646851196300148e+01 1.729853949279489767e+00 3.523613484461638024e+01 4.463109742088344944e+01 -1.201892019156173497e+01 1.056663748526506552e+01 1.049142809244504377e+02 1.235078277439121166e+02 -8.417128641315999005e+01 -5.259304764153350220e+01 4.595001560984106703e+01 1.474161697097741364e+00 -1.330134961326353107e+02 -5.354300976371656162e+01 -3.439313897957809019e+01 4.748890366308750544e+01 -6.364560476617058526e+01 2.225776282655847282e+01 1.558211180845466401e+02 -7.720403603095226686e+01 7.855963884744474512e+01 8.170871060892189064e+01 1.095926327390112576e+01 1.200231400302951954e+02 6.114985001398071063e+01 1.634376600790241127e+02 -3.366766057679302548e+01 1.093963156252048350e+02 5.406596151996382105e+01 -1.563297667583519690e+01 1.987108716895953364e+02 -1.351235826106066895e+02 4.761406818870840141e+01 -1.827083305660059693e+02 -8.199955159490187384e+01 3.999292549435016042e+01 -7.037832830336792256e+01 -1.518679657078331218e+02 1.943258725081341254e+02 -8.363566033462225846e+01 -4.631342591224248650e+01 -4.512911312068287373e+01 1.187416668261817279e+02 1.899719647609111632e+02 6.315734161475242558e+01 1.426624668496815218e+02 2.141060700408164337e+02 -1.560711997956747199e+00 1.589062767274233181e+02 6.915799795886019297e+01 1.857625315878402716e+02 -1.227466490180883767e+02 -1.154959569216959459e+01 6.201658694228423307e+00 1.853216155057835692e+02 -8.864959556219689318e+01 -5.905085717139557033e+01 -5.164889517466294677e+01 -1.307675446529276257e+02 4.558317327658666152e+00 -9.847701279332444813e+01 1.504286069730999316e+02 2.297518048765938303e+01 1.169982133964950322e+01 7.055073838568752365e+01 -4.794139329426701401e+00 1.141620430348719708e+02 -1.550252816272029577e+02 4.432512250463664571e+01 -1.666539505480543255e+02 1.145776478695590725e+02 9.376638174850712915e+01 -6.565448242398430523e+01 4.566489723223552488e+01 2.323708777240215966e+02 -2.973545117731018195e+01 4.064126553828646848e+01 -3.188815549312445441e+01 5.653984913474536000e+01 6.270477173065860654e+01 -6.132352311485286478e+00 9.942039422298040563e+01 9.899029011526403110e+01 -1.891495274827598507e+02 -1.495034788244489334e+02 -1.169212514862638557e+02 -9.198656958318659704e+00 -1.461083493772073041e+02 1.127281327663908854e+02 1.076314297337405321e+02 5.756012857903778013e+01 1.089161083908836858e+01 1.538098099848866127e+02 8.190000309427986735e+01 6.585395417076959745e+01 -9.910120500917226138e+01 1.486721225946984362e+02 -3.514356849180538589e+00 1.066627917059748967e+02 8.604191257861915076e+00 3.583485136406919480e+01 -7.380926963894923176e+01 -8.848430174649122648e+01 6.980688077214378495e+01 -3.767126866678779606e+00 1.425429306949417878e+02 -1.224263140832516328e+01 -2.772975628344727550e+00 4.470073816222545560e+01 2.205472688808302806e+01 1.378331538725584551e+02 1.431585121772670099e+01 3.494053290318953486e+01 -1.507241464490268186e+02 6.412781587841661235e+01 1.301928996725505385e+02 -1.713994833806670570e+01 -2.220380443991294044e+02 8.217425405860068111e+01 1.324746687410127493e+02 1.980996782977806703e+01 1.837290070080169926e+02 -4.136520402645158967e+00 4.164201858026017078e+01 -4.235252026125517943e+01 -1.345268599503075961e+02 5.435223780676388827e+01 -4.605123316160103997e+01 -7.853718456853641783e+01 3.996323460303854347e+01 -1.790700402776081432e+02 6.943035168952690128e+01 1.593038774674863021e+02 -9.803865180531931856e+01 1.675385028756919610e+02 -9.450302943455763227e+01 -5.773880304205732727e+00 -1.020563840392544463e+01 7.417253445830495195e+01 -4.510766932567218390e+01 -1.042614899953371719e+02 -8.568247745010850736e+01 1.409770223606982142e+02 5.714873611177015533e+01 -1.274176462256636455e+02 4.271613937822303697e+00 4.194824866587754997e+01 7.975870834933162712e+01 -3.895710511659642350e+01 5.790480000513279890e+01 -6.661015063670744496e+01 -1.567420547814199381e+02 -3.343268136046638261e+01 1.360890611904031857e+02 -1.094770186804312999e+02 -6.166759194371850938e+00 -1.571877759797511942e+02 -4.670891275268333587e+00 -1.407767370722196745e+02 3.178482546433510336e+01 5.810108765184055812e+01 -4.854935436865570608e+01 -7.945315355243600663e+01 5.441072551980769667e+00 7.175361177714229655e+01 -6.535004175485683220e+01 1.298508688100120878e+02 1.017658932195811019e+02 -1.230354581049584510e+02 -1.016443174387301553e+02 1.301682110686328713e+02 6.870598077240562418e+01 1.447039143341615102e+02 9.634845326939453969e+01 7.813977174556205796e+01 -5.804015789951549209e+01 -7.869795934479525101e+01 -7.416551383575226453e+01 1.968004912373265540e+02 2.944264191814306031e+01 -2.397173438617662100e+01 -6.588175147980685153e+01 -4.802358915193071454e+01 -1.261866465703938189e+02 -1.583049808170869532e+01 -1.681210056158952284e+02 1.197905789803793510e+02 4.405269193229668190e+01 -1.103822521100026961e+02 -4.637339142648353629e+01 1.147086955013683820e+02 -9.284785691909912941e+01 9.851465225341650012e+01 -1.134949885321654222e+02 -1.128240613777848012e+01 -9.148389118443022028e+01 8.596310677921970012e+01 -4.068180555587414204e+01 9.833679637332378931e+00 2.811300711641487737e+01 -1.212849208350909720e+02 1.196917643053291869e+01 4.632291176034514990e+01 -2.140264949622394752e+01 -6.582610983993579623e+01 1.939844706049890135e+02 8.278492996040975527e+01 4.509771486012111552e+01 -3.007259322308468441e+01 7.678839026090560083e+01 1.604639159282007199e+02 -8.829821946488416984e+01 2.005416330929615185e+02 -1.274250372687296249e+02 -1.760506779766514853e+02 1.453001022604710784e+02 -2.239723290987091957e+02 -9.078845634004970577e-01 -2.344597441581420298e+02 -1.463440378131693080e+02 6.870371921740731125e+01 -1.393701156744349703e+02 5.587028516042101955e+01 1.052527268183544749e+02 -1.534677833012857491e+02 -2.880461185816533387e+01 7.219072240825856568e+01 1.281789578789213806e+02 -1.781584018472546518e+02 8.375318707671023333e+01 -9.377623663887526106e+01 -9.427866016930984472e+00 -1.325969749851133628e+01 -7.615691829982117156e+01 -8.642109788543362470e+01 1.736077227293393150e+02 -2.078313166787895838e+01 1.293603204505258786e+00 1.246863170153378491e+02 -8.304654043771425620e+01 -3.296807819139912255e+01 -1.031380417433505272e+02 -4.676543037893832633e+01 4.931437802626838618e+00 5.687177305032307117e+01 -1.294979219181345513e+02 2.275000945489959179e+02 -5.170458063143931327e+01 1.177014384215385832e+02 -4.687747796195203165e+01 1.150186124501054223e+02 1.336751849533399366e+02 4.606099960197379062e+01 1.172913645605396482e+02 -4.154078742505889466e+01 1.345263291414594562e+02 -1.504312506921462784e+02 -6.287103248751319740e+01 -6.054291788191444823e+01 2.459259131139273435e+01 -1.560544706848766339e+02 6.975467656488946488e+01 -2.966032114010013387e+01 -7.947497565083375548e+01 8.615067462480703853e+01 -1.453273850635964095e+02 -8.774463695295585808e+01 -5.064216815571389674e+01 3.180851231481769048e+01 1.248468438003493191e+02 1.123664496988019863e+02 6.645218538989313117e+01 -1.499375355141933097e+00 1.682334331624667811e+02 1.178477987815855812e+02 -9.087811463415353330e+01 -7.512548425420365561e+01 5.304173541358768063e+01 9.564320439084140091e+00 9.423359202604301288e+01 1.603735288868549276e+02 6.789979478044564587e+01 2.351209367044616982e+01 -9.831129903666602843e+01 1.651898300134117505e+02 -1.093037239153357802e+02 -1.589191668343827359e+02 6.320078888411248386e+01 1.072060860086069738e+02 1.889422656285039537e+01 -1.334783041067388751e+02 2.855740934791199592e+01 4.075872976999561814e+01 -3.504964963153625601e-01 1.258345426171075303e+02 9.395311489123233173e+01 1.644372581953704682e+01 7.527223312940057554e+01 -1.027418678535025833e+02 -6.117697952503505121e+00 9.447415089340331917e+01 2.852353012469401961e+01 -6.245813445484142790e+01 1.902261586460974456e+02 2.219539793453087384e+02 -1.204797395911799072e+02 -2.653402465626711759e+01 -2.017784630416563800e+02 -6.929602493033287658e+01 1.502891202939214566e+02 3.228408583947052879e+00 -6.813864417706857068e+01 1.571730645676121298e+02 -5.996541703177323512e+01 -1.541345633682282710e+02 1.310439015223989827e+02 -6.446349122613116833e+01 3.312162039425919602e+01 8.282414615936977498e+01 1.323331775250176356e+01 -2.285573236399831671e+02 4.060212407265787959e+01 -5.924865741109959671e+00 8.644453409936711807e+01 -2.260513535791235995e+01 9.696721097710812387e+01 1.630537684821254985e+01 -8.121922099581404098e+01 -1.964909191223254581e+01 -1.680745552744538145e+02 1.102697314373969277e+02 2.424927585476099168e+01 -3.990893533309856167e+01 -4.967501826820656419e+01 -6.034417056195203344e+01 3.944532112087377840e+01 1.541111140841566964e+02 1.272517870468065695e+02 4.127523215686178304e+01 -1.897514844064060071e+02 -3.720425540590831304e+01 4.202702195783179207e+01 1.125046651478121476e+02 8.360562563965757477e+01 1.480115757239417995e+01 -1.783787366943476513e+02 1.262591976878644147e+02 -2.145544422973672738e+02 -1.973582872318292516e+02 -1.750801076208631235e+00 -7.073702432003457830e+01 -2.313646631730588865e+01 8.353807907162105550e+01 5.362074696322848411e+01 -1.066162385744424768e+02 -1.452501542124426237e+02 1.398024237718843210e+01 1.186059481193735792e+02 1.981633304067661427e+01 -5.437890851335513531e+01 -4.953701614342350723e+01 -1.122111370263982977e+01 1.547451358978987059e+02 2.144369424838288651e+01 -1.695923549611112264e+02 1.253011541926106389e+02 -6.525188923364008531e+01 -4.074173155658170842e+00 1.503375374209507243e+02 -5.103502657213890359e+01 -1.913030497958014564e+01 -1.072442990192240160e+02 -5.856768098906016462e+00 -2.327926047993482683e+01 1.285461052531597943e+02 1.172111660493763878e+02 6.597694102046560261e+01 6.389931363429142408e+01 -1.826195282511995899e+01 1.319524678842294918e+02 -1.100955858646971137e+02 -4.152157476227891664e+00 -8.888890672840136631e+01 1.533494469114905030e+02 7.119671183688325300e+01 5.043639476241801134e+01 8.052931144276660902e+00 -5.203946094434930103e+01 3.356232922104584304e+01 6.562571406125116802e+00 3.573394621340271637e+00 2.352344453319595630e+01 5.834901834548614374e+01 1.661968536479512011e+02 -3.793767342854381752e+01 -5.073019370087658331e+01 6.519795524190421077e+01 1.128986074071909798e+02 -1.250995019258196095e+01 8.975871041189515154e+01 1.016115930335714523e+02 2.057514599052836104e+02 -8.446517883822640727e+01 -1.197279423476053495e+02 -2.795979025542315455e+01 6.067623205169596190e+01 -9.904877517627163286e+00 1.048259196682291474e+02 3.635328565395357714e+01 -1.586960481051665113e+02 4.396332037784261360e+01 -8.728977386244083903e+01 -1.320050723284216190e+02 1.312291130878374190e+02 -7.419644575335418324e+01 5.773504542125355954e+01 1.084304175313174312e+02 -9.654983273496704044e+01 2.292435531449759623e+01 -7.035093496599209573e+01 3.928768432400554644e+01 -1.117888595622842445e+02 6.006237567789019494e+01 5.331480080251418485e+01 3.771896417421340519e+00 8.190657325453715032e+01 -1.490075343340572829e+02 7.442700208879861634e+01 -2.857059921217197740e+01 -1.634676610484966375e+02 9.145076798339565016e+01 2.375640773538487949e+01 -1.897567976346797138e+02 2.276616978883728848e+02 -5.215252032842370156e-01 1.017505730825025125e+02 -1.166830509491551595e+02 -1.878981256406748628e+02 -9.029256892629085485e+01 2.420893191977096404e+00 1.382351110382648187e+02 3.835242571591275684e+00 -9.247833986256804906e+01 4.871891817101854372e+01 1.325970579240561733e+02 6.285618896885429763e+01 -5.004257640421105435e+01 -5.722910640197542875e+01 8.176194545001638403e+01 2.972074052839564828e+01 -1.892435064866142795e+02 -2.005771040079448753e+01 1.635394785775228570e+02 9.558824476895964040e+01 -5.548026916952957777e+01 -1.081763631751711898e+02 -4.128604131685924017e+01 -4.652172189072604169e+01 -1.107345422618865456e+02 -1.783883874090049559e+01 -4.417661502951120411e+01 -1.099335490953612577e+02 -1.276471185518228424e+02 -2.608420502829326537e+01 -1.216025580000776927e+02 -1.294976635812409427e+02 -3.708831578603334833e+01 -5.353183769242038892e+01 -1.074298717022226981e+02 1.865942040856710662e+02 1.054663554395171055e+01 -2.819405370203740802e+01 -1.703863170083864631e+01 7.885582972702474081e+01 1.568577410064903255e+01 2.510662741779792739e+01 -2.129247779927116468e+01 -4.639531958896741770e+01 2.095961316436949673e+01 -1.457274652381194926e+02 -1.595605076591695592e+02 -9.059514164293145200e+01 -1.912962966423062596e+02 -8.981997306832369077e+01 8.596682083550132347e+01 6.153453688465621241e+01 -2.611096261764386028e+01 6.090988136075023363e+01 -1.569524686658637336e+02 -4.097615104795407603e+01 -1.164193193173517358e+02 -6.690411676501267380e+01 2.114898920810537390e+02 -2.057701165744935565e+02 2.057461243950527887e+02 2.502383749373679223e+01 -5.657997965807414431e+01 9.242279319737920673e+01 1.243716844509427517e+02 -5.200851203120512878e+01 -2.042458459536158841e+02 -1.494466109363618500e+02 1.025244625327757433e+02 8.395551626218632180e+01 -1.358860993637392767e+02 3.201052784355612602e+01 -3.978174647789965945e+01 -7.758492092740424084e+01 -2.849460061461437022e+01 -5.494387020013054013e+01 -8.662560420138206041e+01 -3.414149743587890384e+01 4.531305856063977622e+00 -3.274121963428103754e+01 -3.723684903403697843e-01 -1.435432824489160453e+01 9.215929530517155399e+01 1.274156541120376716e+02 1.319092821778188629e+01 1.684197761992976083e+01 -6.329207825447992519e+01 -1.965300057659825370e+02 3.392884585722813284e+01 -9.193482442609392535e+01 2.590260588714338752e+01 -8.148493536843096408e+00 1.058196876233137296e+00 7.253582322237694768e+01 1.221828305374906165e+02 -7.065399647685913465e+01 3.808990636042552325e+01 -1.933609667002024253e+02 9.708735894882554618e+00 6.957201767112632496e+00 -1.228564685976319169e+02 -3.379241526038662613e+01 -4.443469720363590625e+01 4.775581666251863311e+00 -1.024880085680931217e+02 2.711570693815022537e+01 -9.787630836988969918e+01 5.619529350934054435e+01 6.803276576853106405e+01 3.698500078553463766e+01 -2.908438966977183426e+01 1.077297414895393644e+02 6.123803033794067119e+01 8.018955641997776240e+01 -6.716013484626833474e+01 2.030368595168703294e+01 1.281590551097640116e+02 -5.861769671277060922e+01 -6.932515780640852832e+00 3.205186612291386439e+01 -1.286830823760843714e+02 9.799843562146996589e+01 8.974549174674967844e+01 -1.013594013482206435e+02 -8.249534440761487986e+01 -5.563193188199188199e+01 -4.570032741462156878e+01 -1.604870073134403015e+02 -1.361135536212671298e+02 -1.326836574932465851e+02 1.058124355842245450e+02 5.988271681086808229e+01 1.597355520583401756e+02 7.214375479808625258e+00 -8.579075971740745388e+01 1.877366753623775253e+01 1.384108390612805017e+01 -6.361173183476618931e+01 7.410843372284291775e+01 1.181401100852097414e+02 9.970258888841945222e+00 1.434400995482406529e+02 2.250304410916526976e+01 1.109896279749487036e+02 1.507798044673637605e+01 -2.078331009590633016e+02 2.184125206720824792e+02 -4.894036878164318694e+01 -1.490771255164580964e+02 -6.718458587080719724e+01 -4.286052361693690926e+01 4.120758748265576799e+01 2.547385132143895703e+01 4.552839140898611703e+01 -7.368583340443687746e+01 1.216881939037392897e+02 -8.575412606215660105e+01 -6.969821941064195947e+00 1.415072831576687804e+02 1.088548464047085815e+02 5.762050891855783163e+01 -1.757290895410719429e+02 2.523821367652437431e+01 1.392777932340871700e+02 2.323409422104848687e+01 9.674320459329666733e+01 1.054579029416403273e+02 -2.094722510588316027e+02 7.617175690558450185e+01 -5.717166447882306812e+01 -2.225899736128237407e+02 8.752891553697672578e+01 2.427759427096651734e+01 -1.200580975180206593e+02 -5.753428848033355791e+01 1.361681270599956690e+02 1.445858549103870985e+02 -7.423746719929442861e+01 -1.249397138727735808e+02 -8.147287596174520274e+01 -1.617935289754964572e+02 1.907589444327272687e+01 3.695468873350237970e+01 -1.653076155414380466e+01 -1.203776004531587596e+01 -8.694793053539396510e+01 -8.569766822660997718e+01 -2.390720995238554636e+01 1.294422614492168577e+02 1.315090898155474122e+02 7.825329756741056997e+01 9.360261049251370480e+01 -7.563086318660334939e+01 -1.737630285563016628e+02 -1.269102744264821681e+01 -2.221463080650538302e+01 -6.820372485603967050e+01 1.427272462838688583e+00 7.012907056078438472e+01 -5.079312648916523187e+01 2.370482580377297310e+01 7.601268228248511605e+01 6.729359222653971528e+01 1.061123609825798439e+02 -1.431802540917182114e+02 3.804489875983672675e+01 7.996950082548929117e+01 9.095506028828641831e+01 5.668094596422957210e+01 -9.909163970097591800e+01 1.314287969379151662e+02 1.223635456994890944e+02 9.200167884810744567e+01 9.746062719133914243e+01 -8.083173140263592416e+01 -1.426473502455032971e+01 -1.242634969971934744e+01 7.394883473361109338e+01 6.236507656052664572e+01 5.376141444904858702e+01 9.364889960475210273e+01 1.118266931319925277e+02 1.189667519941104672e+02 -6.224568207200345427e+01 7.737438547660127597e+01 6.261443824086778420e+01 -1.129411022566092271e+02 1.263281808310136114e+02 -9.624583222121573911e+00 -2.681177493651324184e+01 1.913749573742612995e+02 8.499290892028486155e+01 1.192211976382024687e+02 -1.386780244050698343e+02 -1.516218135725138723e+02 -1.476982820411363946e+02 -1.174106479207808889e+02 -4.257206823388551697e+01 1.055484426934277877e+02 -1.622179877062382332e+02 3.127041678485787202e+01 1.388788522062585002e+02 -5.711793875333062687e+01 -8.791678245406944825e+01 -3.382129548621486492e+01 1.308132869592680834e+02 2.188890242630929492e+02 -6.424037240465081311e+01 1.909722254479235914e+01 -2.667137046034460468e+01 6.600880593812560448e+01 5.806068732673428912e+01 -2.055544070654192694e+02 -8.548928918880602623e+01 1.326738090255578015e+02 1.348157696806565582e+02 9.117883684792249710e+01 -4.807255464567702319e+01 -7.311730626457031690e+01 -4.378579728884208322e+01 -1.703802544899044449e+02 6.864897675469788396e+01 -2.475651754489819822e+01 1.605859636271597992e+02 -2.697172347059597186e+01 -3.037224705335660815e+02 1.398667547153773683e+02 4.850368854606951885e+01 -1.138933119260071720e+02 -2.141501156345709589e+01 3.409206110735127737e+01 -2.005870253254853139e+02 -1.103650932137872047e+02 -1.059044233405906112e+02 -5.448006615857229917e+01 6.065403676248205045e+01 -1.592601069923566968e+02 1.042447890413796614e+02 -5.248520359079767417e+01 2.826299583428498963e+00 -1.289211176496346809e+02 -1.001718696638408659e+02 1.699398922383095396e+02 8.375988501169523204e+01 -4.081928403644924686e+01 3.590848118504618469e+01 -2.711176717152071447e+01 4.185375969142247499e+01 -1.011458717380407819e+02 9.563245533876732907e+01 4.882189856215113366e+01 -1.149670062257963821e+02 1.128969262976700065e+02 -4.749440419579749317e+01 9.661473684761119785e+01 -4.777423810199525889e+01 8.546991124891542313e+01 -1.483702237524001646e+02 1.380571262408927566e+02 2.395386944420519271e+01 9.738382723809736774e+01 1.261856946243576800e+02 -1.419007633596736468e+02 -8.312309507011630672e+01 -1.022222642650328197e+02 6.471039208616059568e+01 -1.658348708159838623e+02 1.466700938232099816e+02 1.377899743276395270e+02 5.127687557359016068e+01 -8.218212448792395719e+01 5.524276670219502705e+01 -1.039110571369510154e+02 -1.058096692540573258e+01 3.385747442643127414e+01 -1.779044424032248628e+02 -7.898088688649420419e+01 -1.310566612824682231e+01 9.895835879537187907e+01 -4.863380913950346240e+01 1.053231553703129748e+02 -6.230266940769353567e+01 -2.041860299585716234e+02 -1.037451223087526415e+02 -3.297309876094142567e+01 -5.830541005288127820e+01 2.915107569306060498e+01 4.982732852333830920e+01 6.140564061823432063e+00 2.459906414383366879e+01 -1.137514019801798923e+02 5.223073121117786144e+01 3.164106071294199651e+01 -6.996052390142318700e+01 8.999816831071001388e+00 5.467258153769538609e+01 -9.252636988457274470e+01 -5.344006633529539130e+01 -2.344610768747271123e+01 9.465672679662202427e+01 -1.662068623753138752e+01 4.070789957488723410e+00 -2.213519098195792196e+02 -9.220874615000901997e+01 9.601953080288492970e+01 -8.654296668867569053e+01 3.041290660434008331e+01 3.014439319868657208e+01 3.679256497752525945e+01 6.414220309736793979e+01 -1.722597823130522556e+02 1.397744743763137194e+02 7.916146540953077704e+01 -7.317608901508931396e+00 -7.844998706601442962e+01 1.086158333963395535e+02 6.029356098094614680e+01 -1.952851908745344076e+02 -4.891315308748652058e+01 -7.934314139063894800e+01 -5.030774129976366993e+01 -6.011774439246712376e+01 -9.614819454270293875e+01 -5.861497385322003595e+01 1.859967514372638107e+02 -1.658214925215784206e+02 6.358013854868574555e+01 2.694664224151958010e+01 -7.302533837972418951e+01 1.009741353045915346e+01 -3.830167205774622374e+01 3.339165763876269732e+00 -9.338911898352992580e+01 -1.919066913613976624e+02 1.786811340444852192e+01 4.069590512390013259e+01 -1.242905444458810571e+01 -8.711441696586600614e+00 -3.864104903076838582e+01 -1.844770734404300185e+02 -2.975870492214707852e+01 -6.349116139367819756e+01 1.354202057218216559e+01 -1.517123933178658035e+01 8.800964077178633715e+01 -6.124422011258640453e+01 -1.007376045185752247e+02 -3.468615330458256096e+01 -8.726745723734788740e+00 4.415614397035680838e+01 -2.149256984399071868e+01 -7.171990808217543645e+01 -1.543162124246325817e+01 1.947769761575385772e+01 4.615861492280898659e+01 -1.107673135056454470e+02 -1.350996721234722315e+02 2.238617597151048528e+02 -2.121478313853327506e+02 -7.379338890913849980e+01 -4.502025025168454420e+01 1.359237010270484518e+02 6.150134251919561024e+01 2.225127665413551199e+02 2.379116814417698720e+02 -6.061587136696591216e+01 1.258268619218312665e+02 -5.446043910830214685e+01 -3.968137908893051957e+01 -9.780988693526114730e+01 -7.761024244257555438e+01 -6.760340306739031746e+01 -8.653881999623870058e+01 -2.369870156439411346e+02 -2.632929325473519384e+02 1.309258984209241419e+02 -2.580192378098006500e+01 5.178670816269377042e+01 1.272664457026888840e+02
