# 
#                 ----------------------------------------------------
#                 Data from a 3D direct N-body simulation. 
# 
#                 rows are i-particle; 
#                 coumns are :mass, tag, x ,y, z, vx, vy, vz, ax, ay, az
# 
#                 NTHU, Computational Physics Lab
# 
#                 ----------------------------------------------------
#                 Time = 1.8000000000000014
1.000000000000000000e+00 2.000000000000000000e+00 3.000000000000000000e+00 4.000000000000000000e+00 5.000000000000000000e+00 6.000000000000000000e+00 7.000000000000000000e+00 8.000000000000000000e+00 9.000000000000000000e+00 1.000000000000000000e+01 1.100000000000000000e+01 1.200000000000000000e+01 1.300000000000000000e+01 1.400000000000000000e+01 1.500000000000000000e+01 1.600000000000000000e+01 1.700000000000000000e+01 1.800000000000000000e+01 1.900000000000000000e+01 2.000000000000000000e+01 2.100000000000000000e+01 2.200000000000000000e+01 2.300000000000000000e+01 2.400000000000000000e+01 2.500000000000000000e+01 2.600000000000000000e+01 2.700000000000000000e+01 2.800000000000000000e+01 2.900000000000000000e+01 3.000000000000000000e+01 3.100000000000000000e+01 3.200000000000000000e+01 3.300000000000000000e+01 3.400000000000000000e+01 3.500000000000000000e+01 3.600000000000000000e+01 3.700000000000000000e+01 3.800000000000000000e+01 3.900000000000000000e+01 4.000000000000000000e+01 4.100000000000000000e+01 4.200000000000000000e+01 4.300000000000000000e+01 4.400000000000000000e+01 4.500000000000000000e+01 4.600000000000000000e+01 4.700000000000000000e+01 4.800000000000000000e+01 4.900000000000000000e+01 5.000000000000000000e+01 5.100000000000000000e+01 5.200000000000000000e+01 5.300000000000000000e+01 5.400000000000000000e+01 5.500000000000000000e+01 5.600000000000000000e+01 5.700000000000000000e+01 5.800000000000000000e+01 5.900000000000000000e+01 6.000000000000000000e+01 6.100000000000000000e+01 6.200000000000000000e+01 6.300000000000000000e+01 6.400000000000000000e+01 6.500000000000000000e+01 6.600000000000000000e+01 6.700000000000000000e+01 6.800000000000000000e+01 6.900000000000000000e+01 7.000000000000000000e+01 7.100000000000000000e+01 7.200000000000000000e+01 7.300000000000000000e+01 7.400000000000000000e+01 7.500000000000000000e+01 7.600000000000000000e+01 7.700000000000000000e+01 7.800000000000000000e+01 7.900000000000000000e+01 8.000000000000000000e+01 8.100000000000000000e+01 8.200000000000000000e+01 8.300000000000000000e+01 8.400000000000000000e+01 8.500000000000000000e+01 8.600000000000000000e+01 8.700000000000000000e+01 8.800000000000000000e+01 8.900000000000000000e+01 9.000000000000000000e+01 9.100000000000000000e+01 9.200000000000000000e+01 9.300000000000000000e+01 9.400000000000000000e+01 9.500000000000000000e+01 9.600000000000000000e+01 9.700000000000000000e+01 9.800000000000000000e+01 9.900000000000000000e+01 1.000000000000000000e+02 1.010000000000000000e+02 1.020000000000000000e+02 1.030000000000000000e+02 1.040000000000000000e+02 1.050000000000000000e+02 1.060000000000000000e+02 1.070000000000000000e+02 1.080000000000000000e+02 1.090000000000000000e+02 1.100000000000000000e+02 1.110000000000000000e+02 1.120000000000000000e+02 1.130000000000000000e+02 1.140000000000000000e+02 1.150000000000000000e+02 1.160000000000000000e+02 1.170000000000000000e+02 1.180000000000000000e+02 1.190000000000000000e+02 1.200000000000000000e+02 1.210000000000000000e+02 1.220000000000000000e+02 1.230000000000000000e+02 1.240000000000000000e+02 1.250000000000000000e+02 1.260000000000000000e+02 1.270000000000000000e+02 1.280000000000000000e+02 1.290000000000000000e+02 1.300000000000000000e+02 1.310000000000000000e+02 1.320000000000000000e+02 1.330000000000000000e+02 1.340000000000000000e+02 1.350000000000000000e+02 1.360000000000000000e+02 1.370000000000000000e+02 1.380000000000000000e+02 1.390000000000000000e+02 1.400000000000000000e+02 1.410000000000000000e+02 1.420000000000000000e+02 1.430000000000000000e+02 1.440000000000000000e+02 1.450000000000000000e+02 1.460000000000000000e+02 1.470000000000000000e+02 1.480000000000000000e+02 1.490000000000000000e+02 1.500000000000000000e+02 1.510000000000000000e+02 1.520000000000000000e+02 1.530000000000000000e+02 1.540000000000000000e+02 1.550000000000000000e+02 1.560000000000000000e+02 1.570000000000000000e+02 1.580000000000000000e+02 1.590000000000000000e+02 1.600000000000000000e+02 1.610000000000000000e+02 1.620000000000000000e+02 1.630000000000000000e+02 1.640000000000000000e+02 1.650000000000000000e+02 1.660000000000000000e+02 1.670000000000000000e+02 1.680000000000000000e+02 1.690000000000000000e+02 1.700000000000000000e+02 1.710000000000000000e+02 1.720000000000000000e+02 1.730000000000000000e+02 1.740000000000000000e+02 1.750000000000000000e+02 1.760000000000000000e+02 1.770000000000000000e+02 1.780000000000000000e+02 1.790000000000000000e+02 1.800000000000000000e+02 1.810000000000000000e+02 1.820000000000000000e+02 1.830000000000000000e+02 1.840000000000000000e+02 1.850000000000000000e+02 1.860000000000000000e+02 1.870000000000000000e+02 1.880000000000000000e+02 1.890000000000000000e+02 1.900000000000000000e+02 1.910000000000000000e+02 1.920000000000000000e+02 1.930000000000000000e+02 1.940000000000000000e+02 1.950000000000000000e+02 1.960000000000000000e+02 1.970000000000000000e+02 1.980000000000000000e+02 1.990000000000000000e+02 2.000000000000000000e+02 2.010000000000000000e+02 2.020000000000000000e+02 2.030000000000000000e+02 2.040000000000000000e+02 2.050000000000000000e+02 2.060000000000000000e+02 2.070000000000000000e+02 2.080000000000000000e+02 2.090000000000000000e+02 2.100000000000000000e+02 2.110000000000000000e+02 2.120000000000000000e+02 2.130000000000000000e+02 2.140000000000000000e+02 2.150000000000000000e+02 2.160000000000000000e+02 2.170000000000000000e+02 2.180000000000000000e+02 2.190000000000000000e+02 2.200000000000000000e+02 2.210000000000000000e+02 2.220000000000000000e+02 2.230000000000000000e+02 2.240000000000000000e+02 2.250000000000000000e+02 2.260000000000000000e+02 2.270000000000000000e+02 2.280000000000000000e+02 2.290000000000000000e+02 2.300000000000000000e+02 2.310000000000000000e+02 2.320000000000000000e+02 2.330000000000000000e+02 2.340000000000000000e+02 2.350000000000000000e+02 2.360000000000000000e+02 2.370000000000000000e+02 2.380000000000000000e+02 2.390000000000000000e+02 2.400000000000000000e+02 2.410000000000000000e+02 2.420000000000000000e+02 2.430000000000000000e+02 2.440000000000000000e+02 2.450000000000000000e+02 2.460000000000000000e+02 2.470000000000000000e+02 2.480000000000000000e+02 2.490000000000000000e+02 2.500000000000000000e+02 2.510000000000000000e+02 2.520000000000000000e+02 2.530000000000000000e+02 2.540000000000000000e+02 2.550000000000000000e+02 2.560000000000000000e+02 2.570000000000000000e+02 2.580000000000000000e+02 2.590000000000000000e+02 2.600000000000000000e+02 2.610000000000000000e+02 2.620000000000000000e+02 2.630000000000000000e+02 2.640000000000000000e+02 2.650000000000000000e+02 2.660000000000000000e+02 2.670000000000000000e+02 2.680000000000000000e+02 2.690000000000000000e+02 2.700000000000000000e+02 2.710000000000000000e+02 2.720000000000000000e+02 2.730000000000000000e+02 2.740000000000000000e+02 2.750000000000000000e+02 2.760000000000000000e+02 2.770000000000000000e+02 2.780000000000000000e+02 2.790000000000000000e+02 2.800000000000000000e+02 2.810000000000000000e+02 2.820000000000000000e+02 2.830000000000000000e+02 2.840000000000000000e+02 2.850000000000000000e+02 2.860000000000000000e+02 2.870000000000000000e+02 2.880000000000000000e+02 2.890000000000000000e+02 2.900000000000000000e+02 2.910000000000000000e+02 2.920000000000000000e+02 2.930000000000000000e+02 2.940000000000000000e+02 2.950000000000000000e+02 2.960000000000000000e+02 2.970000000000000000e+02 2.980000000000000000e+02 2.990000000000000000e+02 3.000000000000000000e+02 3.010000000000000000e+02 3.020000000000000000e+02 3.030000000000000000e+02 3.040000000000000000e+02 3.050000000000000000e+02 3.060000000000000000e+02 3.070000000000000000e+02 3.080000000000000000e+02 3.090000000000000000e+02 3.100000000000000000e+02 3.110000000000000000e+02 3.120000000000000000e+02 3.130000000000000000e+02 3.140000000000000000e+02 3.150000000000000000e+02 3.160000000000000000e+02 3.170000000000000000e+02 3.180000000000000000e+02 3.190000000000000000e+02 3.200000000000000000e+02 3.210000000000000000e+02 3.220000000000000000e+02 3.230000000000000000e+02 3.240000000000000000e+02 3.250000000000000000e+02 3.260000000000000000e+02 3.270000000000000000e+02 3.280000000000000000e+02 3.290000000000000000e+02 3.300000000000000000e+02 3.310000000000000000e+02 3.320000000000000000e+02 3.330000000000000000e+02 3.340000000000000000e+02 3.350000000000000000e+02 3.360000000000000000e+02 3.370000000000000000e+02 3.380000000000000000e+02 3.390000000000000000e+02 3.400000000000000000e+02 3.410000000000000000e+02 3.420000000000000000e+02 3.430000000000000000e+02 3.440000000000000000e+02 3.450000000000000000e+02 3.460000000000000000e+02 3.470000000000000000e+02 3.480000000000000000e+02 3.490000000000000000e+02 3.500000000000000000e+02 3.510000000000000000e+02 3.520000000000000000e+02 3.530000000000000000e+02 3.540000000000000000e+02 3.550000000000000000e+02 3.560000000000000000e+02 3.570000000000000000e+02 3.580000000000000000e+02 3.590000000000000000e+02 3.600000000000000000e+02 3.610000000000000000e+02 3.620000000000000000e+02 3.630000000000000000e+02 3.640000000000000000e+02 3.650000000000000000e+02 3.660000000000000000e+02 3.670000000000000000e+02 3.680000000000000000e+02 3.690000000000000000e+02 3.700000000000000000e+02 3.710000000000000000e+02 3.720000000000000000e+02 3.730000000000000000e+02 3.740000000000000000e+02 3.750000000000000000e+02 3.760000000000000000e+02 3.770000000000000000e+02 3.780000000000000000e+02 3.790000000000000000e+02 3.800000000000000000e+02 3.810000000000000000e+02 3.820000000000000000e+02 3.830000000000000000e+02 3.840000000000000000e+02 3.850000000000000000e+02 3.860000000000000000e+02 3.870000000000000000e+02 3.880000000000000000e+02 3.890000000000000000e+02 3.900000000000000000e+02 3.910000000000000000e+02 3.920000000000000000e+02 3.930000000000000000e+02 3.940000000000000000e+02 3.950000000000000000e+02 3.960000000000000000e+02 3.970000000000000000e+02 3.980000000000000000e+02 3.990000000000000000e+02 4.000000000000000000e+02 4.010000000000000000e+02 4.020000000000000000e+02 4.030000000000000000e+02 4.040000000000000000e+02 4.050000000000000000e+02 4.060000000000000000e+02 4.070000000000000000e+02 4.080000000000000000e+02 4.090000000000000000e+02 4.100000000000000000e+02 4.110000000000000000e+02 4.120000000000000000e+02 4.130000000000000000e+02 4.140000000000000000e+02 4.150000000000000000e+02 4.160000000000000000e+02 4.170000000000000000e+02 4.180000000000000000e+02 4.190000000000000000e+02 4.200000000000000000e+02 4.210000000000000000e+02 4.220000000000000000e+02 4.230000000000000000e+02 4.240000000000000000e+02 4.250000000000000000e+02 4.260000000000000000e+02 4.270000000000000000e+02 4.280000000000000000e+02 4.290000000000000000e+02 4.300000000000000000e+02 4.310000000000000000e+02 4.320000000000000000e+02 4.330000000000000000e+02 4.340000000000000000e+02 4.350000000000000000e+02 4.360000000000000000e+02 4.370000000000000000e+02 4.380000000000000000e+02 4.390000000000000000e+02 4.400000000000000000e+02 4.410000000000000000e+02 4.420000000000000000e+02 4.430000000000000000e+02 4.440000000000000000e+02 4.450000000000000000e+02 4.460000000000000000e+02 4.470000000000000000e+02 4.480000000000000000e+02 4.490000000000000000e+02 4.500000000000000000e+02 4.510000000000000000e+02 4.520000000000000000e+02 4.530000000000000000e+02 4.540000000000000000e+02 4.550000000000000000e+02 4.560000000000000000e+02 4.570000000000000000e+02 4.580000000000000000e+02 4.590000000000000000e+02 4.600000000000000000e+02 4.610000000000000000e+02 4.620000000000000000e+02 4.630000000000000000e+02 4.640000000000000000e+02 4.650000000000000000e+02 4.660000000000000000e+02 4.670000000000000000e+02 4.680000000000000000e+02 4.690000000000000000e+02 4.700000000000000000e+02 4.710000000000000000e+02 4.720000000000000000e+02 4.730000000000000000e+02 4.740000000000000000e+02 4.750000000000000000e+02 4.760000000000000000e+02 4.770000000000000000e+02 4.780000000000000000e+02 4.790000000000000000e+02 4.800000000000000000e+02 4.810000000000000000e+02 4.820000000000000000e+02 4.830000000000000000e+02 4.840000000000000000e+02 4.850000000000000000e+02 4.860000000000000000e+02 4.870000000000000000e+02 4.880000000000000000e+02 4.890000000000000000e+02 4.900000000000000000e+02 4.910000000000000000e+02 4.920000000000000000e+02 4.930000000000000000e+02 4.940000000000000000e+02 4.950000000000000000e+02 4.960000000000000000e+02 4.970000000000000000e+02 4.980000000000000000e+02 4.990000000000000000e+02 5.000000000000000000e+02 5.010000000000000000e+02 5.020000000000000000e+02 5.030000000000000000e+02 5.040000000000000000e+02 5.050000000000000000e+02 5.060000000000000000e+02 5.070000000000000000e+02 5.080000000000000000e+02 5.090000000000000000e+02 5.100000000000000000e+02 5.110000000000000000e+02 5.120000000000000000e+02 5.130000000000000000e+02 5.140000000000000000e+02 5.150000000000000000e+02 5.160000000000000000e+02 5.170000000000000000e+02 5.180000000000000000e+02 5.190000000000000000e+02 5.200000000000000000e+02 5.210000000000000000e+02 5.220000000000000000e+02 5.230000000000000000e+02 5.240000000000000000e+02 5.250000000000000000e+02 5.260000000000000000e+02 5.270000000000000000e+02 5.280000000000000000e+02 5.290000000000000000e+02 5.300000000000000000e+02 5.310000000000000000e+02 5.320000000000000000e+02 5.330000000000000000e+02 5.340000000000000000e+02 5.350000000000000000e+02 5.360000000000000000e+02 5.370000000000000000e+02 5.380000000000000000e+02 5.390000000000000000e+02 5.400000000000000000e+02 5.410000000000000000e+02 5.420000000000000000e+02 5.430000000000000000e+02 5.440000000000000000e+02 5.450000000000000000e+02 5.460000000000000000e+02 5.470000000000000000e+02 5.480000000000000000e+02 5.490000000000000000e+02 5.500000000000000000e+02 5.510000000000000000e+02 5.520000000000000000e+02 5.530000000000000000e+02 5.540000000000000000e+02 5.550000000000000000e+02 5.560000000000000000e+02 5.570000000000000000e+02 5.580000000000000000e+02 5.590000000000000000e+02 5.600000000000000000e+02 5.610000000000000000e+02 5.620000000000000000e+02 5.630000000000000000e+02 5.640000000000000000e+02 5.650000000000000000e+02 5.660000000000000000e+02 5.670000000000000000e+02 5.680000000000000000e+02 5.690000000000000000e+02 5.700000000000000000e+02 5.710000000000000000e+02 5.720000000000000000e+02 5.730000000000000000e+02 5.740000000000000000e+02 5.750000000000000000e+02 5.760000000000000000e+02 5.770000000000000000e+02 5.780000000000000000e+02 5.790000000000000000e+02 5.800000000000000000e+02 5.810000000000000000e+02 5.820000000000000000e+02 5.830000000000000000e+02 5.840000000000000000e+02 5.850000000000000000e+02 5.860000000000000000e+02 5.870000000000000000e+02 5.880000000000000000e+02 5.890000000000000000e+02 5.900000000000000000e+02 5.910000000000000000e+02 5.920000000000000000e+02 5.930000000000000000e+02 5.940000000000000000e+02 5.950000000000000000e+02 5.960000000000000000e+02 5.970000000000000000e+02 5.980000000000000000e+02 5.990000000000000000e+02 6.000000000000000000e+02 6.010000000000000000e+02 6.020000000000000000e+02 6.030000000000000000e+02 6.040000000000000000e+02 6.050000000000000000e+02 6.060000000000000000e+02 6.070000000000000000e+02 6.080000000000000000e+02 6.090000000000000000e+02 6.100000000000000000e+02 6.110000000000000000e+02 6.120000000000000000e+02 6.130000000000000000e+02 6.140000000000000000e+02 6.150000000000000000e+02 6.160000000000000000e+02 6.170000000000000000e+02 6.180000000000000000e+02 6.190000000000000000e+02 6.200000000000000000e+02 6.210000000000000000e+02 6.220000000000000000e+02 6.230000000000000000e+02 6.240000000000000000e+02 6.250000000000000000e+02 6.260000000000000000e+02 6.270000000000000000e+02 6.280000000000000000e+02 6.290000000000000000e+02 6.300000000000000000e+02 6.310000000000000000e+02 6.320000000000000000e+02 6.330000000000000000e+02 6.340000000000000000e+02 6.350000000000000000e+02 6.360000000000000000e+02 6.370000000000000000e+02 6.380000000000000000e+02 6.390000000000000000e+02 6.400000000000000000e+02 6.410000000000000000e+02 6.420000000000000000e+02 6.430000000000000000e+02 6.440000000000000000e+02 6.450000000000000000e+02 6.460000000000000000e+02 6.470000000000000000e+02 6.480000000000000000e+02 6.490000000000000000e+02 6.500000000000000000e+02 6.510000000000000000e+02 6.520000000000000000e+02 6.530000000000000000e+02 6.540000000000000000e+02 6.550000000000000000e+02 6.560000000000000000e+02 6.570000000000000000e+02 6.580000000000000000e+02 6.590000000000000000e+02 6.600000000000000000e+02 6.610000000000000000e+02 6.620000000000000000e+02 6.630000000000000000e+02 6.640000000000000000e+02 6.650000000000000000e+02 6.660000000000000000e+02 6.670000000000000000e+02 6.680000000000000000e+02 6.690000000000000000e+02 6.700000000000000000e+02 6.710000000000000000e+02 6.720000000000000000e+02 6.730000000000000000e+02 6.740000000000000000e+02 6.750000000000000000e+02 6.760000000000000000e+02 6.770000000000000000e+02 6.780000000000000000e+02 6.790000000000000000e+02 6.800000000000000000e+02 6.810000000000000000e+02 6.820000000000000000e+02 6.830000000000000000e+02 6.840000000000000000e+02 6.850000000000000000e+02 6.860000000000000000e+02 6.870000000000000000e+02 6.880000000000000000e+02 6.890000000000000000e+02 6.900000000000000000e+02 6.910000000000000000e+02 6.920000000000000000e+02 6.930000000000000000e+02 6.940000000000000000e+02 6.950000000000000000e+02 6.960000000000000000e+02 6.970000000000000000e+02 6.980000000000000000e+02 6.990000000000000000e+02 7.000000000000000000e+02 7.010000000000000000e+02 7.020000000000000000e+02 7.030000000000000000e+02 7.040000000000000000e+02 7.050000000000000000e+02 7.060000000000000000e+02 7.070000000000000000e+02 7.080000000000000000e+02 7.090000000000000000e+02 7.100000000000000000e+02 7.110000000000000000e+02 7.120000000000000000e+02 7.130000000000000000e+02 7.140000000000000000e+02 7.150000000000000000e+02 7.160000000000000000e+02 7.170000000000000000e+02 7.180000000000000000e+02 7.190000000000000000e+02 7.200000000000000000e+02 7.210000000000000000e+02 7.220000000000000000e+02 7.230000000000000000e+02 7.240000000000000000e+02 7.250000000000000000e+02 7.260000000000000000e+02 7.270000000000000000e+02 7.280000000000000000e+02 7.290000000000000000e+02 7.300000000000000000e+02 7.310000000000000000e+02 7.320000000000000000e+02 7.330000000000000000e+02 7.340000000000000000e+02 7.350000000000000000e+02 7.360000000000000000e+02 7.370000000000000000e+02 7.380000000000000000e+02 7.390000000000000000e+02 7.400000000000000000e+02 7.410000000000000000e+02 7.420000000000000000e+02 7.430000000000000000e+02 7.440000000000000000e+02 7.450000000000000000e+02 7.460000000000000000e+02 7.470000000000000000e+02 7.480000000000000000e+02 7.490000000000000000e+02 7.500000000000000000e+02 7.510000000000000000e+02 7.520000000000000000e+02 7.530000000000000000e+02 7.540000000000000000e+02 7.550000000000000000e+02 7.560000000000000000e+02 7.570000000000000000e+02 7.580000000000000000e+02 7.590000000000000000e+02 7.600000000000000000e+02 7.610000000000000000e+02 7.620000000000000000e+02 7.630000000000000000e+02 7.640000000000000000e+02 7.650000000000000000e+02 7.660000000000000000e+02 7.670000000000000000e+02 7.680000000000000000e+02 7.690000000000000000e+02 7.700000000000000000e+02 7.710000000000000000e+02 7.720000000000000000e+02 7.730000000000000000e+02 7.740000000000000000e+02 7.750000000000000000e+02 7.760000000000000000e+02 7.770000000000000000e+02 7.780000000000000000e+02 7.790000000000000000e+02 7.800000000000000000e+02 7.810000000000000000e+02 7.820000000000000000e+02 7.830000000000000000e+02 7.840000000000000000e+02 7.850000000000000000e+02 7.860000000000000000e+02 7.870000000000000000e+02 7.880000000000000000e+02 7.890000000000000000e+02 7.900000000000000000e+02 7.910000000000000000e+02 7.920000000000000000e+02 7.930000000000000000e+02 7.940000000000000000e+02 7.950000000000000000e+02 7.960000000000000000e+02 7.970000000000000000e+02 7.980000000000000000e+02 7.990000000000000000e+02 8.000000000000000000e+02 8.010000000000000000e+02 8.020000000000000000e+02 8.030000000000000000e+02 8.040000000000000000e+02 8.050000000000000000e+02 8.060000000000000000e+02 8.070000000000000000e+02 8.080000000000000000e+02 8.090000000000000000e+02 8.100000000000000000e+02 8.110000000000000000e+02 8.120000000000000000e+02 8.130000000000000000e+02 8.140000000000000000e+02 8.150000000000000000e+02 8.160000000000000000e+02 8.170000000000000000e+02 8.180000000000000000e+02 8.190000000000000000e+02 8.200000000000000000e+02 8.210000000000000000e+02 8.220000000000000000e+02 8.230000000000000000e+02 8.240000000000000000e+02 8.250000000000000000e+02 8.260000000000000000e+02 8.270000000000000000e+02 8.280000000000000000e+02 8.290000000000000000e+02 8.300000000000000000e+02 8.310000000000000000e+02 8.320000000000000000e+02 8.330000000000000000e+02 8.340000000000000000e+02 8.350000000000000000e+02 8.360000000000000000e+02 8.370000000000000000e+02 8.380000000000000000e+02 8.390000000000000000e+02 8.400000000000000000e+02 8.410000000000000000e+02 8.420000000000000000e+02 8.430000000000000000e+02 8.440000000000000000e+02 8.450000000000000000e+02 8.460000000000000000e+02 8.470000000000000000e+02 8.480000000000000000e+02 8.490000000000000000e+02 8.500000000000000000e+02 8.510000000000000000e+02 8.520000000000000000e+02 8.530000000000000000e+02 8.540000000000000000e+02 8.550000000000000000e+02 8.560000000000000000e+02 8.570000000000000000e+02 8.580000000000000000e+02 8.590000000000000000e+02 8.600000000000000000e+02 8.610000000000000000e+02 8.620000000000000000e+02 8.630000000000000000e+02 8.640000000000000000e+02 8.650000000000000000e+02 8.660000000000000000e+02 8.670000000000000000e+02 8.680000000000000000e+02 8.690000000000000000e+02 8.700000000000000000e+02 8.710000000000000000e+02 8.720000000000000000e+02 8.730000000000000000e+02 8.740000000000000000e+02 8.750000000000000000e+02 8.760000000000000000e+02 8.770000000000000000e+02 8.780000000000000000e+02 8.790000000000000000e+02 8.800000000000000000e+02 8.810000000000000000e+02 8.820000000000000000e+02 8.830000000000000000e+02 8.840000000000000000e+02 8.850000000000000000e+02 8.860000000000000000e+02 8.870000000000000000e+02 8.880000000000000000e+02 8.890000000000000000e+02 8.900000000000000000e+02 8.910000000000000000e+02 8.920000000000000000e+02 8.930000000000000000e+02 8.940000000000000000e+02 8.950000000000000000e+02 8.960000000000000000e+02 8.970000000000000000e+02 8.980000000000000000e+02 8.990000000000000000e+02 9.000000000000000000e+02 9.010000000000000000e+02 9.020000000000000000e+02 9.030000000000000000e+02 9.040000000000000000e+02 9.050000000000000000e+02 9.060000000000000000e+02 9.070000000000000000e+02 9.080000000000000000e+02 9.090000000000000000e+02 9.100000000000000000e+02 9.110000000000000000e+02 9.120000000000000000e+02 9.130000000000000000e+02 9.140000000000000000e+02 9.150000000000000000e+02 9.160000000000000000e+02 9.170000000000000000e+02 9.180000000000000000e+02 9.190000000000000000e+02 9.200000000000000000e+02 9.210000000000000000e+02 9.220000000000000000e+02 9.230000000000000000e+02 9.240000000000000000e+02 9.250000000000000000e+02 9.260000000000000000e+02 9.270000000000000000e+02 9.280000000000000000e+02 9.290000000000000000e+02 9.300000000000000000e+02 9.310000000000000000e+02 9.320000000000000000e+02 9.330000000000000000e+02 9.340000000000000000e+02 9.350000000000000000e+02 9.360000000000000000e+02 9.370000000000000000e+02 9.380000000000000000e+02 9.390000000000000000e+02 9.400000000000000000e+02 9.410000000000000000e+02 9.420000000000000000e+02 9.430000000000000000e+02 9.440000000000000000e+02 9.450000000000000000e+02 9.460000000000000000e+02 9.470000000000000000e+02 9.480000000000000000e+02 9.490000000000000000e+02 9.500000000000000000e+02 9.510000000000000000e+02 9.520000000000000000e+02 9.530000000000000000e+02 9.540000000000000000e+02 9.550000000000000000e+02 9.560000000000000000e+02 9.570000000000000000e+02 9.580000000000000000e+02 9.590000000000000000e+02 9.600000000000000000e+02 9.610000000000000000e+02 9.620000000000000000e+02 9.630000000000000000e+02 9.640000000000000000e+02 9.650000000000000000e+02 9.660000000000000000e+02 9.670000000000000000e+02 9.680000000000000000e+02 9.690000000000000000e+02 9.700000000000000000e+02 9.710000000000000000e+02 9.720000000000000000e+02 9.730000000000000000e+02 9.740000000000000000e+02 9.750000000000000000e+02 9.760000000000000000e+02 9.770000000000000000e+02 9.780000000000000000e+02 9.790000000000000000e+02 9.800000000000000000e+02 9.810000000000000000e+02 9.820000000000000000e+02 9.830000000000000000e+02 9.840000000000000000e+02 9.850000000000000000e+02 9.860000000000000000e+02 9.870000000000000000e+02 9.880000000000000000e+02 9.890000000000000000e+02 9.900000000000000000e+02 9.910000000000000000e+02 9.920000000000000000e+02 9.930000000000000000e+02 9.940000000000000000e+02 9.950000000000000000e+02 9.960000000000000000e+02 9.970000000000000000e+02 9.980000000000000000e+02 9.990000000000000000e+02 1.000000000000000000e+03
1.000000000000000021e-02 1.000000000000000021e-02 1.000000000000000021e-02 1.000000000000000021e-02 1.000000000000000021e-02 1.000000000000000021e-02 1.000000000000000021e-02 1.000000000000000021e-02 1.000000000000000021e-02 1.000000000000000021e-02 1.000000000000000021e-02 1.000000000000000021e-02 1.000000000000000021e-02 1.000000000000000021e-02 1.000000000000000021e-02 1.000000000000000021e-02 1.000000000000000021e-02 1.000000000000000021e-02 1.000000000000000021e-02 1.000000000000000021e-02 1.000000000000000021e-02 1.000000000000000021e-02 1.000000000000000021e-02 1.000000000000000021e-02 1.000000000000000021e-02 1.000000000000000021e-02 1.000000000000000021e-02 1.000000000000000021e-02 1.000000000000000021e-02 1.000000000000000021e-02 1.000000000000000021e-02 1.000000000000000021e-02 1.000000000000000021e-02 1.000000000000000021e-02 1.000000000000000021e-02 1.000000000000000021e-02 1.000000000000000021e-02 1.000000000000000021e-02 1.000000000000000021e-02 1.000000000000000021e-02 1.000000000000000021e-02 1.000000000000000021e-02 1.000000000000000021e-02 1.000000000000000021e-02 1.000000000000000021e-02 1.000000000000000021e-02 1.000000000000000021e-02 1.000000000000000021e-02 1.000000000000000021e-02 1.000000000000000021e-02 1.000000000000000021e-02 1.000000000000000021e-02 1.000000000000000021e-02 1.000000000000000021e-02 1.000000000000000021e-02 1.000000000000000021e-02 1.000000000000000021e-02 1.000000000000000021e-02 1.000000000000000021e-02 1.000000000000000021e-02 1.000000000000000021e-02 1.000000000000000021e-02 1.000000000000000021e-02 1.000000000000000021e-02 1.000000000000000021e-02 1.000000000000000021e-02 1.000000000000000021e-02 1.000000000000000021e-02 1.000000000000000021e-02 1.000000000000000021e-02 1.000000000000000021e-02 1.000000000000000021e-02 1.000000000000000021e-02 1.000000000000000021e-02 1.000000000000000021e-02 1.000000000000000021e-02 1.000000000000000021e-02 1.000000000000000021e-02 1.000000000000000021e-02 1.000000000000000021e-02 1.000000000000000021e-02 1.000000000000000021e-02 1.000000000000000021e-02 1.000000000000000021e-02 1.000000000000000021e-02 1.000000000000000021e-02 1.000000000000000021e-02 1.000000000000000021e-02 1.000000000000000021e-02 1.000000000000000021e-02 1.000000000000000021e-02 1.000000000000000021e-02 1.000000000000000021e-02 1.000000000000000021e-02 1.000000000000000021e-02 1.000000000000000021e-02 1.000000000000000021e-02 1.000000000000000021e-02 1.000000000000000021e-02 1.000000000000000021e-02 1.000000000000000021e-02 1.000000000000000021e-02 1.000000000000000021e-02 1.000000000000000021e-02 1.000000000000000021e-02 1.000000000000000021e-02 1.000000000000000021e-02 1.000000000000000021e-02 1.000000000000000021e-02 1.000000000000000021e-02 1.000000000000000021e-02 1.000000000000000021e-02 1.000000000000000021e-02 1.000000000000000021e-02 1.000000000000000021e-02 1.000000000000000021e-02 1.000000000000000021e-02 1.000000000000000021e-02 1.000000000000000021e-02 1.000000000000000021e-02 1.000000000000000021e-02 1.000000000000000021e-02 1.000000000000000021e-02 1.000000000000000021e-02 1.000000000000000021e-02 1.000000000000000021e-02 1.000000000000000021e-02 1.000000000000000021e-02 1.000000000000000021e-02 1.000000000000000021e-02 1.000000000000000021e-02 1.000000000000000021e-02 1.000000000000000021e-02 1.000000000000000021e-02 1.000000000000000021e-02 1.000000000000000021e-02 1.000000000000000021e-02 1.000000000000000021e-02 1.000000000000000021e-02 1.000000000000000021e-02 1.000000000000000021e-02 1.000000000000000021e-02 1.000000000000000021e-02 1.000000000000000021e-02 1.000000000000000021e-02 1.000000000000000021e-02 1.000000000000000021e-02 1.000000000000000021e-02 1.000000000000000021e-02 1.000000000000000021e-02 1.000000000000000021e-02 1.000000000000000021e-02 1.000000000000000021e-02 1.000000000000000021e-02 1.000000000000000021e-02 1.000000000000000021e-02 1.000000000000000021e-02 1.000000000000000021e-02 1.000000000000000021e-02 1.000000000000000021e-02 1.000000000000000021e-02 1.000000000000000021e-02 1.000000000000000021e-02 1.000000000000000021e-02 1.000000000000000021e-02 1.000000000000000021e-02 1.000000000000000021e-02 1.000000000000000021e-02 1.000000000000000021e-02 1.000000000000000021e-02 1.000000000000000021e-02 1.000000000000000021e-02 1.000000000000000021e-02 1.000000000000000021e-02 1.000000000000000021e-02 1.000000000000000021e-02 1.000000000000000021e-02 1.000000000000000021e-02 1.000000000000000021e-02 1.000000000000000021e-02 1.000000000000000021e-02 1.000000000000000021e-02 1.000000000000000021e-02 1.000000000000000021e-02 1.000000000000000021e-02 1.000000000000000021e-02 1.000000000000000021e-02 1.000000000000000021e-02 1.000000000000000021e-02 1.000000000000000021e-02 1.000000000000000021e-02 1.000000000000000021e-02 1.000000000000000021e-02 1.000000000000000021e-02 1.000000000000000021e-02 1.000000000000000021e-02 1.000000000000000021e-02 1.000000000000000021e-02 1.000000000000000021e-02 1.000000000000000021e-02 1.000000000000000021e-02 1.000000000000000021e-02 1.000000000000000021e-02 1.000000000000000021e-02 1.000000000000000021e-02 1.000000000000000021e-02 1.000000000000000021e-02 1.000000000000000021e-02 1.000000000000000021e-02 1.000000000000000021e-02 1.000000000000000021e-02 1.000000000000000021e-02 1.000000000000000021e-02 1.000000000000000021e-02 1.000000000000000021e-02 1.000000000000000021e-02 1.000000000000000021e-02 1.000000000000000021e-02 1.000000000000000021e-02 1.000000000000000021e-02 1.000000000000000021e-02 1.000000000000000021e-02 1.000000000000000021e-02 1.000000000000000021e-02 1.000000000000000021e-02 1.000000000000000021e-02 1.000000000000000021e-02 1.000000000000000021e-02 1.000000000000000021e-02 1.000000000000000021e-02 1.000000000000000021e-02 1.000000000000000021e-02 1.000000000000000021e-02 1.000000000000000021e-02 1.000000000000000021e-02 1.000000000000000021e-02 1.000000000000000021e-02 1.000000000000000021e-02 1.000000000000000021e-02 1.000000000000000021e-02 1.000000000000000021e-02 1.000000000000000021e-02 1.000000000000000021e-02 1.000000000000000021e-02 1.000000000000000021e-02 1.000000000000000021e-02 1.000000000000000021e-02 1.000000000000000021e-02 1.000000000000000021e-02 1.000000000000000021e-02 1.000000000000000021e-02 1.000000000000000021e-02 1.000000000000000021e-02 1.000000000000000021e-02 1.000000000000000021e-02 1.000000000000000021e-02 1.000000000000000021e-02 1.000000000000000021e-02 1.000000000000000021e-02 1.000000000000000021e-02 1.000000000000000021e-02 1.000000000000000021e-02 1.000000000000000021e-02 1.000000000000000021e-02 1.000000000000000021e-02 1.000000000000000021e-02 1.000000000000000021e-02 1.000000000000000021e-02 1.000000000000000021e-02 1.000000000000000021e-02 1.000000000000000021e-02 1.000000000000000021e-02 1.000000000000000021e-02 1.000000000000000021e-02 1.000000000000000021e-02 1.000000000000000021e-02 1.000000000000000021e-02 1.000000000000000021e-02 1.000000000000000021e-02 1.000000000000000021e-02 1.000000000000000021e-02 1.000000000000000021e-02 1.000000000000000021e-02 1.000000000000000021e-02 1.000000000000000021e-02 1.000000000000000021e-02 1.000000000000000021e-02 1.000000000000000021e-02 1.000000000000000021e-02 1.000000000000000021e-02 1.000000000000000021e-02 1.000000000000000021e-02 1.000000000000000021e-02 1.000000000000000021e-02 1.000000000000000021e-02 1.000000000000000021e-02 1.000000000000000021e-02 1.000000000000000021e-02 1.000000000000000021e-02 1.000000000000000021e-02 1.000000000000000021e-02 1.000000000000000021e-02 1.000000000000000021e-02 1.000000000000000021e-02 1.000000000000000021e-02 1.000000000000000021e-02 1.000000000000000021e-02 1.000000000000000021e-02 1.000000000000000021e-02 1.000000000000000021e-02 1.000000000000000021e-02 1.000000000000000021e-02 1.000000000000000021e-02 1.000000000000000021e-02 1.000000000000000021e-02 1.000000000000000021e-02 1.000000000000000021e-02 1.000000000000000021e-02 1.000000000000000021e-02 1.000000000000000021e-02 1.000000000000000021e-02 1.000000000000000021e-02 1.000000000000000021e-02 1.000000000000000021e-02 1.000000000000000021e-02 1.000000000000000021e-02 1.000000000000000021e-02 1.000000000000000021e-02 1.000000000000000021e-02 1.000000000000000021e-02 1.000000000000000021e-02 1.000000000000000021e-02 1.000000000000000021e-02 1.000000000000000021e-02 1.000000000000000021e-02 1.000000000000000021e-02 1.000000000000000021e-02 1.000000000000000021e-02 1.000000000000000021e-02 1.000000000000000021e-02 1.000000000000000021e-02 1.000000000000000021e-02 1.000000000000000021e-02 1.000000000000000021e-02 1.000000000000000021e-02 1.000000000000000021e-02 1.000000000000000021e-02 1.000000000000000021e-02 1.000000000000000021e-02 1.000000000000000021e-02 1.000000000000000021e-02 1.000000000000000021e-02 1.000000000000000021e-02 1.000000000000000021e-02 1.000000000000000021e-02 1.000000000000000021e-02 1.000000000000000021e-02 1.000000000000000021e-02 1.000000000000000021e-02 1.000000000000000021e-02 1.000000000000000021e-02 1.000000000000000021e-02 1.000000000000000021e-02 1.000000000000000021e-02 1.000000000000000021e-02 1.000000000000000021e-02 1.000000000000000021e-02 1.000000000000000021e-02 1.000000000000000021e-02 1.000000000000000021e-02 1.000000000000000021e-02 1.000000000000000021e-02 1.000000000000000021e-02 1.000000000000000021e-02 1.000000000000000021e-02 1.000000000000000021e-02 1.000000000000000021e-02 1.000000000000000021e-02 1.000000000000000021e-02 1.000000000000000021e-02 1.000000000000000021e-02 1.000000000000000021e-02 1.000000000000000021e-02 1.000000000000000021e-02 1.000000000000000021e-02 1.000000000000000021e-02 1.000000000000000021e-02 1.000000000000000021e-02 1.000000000000000021e-02 1.000000000000000021e-02 1.000000000000000021e-02 1.000000000000000021e-02 1.000000000000000021e-02 1.000000000000000021e-02 1.000000000000000021e-02 1.000000000000000021e-02 1.000000000000000021e-02 1.000000000000000021e-02 1.000000000000000021e-02 1.000000000000000021e-02 1.000000000000000021e-02 1.000000000000000021e-02 1.000000000000000021e-02 1.000000000000000021e-02 1.000000000000000021e-02 1.000000000000000021e-02 1.000000000000000021e-02 1.000000000000000021e-02 1.000000000000000021e-02 1.000000000000000021e-02 1.000000000000000021e-02 1.000000000000000021e-02 1.000000000000000021e-02 1.000000000000000021e-02 1.000000000000000021e-02 1.000000000000000021e-02 1.000000000000000021e-02 1.000000000000000021e-02 1.000000000000000021e-02 1.000000000000000021e-02 1.000000000000000021e-02 1.000000000000000021e-02 1.000000000000000021e-02 1.000000000000000021e-02 1.000000000000000021e-02 1.000000000000000021e-02 1.000000000000000021e-02 1.000000000000000021e-02 1.000000000000000021e-02 1.000000000000000021e-02 1.000000000000000021e-02 1.000000000000000021e-02 1.000000000000000021e-02 1.000000000000000021e-02 1.000000000000000021e-02 1.000000000000000021e-02 1.000000000000000021e-02 1.000000000000000021e-02 1.000000000000000021e-02 1.000000000000000021e-02 1.000000000000000021e-02 1.000000000000000021e-02 1.000000000000000021e-02 1.000000000000000021e-02 1.000000000000000021e-02 1.000000000000000021e-02 1.000000000000000021e-02 1.000000000000000021e-02 1.000000000000000021e-02 1.000000000000000021e-02 1.000000000000000021e-02 1.000000000000000021e-02 1.000000000000000021e-02 1.000000000000000021e-02 1.000000000000000021e-02 1.000000000000000021e-02 1.000000000000000021e-02 1.000000000000000021e-02 1.000000000000000021e-02 1.000000000000000021e-02 1.000000000000000021e-02 1.000000000000000021e-02 1.000000000000000021e-02 1.000000000000000021e-02 1.000000000000000021e-02 1.000000000000000021e-02 1.000000000000000021e-02 1.000000000000000021e-02 1.000000000000000021e-02 1.000000000000000021e-02 1.000000000000000021e-02 1.000000000000000021e-02 1.000000000000000021e-02 1.000000000000000021e-02 1.000000000000000021e-02 1.000000000000000021e-02 1.000000000000000021e-02 1.000000000000000021e-02 1.000000000000000021e-02 1.000000000000000021e-02 1.000000000000000021e-02 1.000000000000000021e-02 1.000000000000000021e-02 1.000000000000000021e-02 1.000000000000000021e-02 1.000000000000000021e-02 1.000000000000000021e-02 1.000000000000000021e-02 1.000000000000000021e-02 1.000000000000000021e-02 1.000000000000000021e-02 1.000000000000000021e-02 1.000000000000000021e-02 1.000000000000000021e-02 1.000000000000000021e-02 1.000000000000000021e-02 1.000000000000000021e-02 1.000000000000000021e-02 1.000000000000000021e-02 1.000000000000000021e-02 1.000000000000000021e-02 1.000000000000000021e-02 1.000000000000000021e-02 1.000000000000000021e-02 1.000000000000000021e-02 1.000000000000000021e-02 1.000000000000000021e-02 1.000000000000000021e-02 1.000000000000000021e-02 1.000000000000000021e-02 1.000000000000000021e-02 1.000000000000000021e-02 1.000000000000000021e-02 1.000000000000000021e-02 1.000000000000000021e-02 1.000000000000000021e-02 1.000000000000000021e-02 1.000000000000000021e-02 1.000000000000000021e-02 1.000000000000000021e-02 1.000000000000000021e-02 1.000000000000000021e-02 1.000000000000000021e-02 1.000000000000000021e-02 1.000000000000000021e-02 1.000000000000000021e-02 1.000000000000000021e-02 1.000000000000000021e-02 1.000000000000000021e-02 1.000000000000000021e-02 1.000000000000000021e-02 1.000000000000000021e-02 1.000000000000000021e-02 1.000000000000000021e-02 1.000000000000000021e-02 1.000000000000000021e-02 1.000000000000000021e-02 1.000000000000000021e-02 1.000000000000000021e-02 1.000000000000000021e-02 1.000000000000000021e-02 1.000000000000000021e-02 1.000000000000000021e-02 1.000000000000000021e-02 1.000000000000000021e-02 1.000000000000000021e-02 1.000000000000000021e-02 1.000000000000000021e-02 1.000000000000000021e-02 1.000000000000000021e-02 1.000000000000000021e-02 1.000000000000000021e-02 1.000000000000000021e-02 1.000000000000000021e-02 1.000000000000000021e-02 1.000000000000000021e-02 1.000000000000000021e-02 1.000000000000000021e-02 1.000000000000000021e-02 1.000000000000000021e-02 1.000000000000000021e-02 1.000000000000000021e-02 1.000000000000000021e-02 1.000000000000000021e-02 1.000000000000000021e-02 1.000000000000000021e-02 1.000000000000000021e-02 1.000000000000000021e-02 1.000000000000000021e-02 1.000000000000000021e-02 1.000000000000000021e-02 1.000000000000000021e-02 1.000000000000000021e-02 1.000000000000000021e-02 1.000000000000000021e-02 1.000000000000000021e-02 1.000000000000000021e-02 1.000000000000000021e-02 1.000000000000000021e-02 1.000000000000000021e-02 1.000000000000000021e-02 1.000000000000000021e-02 1.000000000000000021e-02 1.000000000000000021e-02 1.000000000000000021e-02 1.000000000000000021e-02 1.000000000000000021e-02 1.000000000000000021e-02 1.000000000000000021e-02 1.000000000000000021e-02 1.000000000000000021e-02 1.000000000000000021e-02 1.000000000000000021e-02 1.000000000000000021e-02 1.000000000000000021e-02 1.000000000000000021e-02 1.000000000000000021e-02 1.000000000000000021e-02 1.000000000000000021e-02 1.000000000000000021e-02 1.000000000000000021e-02 1.000000000000000021e-02 1.000000000000000021e-02 1.000000000000000021e-02 1.000000000000000021e-02 1.000000000000000021e-02 1.000000000000000021e-02 1.000000000000000021e-02 1.000000000000000021e-02 1.000000000000000021e-02 1.000000000000000021e-02 1.000000000000000021e-02 1.000000000000000021e-02 1.000000000000000021e-02 1.000000000000000021e-02 1.000000000000000021e-02 1.000000000000000021e-02 1.000000000000000021e-02 1.000000000000000021e-02 1.000000000000000021e-02 1.000000000000000021e-02 1.000000000000000021e-02 1.000000000000000021e-02 1.000000000000000021e-02 1.000000000000000021e-02 1.000000000000000021e-02 1.000000000000000021e-02 1.000000000000000021e-02 1.000000000000000021e-02 1.000000000000000021e-02 1.000000000000000021e-02 1.000000000000000021e-02 1.000000000000000021e-02 1.000000000000000021e-02 1.000000000000000021e-02 1.000000000000000021e-02 1.000000000000000021e-02 1.000000000000000021e-02 1.000000000000000021e-02 1.000000000000000021e-02 1.000000000000000021e-02 1.000000000000000021e-02 1.000000000000000021e-02 1.000000000000000021e-02 1.000000000000000021e-02 1.000000000000000021e-02 1.000000000000000021e-02 1.000000000000000021e-02 1.000000000000000021e-02 1.000000000000000021e-02 1.000000000000000021e-02 1.000000000000000021e-02 1.000000000000000021e-02 1.000000000000000021e-02 1.000000000000000021e-02 1.000000000000000021e-02 1.000000000000000021e-02 1.000000000000000021e-02 1.000000000000000021e-02 1.000000000000000021e-02 1.000000000000000021e-02 1.000000000000000021e-02 1.000000000000000021e-02 1.000000000000000021e-02 1.000000000000000021e-02 1.000000000000000021e-02 1.000000000000000021e-02 1.000000000000000021e-02 1.000000000000000021e-02 1.000000000000000021e-02 1.000000000000000021e-02 1.000000000000000021e-02 1.000000000000000021e-02 1.000000000000000021e-02 1.000000000000000021e-02 1.000000000000000021e-02 1.000000000000000021e-02 1.000000000000000021e-02 1.000000000000000021e-02 1.000000000000000021e-02 1.000000000000000021e-02 1.000000000000000021e-02 1.000000000000000021e-02 1.000000000000000021e-02 1.000000000000000021e-02 1.000000000000000021e-02 1.000000000000000021e-02 1.000000000000000021e-02 1.000000000000000021e-02 1.000000000000000021e-02 1.000000000000000021e-02 1.000000000000000021e-02 1.000000000000000021e-02 1.000000000000000021e-02 1.000000000000000021e-02 1.000000000000000021e-02 1.000000000000000021e-02 1.000000000000000021e-02 1.000000000000000021e-02 1.000000000000000021e-02 1.000000000000000021e-02 1.000000000000000021e-02 1.000000000000000021e-02 1.000000000000000021e-02 1.000000000000000021e-02 1.000000000000000021e-02 1.000000000000000021e-02 1.000000000000000021e-02 1.000000000000000021e-02 1.000000000000000021e-02 1.000000000000000021e-02 1.000000000000000021e-02 1.000000000000000021e-02 1.000000000000000021e-02 1.000000000000000021e-02 1.000000000000000021e-02 1.000000000000000021e-02 1.000000000000000021e-02 1.000000000000000021e-02 1.000000000000000021e-02 1.000000000000000021e-02 1.000000000000000021e-02 1.000000000000000021e-02 1.000000000000000021e-02 1.000000000000000021e-02 1.000000000000000021e-02 1.000000000000000021e-02 1.000000000000000021e-02 1.000000000000000021e-02 1.000000000000000021e-02 1.000000000000000021e-02 1.000000000000000021e-02 1.000000000000000021e-02 1.000000000000000021e-02 1.000000000000000021e-02 1.000000000000000021e-02 1.000000000000000021e-02 1.000000000000000021e-02 1.000000000000000021e-02 1.000000000000000021e-02 1.000000000000000021e-02 1.000000000000000021e-02 1.000000000000000021e-02 1.000000000000000021e-02 1.000000000000000021e-02 1.000000000000000021e-02 1.000000000000000021e-02 1.000000000000000021e-02 1.000000000000000021e-02 1.000000000000000021e-02 1.000000000000000021e-02 1.000000000000000021e-02 1.000000000000000021e-02 1.000000000000000021e-02 1.000000000000000021e-02 1.000000000000000021e-02 1.000000000000000021e-02 1.000000000000000021e-02 1.000000000000000021e-02 1.000000000000000021e-02 1.000000000000000021e-02 1.000000000000000021e-02 1.000000000000000021e-02 1.000000000000000021e-02 1.000000000000000021e-02 1.000000000000000021e-02 1.000000000000000021e-02 1.000000000000000021e-02 1.000000000000000021e-02 1.000000000000000021e-02 1.000000000000000021e-02 1.000000000000000021e-02 1.000000000000000021e-02 1.000000000000000021e-02 1.000000000000000021e-02 1.000000000000000021e-02 1.000000000000000021e-02 1.000000000000000021e-02 1.000000000000000021e-02 1.000000000000000021e-02 1.000000000000000021e-02 1.000000000000000021e-02 1.000000000000000021e-02 1.000000000000000021e-02 1.000000000000000021e-02 1.000000000000000021e-02 1.000000000000000021e-02 1.000000000000000021e-02 1.000000000000000021e-02 1.000000000000000021e-02 1.000000000000000021e-02 1.000000000000000021e-02 1.000000000000000021e-02 1.000000000000000021e-02 1.000000000000000021e-02 1.000000000000000021e-02 1.000000000000000021e-02 1.000000000000000021e-02 1.000000000000000021e-02 1.000000000000000021e-02 1.000000000000000021e-02 1.000000000000000021e-02 1.000000000000000021e-02 1.000000000000000021e-02 1.000000000000000021e-02 1.000000000000000021e-02 1.000000000000000021e-02 1.000000000000000021e-02 1.000000000000000021e-02 1.000000000000000021e-02 1.000000000000000021e-02 1.000000000000000021e-02 1.000000000000000021e-02 1.000000000000000021e-02 1.000000000000000021e-02 1.000000000000000021e-02 1.000000000000000021e-02 1.000000000000000021e-02 1.000000000000000021e-02 1.000000000000000021e-02 1.000000000000000021e-02 1.000000000000000021e-02 1.000000000000000021e-02 1.000000000000000021e-02 1.000000000000000021e-02 1.000000000000000021e-02 1.000000000000000021e-02 1.000000000000000021e-02 1.000000000000000021e-02 1.000000000000000021e-02 1.000000000000000021e-02 1.000000000000000021e-02 1.000000000000000021e-02 1.000000000000000021e-02 1.000000000000000021e-02 1.000000000000000021e-02 1.000000000000000021e-02 1.000000000000000021e-02 1.000000000000000021e-02 1.000000000000000021e-02 1.000000000000000021e-02 1.000000000000000021e-02 1.000000000000000021e-02 1.000000000000000021e-02 1.000000000000000021e-02 1.000000000000000021e-02 1.000000000000000021e-02 1.000000000000000021e-02 1.000000000000000021e-02 1.000000000000000021e-02 1.000000000000000021e-02 1.000000000000000021e-02 1.000000000000000021e-02 1.000000000000000021e-02 1.000000000000000021e-02 1.000000000000000021e-02 1.000000000000000021e-02 1.000000000000000021e-02 1.000000000000000021e-02 1.000000000000000021e-02 1.000000000000000021e-02 1.000000000000000021e-02 1.000000000000000021e-02 1.000000000000000021e-02 1.000000000000000021e-02 1.000000000000000021e-02 1.000000000000000021e-02 1.000000000000000021e-02 1.000000000000000021e-02 1.000000000000000021e-02 1.000000000000000021e-02 1.000000000000000021e-02 1.000000000000000021e-02 1.000000000000000021e-02 1.000000000000000021e-02 1.000000000000000021e-02 1.000000000000000021e-02 1.000000000000000021e-02 1.000000000000000021e-02 1.000000000000000021e-02 1.000000000000000021e-02 1.000000000000000021e-02 1.000000000000000021e-02 1.000000000000000021e-02 1.000000000000000021e-02 1.000000000000000021e-02 1.000000000000000021e-02 1.000000000000000021e-02 1.000000000000000021e-02 1.000000000000000021e-02 1.000000000000000021e-02 1.000000000000000021e-02 1.000000000000000021e-02 1.000000000000000021e-02 1.000000000000000021e-02 1.000000000000000021e-02 1.000000000000000021e-02 1.000000000000000021e-02 1.000000000000000021e-02 1.000000000000000021e-02 1.000000000000000021e-02 1.000000000000000021e-02 1.000000000000000021e-02 1.000000000000000021e-02 1.000000000000000021e-02 1.000000000000000021e-02 1.000000000000000021e-02 1.000000000000000021e-02 1.000000000000000021e-02 1.000000000000000021e-02 1.000000000000000021e-02 1.000000000000000021e-02 1.000000000000000021e-02 1.000000000000000021e-02 1.000000000000000021e-02 1.000000000000000021e-02 1.000000000000000021e-02 1.000000000000000021e-02 1.000000000000000021e-02 1.000000000000000021e-02 1.000000000000000021e-02 1.000000000000000021e-02 1.000000000000000021e-02 1.000000000000000021e-02 1.000000000000000021e-02 1.000000000000000021e-02 1.000000000000000021e-02 1.000000000000000021e-02 1.000000000000000021e-02 1.000000000000000021e-02 1.000000000000000021e-02 1.000000000000000021e-02 1.000000000000000021e-02 1.000000000000000021e-02 1.000000000000000021e-02 1.000000000000000021e-02 1.000000000000000021e-02 1.000000000000000021e-02 1.000000000000000021e-02 1.000000000000000021e-02 1.000000000000000021e-02 1.000000000000000021e-02 1.000000000000000021e-02 1.000000000000000021e-02 1.000000000000000021e-02 1.000000000000000021e-02 1.000000000000000021e-02 1.000000000000000021e-02 1.000000000000000021e-02 1.000000000000000021e-02 1.000000000000000021e-02 1.000000000000000021e-02 1.000000000000000021e-02 1.000000000000000021e-02 1.000000000000000021e-02 1.000000000000000021e-02 1.000000000000000021e-02 1.000000000000000021e-02 1.000000000000000021e-02 1.000000000000000021e-02 1.000000000000000021e-02 1.000000000000000021e-02 1.000000000000000021e-02 1.000000000000000021e-02 1.000000000000000021e-02 1.000000000000000021e-02 1.000000000000000021e-02 1.000000000000000021e-02 1.000000000000000021e-02 1.000000000000000021e-02 1.000000000000000021e-02 1.000000000000000021e-02 1.000000000000000021e-02 1.000000000000000021e-02 1.000000000000000021e-02 1.000000000000000021e-02 1.000000000000000021e-02 1.000000000000000021e-02 1.000000000000000021e-02 1.000000000000000021e-02 1.000000000000000021e-02 1.000000000000000021e-02 1.000000000000000021e-02 1.000000000000000021e-02 1.000000000000000021e-02 1.000000000000000021e-02 1.000000000000000021e-02 1.000000000000000021e-02 1.000000000000000021e-02 1.000000000000000021e-02 1.000000000000000021e-02 1.000000000000000021e-02 1.000000000000000021e-02 1.000000000000000021e-02 1.000000000000000021e-02 1.000000000000000021e-02 1.000000000000000021e-02 1.000000000000000021e-02 1.000000000000000021e-02 1.000000000000000021e-02
-1.061401972169472856e+02 1.615067597145552725e+02 3.738027644684312634e+01 -8.391747259336137077e+00 -8.362434587173019906e+01 -1.273988432599463749e+01 -1.979397956846252384e+02 6.838413572132364671e-01 -8.059445442689592198e+01 -1.352322567159253985e+01 -1.890188827510303682e+01 6.249464898328032980e+00 -1.697594356284748196e+00 1.596995898156951625e+02 8.055480281745769844e+01 -3.696959645108412928e+01 -5.032332688723804637e+01 7.540063540292800326e+01 3.125565107217853722e+01 -2.416936960994152628e+01 -7.502697290745037151e+01 -7.021894668898495695e+01 -1.311964086937042850e+01 2.754014307668956363e+01 -1.855184291843048641e+02 -9.394646420376341212e+01 -2.484191678149483806e+01 1.918934940168539924e+02 6.735530736991553624e+01 7.308482972960919710e+01 7.644311691176875456e+01 1.120847167175924364e+00 -7.555322989899700303e+01 1.975575695566501793e+02 -2.331536998470000412e+02 5.608140032129022501e+01 -1.142895440637688864e+02 -3.303046401673937282e+01 3.847134797728973155e+00 1.206277889341392893e+02 -1.169685948459114400e+02 -1.295223445291243891e+01 7.359992258653301178e+01 1.652829695177885299e+02 6.788569782470551672e+01 -6.506303427040597853e+01 3.916544581615160325e+01 -2.704457513080755504e+01 -6.288918315511058665e+01 1.490555096199874754e+02 -6.706720085873064363e+01 -4.957474129981392252e+01 -1.327265109225760966e+02 5.576300978792522400e+00 -4.807970171975301099e+01 3.683020246750496796e+01 -8.447677633512346063e+01 -4.763867601510761318e+01 -9.654484999894776820e+01 -1.480105867745615171e+02 1.846556648204759199e+01 4.325341448935081701e+01 -1.172354481538470594e+02 1.222874367550306829e+01 -7.544154552114092382e+01 4.677395403757558512e+01 1.587232150778748121e+02 -1.373781237880029380e+02 -4.120811956368665108e+01 6.889759989624461234e+00 2.805203874305639999e+00 4.036894647577234707e+01 7.996058184966592819e+01 7.210854694962198774e-01 -8.432301334105149593e+00 -6.664532368892970737e+01 7.449072850946906499e+01 -3.112722148493903163e+01 2.505865247381973404e+01 9.905614340074311031e+01 8.395752201250793689e+01 -4.073523877341944655e+01 5.496738559872471797e+01 1.403688422068172770e+02 1.106642674849292831e+02 -3.788111201845973053e+00 1.658358927720767610e+02 -1.062022851625882112e+02 3.950377451401597906e+00 -3.993338973042515505e+01 1.969096919533721746e+02 -2.020859148598565724e+01 2.772435638878002262e+00 -7.311123475894987678e+01 -6.817104726656587843e+00 -6.074524939578735427e+01 6.455449498787048412e+01 -9.004476835308548743e+01 6.538718126996430158e+01 -4.549985309939899025e+01 -4.735569263393118433e+01 -8.728915960282130015e+01 5.050388413755830186e+01 -5.204409622738625529e+01 -1.421814916309397177e+02 -7.563833085181759941e+01 -9.959254913693398237e+01 -1.497023707228568696e+02 1.294112532767676669e+02 -2.610583685199060611e+01 3.052062447418889946e+01 8.537576659284123082e+01 -9.904042808793359143e+01 5.420818047332610945e+01 -4.123973105256703064e+01 -6.612910877491772510e+01 -8.585278480872250384e+01 1.934434170392507326e+02 -5.401893413140467715e+01 -4.716942053086651754e+01 -4.488372378968449539e+01 7.654274215989097740e+01 -3.944986520613418435e+01 1.313411462988337064e+02 -4.757284614487737429e+01 5.252332148667601075e+01 4.326555849469476911e+00 -7.716998663826828420e+01 6.546777590339669928e+01 2.641465026124185442e+02 -8.769351784025812435e+01 4.518817600472635831e+01 -7.265931659952265420e+01 4.309087618870944425e+01 1.249574743660086398e+02 -4.900781201125487740e+01 1.393918289791800547e+01 -2.567913440260894475e+01 -9.712560520322446678e+01 -1.656421902152895242e+01 4.122623737990647186e+00 -7.431412723940509224e+00 -1.422204657080627044e+01 1.125692946793962648e+02 1.242485369892263947e+02 1.776782659055508304e+02 -2.900284927284522496e+02 3.639247155652780918e+01 -1.504594436337008290e+01 -5.939759806646824103e+01 1.718798561538746128e+02 7.253161725610941346e+01 -2.517843106807939435e+00 -1.104850234608524602e+02 -1.035209616214861761e+01 9.541441862038828958e+01 -1.280585210556412790e+02 -1.607192557020224513e+02 1.023762855662091731e+01 4.042747447355715451e+01 -5.820557433287525129e+01 4.008738395760244799e+01 -1.020934215915496850e+02 -1.442622861861261754e+02 2.009343122566333406e+01 4.632380345043708303e+01 4.613693462262942191e+00 -7.955017758830859975e+01 -8.925877540033781088e+01 -8.036750533148901354e+01 -8.353018790975180252e+01 1.210275884011448078e+01 5.420468759283450311e+01 1.112023456539619843e+02 7.578914985013109629e+01 8.546301853642168567e+01 1.026457550251362818e+02 -7.139527039335044378e+01 -7.877824830215094210e+01 6.735566558922107561e+01 6.553286155441445260e+01 5.658512120376644816e+01 -8.957924383735832663e+00 -8.703614658776874080e+01 5.162092001809335784e+01 -1.712820068823416477e+02 6.426013356812543975e+01 -4.255436755273234439e+01 -9.223018719741108384e+01 7.100877610468756984e+01 -1.644435597279876049e+01 -7.377828411423827504e+01 -5.496889046933173972e+01 -8.797700588554263845e+00 2.324761735513349379e+02 7.374947071862482062e+01 5.255805890982274065e+01 -9.951971437150554323e+01 1.421489981440317933e+02 1.041225970331413064e+00 -8.664185994029885762e+01 1.494891502630484581e+02 -1.478670522072456492e+02 1.514252050589577614e+01 -3.118812374492994621e+01 -2.132717664967378539e+02 -1.293449475344235964e+02 -8.461389231120408283e+01 -2.856188781325899839e+01 -1.156349781263761969e+02 5.590845680603677437e+01 6.307275035336964208e+01 -2.679931818303726487e+01 -9.684194163855963211e+01 1.097255222089207223e+02 1.146266802541926069e+02 4.483400391199821655e+01 1.701046980482807669e+01 2.537455868360472948e+02 4.235929914216146130e+01 -1.160601542168603402e+02 -4.378725010170764875e+01 -1.638968990355961353e+02 3.095039359001603074e+01 1.488276921110442288e+02 -1.439593272645468858e+02 1.279429858241579865e+02 -8.835452175808444508e+01 -1.841101405453525075e+01 -8.137186434255817558e-01 5.138516874861630157e+01 -1.122911520607880576e+01 -2.219572829130469671e+01 -1.823846824200074579e+01 -1.232370079154595288e+02 4.507438289963898370e+01 -2.947143994337166006e+01 -1.253021312087694561e+01 -1.042695116979737868e+01 2.196644429749076437e+02 1.694318927141450501e+02 2.261543777782001996e+02 1.281350778833501352e+02 -8.417084915535976108e+01 7.304857778470862684e+01 2.057835578052915082e+01 4.617105915371653424e+01 -3.853793315487834548e+01 2.483345201060059253e+02 -2.268668201590384825e+01 -1.329683540762714529e+02 -1.452052131721692341e+01 -4.458971022370383963e+01 -7.523615739757211429e+01 4.196453647521896357e+01 -1.138951230410431670e+01 1.769195425528101282e+02 8.976728576022176753e+01 3.974963708906168591e+01 9.527721057517635472e+01 9.209657722784019995e+01 -2.235606129626277649e+01 1.358188426447161703e+02 2.583139433431853860e+01 8.719072298142562261e+01 4.641100596878983708e+01 6.730363865207530161e+00 -1.126011445578088939e+02 -1.127503738295932152e+02 -8.762008440301343626e+01 -1.513745451443707424e+01 8.436409900990483379e+01 -2.978052826379652984e+01 9.621263895131311017e+01 4.265287169272473022e+01 -7.076163034752154601e+01 -2.912337475579926149e+01 -5.699914446472502760e+01 1.709908718650185477e+01 -4.502482688593273963e+01 -1.090223140285547174e+02 1.182179219684275893e+02 1.180841313265301693e+02 -7.686512390091256464e+01 5.225587321975581290e+00 -4.411802945553783672e+01 -3.165861721479098279e+01 -1.103523292026986802e+01 -3.041386560969298714e+01 4.332236694384960174e+01 -1.368121706471750940e+02 -5.144445003233769143e+01 -1.477170624819091245e+02 1.693714333729263330e+02 -1.960423215840936706e+01 5.726861926111740786e+01 1.156667538126798611e+01 1.403904337959589554e+02 4.334494873594167785e+01 3.468533251379663795e+01 1.500830360379111994e+02 -4.787880614752580755e+01 -9.490917761582534240e+01 2.647810261911430274e+01 -1.535436010176328239e+02 -5.189950135174125023e+01 9.944202271940756077e+01 -1.238488246290574466e+02 -3.531276356425901497e+01 8.865884058879592544e+01 -9.169530073318806274e+01 -8.685084148133397264e+01 -8.023022735026835051e+01 -6.190637963524430631e+01 2.418836384261772423e+02 1.924304184688026851e+02 9.994523476836688758e+01 -9.919898330304323508e+01 7.262329738103275645e+01 -6.429721946468363569e+01 -3.057180878891949050e+01 1.613340905437397765e+01 -3.135163152207833193e+01 -9.092083613685055354e+01 -2.762387655378585105e+00 1.428570601645658300e+01 1.055389221555895745e+02 -1.246036672005449475e+02 4.073465329126331369e+01 6.182851250455801306e+01 3.342890342040584528e+01 -8.782711256683283807e+01 -1.439558436262215935e+02 1.871098769411455010e+02 -1.723865469620518098e+01 2.439548100184419255e+01 1.516881814327138898e+02 2.581394299211418186e+01 2.684089908772878985e+01 -4.313784578546614057e+01 8.578645925788357829e+01 -1.319442765520079206e+02 -2.979622312896525571e+01 -5.941394179878075832e+00 -5.164571975490930811e+01 6.151883072997374136e+00 2.053348411590243217e+01 -3.461822376663061362e+01 1.321798759506772392e+01 2.067046564701544753e+02 -2.650791615816052271e+01 -2.710219737694065145e+01 -9.829771219751891920e+01 -1.572360774732513011e+00 -7.804870728407382785e+01 6.147409198457483903e+00 1.083655947368142591e+02 -5.027862958574988284e+01 5.835172146142500793e+00 -5.247781193603252348e+01 3.192687804472180702e+00 8.425755195089071492e+01 -1.119517228599125502e+02 -9.360014207441408018e+01 -9.914690366386209064e+01 6.892195382737861564e+01 8.363563311974714054e+01 -8.908209019133708750e+01 6.055065822591968328e+01 2.497792945969286293e+01 3.737996607214771672e+01 -1.713466453467090744e+01 8.827752347732898386e+01 7.697711401556507838e+01 -7.461545217727787360e+01 1.136602641928186230e+01 7.811168210131711476e+01 7.035289899293283611e+01 -1.924748503973160396e+01 2.410113327224964053e+01 -1.280870908325067035e+02 4.690054655846262932e+01 -3.167198968159094363e+01 -3.159099441070141623e+01 1.672807022090833300e+02 4.578914953930311071e+01 1.160885969027783489e+02 1.844753030696219582e+02 -1.329681256197966945e+02 1.440277221718639851e+02 -6.131931902315640315e+01 -1.305439896769306642e+02 7.950139515954408864e+01 -1.294578377647802085e+02 -2.774073357803179718e+01 5.446080560814210259e+01 7.752216626027485624e+00 -1.624724463836001291e+02 8.141697256445753794e+01 2.438927678795457865e+01 6.672226183729837601e+01 3.508441535470211647e+01 9.137604206993641398e+00 -6.481994266107759017e+01 1.117356107848143409e+02 5.263628953339227934e+01 -5.998878612946447930e+01 -9.778636011191341026e+01 3.755908540561443232e+01 2.488021045067732118e+01 7.960017136265041415e+01 1.775511565093701449e+02 -2.376276496936427662e+01 -1.064033733115658862e+02 -8.175244533434890570e+01 -4.955845462440532856e+01 -4.278114217406108821e+01 -1.416880749325243016e+02 -2.176887742166540463e+01 1.251108858607179144e+02 7.196588842082499582e+01 -1.181729656050730028e+02 -1.448372031109863940e+02 -6.573297679457034803e+01 -7.366609226941875477e+01 1.418233872172879160e+02 -1.646311543783621403e+02 8.362204049863690614e+01 -4.448177482462447152e+00 -4.157165184177832629e+01 1.282133972676922085e+01 8.799479979346105551e+01 4.782797854071282018e+01 1.334579558590214958e+02 -1.536808051941731605e+02 -7.818714550292065724e+01 2.452399501412481087e+01 4.048170398299325257e+01 1.990074111565514556e+02 1.404735895483210015e+02 6.331090335684937997e+01 6.962275830309701519e+01 -3.281630838859976507e+01 1.465540369841176869e+02 -1.732275602390301685e+02 -6.125977637770284190e+01 -5.182862657476628243e+01 -5.000746121730659866e+01 -9.968074363619234646e+01 -1.448740185329997665e+01 -6.625768330487179014e+01 6.869498668339947756e+01 -8.816807805122339303e+00 -5.602845270377397924e+01 -6.003727186245730252e+01 1.739627624034407063e+02 5.702859506540752221e+01 -1.328074453485789874e+01 2.016799282383678360e+02 -1.046267106526802593e+02 -3.409867911444657551e+01 6.465354162905970270e+01 -1.366257137469582827e-01 1.447817619167170378e+01 -1.208265544039050070e+02 1.700937532730543467e+02 -4.722763383595451359e+01 -2.594167810853641853e+01 -1.058706737663913344e+02 1.214523847488901396e+02 9.246329020598491866e+01 -7.477802236469283059e+01 -3.633552330000195241e+01 3.760631935580968843e+01 -1.460303699853855335e+02 -2.098430618759684341e-01 -7.205998693258628407e+01 7.401018316426777766e+00 -1.042406640248608767e+02 -1.528909363603312102e+02 -6.817301305512417287e+01 1.429019149595607132e+02 5.450184041378735600e+01 -8.643836073318831836e+01 8.593994133997708218e+01 3.296112374958654812e+01 8.518830724702623058e+01 -4.059913700236320722e+01 -8.101220780560718993e+01 1.648369621514831636e+02 4.010225036085813599e+01 2.788440444363089199e+01 -7.030516965075509006e+01 -4.076489401041168747e+01 9.146297287984301860e+00 -6.917193388895375605e+00 -1.664809038169689757e+02 -3.335195618791696148e+01 6.201651486621708642e+01 1.074267750478222467e+02 1.499654744177304337e+02 -1.280085347346771307e+01 8.627824393454761776e+01 1.518507896045181269e+02 6.101880721221350967e+01 1.420760900218921847e+02 1.546055995518092629e+01 1.263337784358907072e+02 -8.074808838449916948e+01 5.128056193116127304e+01 2.816071624551808128e+01 7.291645961948492527e+01 -1.020934428885651926e+02 1.903623062142065692e+02 -1.236140538537753599e+02 8.486199878513700412e+01 -1.031001322232590240e+02 4.434828946618871015e+01 1.326253537395669291e+01 8.704610492457810267e+01 -7.066982568627460637e+01 -7.245605111446712954e+01 -1.066984135067401773e+01 8.546060710493577517e+01 -2.838425317745493714e+01 -1.562109382081658282e+01 -1.882039096410509060e+01 4.538167659852661018e+00 9.402514771977477892e+01 -5.989839246644489634e+01 -2.585021531933164418e+00 -1.854969988577995252e+02 1.167043169822082120e+02 -1.193556388041608756e+02 -7.058726129386536741e+01 -2.246986176544301372e+01 -1.031708651938678116e+02 -5.078108913069895181e+01 -5.599577129644849549e+01 -1.882954135716167343e+01 1.301518856095225374e+02 5.165423518481862430e+01 9.593028595269298364e+01 -1.300322855469127035e+02 -1.323852136712573611e+02 -2.739515299847328151e+02 9.765237591991490262e+01 9.955726510020897990e+01 4.045499479205534499e+01 -4.060211068848099103e+01 -3.548932523989144983e+01 -1.755025181023752054e+02 1.395512088195349349e+02 -1.026122093743126698e+02 1.021946173168699801e+02 -1.520758420239755537e+02 -1.368759378097612789e+01 -5.290997041452919092e+01 -1.139560480538950316e+02 -4.405676424180241213e+01 -1.200835994923138550e+01 -8.856444766856212425e+01 -9.884574286813425203e+01 -1.181506212798026745e+01 6.801219932738025875e+01 -1.190631757502716539e+02 -1.494445319668759886e+01 -7.047085938058647514e+01 -1.255743630593402571e+02 6.272067072104852592e+00 9.084841971117685944e+01 1.582291184932915087e+02 -1.820714197696334580e+01 -4.401008514962089890e+01 -1.187197019258002655e+02 -1.564666860197723963e+02 9.926691683930002341e+01 -6.954633721406862890e+01 7.551908509284808702e+01 8.984587548021076842e+00 2.792227712970664300e+01 7.062034609655736972e+01 -8.109482705494345112e+01 7.910581844935434503e+01 1.102917029367809789e+02 1.507241041451011370e+02 -1.114569103628687969e+02 9.947921305731006214e+01 -4.573679974659484770e+01 -8.689158551199720648e+01 2.053793964135599310e+02 4.707324069971172520e+01 7.988004068118711132e+01 2.026898097873698035e+01 -6.059399393046809479e+01 -3.343056778187374789e+01 -2.013488886108417262e+02 1.011034144315312489e+02 7.797008797128837898e+01 -7.244022030489604447e+01 -6.995109636036987411e+01 1.389405055109876912e+02 9.671856115086174555e+01 4.892566187503084763e+01 7.278461396513567649e+01 -7.490943441241075362e+00 9.874859691097860548e+01 -9.915005630918443558e+01 1.783113934161028453e+02 -3.778546650627831127e+01 -1.167699133503369353e+02 -3.610586778254590712e+01 6.865348542980733271e+01 1.409882499938588580e+02 1.226885480792148364e+01 1.663474496103768843e+02 4.993124868461507759e+01 3.219877133602184927e+01 -1.065110252796543904e+02 4.284028708563089793e+01 -1.195902296381884611e+02 4.567597769717918510e+01 3.689212618271575650e+01 -1.180885901991499480e+02 -8.138344478548773964e+01 3.815613652974349179e+01 8.349374783357722762e+00 -2.219829604048434746e+01 4.009755515305769791e+01 -2.048413243871645761e+01 -6.037376842865306514e+01 -2.514342159971904067e+01 -2.143879412399083151e+01 -3.810157003135410747e+01 1.794972927716753119e+01 -7.708290364424391328e+01 1.138179360754098326e+02 -7.105625978599310599e+01 -3.992475053815642827e+00 6.283875844933352539e+01 3.697667809400964511e+00 1.528707261262774608e+01 1.528922918680848220e+01 -1.120591568036145276e+02 -4.212119289097636887e+00 6.223866353626232950e+01 -2.214472228150488036e+02 -8.124593358108194252e+01 -1.078185046217063530e+02 4.191465864734758640e+01 9.205715317380251861e+01 -8.781439525582571548e+01 -1.606331147988369139e+02 -1.772124596323767207e+02 1.908471476343046191e+01 -1.386332132174507024e+02 -6.057254402869712173e+00 1.411564948624775013e+02 -6.746644101195006016e+00 3.547677592598357421e+01 -9.443351530538635075e+01 7.624609161933013013e+01 -1.131215072676659616e+02 -1.473611812414920585e+01 -2.886558770927671702e+01 5.492584683660923162e+01 -8.407662230767176226e+00 1.007013077469479327e+02 -1.163335237272124658e+02 -4.770961711021708851e+01 8.257441295447300433e+01 6.298198057682458284e+01 -7.833701738314752561e+01 -5.179501506914260034e+01 -4.699939375914118500e+01 -2.752988666331110608e+02 1.840536587586909718e+02 7.230499017771663262e+01 -2.238930462239931529e+01 -2.820213813860499741e+01 3.945945902541032524e+01 -7.986312681538474578e+01 9.447924202013599881e+01 5.744573886688215936e+01 7.772512022348560379e+01 -7.980909331215063673e+01 -2.511595295386122118e+01 3.159233403997400202e+01 1.648794545826413582e+01 -4.066155929932943280e+01 1.498575205160805410e+02 -1.638299463839412695e+01 3.359611717970008016e+01 -2.179975054301006878e+02 -8.025427847479502930e+01 -6.933075859799504315e+01 2.183506148455412443e+01 1.034922031608231237e+02 -2.197271042529787337e+02 -1.773029679285150451e+02 2.100569665479839330e+02 -1.001140795081522583e+01 9.101616625962513751e+01 5.933942979391845540e+01 -5.243727504144859353e+01 -1.241541568898708903e+02 -9.018781401674854692e+01 -4.761628325686441343e+01 -3.544386861017806467e+01 -3.711753600842794754e+01 1.527340067013866332e+01 3.529237080502485213e+01 1.581681670378760600e+02 1.168347779725011861e+02 6.651269369148196553e+00 -4.188786441430327301e+00 -1.504277614545298718e+02 1.134017539884301016e+02 1.509626302251697894e+02 -9.807639342288160833e+01 6.986475328264033635e+01 1.579217505464357352e+00 5.208787652940415569e+01 1.188022790055031663e+02 6.723730579139086672e+01 -1.270655126116863585e+02 1.526293420200016371e+01 -2.785653182065323463e+01 1.056710326094652430e+01 -2.187036314429978390e+01 4.296818796262010665e+01 -2.471632494738217929e+02 1.717661536736821972e+02 6.867266072227327989e+00 1.511785145648437378e+02 -9.962596553253659337e+00 1.006896461334200268e+02 6.795718528964756899e+01 -3.980922484832115060e+01 2.844269106705193551e+01 -6.914856199555261185e+01 -8.450906733706155194e+01 -6.839135630863601989e+01 -3.044622561546129447e+01 4.288828869424651913e+01 1.046204461879516288e+02 2.702699497599109435e+01 5.909331577590958062e+01 -9.961526762966713022e+01 -1.303174690885328459e+02 -1.281379898249071125e+01 4.406984117426342351e+01 -4.316191547873452095e+01 8.994738758278877810e+01 5.282223506218799258e+01 -2.627255856167979431e+01 2.846606853797648640e+01 5.839060005043094748e+01 -6.854692370274420909e+01 -1.271671966560286791e+02 1.350960002935307500e+02 7.429374587164213395e+00 4.769501765157188800e+01 -1.420859975383642109e+02 -5.083170137521100429e+01 -4.028052335758478542e-01 -6.268179993558536722e+01 4.051288490084488991e+00 5.362083538508954916e+01 1.775888488489615042e+02 3.728016164239014074e+01 -1.043702191516212885e+01 6.887036914331507376e+01 -4.332166742127929382e+01 -1.038644836058882959e+02 -1.317097928208181941e+02 8.920821543311575397e+00 2.394349372556101230e+01 2.274604470756182195e+01 -5.425695160710939291e+01 1.152424532867824496e+02 -7.710643181127642265e+01 1.224439290710540291e+02 8.330030544728471398e+01 -6.207610460867989843e+01 -8.094529087272874790e+01 8.041253580605017248e+01 1.947514605569852009e+01 -5.017618137220708263e+01 -5.141653504528670737e+01 1.306709375255953205e+02 5.479495631518758358e+01 7.639082624029749979e+01 2.498966610678717970e+01 -4.017532592088211629e+01 1.026639921047410269e+02 -5.217793189216050820e+01 5.570409298714342761e-01 7.318148343561030345e+01 9.526930476306858964e+01 2.444770368925482842e+02 -1.676537812652271100e+02 1.539782399267094490e+02 -6.462477557750344204e+01 -1.458464010723149329e+01 -2.407929267253236105e+01 -1.984729561421012178e+01 -5.275397854251941254e+01 8.909829947340975309e+01 1.762869679490107728e+02 -1.137973918960919661e+02 2.964658353695014625e+01 -1.216574244947812389e+02 6.731241805191424987e+01 -4.263909933849799216e+01 -7.776453540577293211e+01 -5.175442761191602159e+01 3.956323128276284962e+01 1.858801000649336999e+01 -7.851909159987442877e+01 -1.355014401896677612e+02 1.994929108744322832e+01 1.515071382334045893e+02 1.373806092273656709e+01 1.754986562954268550e+02 7.168502900049576354e+00 1.295461073071506064e+02 -3.328327201105322075e+01 8.738359145705797459e+01 -6.878241792294052459e+01 -1.087374787070437350e+02 4.762289047881711923e+01 -5.587802453546435544e+01 -7.569914280537469153e+01 7.021480932928724883e+01 6.253656923074902174e+00 -9.090477033585381150e+01 -1.452782208175064795e+02 1.427529429730467427e+02 -8.607002612750510195e+01 -2.299951429902326261e+00 1.159800636416627526e+02 5.601888169372121240e+01 -9.489378194277564660e+01 1.030701057891483075e+01 2.725983719039285234e+02 5.151216860474183790e+01 -1.524891679742504209e+02 -4.616532597033688035e+01 -5.946788290881598726e+01 9.296513981641648883e+00 1.040892071424870124e+02 -1.001831775949153780e+02 2.091199958574313555e+01 1.263144914247256310e+02 1.817576917986144736e+01 -2.046145699083072316e+02 4.675351554155728451e+01 7.312382240701808200e+01 -1.317641843143393388e+01 3.175619020479517829e+01 1.807368353308914932e-01 2.187769838520721777e+01 2.687257610703289856e+01 1.122553692027830721e+02 9.502584646305622584e+01 1.517379033649779707e+01 1.444063829000297687e+02 -6.204153013653990456e+01 2.390417344914531839e+02 6.304351357853525428e+01 1.373871195975695514e+02 -2.128494634147936537e+01 8.732232142883830761e+01 -4.740016161190494159e+01 -1.419005197429171972e+02 2.535101968503247605e+01 9.205465523878929446e+01 -8.487768935722144192e+01 -1.015513361856529002e+02 -6.451403785326832008e+01 3.551327781217681689e+01 -1.106970663050487360e+02 7.241594890762331715e+01 2.717521184195574691e+01 -9.464496466512565576e+01 1.841323042060567730e+02 -1.140257680275376906e+01 -9.869512873967434530e+01 -1.301929530716892103e+01 -1.981641083681935456e+01 -1.359597748908904862e+02 -3.879861184093117998e+01 5.965287948425820019e+01 1.278121721376386404e+02 2.817407555900790328e+01 2.592320787331005150e+01 4.343025528154642956e+01 -3.461920684534012338e+01 -1.412219961194729478e+02 1.542747753031009594e+01 3.000285858699427166e+01 1.291064792500372107e+02 -9.572381824835336062e+00 -7.381789385550278837e+01 7.098473856343207444e+01 9.382396781766185745e-01 3.081300271954988901e+01 1.349932950395093201e+02 -1.720973163239814596e+02 -9.006338107737208531e+01 1.209765089679809620e+02 -2.033070412287862325e+02 -1.733119670157226722e+02 8.579990591828168078e+01 1.451244182190308152e+02 5.978234585604717211e+01 -4.229077815211255142e+00 1.467371546607892014e+02 -2.069048120035972431e+02 1.009828244277961460e+02 3.993452221194258556e+01 1.197517493154227424e+02 -1.777265256804635953e+02 1.003314553455905696e+02 -2.658305288431022362e+01 -1.259854687545721532e+02 -5.013924556181679648e+00 -8.706028125038345422e+01 -1.525634723185556219e+01 -4.118560428595098521e+00 -1.160987891394760538e+02 -1.162149518853583743e+02 -5.895691794067447944e+01 -1.214709995501575435e+02 1.893935840878138208e+02 -1.518678173500552759e+02 -4.729578722869266016e+01 1.626047343644486887e+02 3.197970597877370125e+01 -2.789490961048493318e+02 -1.198279569548009107e+02 3.344777756797403612e+01 5.152090003064841994e+01 8.027761106878571695e+00 -1.456723038898861660e+02 3.362898972184233770e+01 7.087163889889537494e+00 -7.004911097738187209e+01 1.910692427704104830e+02 1.908901439247055407e+02 4.104074843438507258e+00 -1.965460604258327919e+02 1.187158526301382722e+02 2.896985256370993866e+01 3.613067990399687179e+00 7.215568680001544521e+01 -1.955450963355336569e+02 -1.300586709702110397e+02 1.328804431784443238e+02 1.033417524106618970e+02 4.984335506146033623e+01 1.349101832920100037e+02 -1.679931631538954946e+02 -1.929791983141991096e+01 -1.228746647799463290e+02 4.117631557438338774e+01 -9.789330826752487269e+01 8.206486777871924687e+01 -3.198290290015012971e+01 1.167295472764114805e+01 1.672233974047878462e+02 2.692338647289826525e+01 -2.483859783043897664e+02 -1.191217166139166466e+02 -7.853486427059557684e+01 1.490007796274385043e+02 1.181964173429099496e+01 -5.081022277710025037e+01 2.855293254437051687e+01 5.887224719618134117e+01 -3.725536739435265332e+01 1.013150944866753207e+02 -9.494568566032964441e+01 4.637791685579585987e+01 1.054856762056402033e+02 -3.350148147203860560e+01 -9.247277612762951549e+01 -1.069408876461858142e+02 1.128628394277862554e+02 -4.683057806124336508e+01 1.852257621356719710e+02 5.390967488521118156e+01 1.045467279211516285e+02 1.739114122819258910e+02 8.060643019328352921e+00 -1.171626373635490523e+02 -1.561608479012728878e+02 -1.075767678696611398e+02 4.007362793496469777e+01
-1.249845496535093226e+01 -4.472454350078260532e+00 9.529771232473436271e+01 -2.108373877128660183e+02 1.430626584422793428e+02 5.842579779736014700e+01 1.400504523506942576e+02 -1.189002175732015729e+02 -2.538591539565965061e+00 -2.213919060303783937e+01 -2.020392441918314148e+02 3.009238079864934079e+01 -1.685703440820832100e+01 1.125876440012537643e+02 -1.151755605894324219e+02 5.680601811131428036e+01 1.152934103706695339e+02 -4.230456286937118904e+01 -4.560924225213179284e+01 -2.480572607229991533e+01 5.683009750837997132e+01 5.802339257385837357e+01 2.986320728949694470e+01 -2.139755339700943750e+02 -4.742692950064125057e+01 8.428615966958115280e+01 9.128723934318331956e+00 -9.565074149457370112e+00 -6.121378823558639226e+01 -1.428371477566978243e+01 6.749299420186638088e+01 -1.338099216304167953e+02 -5.703787458643736841e+01 8.243964509289281040e+00 1.910629795264484869e+02 1.951612801514264390e+02 -2.961076068781553516e+01 5.142675048894979284e+01 -2.319812998659500081e-01 -1.284944841931765325e+02 8.830465607160608954e+01 9.865252711622919435e+01 9.984693284634263932e+01 1.073559466852548105e+01 5.693214594689449370e+01 4.427292169491686025e+01 3.576899094350404340e+01 2.703569213823612927e+01 1.014690955614031509e+02 8.253429127221839678e+01 6.032707675819184345e+01 1.499910992019895559e+02 2.280852911862986900e+02 1.799798707121121026e+02 -5.442277372720846529e+01 4.533474495441140562e+01 -5.911816940196284520e+01 5.186967936214355035e+01 -1.768774296264432166e+02 5.198598949708697603e+01 -1.883801927452158509e+02 -1.552524939496339584e+02 1.192351960023134616e+01 -8.537932761660513847e+00 1.559734192103655062e+02 -1.914013551467826346e+02 6.925836757057895454e+01 2.115295571542966968e+02 -6.829142782174646875e+00 -1.793057594358095059e+02 3.267143061399085724e+01 1.814390148511966458e+02 -5.624443630757408386e+01 -2.453612866446309511e+02 -9.439571808898421068e+01 8.230190756401494667e+00 -2.117722170455081425e+02 2.956707671784509373e+01 -1.651872092577570470e+02 -1.708022296214706728e+02 -5.267279473751131746e+01 1.403195608898090825e+02 6.392276725191843667e+01 9.783864266923187003e+00 -8.168399147335441057e+01 -3.922970179697557569e+01 5.869134554499468237e+01 -2.138684212646452352e+02 4.983342150522096858e+01 -6.900705838080703813e+01 -7.201497257023775944e+01 -1.629001920732457336e+02 5.989682654279571494e+01 8.539439923355548956e+01 -1.495622839998023608e+02 1.592567376019666767e+02 -3.673930468946095118e+01 -1.559716763006416151e+01 8.082027979888260916e+01 1.441275222651272827e+02 2.007170594722395052e+01 1.396323390324435536e+02 -1.708090424000545937e+01 -8.362367296259894545e+01 -1.807034294250463802e+01 9.317213736401392055e+01 4.264227983775685971e+01 9.276194243885272783e+01 8.948473490176155565e+01 -7.881209687483449500e+01 -1.611210425645371060e+02 1.166783413163236816e+02 5.142970963637376514e+01 1.542765322048259691e+01 2.898777511541029384e+01 -6.441638938052398089e+01 9.106633670811862658e+01 8.524285798886390353e+01 -1.304415120403169759e+01 -6.759601724773132503e+01 2.909274302484542929e+01 5.967461603123798142e+00 -5.830222679935365449e+01 1.608961363940418323e+02 -3.106189621077198737e+01 1.153693187976177938e+02 -6.649570555843408215e+01 3.642734400267956829e+01 -3.420690798194154780e+01 8.493441553380274911e+01 2.226849609286491827e+01 1.097057427269117227e+02 -1.101503670708518996e+02 7.057507324356178913e+01 1.171934764530572579e+02 -4.241546955967496757e+01 7.289942165794675688e+00 -1.217748924825617252e+01 1.109433513118311652e+02 3.511105527753763500e+00 1.601013844943749120e+02 -1.343093942944453545e+02 1.107763368435766012e+02 -8.667246703240654426e+01 9.103671521657457788e+01 -1.302186071645502352e+02 2.803193691238648100e+01 2.353063005600946056e+01 1.675542664605807142e+00 3.451230324703446684e+01 4.376051902219924727e+01 -1.174688921409526898e+01 1.039562580538589742e+01 1.027594245571838769e+02 1.209547612512711083e+02 -8.246012912072868062e+01 -5.148524560826198382e+01 4.498321482103035152e+01 1.431077781748774758e+00 -1.302943890524167330e+02 -5.246825620493680020e+01 -3.365948140952971812e+01 4.649711800507940751e+01 -6.231394903538531338e+01 2.178863367918696170e+01 1.526199411924306446e+02 -7.560353494291878462e+01 7.696836306738316580e+01 8.001113350841559679e+01 1.075954041335539557e+01 1.175611192929669926e+02 5.989105157969490278e+01 1.600749918440467638e+02 -3.300966671758787641e+01 1.071334421387466449e+02 5.296550140815505614e+01 -1.530341205496202228e+01 1.946361851658612920e+02 -1.323373938635854756e+02 4.664604952077435485e+01 -1.789705607392663751e+02 -8.031332438152227837e+01 3.918622725686915231e+01 -6.894426122721262118e+01 -1.487417459124916377e+02 1.903602979707497980e+02 -8.192516132818090568e+01 -4.536948189948645904e+01 -4.420377549873014544e+01 1.163166434888141083e+02 1.860818909604985834e+02 6.186209289099467412e+01 1.397441199987812865e+02 2.097404718669366162e+02 -1.513671539036689495e+00 1.556372250963371755e+02 6.774012157797085365e+01 1.819630674139719986e+02 -1.202529666446352792e+02 -1.129400157615844691e+01 6.085961797226449477e+00 1.815191789774486040e+02 -8.681071226538895758e+01 -5.787358266282533492e+01 -5.058207860066612227e+01 -1.281294735510212490e+02 4.469937297871396709e+00 -9.645511637908498415e+01 1.473892283603344993e+02 2.249105306082649847e+01 1.144879859636348840e+01 6.910484813748391275e+01 -4.681968824439743493e+00 1.118556408598438452e+02 -1.518730035424599407e+02 4.343167526007900392e+01 -1.632113114482725393e+02 1.122336284625274629e+02 9.189067574433114771e+01 -6.429349012900028981e+01 4.475163538512648387e+01 2.276211454504201015e+02 -2.913868639333605159e+01 3.980446221823144981e+01 -3.124054028093859614e+01 5.538804510310103524e+01 6.140741739337339311e+01 -6.014741115141485572e+00 9.736775037637924868e+01 9.693083209074615070e+01 -1.852740251325719214e+02 -1.464395539941734512e+02 -1.145457642097246094e+02 -8.995548859710055467e+00 -1.430995379899411262e+02 1.104229824740328496e+02 1.054120648327342877e+02 5.640051544917017168e+01 1.067110447967807829e+01 1.506521296381751824e+02 8.022138498440185117e+01 6.451547242005129590e+01 -9.704689419580375898e+01 1.456740671200899158e+02 -3.458296315347265004e+00 1.044975587383292464e+02 8.431626198193047372e+00 3.509957731785931401e+01 -7.228288592735680140e+01 -8.666092493302490141e+01 6.837996379599124452e+01 -3.707633543046832347e+00 1.395883210018641307e+02 -1.198119291267334674e+01 -2.708603000240311420e+00 4.378546886302460450e+01 2.159267579927289660e+01 1.350083137166504912e+02 1.405494265192874082e+01 3.423271733476681078e+01 -1.476191920474576023e+02 6.279483914731839178e+01 1.275120421691429158e+02 -1.674427395700365651e+01 -2.174743235659734921e+02 8.048320762572821252e+01 1.297698360633362142e+02 1.943675973050876848e+01 1.799902446662724174e+02 -4.110326090101891872e+00 4.077505092551898969e+01 -4.150637357141571471e+01 -1.317465434341762602e+02 5.325833027354821070e+01 -4.511556839965233223e+01 -7.689275535397246131e+01 3.915141042509628733e+01 -1.753848456332131605e+02 6.796811869554886698e+01 1.560752574111414503e+02 -9.602495122773974856e+01 1.641322101092621040e+02 -9.253336098310771263e+01 -5.643648128365764016e+00 -1.001124001340786762e+01 7.267574329266439292e+01 -4.420863934275089235e+01 -1.021062632469189992e+02 -8.395620724836325621e+01 1.381011109111955477e+02 5.598336062171961913e+01 -1.248569155123568777e+02 4.171883308519577227e+00 4.107436878985635076e+01 7.811804961991396112e+01 -3.815580671295705173e+01 5.669692635870475783e+01 -6.524565760823573157e+01 -1.535021130155079447e+02 -3.274160311306049920e+01 1.332866529576947414e+02 -1.072547844027227910e+02 -6.022296784643946133e+00 -1.539284583695588822e+02 -4.610914596875688609e+00 -1.378916288066226628e+02 3.115764450373215055e+01 5.694887945520247285e+01 -4.754980654193052203e+01 -7.780690915041677158e+01 5.335297507850562226e+00 7.028647020473597706e+01 -6.400808976215763835e+01 1.271676105310447298e+02 9.970606687667282131e+01 -1.205061620817386228e+02 -9.956265718923772567e+01 1.274911761610855478e+02 6.727451771213523557e+01 1.417366768950121809e+02 9.426638620011658531e+01 7.651256726967083921e+01 -5.685345512832871151e+01 -7.705959532323137751e+01 -7.262486014171555837e+01 1.927396394730630220e+02 2.887197862236524415e+01 -2.348788482450212456e+01 -6.449775040333732079e+01 -4.698831903007284438e+01 -1.236003143673142404e+02 -1.548531409681855031e+01 -1.646756434277646122e+02 1.173213426390090603e+02 4.312495339456945231e+01 -1.080958749470250950e+02 -4.543018110796182185e+01 1.123414280037176241e+02 -9.090478802516479107e+01 9.649512213560275598e+01 -1.111741008264352502e+02 -1.105713330096345004e+01 -8.960381096918322896e+01 8.421425969238468667e+01 -3.984015890084602773e+01 9.597400941114496931e+00 2.754890784984094410e+01 -1.187814912141232213e+02 1.172070147843191457e+01 4.539203108517052954e+01 -2.093195985764544531e+01 -6.447131458564970785e+01 1.900404616468391055e+02 8.109069067404769271e+01 4.415317920215818503e+01 -2.944896976690851886e+01 7.519190881211046928e+01 1.571722058114934839e+02 -8.645440871154188756e+01 1.964361012731592098e+02 -1.248109813314620737e+02 -1.724187300030928043e+02 1.422774277415919926e+02 -2.193812552470005244e+02 -8.646140821709776825e-01 -2.296489757495079687e+02 -1.433156087257529805e+02 6.730232228295763264e+01 -1.364850516898019919e+02 5.471391261810578044e+01 1.031264597392871281e+02 -1.502883969088996707e+02 -2.818856648023866640e+01 7.071720899807803562e+01 1.255361827084658586e+02 -1.745214150110457183e+02 8.205383854254083076e+01 -9.186002232833381242e+01 -9.220075594701960142e+00 -1.296831518198951727e+01 -7.458236859896047122e+01 -8.463148504444234277e+01 1.700468970487293632e+02 -2.037641950231617471e+01 1.277546051136712713e+00 1.221389244752495529e+02 -8.137462570813490004e+01 -3.229478047161401122e+01 -1.010470477432096743e+02 -4.579776828262635746e+01 4.812203474081798049e+00 5.568955393651591379e+01 -1.268414866511995172e+02 2.228390946029757629e+02 -5.063151299101465241e+01 1.152535300368212887e+02 -4.591156545565180380e+01 1.126349581502910837e+02 1.309666294556468813e+02 4.508080762499466232e+01 1.148565076479373062e+02 -4.068687817629417225e+01 1.317600742679843222e+02 -1.473668855781948253e+02 -6.158228745404671400e+01 -5.929807840585489487e+01 2.411252707800064599e+01 -1.528404865319307646e+02 6.831368729790240479e+01 -2.905410985431901949e+01 -7.784157807334348433e+01 8.436491931362800756e+01 -1.423455409421166280e+02 -8.595360529288038265e+01 -4.963030267652660399e+01 3.114903323772594845e+01 1.222721751264704722e+02 1.100340302336916807e+02 6.506477960819609052e+01 -1.441867005705993243e+00 1.648086335365173909e+02 1.154286611890322831e+02 -8.904100080831699415e+01 -7.355660881137868046e+01 5.181114925292783369e+01 9.345120533253730599e+00 9.230041074312507021e+01 1.571279023461662234e+02 6.651698821575362786e+01 2.306252429426285744e+01 -9.631562750370090953e+01 1.617855761188105816e+02 -1.070557206559980870e+02 -1.556590397065308480e+02 6.191369386954863074e+01 1.050244355778487062e+02 1.852070721806053655e+01 -1.307496359243839379e+02 2.795775791673526101e+01 3.991165563615407308e+01 -3.696914119573987412e-01 1.232701506807885181e+02 9.212725212408582820e+01 1.611134762442465629e+01 7.373119622094421288e+01 -1.005950509996721109e+02 -6.024705937471310335e+00 9.255224366869039443e+01 2.794600439285735405e+01 -6.117577534787990601e+01 1.863544877555526114e+02 2.174215630068616179e+02 -1.179813706917323231e+02 -2.600659156970137786e+01 -1.976185083270374037e+02 -6.787613765396334031e+01 1.471769052232012029e+02 3.138151497289551894e+00 -6.674409038977903208e+01 1.539285814492843372e+02 -5.871718252091741164e+01 -1.509821782640871959e+02 1.283622902733409319e+02 -6.311985335252276030e+01 3.247710658005734530e+01 8.110793262470706111e+01 1.297034272934711119e+01 -2.238851209663188229e+02 3.979039852738917915e+01 -5.828020086766146690e+00 8.469428955841839013e+01 -2.214481004811164411e+01 9.494358953558506187e+01 1.598954601750520332e+01 -7.951110335985171673e+01 -1.925271481875129354e+01 -1.646434404402618554e+02 1.080006756279231297e+02 2.376066940566125751e+01 -3.908212334660254328e+01 -4.864758588799082872e+01 -5.913555438763530958e+01 3.865347623638945862e+01 1.509589015400630387e+02 1.246381501599366430e+02 4.041258604347151362e+01 -1.858662812667316473e+02 -3.644328287034525715e+01 4.117324602527239819e+01 1.101837600497141665e+02 8.186602017490042726e+01 1.448615061856257924e+01 -1.747051564787178961e+02 1.236389131794456091e+02 -2.101411970985587061e+02 -1.933065442265067304e+02 -1.702424413334807651e+00 -6.927915048771964734e+01 -2.268744904164538312e+01 8.181428848404452481e+01 5.251685894732148085e+01 -1.044105284900712149e+02 -1.422811476333166638e+02 1.368408446045415161e+01 1.161667519780740321e+02 1.938662905859465724e+01 -5.326093494009287355e+01 -4.854422496900050987e+01 -1.094874113748776523e+01 1.515658866720855542e+02 2.099537996746412105e+01 -1.661504516468207271e+02 1.227717135990835970e+02 -6.393892171097079569e+01 -3.989002056820810882e+00 1.472547572136496683e+02 -4.996983203829461218e+01 -1.874617588653217126e+01 -1.050460312439840322e+02 -5.730701662523933315e+00 -2.279376912129586330e+01 1.258851463336677199e+02 1.147868254734392508e+02 6.462316238689511749e+01 6.261128090855375206e+01 -1.788314750060619573e+01 1.292096212428677404e+02 -1.078511928431723277e+02 -4.060842356181745494e+00 -8.706333902649481615e+01 1.501653525545998207e+02 6.972572804524079970e+01 4.938148591362514850e+01 7.869949912447117946e+00 -5.098824455421607382e+01 3.287104487721973811e+01 6.410393301589856208e+00 3.535881030520357182e+00 2.302810140149578189e+01 5.714910548475107532e+01 1.627861374439696647e+02 -3.718133107552746708e+01 -4.967696945090770555e+01 6.386444172038644496e+01 1.105733622067370447e+02 -1.225760732426734201e+01 8.793635197288895711e+01 9.956849252902047454e+01 2.015562328028092907e+02 -8.272583068184199817e+01 -1.172559135900677632e+02 -2.739238814864496518e+01 5.944909952415125076e+01 -9.703016179391159568e+00 1.026725209473891738e+02 3.561830416477809536e+01 -1.554375439804533414e+02 4.305693573556899167e+01 -8.549859447488094588e+01 -1.292931428013787638e+02 1.285404457238099383e+02 -7.269407523619436517e+01 5.657590269606721023e+01 1.061798464652614200e+02 -9.454283868248015210e+01 2.247339686063596531e+01 -6.890288076636306869e+01 3.849996144989948732e+01 -1.095357811557308736e+02 5.885266639659783294e+01 5.223589643208138966e+01 3.662372747054386313e+00 8.020399654599935957e+01 -1.459221108432273297e+02 7.289434253602016156e+01 -2.802550428646882352e+01 -1.601204415119526629e+02 8.960089256630875809e+01 2.328906638459351441e+01 -1.858392296706850573e+02 2.230251522600231908e+02 -5.156908619784906778e-01 9.965874116251953296e+01 -1.142879915717713004e+02 -1.840443123718295055e+02 -8.844434433474246759e+01 2.387301259671596121e+00 1.353814678647529490e+02 3.729224095124507699e+00 -9.058987976445268941e+01 4.768639795178099661e+01 1.298776324404636853e+02 6.155342554180998604e+01 -4.900078713859911517e+01 -5.606125284212709659e+01 8.008332007206166736e+01 2.908991301968717380e+01 -1.853907105600522698e+02 -1.964448186612230884e+01 1.601785139584619913e+02 9.360403709444049980e+01 -5.435545010660835175e+01 -1.059586892966544127e+02 -4.043307329109969572e+01 -4.556884693956735788e+01 -1.084620545462577184e+02 -1.744368475996772005e+01 -4.326767298363591152e+01 -1.076830688470361252e+02 -1.250589870878478962e+02 -2.556919414954768754e+01 -1.191220276797257611e+02 -1.268794973602613396e+02 -3.632841106727614289e+01 -5.241838243177679857e+01 -1.052491751709832357e+02 1.827524163043207182e+02 1.032345488454831361e+01 -2.760846864795010802e+01 -1.668030672873965869e+01 7.723287610820277393e+01 1.537020434395664914e+01 2.458901715063982607e+01 -2.082316768101888727e+01 -4.547531759993322709e+01 2.052123671666930704e+01 -1.427386196102505664e+02 -1.562635501814553436e+02 -8.869359833861852849e+01 -1.873547161619222834e+02 -8.795838726959536302e+01 8.416707840585044664e+01 6.027144226643182634e+01 -2.556392810030150287e+01 5.965230492730643164e+01 -1.537369183815655163e+02 -4.017155504662925125e+01 -1.140319660472502932e+02 -6.552068145845267111e+01 2.071676373000487388e+02 -2.015282452020414894e+02 2.015014362905661471e+02 2.448637736158756439e+01 -5.539416314064617097e+01 9.048667248460665746e+01 1.218042269128775672e+02 -5.093307254926648397e+01 -2.000605577605313101e+02 -1.463625754788244251e+02 1.004214933246655761e+02 8.222178934710994724e+01 -1.330706894887979956e+02 3.133419483114419180e+01 -3.897793672428091583e+01 -7.598660950539098735e+01 -2.790943041924862555e+01 -5.380059828574555070e+01 -8.482521221554125646e+01 -3.345468895799383091e+01 4.468138468153953546e+00 -3.203528887581909856e+01 -3.475209806081305253e-01 -1.403078198935125620e+01 9.023230296066088840e+01 1.248110578374192130e+02 1.291243673745606024e+01 1.650391576160584961e+01 -6.201140015458869215e+01 -1.925075992802966027e+02 3.322554211186024986e+01 -9.002627991487121051e+01 2.537747029853474245e+01 -7.943476092131621868e+00 1.062887507429877143e+00 7.110514380582485217e+01 1.196736317565281098e+02 -6.921461567273304638e+01 3.730520439636216423e+01 -1.894184665315540883e+02 9.520380455252814400e+00 6.771859270859535762e+00 -1.203356431587092743e+02 -3.308504386066893943e+01 -4.352022519107494958e+01 4.671453493599084794e+00 -1.003697569065842572e+02 2.655325838474983158e+01 -9.585349496787026169e+01 5.499759385685632651e+01 6.664839436221161861e+01 3.623526126147820037e+01 -2.848319042061669393e+01 1.055303461904172764e+02 5.999639603336377291e+01 7.854731506779167205e+01 -6.579077525418431094e+01 1.985804404005319057e+01 1.255159897167293650e+02 -5.742809566082401318e+01 -6.793683275699100577e+00 3.138917299073974476e+01 -1.260569331425051729e+02 9.597567644295392597e+01 8.790419564152402643e+01 -9.930714628780800979e+01 -8.079895687233766921e+01 -5.450185386684403710e+01 -4.480963306551215908e+01 -1.571651602521995414e+02 -1.333072578549874549e+02 -1.299753669155022351e+02 1.036457222082372027e+02 5.867835638781353680e+01 1.564779376074685615e+02 7.073823567981268212e+00 -8.400024203447749471e+01 1.840635279808864766e+01 1.355439340975654439e+01 -6.234355145355885242e+01 7.259307466862500746e+01 1.157206395289092455e+02 9.745603342370907640e+00 1.404703822585203170e+02 2.202875211054742621e+01 1.087078807566577581e+02 1.475225286148791071e+01 -2.035814395652229507e+02 2.139417196622869426e+02 -4.793758235617541175e+01 -1.459900306097748341e+02 -6.580793924168784770e+01 -4.194272955696832383e+01 4.039709682528356893e+01 2.496199745104517120e+01 4.461930722013792661e+01 -7.216546273056513883e+01 1.192161169021159139e+02 -8.401100709777868758e+01 -6.829574000424290858e+00 1.385940696401185903e+02 1.066071158682193527e+02 5.646494839401231047e+01 -1.721400777217062057e+02 2.472159098867394889e+01 1.364101413516553976e+02 2.275159184297225323e+01 9.476141820625284140e+01 1.032884084397393707e+02 -2.052236948152080629e+02 7.460964565861345932e+01 -5.599783236127528596e+01 -2.180406301566670493e+02 8.573628726093274111e+01 2.377130495630525076e+01 -1.175869836640296313e+02 -5.634668926278844481e+01 1.333410318010334095e+02 1.416304079180780491e+02 -7.273897433372620469e+01 -1.223801007508163536e+02 -7.979262381632530321e+01 -1.584594322630550209e+02 1.869117104406452867e+01 3.621444403686641778e+01 -1.622255880881341028e+01 -1.179636786699926532e+01 -8.519102363072720152e+01 -8.391060476951612657e+01 -2.342777632666592424e+01 1.267931161971090148e+02 1.287767625776527609e+02 7.663352361043395433e+01 9.169172392547862671e+01 -7.403467856752426712e+01 -1.702200546983908396e+02 -1.240780131570582689e+01 -2.172761336256603570e+01 -6.681781668531333196e+01 1.389896310775617927e+00 6.867121693171804964e+01 -4.973688681764090092e+01 2.325159597308846671e+01 7.445002293756235190e+01 6.591082035850557475e+01 1.039386870373869840e+02 -1.402139435716668174e+02 3.725543988964545150e+01 7.831986747775991375e+01 8.907774391859599916e+01 5.549751921328093118e+01 -9.704412976073689379e+01 1.287084153632567904e+02 1.198527081566771244e+02 9.011212774745658294e+01 9.545334690012651890e+01 -7.915449294688548321e+01 -1.396250999620777833e+01 -1.218297549450504214e+01 7.240979631688530560e+01 6.108176619495959159e+01 5.268026033901564631e+01 9.170297659073280272e+01 1.095373293019417105e+02 1.165547910988075841e+02 -6.092247729069091378e+01 7.578751348354906270e+01 6.131226352444038952e+01 -1.106139564001580879e+02 1.237248270851697924e+02 -9.417388396994374133e+00 -2.626551807613856582e+01 1.874574660540475577e+02 8.326670651094229925e+01 1.167890098229741511e+02 -1.358459729756066849e+02 -1.485236916756383323e+02 -1.446317603569392247e+02 -1.149911343898950804e+02 -4.169945488837609560e+01 1.033559926289392195e+02 -1.589064057472767217e+02 3.061488573181472361e+01 1.360296003359178769e+02 -5.595637817471083508e+01 -8.610945588294156039e+01 -3.314136842954827955e+01 1.281163950737998505e+02 2.143937290975520114e+02 -6.295704568589465566e+01 1.871204319213920186e+01 -2.611385884868506579e+01 6.466282411562872312e+01 5.685880071557460980e+01 -2.013547045274428910e+02 -8.374687719791624829e+01 1.299727001190784108e+02 1.320568450855227809e+02 8.931426001247953650e+01 -4.710999403396703400e+01 -7.161106631544775780e+01 -4.287198036496550912e+01 -1.669272710340968615e+02 6.723064895720054324e+01 -2.423737597998048443e+01 1.572973309051208162e+02 -2.643052356596799513e+01 -2.975481822469670874e+02 1.369997487010218435e+02 4.746876067836068813e+01 -1.115506566513318774e+02 -2.099837936995040977e+01 3.338681381966353712e+01 -1.964938573109257050e+02 -1.080932468774837929e+02 -1.037656285009582433e+02 -5.333947239580816557e+01 5.939766700822725909e+01 -1.560177815584598875e+02 1.020863808195757088e+02 -5.141394234906438498e+01 2.778482075110252136e+00 -1.262807566972904851e+02 -9.816083859900929554e+01 1.664510909847073776e+02 8.204626703913125141e+01 -3.998102345029943194e+01 3.515492486359476487e+01 -2.654801044843210178e+01 4.103693736319834073e+01 -9.907454108392241210e+01 9.371700031739911196e+01 4.780938493623430219e+01 -1.126015157064136218e+02 1.105754002375249456e+02 -4.650162165179835938e+01 9.462409442920626645e+01 -4.678530087428941897e+01 8.370167575536200388e+01 -1.453108403518824900e+02 1.352359850224634386e+02 2.345519297972834494e+01 9.539566443201401569e+01 1.236005473335333704e+02 -1.389915626535922684e+02 -8.141976061100982065e+01 -1.001256841835966043e+02 6.337303588029856627e+01 -1.624304740073859818e+02 1.436925130761237028e+02 1.349326500921162904e+02 5.021585426075040459e+01 -8.049338746136766076e+01 5.411383970638462415e+01 -1.017971032738050638e+02 -1.034700053620183802e+01 3.314985742528538282e+01 -1.742435989283648041e+02 -7.733937145885570885e+01 -1.283540808625554241e+01 9.690614416771512651e+01 -4.763948330945572707e+01 1.031817907683424806e+02 -6.100848248456575362e+01 -1.999638613557017663e+02 -1.016047957681051486e+02 -3.226662014495288133e+01 -5.709572340296961812e+01 2.854112240152321434e+01 4.882709856230061263e+01 6.005073209208003249e+00 2.413952202141047820e+01 -1.114447963389310701e+02 5.118566582740905346e+01 3.099588659091368825e+01 -6.850268397671894149e+01 8.828640797102792703e+00 5.358741610228266694e+01 -9.062005366843186493e+01 -5.235718248093366611e+01 -2.298388711577216981e+01 9.269983444715153098e+01 -1.628165787014433263e+01 3.988888122258698044e+00 -2.168575198370280077e+02 -9.030733563723934765e+01 9.406142374881707724e+01 -8.473086567933114566e+01 2.978664238332661540e+01 2.952149377444589362e+01 3.601695691770524377e+01 6.282484614904105769e+01 -1.687295218312807492e+02 1.369212843446282761e+02 7.758305168246545236e+01 -7.182200629466139574e+00 -7.684098449439450462e+01 1.063594052636777718e+02 5.906089246562810047e+01 -1.913081986086952497e+02 -4.790340520624675946e+01 -7.773346783754874423e+01 -4.925478255532536309e+01 -5.886577995165364285e+01 -9.414900770819068043e+01 -5.740603165110699280e+01 1.822109028041834335e+02 -1.623998399867255387e+02 6.226677885948452484e+01 2.639738668455678194e+01 -7.153843353764393953e+01 9.899917881528079278e+00 -3.753029313229257014e+01 3.277753239933185458e+00 -9.148995345822389424e+01 -1.879926897604171643e+02 1.750371363298397043e+01 3.985136050145028719e+01 -1.217215645765068643e+01 -8.497837249206382282e+00 -3.784852165735041751e+01 -1.806821164921115610e+02 -2.913810061337222379e+01 -6.218407294057788448e+01 1.324562021286627456e+01 -1.486466987233949233e+01 8.623411598152826230e+01 -5.999292437811890011e+01 -9.866535394404370152e+01 -3.394704354385071099e+01 -8.526651457684868873e+00 4.321193294767709148e+01 -2.103767763587278594e+01 -7.029962736595611261e+01 -1.512095651506820992e+01 1.906449111209451885e+01 4.521251691263118033e+01 -1.084805904357089901e+02 -1.323244471177061996e+02 2.192830804928451016e+02 -2.078127971549095037e+02 -7.226511449861698111e+01 -4.408284016765518487e+01 1.331302699193063290e+02 6.023724085632809278e+01 2.179943513198136316e+02 2.330484930957508425e+02 -5.939123844839772204e+01 1.232320000614885629e+02 -5.339216971875013940e+01 -3.887615086618954052e+01 -9.578709144242488094e+01 -7.601751015136753153e+01 -6.620008431621724299e+01 -8.478431758771219506e+01 -2.321402728142647618e+02 -2.578800903714438846e+02 1.282317864850040223e+02 -2.528175564804397624e+01 5.072966529826098991e+01 1.246893954577475512e+02
