# 
#                 ----------------------------------------------------
#                 Data from a 3D direct N-body simulation. 
# 
#                 rows are i-particle; 
#                 coumns are :mass, tag, x ,y, z, vx, vy, vz, ax, ay, az
# 
#                 NTHU, Computational Physics Lab
# 
#                 ----------------------------------------------------
#                 Time = 2.899999999999982
1.000000000000000000e+00 2.000000000000000000e+00 3.000000000000000000e+00 4.000000000000000000e+00 5.000000000000000000e+00 6.000000000000000000e+00 7.000000000000000000e+00 8.000000000000000000e+00 9.000000000000000000e+00 1.000000000000000000e+01 1.100000000000000000e+01 1.200000000000000000e+01 1.300000000000000000e+01 1.400000000000000000e+01 1.500000000000000000e+01 1.600000000000000000e+01 1.700000000000000000e+01 1.800000000000000000e+01 1.900000000000000000e+01 2.000000000000000000e+01 2.100000000000000000e+01 2.200000000000000000e+01 2.300000000000000000e+01 2.400000000000000000e+01 2.500000000000000000e+01 2.600000000000000000e+01 2.700000000000000000e+01 2.800000000000000000e+01 2.900000000000000000e+01 3.000000000000000000e+01 3.100000000000000000e+01 3.200000000000000000e+01 3.300000000000000000e+01 3.400000000000000000e+01 3.500000000000000000e+01 3.600000000000000000e+01 3.700000000000000000e+01 3.800000000000000000e+01 3.900000000000000000e+01 4.000000000000000000e+01 4.100000000000000000e+01 4.200000000000000000e+01 4.300000000000000000e+01 4.400000000000000000e+01 4.500000000000000000e+01 4.600000000000000000e+01 4.700000000000000000e+01 4.800000000000000000e+01 4.900000000000000000e+01 5.000000000000000000e+01 5.100000000000000000e+01 5.200000000000000000e+01 5.300000000000000000e+01 5.400000000000000000e+01 5.500000000000000000e+01 5.600000000000000000e+01 5.700000000000000000e+01 5.800000000000000000e+01 5.900000000000000000e+01 6.000000000000000000e+01 6.100000000000000000e+01 6.200000000000000000e+01 6.300000000000000000e+01 6.400000000000000000e+01 6.500000000000000000e+01 6.600000000000000000e+01 6.700000000000000000e+01 6.800000000000000000e+01 6.900000000000000000e+01 7.000000000000000000e+01 7.100000000000000000e+01 7.200000000000000000e+01 7.300000000000000000e+01 7.400000000000000000e+01 7.500000000000000000e+01 7.600000000000000000e+01 7.700000000000000000e+01 7.800000000000000000e+01 7.900000000000000000e+01 8.000000000000000000e+01 8.100000000000000000e+01 8.200000000000000000e+01 8.300000000000000000e+01 8.400000000000000000e+01 8.500000000000000000e+01 8.600000000000000000e+01 8.700000000000000000e+01 8.800000000000000000e+01 8.900000000000000000e+01 9.000000000000000000e+01 9.100000000000000000e+01 9.200000000000000000e+01 9.300000000000000000e+01 9.400000000000000000e+01 9.500000000000000000e+01 9.600000000000000000e+01 9.700000000000000000e+01 9.800000000000000000e+01 9.900000000000000000e+01 1.000000000000000000e+02 1.010000000000000000e+02 1.020000000000000000e+02 1.030000000000000000e+02 1.040000000000000000e+02 1.050000000000000000e+02 1.060000000000000000e+02 1.070000000000000000e+02 1.080000000000000000e+02 1.090000000000000000e+02 1.100000000000000000e+02 1.110000000000000000e+02 1.120000000000000000e+02 1.130000000000000000e+02 1.140000000000000000e+02 1.150000000000000000e+02 1.160000000000000000e+02 1.170000000000000000e+02 1.180000000000000000e+02 1.190000000000000000e+02 1.200000000000000000e+02 1.210000000000000000e+02 1.220000000000000000e+02 1.230000000000000000e+02 1.240000000000000000e+02 1.250000000000000000e+02 1.260000000000000000e+02 1.270000000000000000e+02 1.280000000000000000e+02 1.290000000000000000e+02 1.300000000000000000e+02 1.310000000000000000e+02 1.320000000000000000e+02 1.330000000000000000e+02 1.340000000000000000e+02 1.350000000000000000e+02 1.360000000000000000e+02 1.370000000000000000e+02 1.380000000000000000e+02 1.390000000000000000e+02 1.400000000000000000e+02 1.410000000000000000e+02 1.420000000000000000e+02 1.430000000000000000e+02 1.440000000000000000e+02 1.450000000000000000e+02 1.460000000000000000e+02 1.470000000000000000e+02 1.480000000000000000e+02 1.490000000000000000e+02 1.500000000000000000e+02 1.510000000000000000e+02 1.520000000000000000e+02 1.530000000000000000e+02 1.540000000000000000e+02 1.550000000000000000e+02 1.560000000000000000e+02 1.570000000000000000e+02 1.580000000000000000e+02 1.590000000000000000e+02 1.600000000000000000e+02 1.610000000000000000e+02 1.620000000000000000e+02 1.630000000000000000e+02 1.640000000000000000e+02 1.650000000000000000e+02 1.660000000000000000e+02 1.670000000000000000e+02 1.680000000000000000e+02 1.690000000000000000e+02 1.700000000000000000e+02 1.710000000000000000e+02 1.720000000000000000e+02 1.730000000000000000e+02 1.740000000000000000e+02 1.750000000000000000e+02 1.760000000000000000e+02 1.770000000000000000e+02 1.780000000000000000e+02 1.790000000000000000e+02 1.800000000000000000e+02 1.810000000000000000e+02 1.820000000000000000e+02 1.830000000000000000e+02 1.840000000000000000e+02 1.850000000000000000e+02 1.860000000000000000e+02 1.870000000000000000e+02 1.880000000000000000e+02 1.890000000000000000e+02 1.900000000000000000e+02 1.910000000000000000e+02 1.920000000000000000e+02 1.930000000000000000e+02 1.940000000000000000e+02 1.950000000000000000e+02 1.960000000000000000e+02 1.970000000000000000e+02 1.980000000000000000e+02 1.990000000000000000e+02 2.000000000000000000e+02 2.010000000000000000e+02 2.020000000000000000e+02 2.030000000000000000e+02 2.040000000000000000e+02 2.050000000000000000e+02 2.060000000000000000e+02 2.070000000000000000e+02 2.080000000000000000e+02 2.090000000000000000e+02 2.100000000000000000e+02 2.110000000000000000e+02 2.120000000000000000e+02 2.130000000000000000e+02 2.140000000000000000e+02 2.150000000000000000e+02 2.160000000000000000e+02 2.170000000000000000e+02 2.180000000000000000e+02 2.190000000000000000e+02 2.200000000000000000e+02 2.210000000000000000e+02 2.220000000000000000e+02 2.230000000000000000e+02 2.240000000000000000e+02 2.250000000000000000e+02 2.260000000000000000e+02 2.270000000000000000e+02 2.280000000000000000e+02 2.290000000000000000e+02 2.300000000000000000e+02 2.310000000000000000e+02 2.320000000000000000e+02 2.330000000000000000e+02 2.340000000000000000e+02 2.350000000000000000e+02 2.360000000000000000e+02 2.370000000000000000e+02 2.380000000000000000e+02 2.390000000000000000e+02 2.400000000000000000e+02 2.410000000000000000e+02 2.420000000000000000e+02 2.430000000000000000e+02 2.440000000000000000e+02 2.450000000000000000e+02 2.460000000000000000e+02 2.470000000000000000e+02 2.480000000000000000e+02 2.490000000000000000e+02 2.500000000000000000e+02 2.510000000000000000e+02 2.520000000000000000e+02 2.530000000000000000e+02 2.540000000000000000e+02 2.550000000000000000e+02 2.560000000000000000e+02 2.570000000000000000e+02 2.580000000000000000e+02 2.590000000000000000e+02 2.600000000000000000e+02 2.610000000000000000e+02 2.620000000000000000e+02 2.630000000000000000e+02 2.640000000000000000e+02 2.650000000000000000e+02 2.660000000000000000e+02 2.670000000000000000e+02 2.680000000000000000e+02 2.690000000000000000e+02 2.700000000000000000e+02 2.710000000000000000e+02 2.720000000000000000e+02 2.730000000000000000e+02 2.740000000000000000e+02 2.750000000000000000e+02 2.760000000000000000e+02 2.770000000000000000e+02 2.780000000000000000e+02 2.790000000000000000e+02 2.800000000000000000e+02 2.810000000000000000e+02 2.820000000000000000e+02 2.830000000000000000e+02 2.840000000000000000e+02 2.850000000000000000e+02 2.860000000000000000e+02 2.870000000000000000e+02 2.880000000000000000e+02 2.890000000000000000e+02 2.900000000000000000e+02 2.910000000000000000e+02 2.920000000000000000e+02 2.930000000000000000e+02 2.940000000000000000e+02 2.950000000000000000e+02 2.960000000000000000e+02 2.970000000000000000e+02 2.980000000000000000e+02 2.990000000000000000e+02 3.000000000000000000e+02 3.010000000000000000e+02 3.020000000000000000e+02 3.030000000000000000e+02 3.040000000000000000e+02 3.050000000000000000e+02 3.060000000000000000e+02 3.070000000000000000e+02 3.080000000000000000e+02 3.090000000000000000e+02 3.100000000000000000e+02 3.110000000000000000e+02 3.120000000000000000e+02 3.130000000000000000e+02 3.140000000000000000e+02 3.150000000000000000e+02 3.160000000000000000e+02 3.170000000000000000e+02 3.180000000000000000e+02 3.190000000000000000e+02 3.200000000000000000e+02 3.210000000000000000e+02 3.220000000000000000e+02 3.230000000000000000e+02 3.240000000000000000e+02 3.250000000000000000e+02 3.260000000000000000e+02 3.270000000000000000e+02 3.280000000000000000e+02 3.290000000000000000e+02 3.300000000000000000e+02 3.310000000000000000e+02 3.320000000000000000e+02 3.330000000000000000e+02 3.340000000000000000e+02 3.350000000000000000e+02 3.360000000000000000e+02 3.370000000000000000e+02 3.380000000000000000e+02 3.390000000000000000e+02 3.400000000000000000e+02 3.410000000000000000e+02 3.420000000000000000e+02 3.430000000000000000e+02 3.440000000000000000e+02 3.450000000000000000e+02 3.460000000000000000e+02 3.470000000000000000e+02 3.480000000000000000e+02 3.490000000000000000e+02 3.500000000000000000e+02 3.510000000000000000e+02 3.520000000000000000e+02 3.530000000000000000e+02 3.540000000000000000e+02 3.550000000000000000e+02 3.560000000000000000e+02 3.570000000000000000e+02 3.580000000000000000e+02 3.590000000000000000e+02 3.600000000000000000e+02 3.610000000000000000e+02 3.620000000000000000e+02 3.630000000000000000e+02 3.640000000000000000e+02 3.650000000000000000e+02 3.660000000000000000e+02 3.670000000000000000e+02 3.680000000000000000e+02 3.690000000000000000e+02 3.700000000000000000e+02 3.710000000000000000e+02 3.720000000000000000e+02 3.730000000000000000e+02 3.740000000000000000e+02 3.750000000000000000e+02 3.760000000000000000e+02 3.770000000000000000e+02 3.780000000000000000e+02 3.790000000000000000e+02 3.800000000000000000e+02 3.810000000000000000e+02 3.820000000000000000e+02 3.830000000000000000e+02 3.840000000000000000e+02 3.850000000000000000e+02 3.860000000000000000e+02 3.870000000000000000e+02 3.880000000000000000e+02 3.890000000000000000e+02 3.900000000000000000e+02 3.910000000000000000e+02 3.920000000000000000e+02 3.930000000000000000e+02 3.940000000000000000e+02 3.950000000000000000e+02 3.960000000000000000e+02 3.970000000000000000e+02 3.980000000000000000e+02 3.990000000000000000e+02 4.000000000000000000e+02 4.010000000000000000e+02 4.020000000000000000e+02 4.030000000000000000e+02 4.040000000000000000e+02 4.050000000000000000e+02 4.060000000000000000e+02 4.070000000000000000e+02 4.080000000000000000e+02 4.090000000000000000e+02 4.100000000000000000e+02 4.110000000000000000e+02 4.120000000000000000e+02 4.130000000000000000e+02 4.140000000000000000e+02 4.150000000000000000e+02 4.160000000000000000e+02 4.170000000000000000e+02 4.180000000000000000e+02 4.190000000000000000e+02 4.200000000000000000e+02 4.210000000000000000e+02 4.220000000000000000e+02 4.230000000000000000e+02 4.240000000000000000e+02 4.250000000000000000e+02 4.260000000000000000e+02 4.270000000000000000e+02 4.280000000000000000e+02 4.290000000000000000e+02 4.300000000000000000e+02 4.310000000000000000e+02 4.320000000000000000e+02 4.330000000000000000e+02 4.340000000000000000e+02 4.350000000000000000e+02 4.360000000000000000e+02 4.370000000000000000e+02 4.380000000000000000e+02 4.390000000000000000e+02 4.400000000000000000e+02 4.410000000000000000e+02 4.420000000000000000e+02 4.430000000000000000e+02 4.440000000000000000e+02 4.450000000000000000e+02 4.460000000000000000e+02 4.470000000000000000e+02 4.480000000000000000e+02 4.490000000000000000e+02 4.500000000000000000e+02 4.510000000000000000e+02 4.520000000000000000e+02 4.530000000000000000e+02 4.540000000000000000e+02 4.550000000000000000e+02 4.560000000000000000e+02 4.570000000000000000e+02 4.580000000000000000e+02 4.590000000000000000e+02 4.600000000000000000e+02 4.610000000000000000e+02 4.620000000000000000e+02 4.630000000000000000e+02 4.640000000000000000e+02 4.650000000000000000e+02 4.660000000000000000e+02 4.670000000000000000e+02 4.680000000000000000e+02 4.690000000000000000e+02 4.700000000000000000e+02 4.710000000000000000e+02 4.720000000000000000e+02 4.730000000000000000e+02 4.740000000000000000e+02 4.750000000000000000e+02 4.760000000000000000e+02 4.770000000000000000e+02 4.780000000000000000e+02 4.790000000000000000e+02 4.800000000000000000e+02 4.810000000000000000e+02 4.820000000000000000e+02 4.830000000000000000e+02 4.840000000000000000e+02 4.850000000000000000e+02 4.860000000000000000e+02 4.870000000000000000e+02 4.880000000000000000e+02 4.890000000000000000e+02 4.900000000000000000e+02 4.910000000000000000e+02 4.920000000000000000e+02 4.930000000000000000e+02 4.940000000000000000e+02 4.950000000000000000e+02 4.960000000000000000e+02 4.970000000000000000e+02 4.980000000000000000e+02 4.990000000000000000e+02 5.000000000000000000e+02 5.010000000000000000e+02 5.020000000000000000e+02 5.030000000000000000e+02 5.040000000000000000e+02 5.050000000000000000e+02 5.060000000000000000e+02 5.070000000000000000e+02 5.080000000000000000e+02 5.090000000000000000e+02 5.100000000000000000e+02 5.110000000000000000e+02 5.120000000000000000e+02 5.130000000000000000e+02 5.140000000000000000e+02 5.150000000000000000e+02 5.160000000000000000e+02 5.170000000000000000e+02 5.180000000000000000e+02 5.190000000000000000e+02 5.200000000000000000e+02 5.210000000000000000e+02 5.220000000000000000e+02 5.230000000000000000e+02 5.240000000000000000e+02 5.250000000000000000e+02 5.260000000000000000e+02 5.270000000000000000e+02 5.280000000000000000e+02 5.290000000000000000e+02 5.300000000000000000e+02 5.310000000000000000e+02 5.320000000000000000e+02 5.330000000000000000e+02 5.340000000000000000e+02 5.350000000000000000e+02 5.360000000000000000e+02 5.370000000000000000e+02 5.380000000000000000e+02 5.390000000000000000e+02 5.400000000000000000e+02 5.410000000000000000e+02 5.420000000000000000e+02 5.430000000000000000e+02 5.440000000000000000e+02 5.450000000000000000e+02 5.460000000000000000e+02 5.470000000000000000e+02 5.480000000000000000e+02 5.490000000000000000e+02 5.500000000000000000e+02 5.510000000000000000e+02 5.520000000000000000e+02 5.530000000000000000e+02 5.540000000000000000e+02 5.550000000000000000e+02 5.560000000000000000e+02 5.570000000000000000e+02 5.580000000000000000e+02 5.590000000000000000e+02 5.600000000000000000e+02 5.610000000000000000e+02 5.620000000000000000e+02 5.630000000000000000e+02 5.640000000000000000e+02 5.650000000000000000e+02 5.660000000000000000e+02 5.670000000000000000e+02 5.680000000000000000e+02 5.690000000000000000e+02 5.700000000000000000e+02 5.710000000000000000e+02 5.720000000000000000e+02 5.730000000000000000e+02 5.740000000000000000e+02 5.750000000000000000e+02 5.760000000000000000e+02 5.770000000000000000e+02 5.780000000000000000e+02 5.790000000000000000e+02 5.800000000000000000e+02 5.810000000000000000e+02 5.820000000000000000e+02 5.830000000000000000e+02 5.840000000000000000e+02 5.850000000000000000e+02 5.860000000000000000e+02 5.870000000000000000e+02 5.880000000000000000e+02 5.890000000000000000e+02 5.900000000000000000e+02 5.910000000000000000e+02 5.920000000000000000e+02 5.930000000000000000e+02 5.940000000000000000e+02 5.950000000000000000e+02 5.960000000000000000e+02 5.970000000000000000e+02 5.980000000000000000e+02 5.990000000000000000e+02 6.000000000000000000e+02 6.010000000000000000e+02 6.020000000000000000e+02 6.030000000000000000e+02 6.040000000000000000e+02 6.050000000000000000e+02 6.060000000000000000e+02 6.070000000000000000e+02 6.080000000000000000e+02 6.090000000000000000e+02 6.100000000000000000e+02 6.110000000000000000e+02 6.120000000000000000e+02 6.130000000000000000e+02 6.140000000000000000e+02 6.150000000000000000e+02 6.160000000000000000e+02 6.170000000000000000e+02 6.180000000000000000e+02 6.190000000000000000e+02 6.200000000000000000e+02 6.210000000000000000e+02 6.220000000000000000e+02 6.230000000000000000e+02 6.240000000000000000e+02 6.250000000000000000e+02 6.260000000000000000e+02 6.270000000000000000e+02 6.280000000000000000e+02 6.290000000000000000e+02 6.300000000000000000e+02 6.310000000000000000e+02 6.320000000000000000e+02 6.330000000000000000e+02 6.340000000000000000e+02 6.350000000000000000e+02 6.360000000000000000e+02 6.370000000000000000e+02 6.380000000000000000e+02 6.390000000000000000e+02 6.400000000000000000e+02 6.410000000000000000e+02 6.420000000000000000e+02 6.430000000000000000e+02 6.440000000000000000e+02 6.450000000000000000e+02 6.460000000000000000e+02 6.470000000000000000e+02 6.480000000000000000e+02 6.490000000000000000e+02 6.500000000000000000e+02 6.510000000000000000e+02 6.520000000000000000e+02 6.530000000000000000e+02 6.540000000000000000e+02 6.550000000000000000e+02 6.560000000000000000e+02 6.570000000000000000e+02 6.580000000000000000e+02 6.590000000000000000e+02 6.600000000000000000e+02 6.610000000000000000e+02 6.620000000000000000e+02 6.630000000000000000e+02 6.640000000000000000e+02 6.650000000000000000e+02 6.660000000000000000e+02 6.670000000000000000e+02 6.680000000000000000e+02 6.690000000000000000e+02 6.700000000000000000e+02 6.710000000000000000e+02 6.720000000000000000e+02 6.730000000000000000e+02 6.740000000000000000e+02 6.750000000000000000e+02 6.760000000000000000e+02 6.770000000000000000e+02 6.780000000000000000e+02 6.790000000000000000e+02 6.800000000000000000e+02 6.810000000000000000e+02 6.820000000000000000e+02 6.830000000000000000e+02 6.840000000000000000e+02 6.850000000000000000e+02 6.860000000000000000e+02 6.870000000000000000e+02 6.880000000000000000e+02 6.890000000000000000e+02 6.900000000000000000e+02 6.910000000000000000e+02 6.920000000000000000e+02 6.930000000000000000e+02 6.940000000000000000e+02 6.950000000000000000e+02 6.960000000000000000e+02 6.970000000000000000e+02 6.980000000000000000e+02 6.990000000000000000e+02 7.000000000000000000e+02 7.010000000000000000e+02 7.020000000000000000e+02 7.030000000000000000e+02 7.040000000000000000e+02 7.050000000000000000e+02 7.060000000000000000e+02 7.070000000000000000e+02 7.080000000000000000e+02 7.090000000000000000e+02 7.100000000000000000e+02 7.110000000000000000e+02 7.120000000000000000e+02 7.130000000000000000e+02 7.140000000000000000e+02 7.150000000000000000e+02 7.160000000000000000e+02 7.170000000000000000e+02 7.180000000000000000e+02 7.190000000000000000e+02 7.200000000000000000e+02 7.210000000000000000e+02 7.220000000000000000e+02 7.230000000000000000e+02 7.240000000000000000e+02 7.250000000000000000e+02 7.260000000000000000e+02 7.270000000000000000e+02 7.280000000000000000e+02 7.290000000000000000e+02 7.300000000000000000e+02 7.310000000000000000e+02 7.320000000000000000e+02 7.330000000000000000e+02 7.340000000000000000e+02 7.350000000000000000e+02 7.360000000000000000e+02 7.370000000000000000e+02 7.380000000000000000e+02 7.390000000000000000e+02 7.400000000000000000e+02 7.410000000000000000e+02 7.420000000000000000e+02 7.430000000000000000e+02 7.440000000000000000e+02 7.450000000000000000e+02 7.460000000000000000e+02 7.470000000000000000e+02 7.480000000000000000e+02 7.490000000000000000e+02 7.500000000000000000e+02 7.510000000000000000e+02 7.520000000000000000e+02 7.530000000000000000e+02 7.540000000000000000e+02 7.550000000000000000e+02 7.560000000000000000e+02 7.570000000000000000e+02 7.580000000000000000e+02 7.590000000000000000e+02 7.600000000000000000e+02 7.610000000000000000e+02 7.620000000000000000e+02 7.630000000000000000e+02 7.640000000000000000e+02 7.650000000000000000e+02 7.660000000000000000e+02 7.670000000000000000e+02 7.680000000000000000e+02 7.690000000000000000e+02 7.700000000000000000e+02 7.710000000000000000e+02 7.720000000000000000e+02 7.730000000000000000e+02 7.740000000000000000e+02 7.750000000000000000e+02 7.760000000000000000e+02 7.770000000000000000e+02 7.780000000000000000e+02 7.790000000000000000e+02 7.800000000000000000e+02 7.810000000000000000e+02 7.820000000000000000e+02 7.830000000000000000e+02 7.840000000000000000e+02 7.850000000000000000e+02 7.860000000000000000e+02 7.870000000000000000e+02 7.880000000000000000e+02 7.890000000000000000e+02 7.900000000000000000e+02 7.910000000000000000e+02 7.920000000000000000e+02 7.930000000000000000e+02 7.940000000000000000e+02 7.950000000000000000e+02 7.960000000000000000e+02 7.970000000000000000e+02 7.980000000000000000e+02 7.990000000000000000e+02 8.000000000000000000e+02 8.010000000000000000e+02 8.020000000000000000e+02 8.030000000000000000e+02 8.040000000000000000e+02 8.050000000000000000e+02 8.060000000000000000e+02 8.070000000000000000e+02 8.080000000000000000e+02 8.090000000000000000e+02 8.100000000000000000e+02 8.110000000000000000e+02 8.120000000000000000e+02 8.130000000000000000e+02 8.140000000000000000e+02 8.150000000000000000e+02 8.160000000000000000e+02 8.170000000000000000e+02 8.180000000000000000e+02 8.190000000000000000e+02 8.200000000000000000e+02 8.210000000000000000e+02 8.220000000000000000e+02 8.230000000000000000e+02 8.240000000000000000e+02 8.250000000000000000e+02 8.260000000000000000e+02 8.270000000000000000e+02 8.280000000000000000e+02 8.290000000000000000e+02 8.300000000000000000e+02 8.310000000000000000e+02 8.320000000000000000e+02 8.330000000000000000e+02 8.340000000000000000e+02 8.350000000000000000e+02 8.360000000000000000e+02 8.370000000000000000e+02 8.380000000000000000e+02 8.390000000000000000e+02 8.400000000000000000e+02 8.410000000000000000e+02 8.420000000000000000e+02 8.430000000000000000e+02 8.440000000000000000e+02 8.450000000000000000e+02 8.460000000000000000e+02 8.470000000000000000e+02 8.480000000000000000e+02 8.490000000000000000e+02 8.500000000000000000e+02 8.510000000000000000e+02 8.520000000000000000e+02 8.530000000000000000e+02 8.540000000000000000e+02 8.550000000000000000e+02 8.560000000000000000e+02 8.570000000000000000e+02 8.580000000000000000e+02 8.590000000000000000e+02 8.600000000000000000e+02 8.610000000000000000e+02 8.620000000000000000e+02 8.630000000000000000e+02 8.640000000000000000e+02 8.650000000000000000e+02 8.660000000000000000e+02 8.670000000000000000e+02 8.680000000000000000e+02 8.690000000000000000e+02 8.700000000000000000e+02 8.710000000000000000e+02 8.720000000000000000e+02 8.730000000000000000e+02 8.740000000000000000e+02 8.750000000000000000e+02 8.760000000000000000e+02 8.770000000000000000e+02 8.780000000000000000e+02 8.790000000000000000e+02 8.800000000000000000e+02 8.810000000000000000e+02 8.820000000000000000e+02 8.830000000000000000e+02 8.840000000000000000e+02 8.850000000000000000e+02 8.860000000000000000e+02 8.870000000000000000e+02 8.880000000000000000e+02 8.890000000000000000e+02 8.900000000000000000e+02 8.910000000000000000e+02 8.920000000000000000e+02 8.930000000000000000e+02 8.940000000000000000e+02 8.950000000000000000e+02 8.960000000000000000e+02 8.970000000000000000e+02 8.980000000000000000e+02 8.990000000000000000e+02 9.000000000000000000e+02 9.010000000000000000e+02 9.020000000000000000e+02 9.030000000000000000e+02 9.040000000000000000e+02 9.050000000000000000e+02 9.060000000000000000e+02 9.070000000000000000e+02 9.080000000000000000e+02 9.090000000000000000e+02 9.100000000000000000e+02 9.110000000000000000e+02 9.120000000000000000e+02 9.130000000000000000e+02 9.140000000000000000e+02 9.150000000000000000e+02 9.160000000000000000e+02 9.170000000000000000e+02 9.180000000000000000e+02 9.190000000000000000e+02 9.200000000000000000e+02 9.210000000000000000e+02 9.220000000000000000e+02 9.230000000000000000e+02 9.240000000000000000e+02 9.250000000000000000e+02 9.260000000000000000e+02 9.270000000000000000e+02 9.280000000000000000e+02 9.290000000000000000e+02 9.300000000000000000e+02 9.310000000000000000e+02 9.320000000000000000e+02 9.330000000000000000e+02 9.340000000000000000e+02 9.350000000000000000e+02 9.360000000000000000e+02 9.370000000000000000e+02 9.380000000000000000e+02 9.390000000000000000e+02 9.400000000000000000e+02 9.410000000000000000e+02 9.420000000000000000e+02 9.430000000000000000e+02 9.440000000000000000e+02 9.450000000000000000e+02 9.460000000000000000e+02 9.470000000000000000e+02 9.480000000000000000e+02 9.490000000000000000e+02 9.500000000000000000e+02 9.510000000000000000e+02 9.520000000000000000e+02 9.530000000000000000e+02 9.540000000000000000e+02 9.550000000000000000e+02 9.560000000000000000e+02 9.570000000000000000e+02 9.580000000000000000e+02 9.590000000000000000e+02 9.600000000000000000e+02 9.610000000000000000e+02 9.620000000000000000e+02 9.630000000000000000e+02 9.640000000000000000e+02 9.650000000000000000e+02 9.660000000000000000e+02 9.670000000000000000e+02 9.680000000000000000e+02 9.690000000000000000e+02 9.700000000000000000e+02 9.710000000000000000e+02 9.720000000000000000e+02 9.730000000000000000e+02 9.740000000000000000e+02 9.750000000000000000e+02 9.760000000000000000e+02 9.770000000000000000e+02 9.780000000000000000e+02 9.790000000000000000e+02 9.800000000000000000e+02 9.810000000000000000e+02 9.820000000000000000e+02 9.830000000000000000e+02 9.840000000000000000e+02 9.850000000000000000e+02 9.860000000000000000e+02 9.870000000000000000e+02 9.880000000000000000e+02 9.890000000000000000e+02 9.900000000000000000e+02 9.910000000000000000e+02 9.920000000000000000e+02 9.930000000000000000e+02 9.940000000000000000e+02 9.950000000000000000e+02 9.960000000000000000e+02 9.970000000000000000e+02 9.980000000000000000e+02 9.990000000000000000e+02 1.000000000000000000e+03
1.000000000000000021e-02 1.000000000000000021e-02 1.000000000000000021e-02 1.000000000000000021e-02 1.000000000000000021e-02 1.000000000000000021e-02 1.000000000000000021e-02 1.000000000000000021e-02 1.000000000000000021e-02 1.000000000000000021e-02 1.000000000000000021e-02 1.000000000000000021e-02 1.000000000000000021e-02 1.000000000000000021e-02 1.000000000000000021e-02 1.000000000000000021e-02 1.000000000000000021e-02 1.000000000000000021e-02 1.000000000000000021e-02 1.000000000000000021e-02 1.000000000000000021e-02 1.000000000000000021e-02 1.000000000000000021e-02 1.000000000000000021e-02 1.000000000000000021e-02 1.000000000000000021e-02 1.000000000000000021e-02 1.000000000000000021e-02 1.000000000000000021e-02 1.000000000000000021e-02 1.000000000000000021e-02 1.000000000000000021e-02 1.000000000000000021e-02 1.000000000000000021e-02 1.000000000000000021e-02 1.000000000000000021e-02 1.000000000000000021e-02 1.000000000000000021e-02 1.000000000000000021e-02 1.000000000000000021e-02 1.000000000000000021e-02 1.000000000000000021e-02 1.000000000000000021e-02 1.000000000000000021e-02 1.000000000000000021e-02 1.000000000000000021e-02 1.000000000000000021e-02 1.000000000000000021e-02 1.000000000000000021e-02 1.000000000000000021e-02 1.000000000000000021e-02 1.000000000000000021e-02 1.000000000000000021e-02 1.000000000000000021e-02 1.000000000000000021e-02 1.000000000000000021e-02 1.000000000000000021e-02 1.000000000000000021e-02 1.000000000000000021e-02 1.000000000000000021e-02 1.000000000000000021e-02 1.000000000000000021e-02 1.000000000000000021e-02 1.000000000000000021e-02 1.000000000000000021e-02 1.000000000000000021e-02 1.000000000000000021e-02 1.000000000000000021e-02 1.000000000000000021e-02 1.000000000000000021e-02 1.000000000000000021e-02 1.000000000000000021e-02 1.000000000000000021e-02 1.000000000000000021e-02 1.000000000000000021e-02 1.000000000000000021e-02 1.000000000000000021e-02 1.000000000000000021e-02 1.000000000000000021e-02 1.000000000000000021e-02 1.000000000000000021e-02 1.000000000000000021e-02 1.000000000000000021e-02 1.000000000000000021e-02 1.000000000000000021e-02 1.000000000000000021e-02 1.000000000000000021e-02 1.000000000000000021e-02 1.000000000000000021e-02 1.000000000000000021e-02 1.000000000000000021e-02 1.000000000000000021e-02 1.000000000000000021e-02 1.000000000000000021e-02 1.000000000000000021e-02 1.000000000000000021e-02 1.000000000000000021e-02 1.000000000000000021e-02 1.000000000000000021e-02 1.000000000000000021e-02 1.000000000000000021e-02 1.000000000000000021e-02 1.000000000000000021e-02 1.000000000000000021e-02 1.000000000000000021e-02 1.000000000000000021e-02 1.000000000000000021e-02 1.000000000000000021e-02 1.000000000000000021e-02 1.000000000000000021e-02 1.000000000000000021e-02 1.000000000000000021e-02 1.000000000000000021e-02 1.000000000000000021e-02 1.000000000000000021e-02 1.000000000000000021e-02 1.000000000000000021e-02 1.000000000000000021e-02 1.000000000000000021e-02 1.000000000000000021e-02 1.000000000000000021e-02 1.000000000000000021e-02 1.000000000000000021e-02 1.000000000000000021e-02 1.000000000000000021e-02 1.000000000000000021e-02 1.000000000000000021e-02 1.000000000000000021e-02 1.000000000000000021e-02 1.000000000000000021e-02 1.000000000000000021e-02 1.000000000000000021e-02 1.000000000000000021e-02 1.000000000000000021e-02 1.000000000000000021e-02 1.000000000000000021e-02 1.000000000000000021e-02 1.000000000000000021e-02 1.000000000000000021e-02 1.000000000000000021e-02 1.000000000000000021e-02 1.000000000000000021e-02 1.000000000000000021e-02 1.000000000000000021e-02 1.000000000000000021e-02 1.000000000000000021e-02 1.000000000000000021e-02 1.000000000000000021e-02 1.000000000000000021e-02 1.000000000000000021e-02 1.000000000000000021e-02 1.000000000000000021e-02 1.000000000000000021e-02 1.000000000000000021e-02 1.000000000000000021e-02 1.000000000000000021e-02 1.000000000000000021e-02 1.000000000000000021e-02 1.000000000000000021e-02 1.000000000000000021e-02 1.000000000000000021e-02 1.000000000000000021e-02 1.000000000000000021e-02 1.000000000000000021e-02 1.000000000000000021e-02 1.000000000000000021e-02 1.000000000000000021e-02 1.000000000000000021e-02 1.000000000000000021e-02 1.000000000000000021e-02 1.000000000000000021e-02 1.000000000000000021e-02 1.000000000000000021e-02 1.000000000000000021e-02 1.000000000000000021e-02 1.000000000000000021e-02 1.000000000000000021e-02 1.000000000000000021e-02 1.000000000000000021e-02 1.000000000000000021e-02 1.000000000000000021e-02 1.000000000000000021e-02 1.000000000000000021e-02 1.000000000000000021e-02 1.000000000000000021e-02 1.000000000000000021e-02 1.000000000000000021e-02 1.000000000000000021e-02 1.000000000000000021e-02 1.000000000000000021e-02 1.000000000000000021e-02 1.000000000000000021e-02 1.000000000000000021e-02 1.000000000000000021e-02 1.000000000000000021e-02 1.000000000000000021e-02 1.000000000000000021e-02 1.000000000000000021e-02 1.000000000000000021e-02 1.000000000000000021e-02 1.000000000000000021e-02 1.000000000000000021e-02 1.000000000000000021e-02 1.000000000000000021e-02 1.000000000000000021e-02 1.000000000000000021e-02 1.000000000000000021e-02 1.000000000000000021e-02 1.000000000000000021e-02 1.000000000000000021e-02 1.000000000000000021e-02 1.000000000000000021e-02 1.000000000000000021e-02 1.000000000000000021e-02 1.000000000000000021e-02 1.000000000000000021e-02 1.000000000000000021e-02 1.000000000000000021e-02 1.000000000000000021e-02 1.000000000000000021e-02 1.000000000000000021e-02 1.000000000000000021e-02 1.000000000000000021e-02 1.000000000000000021e-02 1.000000000000000021e-02 1.000000000000000021e-02 1.000000000000000021e-02 1.000000000000000021e-02 1.000000000000000021e-02 1.000000000000000021e-02 1.000000000000000021e-02 1.000000000000000021e-02 1.000000000000000021e-02 1.000000000000000021e-02 1.000000000000000021e-02 1.000000000000000021e-02 1.000000000000000021e-02 1.000000000000000021e-02 1.000000000000000021e-02 1.000000000000000021e-02 1.000000000000000021e-02 1.000000000000000021e-02 1.000000000000000021e-02 1.000000000000000021e-02 1.000000000000000021e-02 1.000000000000000021e-02 1.000000000000000021e-02 1.000000000000000021e-02 1.000000000000000021e-02 1.000000000000000021e-02 1.000000000000000021e-02 1.000000000000000021e-02 1.000000000000000021e-02 1.000000000000000021e-02 1.000000000000000021e-02 1.000000000000000021e-02 1.000000000000000021e-02 1.000000000000000021e-02 1.000000000000000021e-02 1.000000000000000021e-02 1.000000000000000021e-02 1.000000000000000021e-02 1.000000000000000021e-02 1.000000000000000021e-02 1.000000000000000021e-02 1.000000000000000021e-02 1.000000000000000021e-02 1.000000000000000021e-02 1.000000000000000021e-02 1.000000000000000021e-02 1.000000000000000021e-02 1.000000000000000021e-02 1.000000000000000021e-02 1.000000000000000021e-02 1.000000000000000021e-02 1.000000000000000021e-02 1.000000000000000021e-02 1.000000000000000021e-02 1.000000000000000021e-02 1.000000000000000021e-02 1.000000000000000021e-02 1.000000000000000021e-02 1.000000000000000021e-02 1.000000000000000021e-02 1.000000000000000021e-02 1.000000000000000021e-02 1.000000000000000021e-02 1.000000000000000021e-02 1.000000000000000021e-02 1.000000000000000021e-02 1.000000000000000021e-02 1.000000000000000021e-02 1.000000000000000021e-02 1.000000000000000021e-02 1.000000000000000021e-02 1.000000000000000021e-02 1.000000000000000021e-02 1.000000000000000021e-02 1.000000000000000021e-02 1.000000000000000021e-02 1.000000000000000021e-02 1.000000000000000021e-02 1.000000000000000021e-02 1.000000000000000021e-02 1.000000000000000021e-02 1.000000000000000021e-02 1.000000000000000021e-02 1.000000000000000021e-02 1.000000000000000021e-02 1.000000000000000021e-02 1.000000000000000021e-02 1.000000000000000021e-02 1.000000000000000021e-02 1.000000000000000021e-02 1.000000000000000021e-02 1.000000000000000021e-02 1.000000000000000021e-02 1.000000000000000021e-02 1.000000000000000021e-02 1.000000000000000021e-02 1.000000000000000021e-02 1.000000000000000021e-02 1.000000000000000021e-02 1.000000000000000021e-02 1.000000000000000021e-02 1.000000000000000021e-02 1.000000000000000021e-02 1.000000000000000021e-02 1.000000000000000021e-02 1.000000000000000021e-02 1.000000000000000021e-02 1.000000000000000021e-02 1.000000000000000021e-02 1.000000000000000021e-02 1.000000000000000021e-02 1.000000000000000021e-02 1.000000000000000021e-02 1.000000000000000021e-02 1.000000000000000021e-02 1.000000000000000021e-02 1.000000000000000021e-02 1.000000000000000021e-02 1.000000000000000021e-02 1.000000000000000021e-02 1.000000000000000021e-02 1.000000000000000021e-02 1.000000000000000021e-02 1.000000000000000021e-02 1.000000000000000021e-02 1.000000000000000021e-02 1.000000000000000021e-02 1.000000000000000021e-02 1.000000000000000021e-02 1.000000000000000021e-02 1.000000000000000021e-02 1.000000000000000021e-02 1.000000000000000021e-02 1.000000000000000021e-02 1.000000000000000021e-02 1.000000000000000021e-02 1.000000000000000021e-02 1.000000000000000021e-02 1.000000000000000021e-02 1.000000000000000021e-02 1.000000000000000021e-02 1.000000000000000021e-02 1.000000000000000021e-02 1.000000000000000021e-02 1.000000000000000021e-02 1.000000000000000021e-02 1.000000000000000021e-02 1.000000000000000021e-02 1.000000000000000021e-02 1.000000000000000021e-02 1.000000000000000021e-02 1.000000000000000021e-02 1.000000000000000021e-02 1.000000000000000021e-02 1.000000000000000021e-02 1.000000000000000021e-02 1.000000000000000021e-02 1.000000000000000021e-02 1.000000000000000021e-02 1.000000000000000021e-02 1.000000000000000021e-02 1.000000000000000021e-02 1.000000000000000021e-02 1.000000000000000021e-02 1.000000000000000021e-02 1.000000000000000021e-02 1.000000000000000021e-02 1.000000000000000021e-02 1.000000000000000021e-02 1.000000000000000021e-02 1.000000000000000021e-02 1.000000000000000021e-02 1.000000000000000021e-02 1.000000000000000021e-02 1.000000000000000021e-02 1.000000000000000021e-02 1.000000000000000021e-02 1.000000000000000021e-02 1.000000000000000021e-02 1.000000000000000021e-02 1.000000000000000021e-02 1.000000000000000021e-02 1.000000000000000021e-02 1.000000000000000021e-02 1.000000000000000021e-02 1.000000000000000021e-02 1.000000000000000021e-02 1.000000000000000021e-02 1.000000000000000021e-02 1.000000000000000021e-02 1.000000000000000021e-02 1.000000000000000021e-02 1.000000000000000021e-02 1.000000000000000021e-02 1.000000000000000021e-02 1.000000000000000021e-02 1.000000000000000021e-02 1.000000000000000021e-02 1.000000000000000021e-02 1.000000000000000021e-02 1.000000000000000021e-02 1.000000000000000021e-02 1.000000000000000021e-02 1.000000000000000021e-02 1.000000000000000021e-02 1.000000000000000021e-02 1.000000000000000021e-02 1.000000000000000021e-02 1.000000000000000021e-02 1.000000000000000021e-02 1.000000000000000021e-02 1.000000000000000021e-02 1.000000000000000021e-02 1.000000000000000021e-02 1.000000000000000021e-02 1.000000000000000021e-02 1.000000000000000021e-02 1.000000000000000021e-02 1.000000000000000021e-02 1.000000000000000021e-02 1.000000000000000021e-02 1.000000000000000021e-02 1.000000000000000021e-02 1.000000000000000021e-02 1.000000000000000021e-02 1.000000000000000021e-02 1.000000000000000021e-02 1.000000000000000021e-02 1.000000000000000021e-02 1.000000000000000021e-02 1.000000000000000021e-02 1.000000000000000021e-02 1.000000000000000021e-02 1.000000000000000021e-02 1.000000000000000021e-02 1.000000000000000021e-02 1.000000000000000021e-02 1.000000000000000021e-02 1.000000000000000021e-02 1.000000000000000021e-02 1.000000000000000021e-02 1.000000000000000021e-02 1.000000000000000021e-02 1.000000000000000021e-02 1.000000000000000021e-02 1.000000000000000021e-02 1.000000000000000021e-02 1.000000000000000021e-02 1.000000000000000021e-02 1.000000000000000021e-02 1.000000000000000021e-02 1.000000000000000021e-02 1.000000000000000021e-02 1.000000000000000021e-02 1.000000000000000021e-02 1.000000000000000021e-02 1.000000000000000021e-02 1.000000000000000021e-02 1.000000000000000021e-02 1.000000000000000021e-02 1.000000000000000021e-02 1.000000000000000021e-02 1.000000000000000021e-02 1.000000000000000021e-02 1.000000000000000021e-02 1.000000000000000021e-02 1.000000000000000021e-02 1.000000000000000021e-02 1.000000000000000021e-02 1.000000000000000021e-02 1.000000000000000021e-02 1.000000000000000021e-02 1.000000000000000021e-02 1.000000000000000021e-02 1.000000000000000021e-02 1.000000000000000021e-02 1.000000000000000021e-02 1.000000000000000021e-02 1.000000000000000021e-02 1.000000000000000021e-02 1.000000000000000021e-02 1.000000000000000021e-02 1.000000000000000021e-02 1.000000000000000021e-02 1.000000000000000021e-02 1.000000000000000021e-02 1.000000000000000021e-02 1.000000000000000021e-02 1.000000000000000021e-02 1.000000000000000021e-02 1.000000000000000021e-02 1.000000000000000021e-02 1.000000000000000021e-02 1.000000000000000021e-02 1.000000000000000021e-02 1.000000000000000021e-02 1.000000000000000021e-02 1.000000000000000021e-02 1.000000000000000021e-02 1.000000000000000021e-02 1.000000000000000021e-02 1.000000000000000021e-02 1.000000000000000021e-02 1.000000000000000021e-02 1.000000000000000021e-02 1.000000000000000021e-02 1.000000000000000021e-02 1.000000000000000021e-02 1.000000000000000021e-02 1.000000000000000021e-02 1.000000000000000021e-02 1.000000000000000021e-02 1.000000000000000021e-02 1.000000000000000021e-02 1.000000000000000021e-02 1.000000000000000021e-02 1.000000000000000021e-02 1.000000000000000021e-02 1.000000000000000021e-02 1.000000000000000021e-02 1.000000000000000021e-02 1.000000000000000021e-02 1.000000000000000021e-02 1.000000000000000021e-02 1.000000000000000021e-02 1.000000000000000021e-02 1.000000000000000021e-02 1.000000000000000021e-02 1.000000000000000021e-02 1.000000000000000021e-02 1.000000000000000021e-02 1.000000000000000021e-02 1.000000000000000021e-02 1.000000000000000021e-02 1.000000000000000021e-02 1.000000000000000021e-02 1.000000000000000021e-02 1.000000000000000021e-02 1.000000000000000021e-02 1.000000000000000021e-02 1.000000000000000021e-02 1.000000000000000021e-02 1.000000000000000021e-02 1.000000000000000021e-02 1.000000000000000021e-02 1.000000000000000021e-02 1.000000000000000021e-02 1.000000000000000021e-02 1.000000000000000021e-02 1.000000000000000021e-02 1.000000000000000021e-02 1.000000000000000021e-02 1.000000000000000021e-02 1.000000000000000021e-02 1.000000000000000021e-02 1.000000000000000021e-02 1.000000000000000021e-02 1.000000000000000021e-02 1.000000000000000021e-02 1.000000000000000021e-02 1.000000000000000021e-02 1.000000000000000021e-02 1.000000000000000021e-02 1.000000000000000021e-02 1.000000000000000021e-02 1.000000000000000021e-02 1.000000000000000021e-02 1.000000000000000021e-02 1.000000000000000021e-02 1.000000000000000021e-02 1.000000000000000021e-02 1.000000000000000021e-02 1.000000000000000021e-02 1.000000000000000021e-02 1.000000000000000021e-02 1.000000000000000021e-02 1.000000000000000021e-02 1.000000000000000021e-02 1.000000000000000021e-02 1.000000000000000021e-02 1.000000000000000021e-02 1.000000000000000021e-02 1.000000000000000021e-02 1.000000000000000021e-02 1.000000000000000021e-02 1.000000000000000021e-02 1.000000000000000021e-02 1.000000000000000021e-02 1.000000000000000021e-02 1.000000000000000021e-02 1.000000000000000021e-02 1.000000000000000021e-02 1.000000000000000021e-02 1.000000000000000021e-02 1.000000000000000021e-02 1.000000000000000021e-02 1.000000000000000021e-02 1.000000000000000021e-02 1.000000000000000021e-02 1.000000000000000021e-02 1.000000000000000021e-02 1.000000000000000021e-02 1.000000000000000021e-02 1.000000000000000021e-02 1.000000000000000021e-02 1.000000000000000021e-02 1.000000000000000021e-02 1.000000000000000021e-02 1.000000000000000021e-02 1.000000000000000021e-02 1.000000000000000021e-02 1.000000000000000021e-02 1.000000000000000021e-02 1.000000000000000021e-02 1.000000000000000021e-02 1.000000000000000021e-02 1.000000000000000021e-02 1.000000000000000021e-02 1.000000000000000021e-02 1.000000000000000021e-02 1.000000000000000021e-02 1.000000000000000021e-02 1.000000000000000021e-02 1.000000000000000021e-02 1.000000000000000021e-02 1.000000000000000021e-02 1.000000000000000021e-02 1.000000000000000021e-02 1.000000000000000021e-02 1.000000000000000021e-02 1.000000000000000021e-02 1.000000000000000021e-02 1.000000000000000021e-02 1.000000000000000021e-02 1.000000000000000021e-02 1.000000000000000021e-02 1.000000000000000021e-02 1.000000000000000021e-02 1.000000000000000021e-02 1.000000000000000021e-02 1.000000000000000021e-02 1.000000000000000021e-02 1.000000000000000021e-02 1.000000000000000021e-02 1.000000000000000021e-02 1.000000000000000021e-02 1.000000000000000021e-02 1.000000000000000021e-02 1.000000000000000021e-02 1.000000000000000021e-02 1.000000000000000021e-02 1.000000000000000021e-02 1.000000000000000021e-02 1.000000000000000021e-02 1.000000000000000021e-02 1.000000000000000021e-02 1.000000000000000021e-02 1.000000000000000021e-02 1.000000000000000021e-02 1.000000000000000021e-02 1.000000000000000021e-02 1.000000000000000021e-02 1.000000000000000021e-02 1.000000000000000021e-02 1.000000000000000021e-02 1.000000000000000021e-02 1.000000000000000021e-02 1.000000000000000021e-02 1.000000000000000021e-02 1.000000000000000021e-02 1.000000000000000021e-02 1.000000000000000021e-02 1.000000000000000021e-02 1.000000000000000021e-02 1.000000000000000021e-02 1.000000000000000021e-02 1.000000000000000021e-02 1.000000000000000021e-02 1.000000000000000021e-02 1.000000000000000021e-02 1.000000000000000021e-02 1.000000000000000021e-02 1.000000000000000021e-02 1.000000000000000021e-02 1.000000000000000021e-02 1.000000000000000021e-02 1.000000000000000021e-02 1.000000000000000021e-02 1.000000000000000021e-02 1.000000000000000021e-02 1.000000000000000021e-02 1.000000000000000021e-02 1.000000000000000021e-02 1.000000000000000021e-02 1.000000000000000021e-02 1.000000000000000021e-02 1.000000000000000021e-02 1.000000000000000021e-02 1.000000000000000021e-02 1.000000000000000021e-02 1.000000000000000021e-02 1.000000000000000021e-02 1.000000000000000021e-02 1.000000000000000021e-02 1.000000000000000021e-02 1.000000000000000021e-02 1.000000000000000021e-02 1.000000000000000021e-02 1.000000000000000021e-02 1.000000000000000021e-02 1.000000000000000021e-02 1.000000000000000021e-02 1.000000000000000021e-02 1.000000000000000021e-02 1.000000000000000021e-02 1.000000000000000021e-02 1.000000000000000021e-02 1.000000000000000021e-02 1.000000000000000021e-02 1.000000000000000021e-02 1.000000000000000021e-02 1.000000000000000021e-02 1.000000000000000021e-02 1.000000000000000021e-02 1.000000000000000021e-02 1.000000000000000021e-02 1.000000000000000021e-02 1.000000000000000021e-02 1.000000000000000021e-02 1.000000000000000021e-02 1.000000000000000021e-02 1.000000000000000021e-02 1.000000000000000021e-02 1.000000000000000021e-02 1.000000000000000021e-02 1.000000000000000021e-02 1.000000000000000021e-02 1.000000000000000021e-02 1.000000000000000021e-02 1.000000000000000021e-02 1.000000000000000021e-02 1.000000000000000021e-02 1.000000000000000021e-02 1.000000000000000021e-02 1.000000000000000021e-02 1.000000000000000021e-02 1.000000000000000021e-02 1.000000000000000021e-02 1.000000000000000021e-02 1.000000000000000021e-02 1.000000000000000021e-02 1.000000000000000021e-02 1.000000000000000021e-02 1.000000000000000021e-02 1.000000000000000021e-02 1.000000000000000021e-02 1.000000000000000021e-02 1.000000000000000021e-02 1.000000000000000021e-02 1.000000000000000021e-02 1.000000000000000021e-02 1.000000000000000021e-02 1.000000000000000021e-02 1.000000000000000021e-02 1.000000000000000021e-02 1.000000000000000021e-02 1.000000000000000021e-02 1.000000000000000021e-02 1.000000000000000021e-02 1.000000000000000021e-02 1.000000000000000021e-02 1.000000000000000021e-02 1.000000000000000021e-02 1.000000000000000021e-02 1.000000000000000021e-02 1.000000000000000021e-02 1.000000000000000021e-02 1.000000000000000021e-02 1.000000000000000021e-02 1.000000000000000021e-02 1.000000000000000021e-02 1.000000000000000021e-02 1.000000000000000021e-02 1.000000000000000021e-02 1.000000000000000021e-02 1.000000000000000021e-02 1.000000000000000021e-02 1.000000000000000021e-02 1.000000000000000021e-02 1.000000000000000021e-02 1.000000000000000021e-02 1.000000000000000021e-02 1.000000000000000021e-02 1.000000000000000021e-02 1.000000000000000021e-02 1.000000000000000021e-02 1.000000000000000021e-02 1.000000000000000021e-02 1.000000000000000021e-02 1.000000000000000021e-02 1.000000000000000021e-02 1.000000000000000021e-02 1.000000000000000021e-02 1.000000000000000021e-02 1.000000000000000021e-02 1.000000000000000021e-02 1.000000000000000021e-02 1.000000000000000021e-02 1.000000000000000021e-02 1.000000000000000021e-02 1.000000000000000021e-02 1.000000000000000021e-02 1.000000000000000021e-02 1.000000000000000021e-02 1.000000000000000021e-02 1.000000000000000021e-02 1.000000000000000021e-02 1.000000000000000021e-02 1.000000000000000021e-02 1.000000000000000021e-02 1.000000000000000021e-02 1.000000000000000021e-02 1.000000000000000021e-02 1.000000000000000021e-02 1.000000000000000021e-02 1.000000000000000021e-02 1.000000000000000021e-02 1.000000000000000021e-02 1.000000000000000021e-02 1.000000000000000021e-02 1.000000000000000021e-02 1.000000000000000021e-02 1.000000000000000021e-02 1.000000000000000021e-02 1.000000000000000021e-02 1.000000000000000021e-02 1.000000000000000021e-02 1.000000000000000021e-02 1.000000000000000021e-02 1.000000000000000021e-02 1.000000000000000021e-02 1.000000000000000021e-02 1.000000000000000021e-02 1.000000000000000021e-02 1.000000000000000021e-02 1.000000000000000021e-02 1.000000000000000021e-02 1.000000000000000021e-02 1.000000000000000021e-02 1.000000000000000021e-02 1.000000000000000021e-02 1.000000000000000021e-02 1.000000000000000021e-02 1.000000000000000021e-02 1.000000000000000021e-02 1.000000000000000021e-02 1.000000000000000021e-02 1.000000000000000021e-02 1.000000000000000021e-02 1.000000000000000021e-02 1.000000000000000021e-02 1.000000000000000021e-02 1.000000000000000021e-02 1.000000000000000021e-02 1.000000000000000021e-02 1.000000000000000021e-02 1.000000000000000021e-02 1.000000000000000021e-02 1.000000000000000021e-02 1.000000000000000021e-02 1.000000000000000021e-02 1.000000000000000021e-02 1.000000000000000021e-02 1.000000000000000021e-02 1.000000000000000021e-02 1.000000000000000021e-02 1.000000000000000021e-02 1.000000000000000021e-02 1.000000000000000021e-02 1.000000000000000021e-02 1.000000000000000021e-02 1.000000000000000021e-02 1.000000000000000021e-02 1.000000000000000021e-02 1.000000000000000021e-02 1.000000000000000021e-02 1.000000000000000021e-02 1.000000000000000021e-02 1.000000000000000021e-02 1.000000000000000021e-02 1.000000000000000021e-02 1.000000000000000021e-02 1.000000000000000021e-02 1.000000000000000021e-02 1.000000000000000021e-02 1.000000000000000021e-02 1.000000000000000021e-02 1.000000000000000021e-02 1.000000000000000021e-02 1.000000000000000021e-02 1.000000000000000021e-02 1.000000000000000021e-02 1.000000000000000021e-02 1.000000000000000021e-02 1.000000000000000021e-02 1.000000000000000021e-02 1.000000000000000021e-02 1.000000000000000021e-02 1.000000000000000021e-02 1.000000000000000021e-02 1.000000000000000021e-02 1.000000000000000021e-02 1.000000000000000021e-02 1.000000000000000021e-02 1.000000000000000021e-02 1.000000000000000021e-02 1.000000000000000021e-02 1.000000000000000021e-02 1.000000000000000021e-02 1.000000000000000021e-02 1.000000000000000021e-02 1.000000000000000021e-02 1.000000000000000021e-02 1.000000000000000021e-02 1.000000000000000021e-02 1.000000000000000021e-02 1.000000000000000021e-02 1.000000000000000021e-02 1.000000000000000021e-02 1.000000000000000021e-02 1.000000000000000021e-02 1.000000000000000021e-02 1.000000000000000021e-02 1.000000000000000021e-02 1.000000000000000021e-02 1.000000000000000021e-02 1.000000000000000021e-02 1.000000000000000021e-02 1.000000000000000021e-02 1.000000000000000021e-02 1.000000000000000021e-02 1.000000000000000021e-02 1.000000000000000021e-02 1.000000000000000021e-02 1.000000000000000021e-02 1.000000000000000021e-02 1.000000000000000021e-02 1.000000000000000021e-02 1.000000000000000021e-02 1.000000000000000021e-02 1.000000000000000021e-02 1.000000000000000021e-02 1.000000000000000021e-02 1.000000000000000021e-02 1.000000000000000021e-02 1.000000000000000021e-02 1.000000000000000021e-02 1.000000000000000021e-02 1.000000000000000021e-02 1.000000000000000021e-02 1.000000000000000021e-02 1.000000000000000021e-02 1.000000000000000021e-02 1.000000000000000021e-02 1.000000000000000021e-02 1.000000000000000021e-02 1.000000000000000021e-02 1.000000000000000021e-02 1.000000000000000021e-02 1.000000000000000021e-02 1.000000000000000021e-02 1.000000000000000021e-02 1.000000000000000021e-02 1.000000000000000021e-02 1.000000000000000021e-02 1.000000000000000021e-02
-1.075940882118180326e+02 1.636709650046591946e+02 3.790358636734911357e+01 -8.511955884664152094e+00 -8.476249739031567287e+01 -1.291409001269011725e+01 -2.006069119845219859e+02 6.850053585500571751e-01 -8.169961452005085789e+01 -1.366304830531999492e+01 -1.915114471517654238e+01 6.321747343228691918e+00 -1.720061794726926330e+00 1.618660235002490424e+02 8.164343246673699639e+01 -3.745490731408718688e+01 -5.098525679862685678e+01 7.642297364057156983e+01 3.167537634009118008e+01 -2.449115742411582630e+01 -7.605100575611754721e+01 -7.118058863085420285e+01 -1.330343255134334157e+01 2.791344621248738989e+01 -1.880378575691152037e+02 -9.522913011864235955e+01 -2.517600498984073454e+01 1.945037380588975680e+02 6.826866235251671355e+01 7.405993831839991515e+01 7.747520384962626849e+01 1.137953993728377133e+00 -7.654053286136883116e+01 2.002063504323223810e+02 -2.362876864925250402e+02 5.681829874244335343e+01 -1.158600059941052649e+02 -3.347325852878911689e+01 3.897200306135083281e+00 1.222596911748412793e+02 -1.185600953605267875e+02 -1.313906059116189340e+01 7.460824344401075336e+01 1.675138710532102095e+02 6.881668657438945047e+01 -6.596296950319239727e+01 3.971739916624404287e+01 -2.740352788359150793e+01 -6.374126800271492499e+01 1.510779795827876058e+02 -6.800621146786586735e+01 -5.025622134458451029e+01 -1.344982229923351724e+02 5.624147355456953434e+00 -4.873954286300484284e+01 3.732335421391507424e+01 -8.561862167869611540e+01 -4.828931943720306208e+01 -9.785169212800148841e+01 -1.500087700041717937e+02 1.873155868466066920e+01 4.381933963780094388e+01 -1.188186837104913423e+02 1.239782463907100940e+01 -7.647751637488721599e+01 4.740487588584174716e+01 1.608493996050998760e+02 -1.392305529393401571e+02 -4.177371304920744421e+01 6.972187435915406795e+00 2.838674429018850809e+00 4.091076298750423490e+01 8.104340340189672531e+01 7.628172941548801989e-01 -8.531842913898136871e+00 -6.755603069022320994e+01 7.550622224826766171e+01 -3.156855979569894188e+01 2.539165679671553377e+01 1.003919353864760495e+02 8.510696461436508287e+01 -4.127959485572220899e+01 5.573115707005870689e+01 1.422731256352970490e+02 1.121584107839564268e+02 -3.851204788093514519e+00 1.680922751251847274e+02 -1.076348979789963636e+02 4.017254116876959102e+00 -4.047378920149313331e+01 1.995855454315548627e+02 -2.048213922716783841e+01 2.802109868924208325e+00 -7.410121828334062855e+01 -6.903390235905835226e+00 -6.158066098146043288e+01 6.542194317446771379e+01 -9.125977002585901232e+01 6.624712676013594148e+01 -4.610646824439557179e+01 -4.800434799727111113e+01 -8.846794616154144819e+01 5.120124893451406933e+01 -5.276424815828271164e+01 -1.441103462118421703e+02 -7.667151541232657053e+01 -1.009469646876533346e+02 -1.517328627196677360e+02 1.311726739929428618e+02 -2.648006228572626242e+01 3.092832831452563269e+01 8.653360040631251593e+01 -1.003972850656000304e+02 5.495262918470091051e+01 -4.180123129683342853e+01 -6.699519309514877818e+01 -8.699610865934135973e+01 1.960940481885830025e+02 -5.475380458243724746e+01 -4.779699612381553209e+01 -4.551116552230374168e+01 7.758402639083529095e+01 -3.997873113661993472e+01 1.331343499757078632e+02 -4.819536633577133244e+01 5.321817092397842686e+01 4.384816876115919193e+00 -7.823961340780327589e+01 6.637091194487177859e+01 2.677214141584764207e+02 -8.886432857989233014e+01 4.581010516383654618e+01 -7.362741703025280060e+01 4.367144792250912388e+01 1.266445286937735801e+02 -4.965189387948795030e+01 1.411657282425734827e+01 -2.601757025441586180e+01 -9.843114803306553995e+01 -1.676545261949939558e+01 4.165568051924851467e+00 -7.536558600352941895e+00 -1.442015619190761200e+01 1.141078715421639771e+02 1.259102587807989408e+02 1.800684058806130281e+02 -2.939244223806474565e+02 3.688818070039066299e+01 -1.523953473163374817e+01 -6.020419501568360232e+01 1.741950093100847710e+02 7.353534580866990211e+01 -2.536977308942463427e+00 -1.119869501422644618e+02 -1.050214042012129489e+01 9.670051440996658698e+01 -1.298021885393816319e+02 -1.628991750770673548e+02 1.037520902193158001e+01 4.098077234651376699e+01 -5.898472531197282365e+01 4.062731876256061980e+01 -1.034768121524417808e+02 -1.462222187189707086e+02 2.037540779655576983e+01 4.695207764913158854e+01 4.668056029404809237e+00 -8.064713567800819760e+01 -9.047147471843743460e+01 -8.147439649180608967e+01 -8.466011306761025423e+01 1.225373790377439498e+01 5.494710520270726306e+01 1.127049246729028056e+02 7.682353461900490288e+01 8.661606643286448559e+01 1.040215707772975833e+02 -7.236831571994888179e+01 -7.985150855754663723e+01 6.826846233182227763e+01 6.638873347941360237e+01 5.735305717235669931e+01 -9.083546537144716382e+00 -8.821762221665026971e+01 5.231599309937747222e+01 -1.735625753003553484e+02 6.512088148669431575e+01 -4.314302853788223047e+01 -9.348628593708393453e+01 7.196818388926483578e+01 -1.665517651867858362e+01 -7.478987705097748062e+01 -5.572522556752069534e+01 -8.907422389154749709e+00 2.356085052530364408e+02 7.471177727089691700e+01 5.326469562703339022e+01 -1.008790308700078526e+02 1.440640762315448171e+02 1.045402668195970053e+00 -8.782227185415875681e+01 1.514970358708986282e+02 -1.498686710817651146e+02 1.534566633800562307e+01 -3.162144251219494606e+01 -2.161449637186198345e+02 -1.311185347258471268e+02 -8.576672667551710560e+01 -2.891415307479121566e+01 -1.172157933774774818e+02 5.667470499101268189e+01 6.392187481669997595e+01 -2.715054299846843477e+01 -9.813311332623692351e+01 1.112136787031527376e+02 1.161980573638700065e+02 4.544395043963825032e+01 1.722569438358237193e+01 2.571625769953295162e+02 4.294028452110951832e+01 -1.176001137915160797e+02 -4.436774199492958104e+01 -1.661287192005270867e+02 3.136836990606767017e+01 1.508573220857259685e+02 -1.459431477245911992e+02 1.296759822091075876e+02 -8.955099971575145901e+01 -1.864819518638242712e+01 -8.048698000118966744e-01 5.207310881024449856e+01 -1.139158547541630639e+01 -2.248382652645300084e+01 -1.851735919132727304e+01 -1.248747871950962320e+02 4.569399938555436336e+01 -2.987879751184416932e+01 -1.272028909775613670e+01 -1.056486922178560484e+01 2.226300517219765709e+02 1.717006389396402426e+02 2.292090973809712864e+02 1.298661426977493534e+02 -8.530737299454392542e+01 7.404962122560817761e+01 2.084483787265657284e+01 4.681967045037635700e+01 -3.908067488661232858e+01 2.516980142097048940e+02 -2.298567597681000052e+01 -1.347636865434527920e+02 -1.472260599887568411e+01 -4.518654760783033453e+01 -7.626314937833762997e+01 4.253451060791120142e+01 -1.154414672546481135e+01 1.793147535195307967e+02 9.100850079237824275e+01 4.029181136799578411e+01 9.658498377304874793e+01 9.330069622904952098e+01 -2.265998287076156714e+01 1.376604261289792532e+02 2.616582093878063731e+01 8.835856091684523506e+01 4.702652703139643364e+01 6.825399254620317713e+00 -1.141319926860378757e+02 -1.142629398644924237e+02 -8.879644163751076746e+01 -1.534584668713721634e+01 8.550005259443143757e+01 -3.019572525540841568e+01 9.751610680857717739e+01 4.322325877333273780e+01 -7.171896553483939840e+01 -2.952579930977764633e+01 -5.777434776778147807e+01 1.732798661994894118e+01 -4.564779671227415747e+01 -1.104974199754899189e+02 1.198268759896948694e+02 1.196767064523109241e+02 -7.789380498311932399e+01 5.315029481044619253e+00 -4.470784567718214220e+01 -3.210466956474145661e+01 -1.118478485238548892e+01 -3.081682210351995010e+01 4.389130591572033069e+01 -1.386431193211864183e+02 -5.213080963146472868e+01 -1.497257160259003115e+02 1.716637886872640024e+02 -1.988781297464629105e+01 5.805789082282225166e+01 1.173154515991584113e+01 1.422960939696187950e+02 4.394728473376721922e+01 3.516863876660046628e+01 1.521054286210674036e+02 -4.852866146562694638e+01 -9.618048015600744804e+01 2.681813502320397546e+01 -1.556230840144854994e+02 -5.259867016846646948e+01 1.007758157069740577e+02 -1.255776157364744989e+02 -3.579416714128633004e+01 8.986489364110144606e+01 -9.295721665476666828e+01 -8.804617061192529093e+01 -8.132670392514670255e+01 -6.276496737819537231e+01 2.451497279051824307e+02 1.950403531713065775e+02 1.013151239947010822e+02 -1.005485631382158829e+02 7.361912357737983825e+01 -6.514483311845494029e+01 -3.092835017560279454e+01 1.634705706727145369e+01 -3.175003882532269728e+01 -9.216243041669299885e+01 -2.772005188985918522e+00 1.449480287165590831e+01 1.069569968759661975e+02 -1.262871222517423746e+02 4.125730506975747858e+01 6.265957316697620172e+01 3.389521020270997553e+01 -8.901172678219676015e+01 -1.458884292211185993e+02 1.896595830903700914e+02 -1.747647184817165211e+01 2.472643153640055402e+01 1.537166955538619675e+02 2.616547780273399226e+01 2.720908255605122150e+01 -4.371493700283520667e+01 8.693938390142432127e+01 -1.337337581839553877e+02 -3.020378871974287094e+01 -6.020619968785392295e+00 -5.235345053875621346e+01 6.197785751338557247e+00 2.082912492429377949e+01 -3.508705546002901343e+01 1.339712070270435795e+01 2.095010634812093713e+02 -2.686192349353341058e+01 -2.745604649861796531e+01 -9.962912306926479289e+01 -1.599806530623192113e+00 -7.911262354309631917e+01 6.241063611615086160e+00 1.098275164449021162e+02 -5.096402427488032316e+01 5.917207402201571931e+00 -5.319623783271667605e+01 3.242592902021209866e+00 8.540722103452506531e+01 -1.134738885937658921e+02 -9.485956935334982632e+01 -1.004825408069887089e+02 6.987271770167396312e+01 8.477250546065788228e+01 -9.031535456337583412e+01 6.135860981463709862e+01 2.530855624982916652e+01 3.788738062980286969e+01 -1.737225311367430081e+01 8.946849092974193240e+01 7.803488677872597634e+01 -7.563891695804390736e+01 1.154039715497187935e+01 7.918231184333693307e+01 7.131674779141815179e+01 -1.949917869525945946e+01 2.443667052305194787e+01 -1.298250028092929540e+02 4.752882916971777405e+01 -3.209762485293330769e+01 -3.200732302229208415e+01 1.695544988144654042e+02 4.641933502017115387e+01 1.176731365698064735e+02 1.869724193305365532e+02 -1.347821137650379626e+02 1.459732793880396571e+02 -6.213023305507230276e+01 -1.323118959488288056e+02 8.058409658642582940e+01 -1.312278877585773955e+02 -2.811377665383152546e+01 5.520876813387884852e+01 7.871194344755283900e+00 -1.646551397042418898e+02 8.250691479451192833e+01 2.471227400347843783e+01 6.763255753428336448e+01 3.554946391807558115e+01 9.265210802180268601e+00 -6.570186995221192205e+01 1.132654882090315454e+02 5.334848258330858073e+01 -6.080716382423368316e+01 -9.911329053521471621e+01 3.808366783612864026e+01 2.519692387412665724e+01 8.067377659623315367e+01 1.799393844868301073e+02 -2.409349067283719492e+01 -1.078425616516977215e+02 -8.288420686424103678e+01 -5.023333316673650728e+01 -4.338210081146095121e+01 -1.436187802800936595e+02 -2.205508101196507553e+01 1.267967841020825688e+02 7.294979892398191623e+01 -1.197797173078788262e+02 -1.467718327075179729e+02 -6.663572976645555457e+01 -7.468755014568984052e+01 1.437234377463162502e+02 -1.668617195570953982e+02 8.474329933679261728e+01 -4.508999224707070042e+00 -4.212961531356013012e+01 1.300232914277321861e+01 8.920259071833697817e+01 4.849393835486780802e+01 1.352703846293353536e+02 -1.557629541797055879e+02 -7.924911726391694344e+01 2.484260285786362488e+01 4.103448772463996619e+01 2.017224016798995763e+02 1.423738798579381069e+02 6.415975067634288109e+01 7.056828573034508167e+01 -3.331440136326676082e+01 1.485563968295115842e+02 -1.755599168786600615e+02 -6.207964746394510769e+01 -5.253443950197240753e+01 -5.068695647302703122e+01 -1.010459975078705810e+02 -1.467897518414923930e+01 -6.716207404620335808e+01 6.963619989290080525e+01 -8.943936993280207304e+00 -5.680683495743012656e+01 -6.088171849833474880e+01 1.763271228010675031e+02 5.778447047617661525e+01 -1.344815077584714480e+01 2.044129540775295482e+02 -1.060356389899122291e+02 -3.456583997020383947e+01 6.552804897412768526e+01 -1.355533237423890425e-01 1.466053791005515627e+01 -1.224419102269320518e+02 1.723982552897310541e+02 -4.788543586728503954e+01 -2.631112742220881984e+01 -1.073113669023994987e+02 1.231011700685615722e+02 9.373649740511132222e+01 -7.580028368163858943e+01 -3.680615798310375908e+01 3.810740100381318740e+01 -1.480209389281556014e+02 -1.953553866003417683e-01 -7.303812610150566798e+01 7.509423535253979765e+00 -1.056669367994634285e+02 -1.549678755172480464e+02 -6.909506270999239064e+01 1.448349253150240941e+02 5.525676098234898603e+01 -8.760200447425749815e+01 8.711649410186907971e+01 3.342058743838428114e+01 8.632575861483714164e+01 -4.114816437256374826e+01 -8.212067731105209134e+01 1.670657854308945502e+02 4.065727953350612012e+01 2.826638129420163281e+01 -7.126784386830682649e+01 -4.131644186368476568e+01 9.285625733535386672e+00 -7.005557066318068848e+00 -1.687322540822277404e+02 -3.379740796009079418e+01 6.286212558433494024e+01 1.088959549123818533e+02 1.519860285176566776e+02 -1.296747036293473698e+01 8.744525398462246812e+01 1.538958353509978565e+02 6.185096141207494469e+01 1.440347995738207203e+02 1.566867682321952593e+01 1.280403000007665355e+02 -8.184020121586127061e+01 5.198609170788392220e+01 2.855568172915587510e+01 7.390988194747653495e+01 -1.034741627518586569e+02 1.929248129030195287e+02 -1.253212361774534145e+02 8.600143860883954972e+01 -1.045204188392487481e+02 4.493921700795975482e+01 1.343878578831680670e+01 8.823534507920447822e+01 -7.163996167675119864e+01 -7.344150813600866456e+01 -1.082579861172730418e+01 8.662287940577529355e+01 -2.876795953659375016e+01 -1.583867791917366219e+01 -1.907726455189702008e+01 4.600759342891985071e+00 9.531164215510224835e+01 -6.072607150747968774e+01 -2.624189107519783626e+00 -1.880168716852951718e+02 1.182633394285104629e+02 -1.209729982827153947e+02 -7.155090915554072240e+01 -2.278268639809002138e+01 -1.045642895634556595e+02 -5.147610786358362844e+01 -5.674904017303296655e+01 -1.907656401855139805e+01 1.319340106726163242e+02 5.235618445383086339e+01 9.724218220519513523e+01 -1.318001860199348982e+02 -1.341905939054103385e+02 -2.776317835726669045e+02 9.896590090614236601e+01 1.009286411045090688e+02 4.098984344434966687e+01 -4.113628798931278396e+01 -3.598944314100305775e+01 -1.778782019739800546e+02 1.414685648117426808e+02 -1.040144998912353316e+02 1.035858090998916197e+02 -1.541606210436458184e+02 -1.386987862369535662e+01 -5.363058414438996380e+01 -1.155045340090164814e+02 -4.465395937051174258e+01 -1.215362568137912191e+01 -8.976375713549174407e+01 -1.002057262966400231e+02 -1.197359885491190745e+01 6.894572512085807148e+01 -1.206946273308806781e+02 -1.515535579837245272e+01 -7.143487246774148502e+01 -1.272897354662863307e+02 6.383296543204680873e+00 9.211574150509881065e+01 1.603764587151155183e+02 -1.846114547550518026e+01 -4.461371935008810397e+01 -1.203258741480825478e+02 -1.585771251766817613e+02 1.006050649233035301e+02 -7.049575468679812218e+01 7.655715676612160792e+01 9.108951761455280405e+00 2.831509348074033028e+01 7.158381232997088262e+01 -8.218414090954162532e+01 8.017291865559556641e+01 1.117850420357441550e+02 1.527414568326649942e+02 -1.129907969482380707e+02 1.008216986991841253e+02 -4.634817720962874432e+01 -8.806636581114103990e+01 2.081466467380760150e+02 4.772613860314495327e+01 8.096046844610535231e+01 2.056870495371774510e+01 -6.138298555423403258e+01 -3.388420876347632316e+01 -2.040691107737707739e+02 1.024682139643094274e+02 7.903387758224764070e+01 -7.342241985429862439e+01 -7.091271679933726091e+01 1.408252816133653766e+02 9.802876786619071936e+01 4.958573460427233925e+01 7.377757371741401471e+01 -7.609213981816340677e+00 1.000891337113786221e+02 -1.004766730576953648e+02 1.807474377592001531e+02 -3.829732730826393095e+01 -1.183457513021869971e+02 -3.658016992036412063e+01 6.958580040125865196e+01 1.429042929435971416e+02 1.245970589216585722e+01 1.686030395937828814e+02 5.061591544874912785e+01 3.262807870063970483e+01 -1.079611142060264370e+02 4.343287756580665615e+01 -1.212302785380073402e+02 4.628689674782496155e+01 3.741439653826661527e+01 -1.196776891290067084e+02 -8.248640898743356331e+01 3.866507005025354715e+01 8.463025655486662302e+00 -2.250922758555124403e+01 4.063070160557014532e+01 -2.076063588467829035e+01 -6.119443557796073918e+01 -2.545442870685622694e+01 -2.174286909721323724e+01 -3.862241332696189744e+01 1.819885562319621641e+01 -7.811600644729473686e+01 1.153672277791533816e+02 -7.203958707182351873e+01 -4.073982888456887608e+00 6.365785573322513358e+01 3.756308208563620354e+00 1.548733252061991550e+01 1.549210561871542602e+01 -1.135898408162016864e+02 -4.273473457659819452e+00 6.308730555467985823e+01 -2.244608410702722665e+02 -8.233697957954535696e+01 -1.092956073472645500e+02 4.248102305557855374e+01 9.331228170317827164e+01 -8.900165444952864391e+01 -1.628192044579376727e+02 -1.796053981599057749e+02 1.935061227788603944e+01 -1.405265966399678064e+02 -6.136429377599698753e+00 1.430753075221846302e+02 -6.851320595888187093e+00 3.596670719385428328e+01 -9.573790131927141545e+01 7.728223655140271831e+01 -1.146678625882517935e+02 -1.492770770666034785e+01 -2.927042679866320185e+01 5.566585373900266376e+01 -8.536846607358402395e+00 1.020754501045893079e+02 -1.179041694720260978e+02 -4.835659720994603106e+01 8.365737352751730782e+01 6.383602211163555751e+01 -7.941360588738827175e+01 -5.249054304652455016e+01 -4.762649466284867827e+01 -2.790169952505976312e+02 1.865446799376612148e+02 7.330001184557805516e+01 -2.270435080198393862e+01 -2.858175450317890665e+01 3.999511697237247176e+01 -8.096799229060167136e+01 9.577597021286091206e+01 5.821391152544008207e+01 7.881431599640676211e+01 -8.089546981653069224e+01 -2.548142067269199629e+01 3.203469141132861608e+01 1.671270349068360161e+01 -4.120228859959500767e+01 1.518717386665845197e+02 -1.661021099950270852e+01 3.404227600912432905e+01 -2.209355800534122238e+02 -8.135397351123198462e+01 -7.027991828883293124e+01 2.212760888405830073e+01 1.048984906629953286e+02 -2.226747923916644254e+02 -1.797012880702000075e+02 2.129171473163022483e+02 -1.014879160435612349e+01 9.226047422533821418e+01 6.017005041857501624e+01 -5.315843547627758880e+01 -1.258387851143248781e+02 -9.141124453177705789e+01 -4.826706394554117452e+01 -3.593410566164211417e+01 -3.761879123986696527e+01 1.549400164319461837e+01 3.574847370468904728e+01 1.602945396876062887e+02 1.183997846386536850e+02 6.720938065686178575e+00 -4.237434321512979274e+00 -1.524841407706881284e+02 1.149374430116211556e+02 1.530172904092614203e+02 -9.938920420234300934e+01 7.081511749162045533e+01 1.625098439984540510e+00 5.277774957125182453e+01 1.204325192114794021e+02 6.814816279868770721e+01 -1.287772154198068506e+02 1.548017572931835950e+01 -2.823297625895295582e+01 1.070849961462774758e+01 -2.218926157396871801e+01 4.355735337580303934e+01 -2.504745736676868546e+02 1.741073961257737892e+02 6.977356822575943696e+00 1.532352263584389789e+02 -1.011146485019499508e+01 1.020679340839432285e+02 6.888161000383429666e+01 -4.036293908124248020e+01 2.881185952231196623e+01 -7.007373024371153747e+01 -8.564435701005091062e+01 -6.933105674533824470e+01 -3.085657948527626715e+01 4.347641156455668465e+01 1.060482167816916643e+02 2.740508190704785463e+01 5.987179496778788490e+01 -1.009628874516884025e+02 -1.320873603816319246e+02 -1.298803024019790264e+01 4.467703237459775778e+01 -4.377338064399468465e+01 9.114942604399236359e+01 5.352887157380042282e+01 -2.663373872976027101e+01 2.885577131732252099e+01 5.917450316794587195e+01 -6.948576654247865747e+01 -1.288955427817831207e+02 1.369415962894605627e+02 7.531504898495803069e+00 4.834531827021218930e+01 -1.440073088709823139e+02 -5.152014163909782951e+01 -4.178334232286171068e-01 -6.350360270267155016e+01 4.110352658723839703e+00 5.434163712715862715e+01 1.799903926598124144e+02 3.778264382079734673e+01 -1.058051713002456751e+01 6.978440189490412138e+01 -4.391450489644896749e+01 -1.052721740334057898e+02 -1.335006028006555425e+02 9.045771309026083173e+00 2.426835538826752625e+01 2.304064172677161437e+01 -5.499015097890377035e+01 1.168089527165567603e+02 -7.815600417112601406e+01 1.241046492392562612e+02 8.443211820273675983e+01 -6.291840841770925863e+01 -8.201692915789385552e+01 8.149435207094447264e+01 1.975888668878716103e+01 -5.084295408042029862e+01 -5.211625430668748038e+01 1.324117864515167753e+02 5.552386598390950212e+01 7.740838878705436343e+01 2.532674444678715275e+01 -4.072990912695473753e+01 1.040678659189734390e+02 -5.288011742858706299e+01 5.534023014012350306e-01 7.418132002837742789e+01 9.655002637991347569e+01 2.477527746566002804e+02 -1.698957120026884695e+02 1.560628423206486559e+02 -6.551390311417274859e+01 -1.477830205452036161e+01 -2.438074962165854487e+01 -2.011601238553964066e+01 -5.348656407592005024e+01 9.027957297632627842e+01 1.786825927637026723e+02 -1.153459250242632663e+02 3.004729647905080014e+01 -1.233035884693796618e+02 6.822184184216712310e+01 -4.322679956776007515e+01 -7.880078200318338588e+01 -5.244421978386939998e+01 4.008976391994282551e+01 1.884763341994469243e+01 -7.959318452575546132e+01 -1.373435619845269571e+02 2.022291455146737960e+01 1.535611439618193685e+02 1.392375510470301947e+01 1.778782351709460272e+02 7.268932141063459973e+00 1.312975009117171226e+02 -3.373841778041351347e+01 8.855312106944481343e+01 -6.971725944333692837e+01 -1.102130097564137685e+02 4.826839287617080743e+01 -5.664241473649295955e+01 -7.671952944096310034e+01 7.118393336988704334e+01 6.327961902052705589e+00 -9.214870633304339265e+01 -1.472366413500111264e+02 1.446790163485906646e+02 -8.723729820481251807e+01 -2.321042265660232751e+00 1.175456639393765812e+02 5.678759909439963849e+01 -9.617325994026153069e+01 1.043521863438447639e+01 2.762899673449861666e+02 5.221999630565274231e+01 -1.545646906477758478e+02 -4.678571853653072310e+01 -6.028721682201221910e+01 9.428508133387129675e+00 1.054988191833813431e+02 -1.015309181669687604e+02 2.118541471083161554e+01 1.280338927708305334e+02 1.842394470765124481e+01 -2.073813929941480865e+02 4.740589452501459533e+01 7.411187113786648695e+01 -1.334814831289446246e+01 3.219203110671264767e+01 1.705475610640028172e-01 2.215314681894963300e+01 2.723655450859048699e+01 1.137649317902711061e+02 9.629817637492394056e+01 1.535041218071172686e+01 1.463605304679182382e+02 -6.288007577605829113e+01 2.422688184236787663e+02 6.388929638656972543e+01 1.392283825603628884e+02 -2.157603935020145158e+01 8.849501106011875606e+01 -4.807482216076186177e+01 -1.438148856086881722e+02 2.570382829814828440e+01 9.332889288579541187e+01 -8.604017252942391281e+01 -1.029214614996559618e+02 -6.538454413441992585e+01 3.598356670130834800e+01 -1.122087731907230932e+02 7.340526763187197901e+01 2.755443046884457203e+01 -9.592464580801610907e+01 1.866328445641415215e+02 -1.155775361442159621e+01 -1.000198937281376885e+02 -1.318333288084680888e+01 -2.008398909843066704e+01 -1.378039409321344522e+02 -3.932986615707968525e+01 6.045581772938635368e+01 1.295322808653458253e+02 2.854581368968614541e+01 2.628262768869663191e+01 4.401860732697861067e+01 -3.510225234749754719e+01 -1.431224039511196509e+02 1.562138166054571542e+01 3.042316478684782766e+01 1.308432783210913897e+02 -9.719522669318267916e+00 -7.482301983675868939e+01 7.194863566882214911e+01 9.586877836707728973e-01 3.127117154003709842e+01 1.368428191160487586e+02 -1.744503939655971294e+02 -9.127892443991225946e+01 1.226118121520627966e+02 -2.060610953504989027e+02 -1.756595555089992615e+02 8.694755083818353114e+01 1.470893050808693090e+02 6.057804022550090650e+01 -4.276581562477320020e+00 1.487410374986537249e+02 -2.096894195733910635e+02 1.023502245576304830e+02 4.047655016543544804e+01 1.213746387466151049e+02 -1.801332725359798133e+02 1.017164780260003596e+02 -2.696168358874126625e+01 -1.276944757165530433e+02 -5.083263884653159259e+00 -8.824526799542036315e+01 -1.549365619486529688e+01 -4.152931185786359336e+00 -1.176696828572568023e+02 -1.177882378327850006e+02 -5.975899265151534934e+01 -1.231233630737555558e+02 1.919646500030529808e+02 -1.538926654089243300e+02 -4.793129887363415520e+01 1.648043308693931408e+02 3.241034440409487871e+01 -2.827214738327595569e+02 -1.214325826250709781e+02 3.390841592462598442e+01 5.221227734556640598e+01 8.157356626572347835e+00 -1.476578237881670930e+02 3.408498205354118227e+01 7.169861754610970195e+00 -7.099649120052751528e+01 1.936458233647298925e+02 1.934840268929958711e+02 4.153604772613099350e+00 -1.991983304284351277e+02 1.203274280284551878e+02 2.936975540229576964e+01 3.641963834339121853e+00 7.314814921162172823e+01 -1.981837395176926577e+02 -1.318261591238768347e+02 1.346891554573632845e+02 1.047360422655820287e+02 5.052851713402153422e+01 1.367538340732675692e+02 -1.702665722674645110e+02 -1.954805043083587179e+01 -1.245492017260236537e+02 4.170728364158025414e+01 -9.921448126226700026e+01 8.316626942309757453e+01 -3.240038721676287281e+01 1.182980298296670618e+01 1.694811246100939570e+02 2.726891062847411717e+01 -2.517457859250022807e+02 -1.207215034626904497e+02 -7.960184509351451254e+01 1.510150850181965723e+02 1.197765078212282752e+01 -5.147224337432471941e+01 2.896017981124205320e+01 5.968040821004262853e+01 -3.777164460394102008e+01 1.026867166270124301e+02 -9.622623526801105243e+01 4.700507856551191566e+01 1.069104697970700499e+02 -3.392854575617842272e+01 -9.372272772366444826e+01 -1.083712502561519244e+02 1.143881056512708767e+02 -4.745528552955284596e+01 1.877310109386898489e+02 5.463845311695194340e+01 1.059650082377363702e+02 1.762304708561152893e+02 8.171654486940653328e+00 -1.187347854857272722e+02 -1.582871112842843786e+02 -1.090407453097707133e+02 4.060293717077949793e+01
-1.267810284768828311e+01 -4.522238739982823219e+00 9.659553756985940254e+01 -2.136822327851216130e+02 1.449968977160380916e+02 5.922813780760162672e+01 1.419418472185634243e+02 -1.205043170020357337e+02 -2.579074198065808954e+00 -2.244438534856139000e+01 -2.047681538194448194e+02 3.051013193930108258e+01 -1.708786356957067909e+01 1.141053021188154162e+02 -1.167166500422148658e+02 5.757278572742637834e+01 1.168637571467210137e+02 -4.287243468567149307e+01 -4.625189733133191083e+01 -2.516469731176578506e+01 5.758918749856486130e+01 5.882585015582554888e+01 3.026015538841986086e+01 -2.168820924455205272e+02 -4.809091140066509951e+01 8.540760620207782949e+01 9.248714667495569586e+00 -9.684989582155100862e+00 -6.204805156820469847e+01 -1.446270637726073893e+01 6.840750716010991539e+01 -1.356246598291073155e+02 -5.779400977842083620e+01 8.364060847137967158e+00 1.936277204408212071e+02 1.977989197651002087e+02 -2.998784449685926745e+01 5.212446163803469545e+01 -2.405894182526040481e-01 -1.302434908559304176e+02 8.950740948504001437e+01 9.999853208160668316e+01 1.012044062870292720e+02 1.088727203370139307e+01 5.771077221139668012e+01 4.487631089831691611e+01 3.625748196941964352e+01 2.738973245649243893e+01 1.028494755195202544e+02 8.366032374123881254e+01 6.115537793387910881e+01 1.520196804950111016e+02 2.311339771040536846e+02 1.824158206382084870e+02 -5.515739348080909821e+01 4.594918556820497457e+01 -5.993053747503758188e+01 5.258428299674989148e+01 -1.792594384638981921e+02 5.269222807198390512e+01 -1.909472679432258246e+02 -1.573556764326915527e+02 1.208176538804904787e+01 -8.644572704136555430e+00 1.580972335040280257e+02 -1.939811530578285499e+02 7.020215698960964801e+01 2.143839056197817854e+02 -6.901157567729556241e+00 -1.817065187060861433e+02 3.313326113090877811e+01 1.839123971130951816e+02 -5.700339189367429782e+01 -2.486589006276262523e+02 -9.567441955731277403e+01 8.318088919171575668e+00 -2.146424152634072016e+02 2.994511673912077043e+01 -1.674267061777065351e+02 -1.731284195656990335e+02 -5.336262750823221523e+01 1.422390943880135978e+02 6.480840669042146374e+01 9.911942382557697329e+00 -8.277495357968120970e+01 -3.976412114505207285e+01 5.949450256474511889e+01 -2.167484071168008768e+02 5.051180460718969556e+01 -6.996724088482163495e+01 -7.297818810977911141e+01 -1.651095395188945929e+02 6.072791000557177910e+01 8.657201598658842556e+01 -1.515989599674636281e+02 1.614077670090900085e+02 -3.724633524307629528e+01 -1.580742588806694471e+01 8.189047506774238627e+01 1.460717478265708564e+02 2.032447291497434350e+01 1.415209415902585306e+02 -1.729887586593487470e+01 -8.475853961129210745e+01 -1.831973977380192764e+01 9.444275584376863719e+01 4.321749879667141414e+01 9.401287269189452900e+01 9.069886168484295297e+01 -7.986084276815728344e+01 -1.632945899996951198e+02 1.182557390479979063e+02 5.212863102389731296e+01 1.561184285017736961e+01 2.938188700956514410e+01 -6.528616046902439507e+01 9.229943102692718071e+01 8.638412968616272281e+01 -1.320200427209396565e+01 -6.850286773185389677e+01 2.950770284826372247e+01 6.044136923988221888e+00 -5.910688759025757832e+01 1.630562936880215830e+02 -3.153428398829079526e+01 1.169308233117387061e+02 -6.740229522997637446e+01 3.691919286894307106e+01 -3.468506788169638355e+01 8.607487199828243263e+01 2.257501822143088077e+01 1.111878108025273377e+02 -1.116290310246949531e+02 7.152954415903957397e+01 1.187895179152580454e+02 -4.299911511723093582e+01 7.367646395718647767e+00 -1.230666458314775369e+01 1.124319435725098373e+02 3.524178634973378355e+00 1.622935989558743586e+02 -1.361304678566582140e+02 1.122919636099668281e+02 -8.787168247721349701e+01 9.225552430388435710e+01 -1.319844989786930114e+02 2.841694269264276329e+01 2.384500091902484087e+01 1.710647201539879703e+00 3.498066188855959524e+01 4.432386332975164578e+01 -1.192290535186629086e+01 1.050629102463542530e+01 1.041537335978222387e+02 1.226067285860382441e+02 -8.356734367494696869e+01 -5.220205135793313644e+01 4.560878705293310276e+01 1.458956593660812873e+00 -1.320537923194561074e+02 -5.316367914249127580e+01 -3.413419540405146790e+01 4.713885369629154809e+01 -6.317560259389104260e+01 2.209218723831784104e+01 1.546912753479774381e+02 -7.663914634109009683e+01 7.799800467177264807e+01 8.110955405769199444e+01 1.088877025021111677e+01 1.191541790660798483e+02 6.070557147339560800e+01 1.622508243546284632e+02 -3.343542646813929053e+01 1.085976420196995633e+02 5.367755920983689322e+01 -1.551665570492147417e+01 1.972727322838877058e+02 -1.341402093234094366e+02 4.727241263969485630e+01 -1.813891064177649355e+02 -8.140440346294822405e+01 3.970821001646066861e+01 -6.987217870685033461e+01 -1.507645861001482785e+02 1.929262489598027912e+02 -8.303194782809104879e+01 -4.598025324620626009e+01 -4.480251623819404472e+01 1.178857637210046079e+02 1.885989808536245960e+02 6.270018950018067017e+01 1.416324410181831013e+02 2.125652512645023648e+02 -1.544108539256453083e+00 1.577524816007580455e+02 6.865756665586934560e+01 1.844215310218621653e+02 -1.218665164118662432e+02 -1.145938750178078891e+01 6.160824450290706800e+00 1.839795671683036460e+02 -8.800056680253480579e+01 -5.863534586837128160e+01 -5.127237202390192294e+01 -1.298364545045010061e+02 4.527121217873645520e+00 -9.776339041650052764e+01 1.493558700746331738e+02 2.280431182429335735e+01 1.161122024116720652e+01 7.004041815271989435e+01 -4.754540320558758637e+00 1.133480079913315564e+02 -1.539127036310738674e+02 4.400978606231931423e+01 -1.654388911548160763e+02 1.137503358442107100e+02 9.310436543469354831e+01 -6.517412390045060988e+01 4.534256677284283654e+01 2.306944872523066010e+02 -2.952482578044338624e+01 4.034591959858303056e+01 -3.165958971855340209e+01 5.613332247704592959e+01 6.224687484801557957e+01 -6.090843021950287373e+00 9.869591144306745889e+01 9.826340397085306222e+01 -1.877816904390026309e+02 -1.484220790203460467e+02 -1.160828316609051711e+02 -9.126975392285908484e+00 -1.450464039709534347e+02 1.119145410237190248e+02 1.068481137378721968e+02 5.715084563058849909e+01 1.081378671929176249e+01 1.526953271132180134e+02 8.130755237529261592e+01 6.538154562227518340e+01 -9.837614537792843805e+01 1.476139709346855113e+02 -3.494564865577060697e+00 1.058985789441934315e+02 8.543290842060283552e+00 3.557533065035129738e+01 -7.327054322693051347e+01 -8.784074305129134075e+01 6.930325794844273446e+01 -3.746127427968763524e+00 1.415001095427947746e+02 -1.215035610378535758e+01 -2.750254405498324672e+00 4.437767612219125368e+01 2.189164877919332852e+01 1.368361322354612355e+02 1.422376877012104579e+01 3.469071847626810268e+01 -1.496282615298783014e+02 6.365734807462774114e+01 1.292467025407909773e+02 -1.700025784189853795e+01 -2.204273067315588719e+02 8.157739595337648097e+01 1.315199985660205186e+02 1.967824549282659774e+01 1.824094313630910165e+02 -4.127276515617944064e+00 4.133603038993464907e+01 -4.205387570039102485e+01 -1.335455613570953517e+02 5.396614696878977924e+01 -4.572098875457631806e+01 -7.795678013631025749e+01 3.967670695404479630e+01 -1.777693762213466186e+02 6.891424813689660311e+01 1.581643423418566385e+02 -9.732792086235293993e+01 1.663362678001638812e+02 -9.380782972116658414e+01 -5.727907618081386154e+00 -1.013702703521515325e+01 7.364424948871896959e+01 -4.479035816625174959e+01 -1.035008009725722218e+02 -8.507319732756594988e+01 1.399619754039187853e+02 5.673741804626294538e+01 -1.265138550976200946e+02 4.236416493908270908e+00 4.163978597501179735e+01 7.917964414798936446e+01 -3.867429623085312329e+01 5.747848442824572857e+01 -6.612855873346163094e+01 -1.555985273244624238e+02 -3.318876381355913452e+01 1.350999675707175527e+02 -1.086926794971588777e+02 -6.115783412576837108e+00 -1.560374098939529688e+02 -4.649723106001428796e+00 -1.397584469218554659e+02 3.156346399531193470e+01 5.769441226018120261e+01 -4.819656161727903765e+01 -7.887211103079788188e+01 5.403738481057046350e+00 7.123578027409666902e+01 -6.487639768700582010e+01 1.289038214790106451e+02 1.010388903225385206e+02 -1.221427582841022286e+02 -1.009095978985770614e+02 1.292233649430804121e+02 6.820074352941645657e+01 1.436566404579948539e+02 9.561356106255014708e+01 7.756544669150721916e+01 -5.762130348805773394e+01 -7.811970236362890319e+01 -7.362173599332808749e+01 1.953672306448027882e+02 2.924122967661138972e+01 -2.380096290986728036e+01 -6.539327068141118104e+01 -4.765818766440155940e+01 -1.252738141863490853e+02 -1.570866282811162584e+01 -1.669049888583074051e+02 1.189190765213354126e+02 4.372523829697187381e+01 -1.095752828131133896e+02 -4.604048507503273413e+01 1.138731735267132166e+02 -9.216205501874148354e+01 9.780186106751327202e+01 -1.126758395100964236e+02 -1.120289335792644003e+01 -9.082030161807053048e+01 8.534585851353554631e+01 -4.038473992029781101e+01 9.750287598210778839e+00 2.791392342165500651e+01 -1.204013456211361159e+02 1.188147820859167858e+01 4.599436368569876521e+01 -2.123651276348692818e+01 -6.534792487891292012e+01 1.925924505874845636e+02 8.218694363661070668e+01 4.476434589319362800e+01 -2.985248177125783187e+01 7.622491891127899066e+01 1.593021279436643454e+02 -8.764744912840698987e+01 1.990925998356932212e+02 -1.265024077114482850e+02 -1.747688001292029583e+02 1.442332584333822467e+02 -2.223519352839003318e+02 -8.925964424232986083e-01 -2.327618170048825164e+02 -1.452751610353470824e+02 6.820909527038365638e+01 -1.383518479025667602e+02 5.546214514661336636e+01 1.045022716147932300e+02 -1.523456288198051425e+02 -2.858717783116522781e+01 7.167065094230150635e+01 1.272461982960967077e+02 -1.768747424164741346e+02 8.315341320347880583e+01 -9.309991112789482770e+01 -9.354535040403542112e+00 -1.315687909492377372e+01 -7.560118721080912962e+01 -8.578945096138362203e+01 1.723509407497842005e+02 -2.063958187626029073e+01 1.287938430122086864e+00 1.237872250864964485e+02 -8.245645069970795760e+01 -3.273044273804983817e+01 -1.024000285183144854e+02 -4.642389337305107233e+01 4.889352477461694768e+00 5.645451042791317064e+01 -1.285603429037034005e+02 2.258550244181726327e+02 -5.132584685478389730e+01 1.168374523724899205e+02 -4.653655788288984496e+01 1.141773148496367867e+02 1.327192120735973901e+02 4.571503687648404224e+01 1.164319868255419266e+02 -4.123939743280951831e+01 1.335499861630949852e+02 -1.493496913611150489e+02 -6.241617265979148499e+01 -6.010355464543660986e+01 2.442315217742522648e+01 -1.549201078681925026e+02 6.924608013713962862e+01 -2.944636932663606643e+01 -7.889846957785758264e+01 8.552040146269169441e+01 -1.442749602517383209e+02 -8.711249591315947782e+01 -5.028503039009829223e+01 3.157574955417649321e+01 1.239381168887065172e+02 1.115432324959526085e+02 6.596250151083346225e+01 -1.479052681412425407e+00 1.670246564103479159e+02 1.169939703922417209e+02 -9.022971279139785850e+01 -7.457174937887764088e+01 5.260740084734983668e+01 9.486957809285947008e+00 9.355128082840099069e+01 1.592280010427920445e+02 6.741173579864697274e+01 2.335341112090649673e+01 -9.760692954680490629e+01 1.639883045558619585e+02 -1.085103009933115743e+02 -1.577685198547120251e+02 6.274651226682332350e+01 1.064360806144787830e+02 1.876239077457434234e+01 -1.325152252865208027e+02 2.834576508440267162e+01 4.045975889502236811e+01 -3.572710482230397888e-01 1.249294458113290602e+02 9.330870604472234220e+01 1.632641541600333568e+01 7.472833117176914186e+01 -1.019841528877781514e+02 -6.084877517099974931e+00 9.379581356726789920e+01 2.831970911318954620e+01 -6.200553139777517941e+01 1.888596696460133444e+02 2.203542903060851188e+02 -1.195979472811498994e+02 -2.634786670312695023e+01 -2.003102241833117887e+02 -6.879488249181763138e+01 1.491906554997142962e+02 3.196549766029645134e+00 -6.764644168666266921e+01 1.560279341638918140e+02 -5.952485059636919118e+01 -1.530219331500119324e+02 1.300974378302735488e+02 -6.398926149113191997e+01 3.289414579303866759e+01 8.221840632661323411e+01 1.314049019020429299e+01 -2.269082926364376078e+02 4.031562946215761656e+01 -5.890710606438593011e+00 8.582678922416137368e+01 -2.244266622085774898e+01 9.625297325829106398e+01 1.619390544103480067e+01 -8.061634919084526985e+01 -1.950919297921948115e+01 -1.668635559915886404e+02 1.094688663894957017e+02 2.407680490595524603e+01 -3.961711287305247708e+01 -4.931244150781778757e+01 -5.991759285767117404e+01 3.916583765097831105e+01 1.529985499181960904e+02 1.263293082782803509e+02 4.097075599208238117e+01 -1.883802188907652919e+02 -3.693567054320395471e+01 4.172568340104741225e+01 1.116855158556367655e+02 8.299163628094436262e+01 1.468997328394113033e+01 -1.770821620666409331e+02 1.253343700547113428e+02 -2.129968047038512111e+02 -1.959282385167599330e+02 -1.733723801007175824e+00 -7.022246200615553846e+01 -2.297798542708902403e+01 8.292967126222023921e+01 5.323112801416836248e+01 -1.058377343682405751e+02 -1.442022544930041477e+02 1.387571829966540982e+01 1.177450377117064875e+02 1.966466858268760376e+01 -5.398431036988416309e+01 -4.918661480135003217e+01 -1.112496964541661448e+01 1.536230331010757766e+02 2.128546708528982023e+01 -1.683775620240395483e+02 1.244083989451558949e+02 -6.478848447794275955e+01 -4.044106825237556713e+00 1.492494776731414561e+02 -5.065906647185522615e+01 -1.899472369774330360e+01 -1.064684211038188693e+02 -5.812275145075893157e+00 -2.310790450039882771e+01 1.276069226948412023e+02 1.163554900243473327e+02 6.549913493890291249e+01 6.344469841038539926e+01 -1.812824993328371548e+01 1.309843881252508311e+02 -1.093034307913455905e+02 -4.119927079275553794e+00 -8.824457723061151171e+01 1.522256235425924160e+02 7.067753593160580294e+01 5.006406948441497207e+01 7.988346463130803876e+00 -5.166838476126731905e+01 3.331834032858927941e+01 6.508867393104047494e+00 3.560158596173907064e+00 2.334861437174163967e+01 5.792551549742682226e+01 1.649930525290257890e+02 -3.767072075663161002e+01 -5.035845900605630732e+01 6.472729408804437412e+01 1.120779199082229809e+02 -1.242088713551303947e+01 8.911553536666022524e+01 1.008904980146950692e+02 2.042707738998658726e+02 -8.385128075978732909e+01 -1.188554396583374881e+02 -2.775952848631006731e+01 6.024311923871407259e+01 -9.833626900019364570e+00 1.040658643355380377e+02 3.609388687062345724e+01 -1.575459707613431988e+02 4.364341314832661567e+01 -8.665757643988071379e+01 -1.310479078164778173e+02 1.302801540631458579e+02 -7.366618975448946571e+01 5.732593049969595711e+01 1.076360779257610432e+02 -9.584146106827409994e+01 2.276519560323461278e+01 -6.983983660596615550e+01 3.900965536375016995e+01 -1.109936431673299069e+02 5.963541147150469612e+01 5.293399895112816012e+01 3.733243721442313312e+00 8.130564546005791726e+01 -1.479185403704780697e+02 7.388606645989707999e+01 -2.837820817972089316e+01 -1.622862740514853783e+02 9.079785643148757401e+01 2.359145741498548077e+01 -1.883741115351983240e+02 2.260252576047612934e+02 -5.194714624892229349e-01 1.010122682121826330e+02 -1.158377270169027327e+02 -1.865379401463411284e+02 -8.964024188622170186e+01 2.409034767829674184e+00 1.372279233153177529e+02 3.797834181516352103e+00 -9.181181207116367204e+01 4.835449973419716940e+01 1.316372487788928822e+02 6.239638465007116963e+01 -4.967488066060963092e+01 -5.681691091899332946e+01 8.116946531276141741e+01 2.949809357173781521e+01 -1.878836830518207535e+02 -1.991186046989182401e+01 1.623532380544046134e+02 9.488792308906602102e+01 -5.508327311861037145e+01 -1.073936377817623367e+02 -4.098498693021723227e+01 -4.618540559997086348e+01 -1.099324763156433136e+02 -1.769936514136729144e+01 -4.385580754651037694e+01 -1.091392502907057747e+02 -1.267336602393282021e+02 -2.590243173208292049e+01 -1.207270646668438019e+02 -1.285735888294496476e+02 -3.682011219437156768e+01 -5.313884631421010596e+01 -1.066602069305987754e+02 1.852382547819858019e+02 1.046787156066484492e+01 -2.798736644026521247e+01 -1.691215664090107396e+01 7.828301211327755027e+01 1.557437276513237912e+01 2.492393566000482252e+01 -2.112683868974222179e+01 -4.607060117407137767e+01 2.080487817800659656e+01 -1.446725587173783367e+02 -1.583968522262530314e+02 -8.992400245372475354e+01 -1.899051229124840177e+02 -8.916292520165225710e+01 8.533161227863375586e+01 6.108872530751008867e+01 -2.591787865870760044e+01 6.046601951249217421e+01 -1.558175644275838181e+02 -4.069217542175151436e+01 -1.155767067797220164e+02 -6.641582873979551493e+01 2.099643724281999653e+02 -2.042729660839162307e+02 2.042479769472310238e+02 2.483413233689182675e+01 -5.616144467835464127e+01 9.173944209063115807e+01 1.234655001945111081e+02 -5.162893902008812574e+01 -2.027686679008738224e+02 -1.483581139790735506e+02 1.017822244282133681e+02 8.334359376459774182e+01 -1.348924105874122290e+02 3.177181847626062705e+01 -3.949804268991779566e+01 -7.702079434486115872e+01 -2.828806015346415847e+01 -5.454035447029256289e+01 -8.599016138323862890e+01 -3.389909269858541307e+01 4.508991672970734221e+00 -3.249206222256616172e+01 -3.636006832694603785e-01 -1.424013761998171290e+01 9.147917190647248731e+01 1.264963663374247886e+02 1.309263566008440094e+01 1.672265974658135335e+01 -6.284006504886429667e+01 -1.951103202651202366e+02 3.368061450202384322e+01 -9.126120483169134445e+01 2.571726008191415858e+01 -8.076131638527103362e+00 1.059857944874331936e+00 7.203087170911335591e+01 1.212972279366403257e+02 -7.014597425853759205e+01 3.781294636297980816e+01 -1.919694871673700618e+02 9.642254794402484563e+00 6.891827720021739268e+00 -1.219667569155714943e+02 -3.354275632372268490e+01 -4.411193324070994493e+01 4.738832186236239252e+00 -1.017403749517753937e+02 2.691720489220609025e+01 -9.716235429117985234e+01 5.577256794426079267e+01 6.754415543795869326e+01 3.672036596260056029e+01 -2.887219486235386157e+01 1.069534711129237081e+02 6.079980422605962787e+01 7.960993128145427988e+01 -6.667682617979609461e+01 2.014639901339595340e+01 1.272262004771879020e+02 -5.819783759120855393e+01 -6.883513973547670695e+00 3.181797049699204294e+01 -1.277561963002070513e+02 9.728451052254426656e+01 8.909560065754043023e+01 -1.006350746147384569e+02 -8.189661433819513547e+01 -5.523306812447155068e+01 -4.538595855902083542e+01 -1.593145757045965354e+02 -1.351230694975396318e+02 -1.317277725649964566e+02 1.050477098702749714e+02 5.945764473096772917e+01 1.585857964522791974e+02 7.164759105812780859e+00 -8.515879497238130114e+01 1.864402077780786726e+01 1.373989639846336530e+01 -6.316413041886026747e+01 7.357359009750462064e+01 1.172861668961373596e+02 9.890971930551343050e+00 1.423919448679130255e+02 2.233564587000333646e+01 1.101842969985208782e+02 1.496301655424724331e+01 -2.063324982122524887e+02 2.168345748283344108e+02 -4.858643332984722463e+01 -1.479875418195538259e+02 -6.669870012432917861e+01 -4.253659386115874952e+01 4.092152949987767130e+01 2.529318838956665871e+01 4.520754931705532442e+01 -7.314922617700261753e+01 1.208156794563938661e+02 -8.513889162407230060e+01 -6.920321360392501120e+00 1.404790726384392769e+02 1.080615185718694988e+02 5.721265617879762999e+01 -1.744623667775263982e+02 2.505585809989923973e+01 1.382656598815747202e+02 2.306379465895000180e+01 9.604373420667327821e+01 1.046921892378796599e+02 -2.079727462295519445e+02 7.562041893336862586e+01 -5.675736030618841710e+01 -2.209843074098809552e+02 8.689621163526923908e+01 2.409889999752516587e+01 -1.191859181551069469e+02 -5.711512939881931317e+01 1.351703077120087926e+02 1.435427471037436646e+02 -7.370857405762150449e+01 -1.240363100727868755e+02 -8.087983933653292468e+01 -1.606167692336745176e+02 1.894010715236543163e+01 3.669342237913513571e+01 -1.642197959499075566e+01 -1.195255934188936919e+01 -8.632783785630051909e+01 -8.506692519951128872e+01 -2.373800096810308347e+01 1.285072614904894976e+02 1.305447307188582613e+02 7.768160276853463131e+01 9.292816744344324320e+01 -7.506749527091793084e+01 -1.725125566338415979e+02 -1.259106597785954307e+01 -2.204274059186683132e+01 -6.771456509158299752e+01 1.414087013792899805e+00 6.961452306075283047e+01 -5.042032716435244311e+01 2.354486368555332731e+01 7.546115064694144792e+01 6.680554836114222894e+01 1.053451616093313135e+02 -1.421332958333154863e+02 3.776626273707279324e+01 7.938728126768786808e+01 9.029246294894200275e+01 5.626326210429984087e+01 -9.836897895540036529e+01 1.304686469606437242e+02 1.214773473858111714e+02 9.133476969442384075e+01 9.675216378436094544e+01 -8.023975455702844783e+01 -1.415806877506478045e+01 -1.234045331268064949e+01 7.340563461474411611e+01 6.191213642599249312e+01 5.337982766449606942e+01 9.296209874708283394e+01 1.110186718016423555e+02 1.181154592608339300e+02 -6.177865701190715697e+01 7.681430259988655962e+01 6.215485061946184686e+01 -1.121197331317684842e+02 1.254093337521168223e+02 -9.551453421021561141e+00 -2.661897596608147865e+01 1.899923009118951143e+02 8.438364442316476755e+01 1.183627724677825768e+02 -1.376784607389704433e+02 -1.505283454948956319e+02 -1.466159651001179043e+02 -1.165566894531478113e+02 -4.226409629525907263e+01 1.047746253229717155e+02 -1.610491839574075641e+02 3.103904974707028330e+01 1.378732232382420477e+02 -5.670796568595142872e+01 -8.727889691808124439e+01 -3.358132200732027428e+01 1.298614298281134154e+02 2.173024378612834653e+02 -6.378743058215751915e+01 1.896127316897392845e+01 -2.647459750704607018e+01 6.553374696186128290e+01 5.763648894071362605e+01 -2.040721472098037168e+02 -8.487431385629440683e+01 1.317204606049071174e+02 1.338420187981101321e+02 9.052074196989909183e+01 -4.773282249154106438e+01 -7.258568615437566507e+01 -4.346326772713788245e+01 -1.691615450800813960e+02 6.814838570707269128e+01 -2.457328862748657272e+01 1.594252576614184420e+02 -2.678071131807338645e+01 -3.015433011124555378e+02 1.388548616341089428e+02 4.813841174321598260e+01 -1.130664822731046399e+02 -2.126794793632200609e+01 3.384314324569059096e+01 -1.991423646685275344e+02 -1.095632553958081843e+02 -1.051495453739270545e+02 -5.407749267857612097e+01 6.021060579032420890e+01 -1.581157463334280067e+02 1.034829826026516599e+02 -5.210710534893922130e+01 2.809425761347609463e+00 -1.279892139404649640e+02 -9.946207568276504674e+01 1.687085312678844105e+02 8.315507140717689083e+01 -4.052341746235602926e+01 3.564252254178370549e+01 -2.691279234555731747e+01 4.156546505842584338e+01 -1.004148103928290539e+02 9.495642217539823093e+01 4.846448493517745248e+01 -1.141321207356959633e+02 1.120775576998490664e+02 -4.714400656086014152e+01 9.591214340200951938e+01 -4.742517682719032734e+01 8.484582305623331422e+01 -1.472904310891090347e+02 1.370614147611333919e+02 2.377786297044728414e+01 9.668211389884812945e+01 1.252732691436394248e+02 -1.408739737565565235e+02 -8.252191143416544605e+01 -1.014822872647659295e+02 6.423837736325232584e+01 -1.646333037058521711e+02 1.456191806078409456e+02 1.367814892887234635e+02 5.090237896000299855e+01 -8.158609137574607928e+01 5.484431302047018875e+01 -1.031649398173374408e+02 -1.049839052280180063e+01 3.360772585809301205e+01 -1.766123707933847697e+02 -7.840151472637309382e+01 -1.301027566380738953e+01 9.823403707123365791e+01 -4.828286688115817071e+01 1.045673679782687628e+02 -6.184589290446683663e+01 -2.026958406620624373e+02 -1.029897066403613195e+02 -3.272375012894889323e+01 -5.787845847460729232e+01 2.893578449429601918e+01 4.947435932975200501e+01 6.092743618380620951e+00 2.443687230902910557e+01 -1.129372917289713456e+02 5.186188352363153342e+01 3.141335092545833163e+01 -6.944597922838677562e+01 8.939398513575474325e+00 5.428957233610493915e+01 -9.185355065785053341e+01 -5.305786848202566119e+01 -2.328296736305278003e+01 9.396605041594406771e+01 -1.650102830451589497e+01 4.041883130333012275e+00 -2.197656472284193114e+02 -9.153764763076472377e+01 9.532841914409803508e+01 -8.590339856918758699e+01 3.019186691258332900e+01 2.992454116226566541e+01 3.651881784387524021e+01 6.367724646566205138e+01 -1.710137987853555046e+02 1.387674507004680322e+02 7.860436709249916021e+01 -7.269817512833016693e+00 -7.788210006306375988e+01 1.078194415868833715e+02 5.985849428628457503e+01 -1.938815373597776954e+02 -4.855676687979519812e+01 -7.877501837696651421e+01 -4.993609807003924317e+01 -5.967586759282544762e+01 -9.544258961166542576e+01 -5.818828824184431170e+01 1.846605608423771514e+02 -1.646138385675857592e+02 6.311659366126080783e+01 2.675278663367001997e+01 -7.250054221201699534e+01 1.002770927717517324e+01 -3.802941891592305268e+01 3.317489854310578856e+00 -9.271881506138879558e+01 -1.905252624640793329e+02 1.773950617392058504e+01 4.039782865433314640e+01 -1.233838620158271837e+01 -8.636051658663769004e+00 -3.836133277780559325e+01 -1.831376645723918841e+02 -2.953966396713484244e+01 -6.302982957712954004e+01 1.343740816898207413e+01 -1.506303960091824834e+01 8.738297470624758034e+01 -6.080258570313691280e+01 -1.000062156753689919e+02 -3.442528723665645884e+01 -8.656123205700106737e+00 4.382288541039196161e+01 -2.133201643587722174e+01 -7.121863059608004676e+01 -1.532197469552857072e+01 1.933185849277521129e+01 4.582469356649863101e+01 -1.099602274548064429e+02 -1.341201681030323414e+02 2.222457453734869262e+02 -2.106178047069136881e+02 -7.325399227271044822e+01 -4.468939454403318479e+01 1.349377714478050905e+02 6.105518381898571079e+01 2.209180207171623636e+02 2.361952521379511722e+02 -6.018364469926974181e+01 1.249110183954126541e+02 -5.408339674050822055e+01 -3.939717634667903212e+01 -9.709594846639036803e+01 -7.704809687640698712e+01 -6.710810847007758184e+01 -8.591958217278697418e+01 -2.352763955495991866e+02 -2.613825059702744511e+02 1.299750377690413643e+02 -2.561833293799718092e+01 5.141362914899652736e+01 1.263568857765249476e+02
