# 
#                 ----------------------------------------------------
#                 Data from a 3D direct N-body simulation. 
# 
#                 rows are i-particle; 
#                 coumns are :mass, tag, x ,y, z, vx, vy, vz, ax, ay, az
# 
#                 NTHU, Computational Physics Lab
# 
#                 ----------------------------------------------------
#                 Time = 1.9000000000000015
1.000000000000000000e+00 2.000000000000000000e+00 3.000000000000000000e+00 4.000000000000000000e+00 5.000000000000000000e+00 6.000000000000000000e+00 7.000000000000000000e+00 8.000000000000000000e+00 9.000000000000000000e+00 1.000000000000000000e+01 1.100000000000000000e+01 1.200000000000000000e+01 1.300000000000000000e+01 1.400000000000000000e+01 1.500000000000000000e+01 1.600000000000000000e+01 1.700000000000000000e+01 1.800000000000000000e+01 1.900000000000000000e+01 2.000000000000000000e+01 2.100000000000000000e+01 2.200000000000000000e+01 2.300000000000000000e+01 2.400000000000000000e+01 2.500000000000000000e+01 2.600000000000000000e+01 2.700000000000000000e+01 2.800000000000000000e+01 2.900000000000000000e+01 3.000000000000000000e+01 3.100000000000000000e+01 3.200000000000000000e+01 3.300000000000000000e+01 3.400000000000000000e+01 3.500000000000000000e+01 3.600000000000000000e+01 3.700000000000000000e+01 3.800000000000000000e+01 3.900000000000000000e+01 4.000000000000000000e+01 4.100000000000000000e+01 4.200000000000000000e+01 4.300000000000000000e+01 4.400000000000000000e+01 4.500000000000000000e+01 4.600000000000000000e+01 4.700000000000000000e+01 4.800000000000000000e+01 4.900000000000000000e+01 5.000000000000000000e+01 5.100000000000000000e+01 5.200000000000000000e+01 5.300000000000000000e+01 5.400000000000000000e+01 5.500000000000000000e+01 5.600000000000000000e+01 5.700000000000000000e+01 5.800000000000000000e+01 5.900000000000000000e+01 6.000000000000000000e+01 6.100000000000000000e+01 6.200000000000000000e+01 6.300000000000000000e+01 6.400000000000000000e+01 6.500000000000000000e+01 6.600000000000000000e+01 6.700000000000000000e+01 6.800000000000000000e+01 6.900000000000000000e+01 7.000000000000000000e+01 7.100000000000000000e+01 7.200000000000000000e+01 7.300000000000000000e+01 7.400000000000000000e+01 7.500000000000000000e+01 7.600000000000000000e+01 7.700000000000000000e+01 7.800000000000000000e+01 7.900000000000000000e+01 8.000000000000000000e+01 8.100000000000000000e+01 8.200000000000000000e+01 8.300000000000000000e+01 8.400000000000000000e+01 8.500000000000000000e+01 8.600000000000000000e+01 8.700000000000000000e+01 8.800000000000000000e+01 8.900000000000000000e+01 9.000000000000000000e+01 9.100000000000000000e+01 9.200000000000000000e+01 9.300000000000000000e+01 9.400000000000000000e+01 9.500000000000000000e+01 9.600000000000000000e+01 9.700000000000000000e+01 9.800000000000000000e+01 9.900000000000000000e+01 1.000000000000000000e+02 1.010000000000000000e+02 1.020000000000000000e+02 1.030000000000000000e+02 1.040000000000000000e+02 1.050000000000000000e+02 1.060000000000000000e+02 1.070000000000000000e+02 1.080000000000000000e+02 1.090000000000000000e+02 1.100000000000000000e+02 1.110000000000000000e+02 1.120000000000000000e+02 1.130000000000000000e+02 1.140000000000000000e+02 1.150000000000000000e+02 1.160000000000000000e+02 1.170000000000000000e+02 1.180000000000000000e+02 1.190000000000000000e+02 1.200000000000000000e+02 1.210000000000000000e+02 1.220000000000000000e+02 1.230000000000000000e+02 1.240000000000000000e+02 1.250000000000000000e+02 1.260000000000000000e+02 1.270000000000000000e+02 1.280000000000000000e+02 1.290000000000000000e+02 1.300000000000000000e+02 1.310000000000000000e+02 1.320000000000000000e+02 1.330000000000000000e+02 1.340000000000000000e+02 1.350000000000000000e+02 1.360000000000000000e+02 1.370000000000000000e+02 1.380000000000000000e+02 1.390000000000000000e+02 1.400000000000000000e+02 1.410000000000000000e+02 1.420000000000000000e+02 1.430000000000000000e+02 1.440000000000000000e+02 1.450000000000000000e+02 1.460000000000000000e+02 1.470000000000000000e+02 1.480000000000000000e+02 1.490000000000000000e+02 1.500000000000000000e+02 1.510000000000000000e+02 1.520000000000000000e+02 1.530000000000000000e+02 1.540000000000000000e+02 1.550000000000000000e+02 1.560000000000000000e+02 1.570000000000000000e+02 1.580000000000000000e+02 1.590000000000000000e+02 1.600000000000000000e+02 1.610000000000000000e+02 1.620000000000000000e+02 1.630000000000000000e+02 1.640000000000000000e+02 1.650000000000000000e+02 1.660000000000000000e+02 1.670000000000000000e+02 1.680000000000000000e+02 1.690000000000000000e+02 1.700000000000000000e+02 1.710000000000000000e+02 1.720000000000000000e+02 1.730000000000000000e+02 1.740000000000000000e+02 1.750000000000000000e+02 1.760000000000000000e+02 1.770000000000000000e+02 1.780000000000000000e+02 1.790000000000000000e+02 1.800000000000000000e+02 1.810000000000000000e+02 1.820000000000000000e+02 1.830000000000000000e+02 1.840000000000000000e+02 1.850000000000000000e+02 1.860000000000000000e+02 1.870000000000000000e+02 1.880000000000000000e+02 1.890000000000000000e+02 1.900000000000000000e+02 1.910000000000000000e+02 1.920000000000000000e+02 1.930000000000000000e+02 1.940000000000000000e+02 1.950000000000000000e+02 1.960000000000000000e+02 1.970000000000000000e+02 1.980000000000000000e+02 1.990000000000000000e+02 2.000000000000000000e+02 2.010000000000000000e+02 2.020000000000000000e+02 2.030000000000000000e+02 2.040000000000000000e+02 2.050000000000000000e+02 2.060000000000000000e+02 2.070000000000000000e+02 2.080000000000000000e+02 2.090000000000000000e+02 2.100000000000000000e+02 2.110000000000000000e+02 2.120000000000000000e+02 2.130000000000000000e+02 2.140000000000000000e+02 2.150000000000000000e+02 2.160000000000000000e+02 2.170000000000000000e+02 2.180000000000000000e+02 2.190000000000000000e+02 2.200000000000000000e+02 2.210000000000000000e+02 2.220000000000000000e+02 2.230000000000000000e+02 2.240000000000000000e+02 2.250000000000000000e+02 2.260000000000000000e+02 2.270000000000000000e+02 2.280000000000000000e+02 2.290000000000000000e+02 2.300000000000000000e+02 2.310000000000000000e+02 2.320000000000000000e+02 2.330000000000000000e+02 2.340000000000000000e+02 2.350000000000000000e+02 2.360000000000000000e+02 2.370000000000000000e+02 2.380000000000000000e+02 2.390000000000000000e+02 2.400000000000000000e+02 2.410000000000000000e+02 2.420000000000000000e+02 2.430000000000000000e+02 2.440000000000000000e+02 2.450000000000000000e+02 2.460000000000000000e+02 2.470000000000000000e+02 2.480000000000000000e+02 2.490000000000000000e+02 2.500000000000000000e+02 2.510000000000000000e+02 2.520000000000000000e+02 2.530000000000000000e+02 2.540000000000000000e+02 2.550000000000000000e+02 2.560000000000000000e+02 2.570000000000000000e+02 2.580000000000000000e+02 2.590000000000000000e+02 2.600000000000000000e+02 2.610000000000000000e+02 2.620000000000000000e+02 2.630000000000000000e+02 2.640000000000000000e+02 2.650000000000000000e+02 2.660000000000000000e+02 2.670000000000000000e+02 2.680000000000000000e+02 2.690000000000000000e+02 2.700000000000000000e+02 2.710000000000000000e+02 2.720000000000000000e+02 2.730000000000000000e+02 2.740000000000000000e+02 2.750000000000000000e+02 2.760000000000000000e+02 2.770000000000000000e+02 2.780000000000000000e+02 2.790000000000000000e+02 2.800000000000000000e+02 2.810000000000000000e+02 2.820000000000000000e+02 2.830000000000000000e+02 2.840000000000000000e+02 2.850000000000000000e+02 2.860000000000000000e+02 2.870000000000000000e+02 2.880000000000000000e+02 2.890000000000000000e+02 2.900000000000000000e+02 2.910000000000000000e+02 2.920000000000000000e+02 2.930000000000000000e+02 2.940000000000000000e+02 2.950000000000000000e+02 2.960000000000000000e+02 2.970000000000000000e+02 2.980000000000000000e+02 2.990000000000000000e+02 3.000000000000000000e+02 3.010000000000000000e+02 3.020000000000000000e+02 3.030000000000000000e+02 3.040000000000000000e+02 3.050000000000000000e+02 3.060000000000000000e+02 3.070000000000000000e+02 3.080000000000000000e+02 3.090000000000000000e+02 3.100000000000000000e+02 3.110000000000000000e+02 3.120000000000000000e+02 3.130000000000000000e+02 3.140000000000000000e+02 3.150000000000000000e+02 3.160000000000000000e+02 3.170000000000000000e+02 3.180000000000000000e+02 3.190000000000000000e+02 3.200000000000000000e+02 3.210000000000000000e+02 3.220000000000000000e+02 3.230000000000000000e+02 3.240000000000000000e+02 3.250000000000000000e+02 3.260000000000000000e+02 3.270000000000000000e+02 3.280000000000000000e+02 3.290000000000000000e+02 3.300000000000000000e+02 3.310000000000000000e+02 3.320000000000000000e+02 3.330000000000000000e+02 3.340000000000000000e+02 3.350000000000000000e+02 3.360000000000000000e+02 3.370000000000000000e+02 3.380000000000000000e+02 3.390000000000000000e+02 3.400000000000000000e+02 3.410000000000000000e+02 3.420000000000000000e+02 3.430000000000000000e+02 3.440000000000000000e+02 3.450000000000000000e+02 3.460000000000000000e+02 3.470000000000000000e+02 3.480000000000000000e+02 3.490000000000000000e+02 3.500000000000000000e+02 3.510000000000000000e+02 3.520000000000000000e+02 3.530000000000000000e+02 3.540000000000000000e+02 3.550000000000000000e+02 3.560000000000000000e+02 3.570000000000000000e+02 3.580000000000000000e+02 3.590000000000000000e+02 3.600000000000000000e+02 3.610000000000000000e+02 3.620000000000000000e+02 3.630000000000000000e+02 3.640000000000000000e+02 3.650000000000000000e+02 3.660000000000000000e+02 3.670000000000000000e+02 3.680000000000000000e+02 3.690000000000000000e+02 3.700000000000000000e+02 3.710000000000000000e+02 3.720000000000000000e+02 3.730000000000000000e+02 3.740000000000000000e+02 3.750000000000000000e+02 3.760000000000000000e+02 3.770000000000000000e+02 3.780000000000000000e+02 3.790000000000000000e+02 3.800000000000000000e+02 3.810000000000000000e+02 3.820000000000000000e+02 3.830000000000000000e+02 3.840000000000000000e+02 3.850000000000000000e+02 3.860000000000000000e+02 3.870000000000000000e+02 3.880000000000000000e+02 3.890000000000000000e+02 3.900000000000000000e+02 3.910000000000000000e+02 3.920000000000000000e+02 3.930000000000000000e+02 3.940000000000000000e+02 3.950000000000000000e+02 3.960000000000000000e+02 3.970000000000000000e+02 3.980000000000000000e+02 3.990000000000000000e+02 4.000000000000000000e+02 4.010000000000000000e+02 4.020000000000000000e+02 4.030000000000000000e+02 4.040000000000000000e+02 4.050000000000000000e+02 4.060000000000000000e+02 4.070000000000000000e+02 4.080000000000000000e+02 4.090000000000000000e+02 4.100000000000000000e+02 4.110000000000000000e+02 4.120000000000000000e+02 4.130000000000000000e+02 4.140000000000000000e+02 4.150000000000000000e+02 4.160000000000000000e+02 4.170000000000000000e+02 4.180000000000000000e+02 4.190000000000000000e+02 4.200000000000000000e+02 4.210000000000000000e+02 4.220000000000000000e+02 4.230000000000000000e+02 4.240000000000000000e+02 4.250000000000000000e+02 4.260000000000000000e+02 4.270000000000000000e+02 4.280000000000000000e+02 4.290000000000000000e+02 4.300000000000000000e+02 4.310000000000000000e+02 4.320000000000000000e+02 4.330000000000000000e+02 4.340000000000000000e+02 4.350000000000000000e+02 4.360000000000000000e+02 4.370000000000000000e+02 4.380000000000000000e+02 4.390000000000000000e+02 4.400000000000000000e+02 4.410000000000000000e+02 4.420000000000000000e+02 4.430000000000000000e+02 4.440000000000000000e+02 4.450000000000000000e+02 4.460000000000000000e+02 4.470000000000000000e+02 4.480000000000000000e+02 4.490000000000000000e+02 4.500000000000000000e+02 4.510000000000000000e+02 4.520000000000000000e+02 4.530000000000000000e+02 4.540000000000000000e+02 4.550000000000000000e+02 4.560000000000000000e+02 4.570000000000000000e+02 4.580000000000000000e+02 4.590000000000000000e+02 4.600000000000000000e+02 4.610000000000000000e+02 4.620000000000000000e+02 4.630000000000000000e+02 4.640000000000000000e+02 4.650000000000000000e+02 4.660000000000000000e+02 4.670000000000000000e+02 4.680000000000000000e+02 4.690000000000000000e+02 4.700000000000000000e+02 4.710000000000000000e+02 4.720000000000000000e+02 4.730000000000000000e+02 4.740000000000000000e+02 4.750000000000000000e+02 4.760000000000000000e+02 4.770000000000000000e+02 4.780000000000000000e+02 4.790000000000000000e+02 4.800000000000000000e+02 4.810000000000000000e+02 4.820000000000000000e+02 4.830000000000000000e+02 4.840000000000000000e+02 4.850000000000000000e+02 4.860000000000000000e+02 4.870000000000000000e+02 4.880000000000000000e+02 4.890000000000000000e+02 4.900000000000000000e+02 4.910000000000000000e+02 4.920000000000000000e+02 4.930000000000000000e+02 4.940000000000000000e+02 4.950000000000000000e+02 4.960000000000000000e+02 4.970000000000000000e+02 4.980000000000000000e+02 4.990000000000000000e+02 5.000000000000000000e+02 5.010000000000000000e+02 5.020000000000000000e+02 5.030000000000000000e+02 5.040000000000000000e+02 5.050000000000000000e+02 5.060000000000000000e+02 5.070000000000000000e+02 5.080000000000000000e+02 5.090000000000000000e+02 5.100000000000000000e+02 5.110000000000000000e+02 5.120000000000000000e+02 5.130000000000000000e+02 5.140000000000000000e+02 5.150000000000000000e+02 5.160000000000000000e+02 5.170000000000000000e+02 5.180000000000000000e+02 5.190000000000000000e+02 5.200000000000000000e+02 5.210000000000000000e+02 5.220000000000000000e+02 5.230000000000000000e+02 5.240000000000000000e+02 5.250000000000000000e+02 5.260000000000000000e+02 5.270000000000000000e+02 5.280000000000000000e+02 5.290000000000000000e+02 5.300000000000000000e+02 5.310000000000000000e+02 5.320000000000000000e+02 5.330000000000000000e+02 5.340000000000000000e+02 5.350000000000000000e+02 5.360000000000000000e+02 5.370000000000000000e+02 5.380000000000000000e+02 5.390000000000000000e+02 5.400000000000000000e+02 5.410000000000000000e+02 5.420000000000000000e+02 5.430000000000000000e+02 5.440000000000000000e+02 5.450000000000000000e+02 5.460000000000000000e+02 5.470000000000000000e+02 5.480000000000000000e+02 5.490000000000000000e+02 5.500000000000000000e+02 5.510000000000000000e+02 5.520000000000000000e+02 5.530000000000000000e+02 5.540000000000000000e+02 5.550000000000000000e+02 5.560000000000000000e+02 5.570000000000000000e+02 5.580000000000000000e+02 5.590000000000000000e+02 5.600000000000000000e+02 5.610000000000000000e+02 5.620000000000000000e+02 5.630000000000000000e+02 5.640000000000000000e+02 5.650000000000000000e+02 5.660000000000000000e+02 5.670000000000000000e+02 5.680000000000000000e+02 5.690000000000000000e+02 5.700000000000000000e+02 5.710000000000000000e+02 5.720000000000000000e+02 5.730000000000000000e+02 5.740000000000000000e+02 5.750000000000000000e+02 5.760000000000000000e+02 5.770000000000000000e+02 5.780000000000000000e+02 5.790000000000000000e+02 5.800000000000000000e+02 5.810000000000000000e+02 5.820000000000000000e+02 5.830000000000000000e+02 5.840000000000000000e+02 5.850000000000000000e+02 5.860000000000000000e+02 5.870000000000000000e+02 5.880000000000000000e+02 5.890000000000000000e+02 5.900000000000000000e+02 5.910000000000000000e+02 5.920000000000000000e+02 5.930000000000000000e+02 5.940000000000000000e+02 5.950000000000000000e+02 5.960000000000000000e+02 5.970000000000000000e+02 5.980000000000000000e+02 5.990000000000000000e+02 6.000000000000000000e+02 6.010000000000000000e+02 6.020000000000000000e+02 6.030000000000000000e+02 6.040000000000000000e+02 6.050000000000000000e+02 6.060000000000000000e+02 6.070000000000000000e+02 6.080000000000000000e+02 6.090000000000000000e+02 6.100000000000000000e+02 6.110000000000000000e+02 6.120000000000000000e+02 6.130000000000000000e+02 6.140000000000000000e+02 6.150000000000000000e+02 6.160000000000000000e+02 6.170000000000000000e+02 6.180000000000000000e+02 6.190000000000000000e+02 6.200000000000000000e+02 6.210000000000000000e+02 6.220000000000000000e+02 6.230000000000000000e+02 6.240000000000000000e+02 6.250000000000000000e+02 6.260000000000000000e+02 6.270000000000000000e+02 6.280000000000000000e+02 6.290000000000000000e+02 6.300000000000000000e+02 6.310000000000000000e+02 6.320000000000000000e+02 6.330000000000000000e+02 6.340000000000000000e+02 6.350000000000000000e+02 6.360000000000000000e+02 6.370000000000000000e+02 6.380000000000000000e+02 6.390000000000000000e+02 6.400000000000000000e+02 6.410000000000000000e+02 6.420000000000000000e+02 6.430000000000000000e+02 6.440000000000000000e+02 6.450000000000000000e+02 6.460000000000000000e+02 6.470000000000000000e+02 6.480000000000000000e+02 6.490000000000000000e+02 6.500000000000000000e+02 6.510000000000000000e+02 6.520000000000000000e+02 6.530000000000000000e+02 6.540000000000000000e+02 6.550000000000000000e+02 6.560000000000000000e+02 6.570000000000000000e+02 6.580000000000000000e+02 6.590000000000000000e+02 6.600000000000000000e+02 6.610000000000000000e+02 6.620000000000000000e+02 6.630000000000000000e+02 6.640000000000000000e+02 6.650000000000000000e+02 6.660000000000000000e+02 6.670000000000000000e+02 6.680000000000000000e+02 6.690000000000000000e+02 6.700000000000000000e+02 6.710000000000000000e+02 6.720000000000000000e+02 6.730000000000000000e+02 6.740000000000000000e+02 6.750000000000000000e+02 6.760000000000000000e+02 6.770000000000000000e+02 6.780000000000000000e+02 6.790000000000000000e+02 6.800000000000000000e+02 6.810000000000000000e+02 6.820000000000000000e+02 6.830000000000000000e+02 6.840000000000000000e+02 6.850000000000000000e+02 6.860000000000000000e+02 6.870000000000000000e+02 6.880000000000000000e+02 6.890000000000000000e+02 6.900000000000000000e+02 6.910000000000000000e+02 6.920000000000000000e+02 6.930000000000000000e+02 6.940000000000000000e+02 6.950000000000000000e+02 6.960000000000000000e+02 6.970000000000000000e+02 6.980000000000000000e+02 6.990000000000000000e+02 7.000000000000000000e+02 7.010000000000000000e+02 7.020000000000000000e+02 7.030000000000000000e+02 7.040000000000000000e+02 7.050000000000000000e+02 7.060000000000000000e+02 7.070000000000000000e+02 7.080000000000000000e+02 7.090000000000000000e+02 7.100000000000000000e+02 7.110000000000000000e+02 7.120000000000000000e+02 7.130000000000000000e+02 7.140000000000000000e+02 7.150000000000000000e+02 7.160000000000000000e+02 7.170000000000000000e+02 7.180000000000000000e+02 7.190000000000000000e+02 7.200000000000000000e+02 7.210000000000000000e+02 7.220000000000000000e+02 7.230000000000000000e+02 7.240000000000000000e+02 7.250000000000000000e+02 7.260000000000000000e+02 7.270000000000000000e+02 7.280000000000000000e+02 7.290000000000000000e+02 7.300000000000000000e+02 7.310000000000000000e+02 7.320000000000000000e+02 7.330000000000000000e+02 7.340000000000000000e+02 7.350000000000000000e+02 7.360000000000000000e+02 7.370000000000000000e+02 7.380000000000000000e+02 7.390000000000000000e+02 7.400000000000000000e+02 7.410000000000000000e+02 7.420000000000000000e+02 7.430000000000000000e+02 7.440000000000000000e+02 7.450000000000000000e+02 7.460000000000000000e+02 7.470000000000000000e+02 7.480000000000000000e+02 7.490000000000000000e+02 7.500000000000000000e+02 7.510000000000000000e+02 7.520000000000000000e+02 7.530000000000000000e+02 7.540000000000000000e+02 7.550000000000000000e+02 7.560000000000000000e+02 7.570000000000000000e+02 7.580000000000000000e+02 7.590000000000000000e+02 7.600000000000000000e+02 7.610000000000000000e+02 7.620000000000000000e+02 7.630000000000000000e+02 7.640000000000000000e+02 7.650000000000000000e+02 7.660000000000000000e+02 7.670000000000000000e+02 7.680000000000000000e+02 7.690000000000000000e+02 7.700000000000000000e+02 7.710000000000000000e+02 7.720000000000000000e+02 7.730000000000000000e+02 7.740000000000000000e+02 7.750000000000000000e+02 7.760000000000000000e+02 7.770000000000000000e+02 7.780000000000000000e+02 7.790000000000000000e+02 7.800000000000000000e+02 7.810000000000000000e+02 7.820000000000000000e+02 7.830000000000000000e+02 7.840000000000000000e+02 7.850000000000000000e+02 7.860000000000000000e+02 7.870000000000000000e+02 7.880000000000000000e+02 7.890000000000000000e+02 7.900000000000000000e+02 7.910000000000000000e+02 7.920000000000000000e+02 7.930000000000000000e+02 7.940000000000000000e+02 7.950000000000000000e+02 7.960000000000000000e+02 7.970000000000000000e+02 7.980000000000000000e+02 7.990000000000000000e+02 8.000000000000000000e+02 8.010000000000000000e+02 8.020000000000000000e+02 8.030000000000000000e+02 8.040000000000000000e+02 8.050000000000000000e+02 8.060000000000000000e+02 8.070000000000000000e+02 8.080000000000000000e+02 8.090000000000000000e+02 8.100000000000000000e+02 8.110000000000000000e+02 8.120000000000000000e+02 8.130000000000000000e+02 8.140000000000000000e+02 8.150000000000000000e+02 8.160000000000000000e+02 8.170000000000000000e+02 8.180000000000000000e+02 8.190000000000000000e+02 8.200000000000000000e+02 8.210000000000000000e+02 8.220000000000000000e+02 8.230000000000000000e+02 8.240000000000000000e+02 8.250000000000000000e+02 8.260000000000000000e+02 8.270000000000000000e+02 8.280000000000000000e+02 8.290000000000000000e+02 8.300000000000000000e+02 8.310000000000000000e+02 8.320000000000000000e+02 8.330000000000000000e+02 8.340000000000000000e+02 8.350000000000000000e+02 8.360000000000000000e+02 8.370000000000000000e+02 8.380000000000000000e+02 8.390000000000000000e+02 8.400000000000000000e+02 8.410000000000000000e+02 8.420000000000000000e+02 8.430000000000000000e+02 8.440000000000000000e+02 8.450000000000000000e+02 8.460000000000000000e+02 8.470000000000000000e+02 8.480000000000000000e+02 8.490000000000000000e+02 8.500000000000000000e+02 8.510000000000000000e+02 8.520000000000000000e+02 8.530000000000000000e+02 8.540000000000000000e+02 8.550000000000000000e+02 8.560000000000000000e+02 8.570000000000000000e+02 8.580000000000000000e+02 8.590000000000000000e+02 8.600000000000000000e+02 8.610000000000000000e+02 8.620000000000000000e+02 8.630000000000000000e+02 8.640000000000000000e+02 8.650000000000000000e+02 8.660000000000000000e+02 8.670000000000000000e+02 8.680000000000000000e+02 8.690000000000000000e+02 8.700000000000000000e+02 8.710000000000000000e+02 8.720000000000000000e+02 8.730000000000000000e+02 8.740000000000000000e+02 8.750000000000000000e+02 8.760000000000000000e+02 8.770000000000000000e+02 8.780000000000000000e+02 8.790000000000000000e+02 8.800000000000000000e+02 8.810000000000000000e+02 8.820000000000000000e+02 8.830000000000000000e+02 8.840000000000000000e+02 8.850000000000000000e+02 8.860000000000000000e+02 8.870000000000000000e+02 8.880000000000000000e+02 8.890000000000000000e+02 8.900000000000000000e+02 8.910000000000000000e+02 8.920000000000000000e+02 8.930000000000000000e+02 8.940000000000000000e+02 8.950000000000000000e+02 8.960000000000000000e+02 8.970000000000000000e+02 8.980000000000000000e+02 8.990000000000000000e+02 9.000000000000000000e+02 9.010000000000000000e+02 9.020000000000000000e+02 9.030000000000000000e+02 9.040000000000000000e+02 9.050000000000000000e+02 9.060000000000000000e+02 9.070000000000000000e+02 9.080000000000000000e+02 9.090000000000000000e+02 9.100000000000000000e+02 9.110000000000000000e+02 9.120000000000000000e+02 9.130000000000000000e+02 9.140000000000000000e+02 9.150000000000000000e+02 9.160000000000000000e+02 9.170000000000000000e+02 9.180000000000000000e+02 9.190000000000000000e+02 9.200000000000000000e+02 9.210000000000000000e+02 9.220000000000000000e+02 9.230000000000000000e+02 9.240000000000000000e+02 9.250000000000000000e+02 9.260000000000000000e+02 9.270000000000000000e+02 9.280000000000000000e+02 9.290000000000000000e+02 9.300000000000000000e+02 9.310000000000000000e+02 9.320000000000000000e+02 9.330000000000000000e+02 9.340000000000000000e+02 9.350000000000000000e+02 9.360000000000000000e+02 9.370000000000000000e+02 9.380000000000000000e+02 9.390000000000000000e+02 9.400000000000000000e+02 9.410000000000000000e+02 9.420000000000000000e+02 9.430000000000000000e+02 9.440000000000000000e+02 9.450000000000000000e+02 9.460000000000000000e+02 9.470000000000000000e+02 9.480000000000000000e+02 9.490000000000000000e+02 9.500000000000000000e+02 9.510000000000000000e+02 9.520000000000000000e+02 9.530000000000000000e+02 9.540000000000000000e+02 9.550000000000000000e+02 9.560000000000000000e+02 9.570000000000000000e+02 9.580000000000000000e+02 9.590000000000000000e+02 9.600000000000000000e+02 9.610000000000000000e+02 9.620000000000000000e+02 9.630000000000000000e+02 9.640000000000000000e+02 9.650000000000000000e+02 9.660000000000000000e+02 9.670000000000000000e+02 9.680000000000000000e+02 9.690000000000000000e+02 9.700000000000000000e+02 9.710000000000000000e+02 9.720000000000000000e+02 9.730000000000000000e+02 9.740000000000000000e+02 9.750000000000000000e+02 9.760000000000000000e+02 9.770000000000000000e+02 9.780000000000000000e+02 9.790000000000000000e+02 9.800000000000000000e+02 9.810000000000000000e+02 9.820000000000000000e+02 9.830000000000000000e+02 9.840000000000000000e+02 9.850000000000000000e+02 9.860000000000000000e+02 9.870000000000000000e+02 9.880000000000000000e+02 9.890000000000000000e+02 9.900000000000000000e+02 9.910000000000000000e+02 9.920000000000000000e+02 9.930000000000000000e+02 9.940000000000000000e+02 9.950000000000000000e+02 9.960000000000000000e+02 9.970000000000000000e+02 9.980000000000000000e+02 9.990000000000000000e+02 1.000000000000000000e+03
1.000000000000000021e-02 1.000000000000000021e-02 1.000000000000000021e-02 1.000000000000000021e-02 1.000000000000000021e-02 1.000000000000000021e-02 1.000000000000000021e-02 1.000000000000000021e-02 1.000000000000000021e-02 1.000000000000000021e-02 1.000000000000000021e-02 1.000000000000000021e-02 1.000000000000000021e-02 1.000000000000000021e-02 1.000000000000000021e-02 1.000000000000000021e-02 1.000000000000000021e-02 1.000000000000000021e-02 1.000000000000000021e-02 1.000000000000000021e-02 1.000000000000000021e-02 1.000000000000000021e-02 1.000000000000000021e-02 1.000000000000000021e-02 1.000000000000000021e-02 1.000000000000000021e-02 1.000000000000000021e-02 1.000000000000000021e-02 1.000000000000000021e-02 1.000000000000000021e-02 1.000000000000000021e-02 1.000000000000000021e-02 1.000000000000000021e-02 1.000000000000000021e-02 1.000000000000000021e-02 1.000000000000000021e-02 1.000000000000000021e-02 1.000000000000000021e-02 1.000000000000000021e-02 1.000000000000000021e-02 1.000000000000000021e-02 1.000000000000000021e-02 1.000000000000000021e-02 1.000000000000000021e-02 1.000000000000000021e-02 1.000000000000000021e-02 1.000000000000000021e-02 1.000000000000000021e-02 1.000000000000000021e-02 1.000000000000000021e-02 1.000000000000000021e-02 1.000000000000000021e-02 1.000000000000000021e-02 1.000000000000000021e-02 1.000000000000000021e-02 1.000000000000000021e-02 1.000000000000000021e-02 1.000000000000000021e-02 1.000000000000000021e-02 1.000000000000000021e-02 1.000000000000000021e-02 1.000000000000000021e-02 1.000000000000000021e-02 1.000000000000000021e-02 1.000000000000000021e-02 1.000000000000000021e-02 1.000000000000000021e-02 1.000000000000000021e-02 1.000000000000000021e-02 1.000000000000000021e-02 1.000000000000000021e-02 1.000000000000000021e-02 1.000000000000000021e-02 1.000000000000000021e-02 1.000000000000000021e-02 1.000000000000000021e-02 1.000000000000000021e-02 1.000000000000000021e-02 1.000000000000000021e-02 1.000000000000000021e-02 1.000000000000000021e-02 1.000000000000000021e-02 1.000000000000000021e-02 1.000000000000000021e-02 1.000000000000000021e-02 1.000000000000000021e-02 1.000000000000000021e-02 1.000000000000000021e-02 1.000000000000000021e-02 1.000000000000000021e-02 1.000000000000000021e-02 1.000000000000000021e-02 1.000000000000000021e-02 1.000000000000000021e-02 1.000000000000000021e-02 1.000000000000000021e-02 1.000000000000000021e-02 1.000000000000000021e-02 1.000000000000000021e-02 1.000000000000000021e-02 1.000000000000000021e-02 1.000000000000000021e-02 1.000000000000000021e-02 1.000000000000000021e-02 1.000000000000000021e-02 1.000000000000000021e-02 1.000000000000000021e-02 1.000000000000000021e-02 1.000000000000000021e-02 1.000000000000000021e-02 1.000000000000000021e-02 1.000000000000000021e-02 1.000000000000000021e-02 1.000000000000000021e-02 1.000000000000000021e-02 1.000000000000000021e-02 1.000000000000000021e-02 1.000000000000000021e-02 1.000000000000000021e-02 1.000000000000000021e-02 1.000000000000000021e-02 1.000000000000000021e-02 1.000000000000000021e-02 1.000000000000000021e-02 1.000000000000000021e-02 1.000000000000000021e-02 1.000000000000000021e-02 1.000000000000000021e-02 1.000000000000000021e-02 1.000000000000000021e-02 1.000000000000000021e-02 1.000000000000000021e-02 1.000000000000000021e-02 1.000000000000000021e-02 1.000000000000000021e-02 1.000000000000000021e-02 1.000000000000000021e-02 1.000000000000000021e-02 1.000000000000000021e-02 1.000000000000000021e-02 1.000000000000000021e-02 1.000000000000000021e-02 1.000000000000000021e-02 1.000000000000000021e-02 1.000000000000000021e-02 1.000000000000000021e-02 1.000000000000000021e-02 1.000000000000000021e-02 1.000000000000000021e-02 1.000000000000000021e-02 1.000000000000000021e-02 1.000000000000000021e-02 1.000000000000000021e-02 1.000000000000000021e-02 1.000000000000000021e-02 1.000000000000000021e-02 1.000000000000000021e-02 1.000000000000000021e-02 1.000000000000000021e-02 1.000000000000000021e-02 1.000000000000000021e-02 1.000000000000000021e-02 1.000000000000000021e-02 1.000000000000000021e-02 1.000000000000000021e-02 1.000000000000000021e-02 1.000000000000000021e-02 1.000000000000000021e-02 1.000000000000000021e-02 1.000000000000000021e-02 1.000000000000000021e-02 1.000000000000000021e-02 1.000000000000000021e-02 1.000000000000000021e-02 1.000000000000000021e-02 1.000000000000000021e-02 1.000000000000000021e-02 1.000000000000000021e-02 1.000000000000000021e-02 1.000000000000000021e-02 1.000000000000000021e-02 1.000000000000000021e-02 1.000000000000000021e-02 1.000000000000000021e-02 1.000000000000000021e-02 1.000000000000000021e-02 1.000000000000000021e-02 1.000000000000000021e-02 1.000000000000000021e-02 1.000000000000000021e-02 1.000000000000000021e-02 1.000000000000000021e-02 1.000000000000000021e-02 1.000000000000000021e-02 1.000000000000000021e-02 1.000000000000000021e-02 1.000000000000000021e-02 1.000000000000000021e-02 1.000000000000000021e-02 1.000000000000000021e-02 1.000000000000000021e-02 1.000000000000000021e-02 1.000000000000000021e-02 1.000000000000000021e-02 1.000000000000000021e-02 1.000000000000000021e-02 1.000000000000000021e-02 1.000000000000000021e-02 1.000000000000000021e-02 1.000000000000000021e-02 1.000000000000000021e-02 1.000000000000000021e-02 1.000000000000000021e-02 1.000000000000000021e-02 1.000000000000000021e-02 1.000000000000000021e-02 1.000000000000000021e-02 1.000000000000000021e-02 1.000000000000000021e-02 1.000000000000000021e-02 1.000000000000000021e-02 1.000000000000000021e-02 1.000000000000000021e-02 1.000000000000000021e-02 1.000000000000000021e-02 1.000000000000000021e-02 1.000000000000000021e-02 1.000000000000000021e-02 1.000000000000000021e-02 1.000000000000000021e-02 1.000000000000000021e-02 1.000000000000000021e-02 1.000000000000000021e-02 1.000000000000000021e-02 1.000000000000000021e-02 1.000000000000000021e-02 1.000000000000000021e-02 1.000000000000000021e-02 1.000000000000000021e-02 1.000000000000000021e-02 1.000000000000000021e-02 1.000000000000000021e-02 1.000000000000000021e-02 1.000000000000000021e-02 1.000000000000000021e-02 1.000000000000000021e-02 1.000000000000000021e-02 1.000000000000000021e-02 1.000000000000000021e-02 1.000000000000000021e-02 1.000000000000000021e-02 1.000000000000000021e-02 1.000000000000000021e-02 1.000000000000000021e-02 1.000000000000000021e-02 1.000000000000000021e-02 1.000000000000000021e-02 1.000000000000000021e-02 1.000000000000000021e-02 1.000000000000000021e-02 1.000000000000000021e-02 1.000000000000000021e-02 1.000000000000000021e-02 1.000000000000000021e-02 1.000000000000000021e-02 1.000000000000000021e-02 1.000000000000000021e-02 1.000000000000000021e-02 1.000000000000000021e-02 1.000000000000000021e-02 1.000000000000000021e-02 1.000000000000000021e-02 1.000000000000000021e-02 1.000000000000000021e-02 1.000000000000000021e-02 1.000000000000000021e-02 1.000000000000000021e-02 1.000000000000000021e-02 1.000000000000000021e-02 1.000000000000000021e-02 1.000000000000000021e-02 1.000000000000000021e-02 1.000000000000000021e-02 1.000000000000000021e-02 1.000000000000000021e-02 1.000000000000000021e-02 1.000000000000000021e-02 1.000000000000000021e-02 1.000000000000000021e-02 1.000000000000000021e-02 1.000000000000000021e-02 1.000000000000000021e-02 1.000000000000000021e-02 1.000000000000000021e-02 1.000000000000000021e-02 1.000000000000000021e-02 1.000000000000000021e-02 1.000000000000000021e-02 1.000000000000000021e-02 1.000000000000000021e-02 1.000000000000000021e-02 1.000000000000000021e-02 1.000000000000000021e-02 1.000000000000000021e-02 1.000000000000000021e-02 1.000000000000000021e-02 1.000000000000000021e-02 1.000000000000000021e-02 1.000000000000000021e-02 1.000000000000000021e-02 1.000000000000000021e-02 1.000000000000000021e-02 1.000000000000000021e-02 1.000000000000000021e-02 1.000000000000000021e-02 1.000000000000000021e-02 1.000000000000000021e-02 1.000000000000000021e-02 1.000000000000000021e-02 1.000000000000000021e-02 1.000000000000000021e-02 1.000000000000000021e-02 1.000000000000000021e-02 1.000000000000000021e-02 1.000000000000000021e-02 1.000000000000000021e-02 1.000000000000000021e-02 1.000000000000000021e-02 1.000000000000000021e-02 1.000000000000000021e-02 1.000000000000000021e-02 1.000000000000000021e-02 1.000000000000000021e-02 1.000000000000000021e-02 1.000000000000000021e-02 1.000000000000000021e-02 1.000000000000000021e-02 1.000000000000000021e-02 1.000000000000000021e-02 1.000000000000000021e-02 1.000000000000000021e-02 1.000000000000000021e-02 1.000000000000000021e-02 1.000000000000000021e-02 1.000000000000000021e-02 1.000000000000000021e-02 1.000000000000000021e-02 1.000000000000000021e-02 1.000000000000000021e-02 1.000000000000000021e-02 1.000000000000000021e-02 1.000000000000000021e-02 1.000000000000000021e-02 1.000000000000000021e-02 1.000000000000000021e-02 1.000000000000000021e-02 1.000000000000000021e-02 1.000000000000000021e-02 1.000000000000000021e-02 1.000000000000000021e-02 1.000000000000000021e-02 1.000000000000000021e-02 1.000000000000000021e-02 1.000000000000000021e-02 1.000000000000000021e-02 1.000000000000000021e-02 1.000000000000000021e-02 1.000000000000000021e-02 1.000000000000000021e-02 1.000000000000000021e-02 1.000000000000000021e-02 1.000000000000000021e-02 1.000000000000000021e-02 1.000000000000000021e-02 1.000000000000000021e-02 1.000000000000000021e-02 1.000000000000000021e-02 1.000000000000000021e-02 1.000000000000000021e-02 1.000000000000000021e-02 1.000000000000000021e-02 1.000000000000000021e-02 1.000000000000000021e-02 1.000000000000000021e-02 1.000000000000000021e-02 1.000000000000000021e-02 1.000000000000000021e-02 1.000000000000000021e-02 1.000000000000000021e-02 1.000000000000000021e-02 1.000000000000000021e-02 1.000000000000000021e-02 1.000000000000000021e-02 1.000000000000000021e-02 1.000000000000000021e-02 1.000000000000000021e-02 1.000000000000000021e-02 1.000000000000000021e-02 1.000000000000000021e-02 1.000000000000000021e-02 1.000000000000000021e-02 1.000000000000000021e-02 1.000000000000000021e-02 1.000000000000000021e-02 1.000000000000000021e-02 1.000000000000000021e-02 1.000000000000000021e-02 1.000000000000000021e-02 1.000000000000000021e-02 1.000000000000000021e-02 1.000000000000000021e-02 1.000000000000000021e-02 1.000000000000000021e-02 1.000000000000000021e-02 1.000000000000000021e-02 1.000000000000000021e-02 1.000000000000000021e-02 1.000000000000000021e-02 1.000000000000000021e-02 1.000000000000000021e-02 1.000000000000000021e-02 1.000000000000000021e-02 1.000000000000000021e-02 1.000000000000000021e-02 1.000000000000000021e-02 1.000000000000000021e-02 1.000000000000000021e-02 1.000000000000000021e-02 1.000000000000000021e-02 1.000000000000000021e-02 1.000000000000000021e-02 1.000000000000000021e-02 1.000000000000000021e-02 1.000000000000000021e-02 1.000000000000000021e-02 1.000000000000000021e-02 1.000000000000000021e-02 1.000000000000000021e-02 1.000000000000000021e-02 1.000000000000000021e-02 1.000000000000000021e-02 1.000000000000000021e-02 1.000000000000000021e-02 1.000000000000000021e-02 1.000000000000000021e-02 1.000000000000000021e-02 1.000000000000000021e-02 1.000000000000000021e-02 1.000000000000000021e-02 1.000000000000000021e-02 1.000000000000000021e-02 1.000000000000000021e-02 1.000000000000000021e-02 1.000000000000000021e-02 1.000000000000000021e-02 1.000000000000000021e-02 1.000000000000000021e-02 1.000000000000000021e-02 1.000000000000000021e-02 1.000000000000000021e-02 1.000000000000000021e-02 1.000000000000000021e-02 1.000000000000000021e-02 1.000000000000000021e-02 1.000000000000000021e-02 1.000000000000000021e-02 1.000000000000000021e-02 1.000000000000000021e-02 1.000000000000000021e-02 1.000000000000000021e-02 1.000000000000000021e-02 1.000000000000000021e-02 1.000000000000000021e-02 1.000000000000000021e-02 1.000000000000000021e-02 1.000000000000000021e-02 1.000000000000000021e-02 1.000000000000000021e-02 1.000000000000000021e-02 1.000000000000000021e-02 1.000000000000000021e-02 1.000000000000000021e-02 1.000000000000000021e-02 1.000000000000000021e-02 1.000000000000000021e-02 1.000000000000000021e-02 1.000000000000000021e-02 1.000000000000000021e-02 1.000000000000000021e-02 1.000000000000000021e-02 1.000000000000000021e-02 1.000000000000000021e-02 1.000000000000000021e-02 1.000000000000000021e-02 1.000000000000000021e-02 1.000000000000000021e-02 1.000000000000000021e-02 1.000000000000000021e-02 1.000000000000000021e-02 1.000000000000000021e-02 1.000000000000000021e-02 1.000000000000000021e-02 1.000000000000000021e-02 1.000000000000000021e-02 1.000000000000000021e-02 1.000000000000000021e-02 1.000000000000000021e-02 1.000000000000000021e-02 1.000000000000000021e-02 1.000000000000000021e-02 1.000000000000000021e-02 1.000000000000000021e-02 1.000000000000000021e-02 1.000000000000000021e-02 1.000000000000000021e-02 1.000000000000000021e-02 1.000000000000000021e-02 1.000000000000000021e-02 1.000000000000000021e-02 1.000000000000000021e-02 1.000000000000000021e-02 1.000000000000000021e-02 1.000000000000000021e-02 1.000000000000000021e-02 1.000000000000000021e-02 1.000000000000000021e-02 1.000000000000000021e-02 1.000000000000000021e-02 1.000000000000000021e-02 1.000000000000000021e-02 1.000000000000000021e-02 1.000000000000000021e-02 1.000000000000000021e-02 1.000000000000000021e-02 1.000000000000000021e-02 1.000000000000000021e-02 1.000000000000000021e-02 1.000000000000000021e-02 1.000000000000000021e-02 1.000000000000000021e-02 1.000000000000000021e-02 1.000000000000000021e-02 1.000000000000000021e-02 1.000000000000000021e-02 1.000000000000000021e-02 1.000000000000000021e-02 1.000000000000000021e-02 1.000000000000000021e-02 1.000000000000000021e-02 1.000000000000000021e-02 1.000000000000000021e-02 1.000000000000000021e-02 1.000000000000000021e-02 1.000000000000000021e-02 1.000000000000000021e-02 1.000000000000000021e-02 1.000000000000000021e-02 1.000000000000000021e-02 1.000000000000000021e-02 1.000000000000000021e-02 1.000000000000000021e-02 1.000000000000000021e-02 1.000000000000000021e-02 1.000000000000000021e-02 1.000000000000000021e-02 1.000000000000000021e-02 1.000000000000000021e-02 1.000000000000000021e-02 1.000000000000000021e-02 1.000000000000000021e-02 1.000000000000000021e-02 1.000000000000000021e-02 1.000000000000000021e-02 1.000000000000000021e-02 1.000000000000000021e-02 1.000000000000000021e-02 1.000000000000000021e-02 1.000000000000000021e-02 1.000000000000000021e-02 1.000000000000000021e-02 1.000000000000000021e-02 1.000000000000000021e-02 1.000000000000000021e-02 1.000000000000000021e-02 1.000000000000000021e-02 1.000000000000000021e-02 1.000000000000000021e-02 1.000000000000000021e-02 1.000000000000000021e-02 1.000000000000000021e-02 1.000000000000000021e-02 1.000000000000000021e-02 1.000000000000000021e-02 1.000000000000000021e-02 1.000000000000000021e-02 1.000000000000000021e-02 1.000000000000000021e-02 1.000000000000000021e-02 1.000000000000000021e-02 1.000000000000000021e-02 1.000000000000000021e-02 1.000000000000000021e-02 1.000000000000000021e-02 1.000000000000000021e-02 1.000000000000000021e-02 1.000000000000000021e-02 1.000000000000000021e-02 1.000000000000000021e-02 1.000000000000000021e-02 1.000000000000000021e-02 1.000000000000000021e-02 1.000000000000000021e-02 1.000000000000000021e-02 1.000000000000000021e-02 1.000000000000000021e-02 1.000000000000000021e-02 1.000000000000000021e-02 1.000000000000000021e-02 1.000000000000000021e-02 1.000000000000000021e-02 1.000000000000000021e-02 1.000000000000000021e-02 1.000000000000000021e-02 1.000000000000000021e-02 1.000000000000000021e-02 1.000000000000000021e-02 1.000000000000000021e-02 1.000000000000000021e-02 1.000000000000000021e-02 1.000000000000000021e-02 1.000000000000000021e-02 1.000000000000000021e-02 1.000000000000000021e-02 1.000000000000000021e-02 1.000000000000000021e-02 1.000000000000000021e-02 1.000000000000000021e-02 1.000000000000000021e-02 1.000000000000000021e-02 1.000000000000000021e-02 1.000000000000000021e-02 1.000000000000000021e-02 1.000000000000000021e-02 1.000000000000000021e-02 1.000000000000000021e-02 1.000000000000000021e-02 1.000000000000000021e-02 1.000000000000000021e-02 1.000000000000000021e-02 1.000000000000000021e-02 1.000000000000000021e-02 1.000000000000000021e-02 1.000000000000000021e-02 1.000000000000000021e-02 1.000000000000000021e-02 1.000000000000000021e-02 1.000000000000000021e-02 1.000000000000000021e-02 1.000000000000000021e-02 1.000000000000000021e-02 1.000000000000000021e-02 1.000000000000000021e-02 1.000000000000000021e-02 1.000000000000000021e-02 1.000000000000000021e-02 1.000000000000000021e-02 1.000000000000000021e-02 1.000000000000000021e-02 1.000000000000000021e-02 1.000000000000000021e-02 1.000000000000000021e-02 1.000000000000000021e-02 1.000000000000000021e-02 1.000000000000000021e-02 1.000000000000000021e-02 1.000000000000000021e-02 1.000000000000000021e-02 1.000000000000000021e-02 1.000000000000000021e-02 1.000000000000000021e-02 1.000000000000000021e-02 1.000000000000000021e-02 1.000000000000000021e-02 1.000000000000000021e-02 1.000000000000000021e-02 1.000000000000000021e-02 1.000000000000000021e-02 1.000000000000000021e-02 1.000000000000000021e-02 1.000000000000000021e-02 1.000000000000000021e-02 1.000000000000000021e-02 1.000000000000000021e-02 1.000000000000000021e-02 1.000000000000000021e-02 1.000000000000000021e-02 1.000000000000000021e-02 1.000000000000000021e-02 1.000000000000000021e-02 1.000000000000000021e-02 1.000000000000000021e-02 1.000000000000000021e-02 1.000000000000000021e-02 1.000000000000000021e-02 1.000000000000000021e-02 1.000000000000000021e-02 1.000000000000000021e-02 1.000000000000000021e-02 1.000000000000000021e-02 1.000000000000000021e-02 1.000000000000000021e-02 1.000000000000000021e-02 1.000000000000000021e-02 1.000000000000000021e-02 1.000000000000000021e-02 1.000000000000000021e-02 1.000000000000000021e-02 1.000000000000000021e-02 1.000000000000000021e-02 1.000000000000000021e-02 1.000000000000000021e-02 1.000000000000000021e-02 1.000000000000000021e-02 1.000000000000000021e-02 1.000000000000000021e-02 1.000000000000000021e-02 1.000000000000000021e-02 1.000000000000000021e-02 1.000000000000000021e-02 1.000000000000000021e-02 1.000000000000000021e-02 1.000000000000000021e-02 1.000000000000000021e-02 1.000000000000000021e-02 1.000000000000000021e-02 1.000000000000000021e-02 1.000000000000000021e-02 1.000000000000000021e-02 1.000000000000000021e-02 1.000000000000000021e-02 1.000000000000000021e-02 1.000000000000000021e-02 1.000000000000000021e-02 1.000000000000000021e-02 1.000000000000000021e-02 1.000000000000000021e-02 1.000000000000000021e-02 1.000000000000000021e-02 1.000000000000000021e-02 1.000000000000000021e-02 1.000000000000000021e-02 1.000000000000000021e-02 1.000000000000000021e-02 1.000000000000000021e-02 1.000000000000000021e-02 1.000000000000000021e-02 1.000000000000000021e-02 1.000000000000000021e-02 1.000000000000000021e-02 1.000000000000000021e-02 1.000000000000000021e-02 1.000000000000000021e-02 1.000000000000000021e-02 1.000000000000000021e-02 1.000000000000000021e-02 1.000000000000000021e-02 1.000000000000000021e-02 1.000000000000000021e-02 1.000000000000000021e-02 1.000000000000000021e-02 1.000000000000000021e-02 1.000000000000000021e-02 1.000000000000000021e-02 1.000000000000000021e-02 1.000000000000000021e-02 1.000000000000000021e-02 1.000000000000000021e-02 1.000000000000000021e-02 1.000000000000000021e-02 1.000000000000000021e-02 1.000000000000000021e-02 1.000000000000000021e-02 1.000000000000000021e-02 1.000000000000000021e-02 1.000000000000000021e-02 1.000000000000000021e-02 1.000000000000000021e-02 1.000000000000000021e-02 1.000000000000000021e-02 1.000000000000000021e-02 1.000000000000000021e-02 1.000000000000000021e-02 1.000000000000000021e-02 1.000000000000000021e-02 1.000000000000000021e-02 1.000000000000000021e-02 1.000000000000000021e-02 1.000000000000000021e-02 1.000000000000000021e-02 1.000000000000000021e-02 1.000000000000000021e-02 1.000000000000000021e-02 1.000000000000000021e-02 1.000000000000000021e-02 1.000000000000000021e-02 1.000000000000000021e-02 1.000000000000000021e-02 1.000000000000000021e-02 1.000000000000000021e-02 1.000000000000000021e-02 1.000000000000000021e-02 1.000000000000000021e-02 1.000000000000000021e-02 1.000000000000000021e-02 1.000000000000000021e-02 1.000000000000000021e-02 1.000000000000000021e-02 1.000000000000000021e-02 1.000000000000000021e-02 1.000000000000000021e-02 1.000000000000000021e-02 1.000000000000000021e-02 1.000000000000000021e-02 1.000000000000000021e-02 1.000000000000000021e-02 1.000000000000000021e-02 1.000000000000000021e-02 1.000000000000000021e-02 1.000000000000000021e-02 1.000000000000000021e-02 1.000000000000000021e-02 1.000000000000000021e-02 1.000000000000000021e-02 1.000000000000000021e-02 1.000000000000000021e-02 1.000000000000000021e-02 1.000000000000000021e-02 1.000000000000000021e-02 1.000000000000000021e-02 1.000000000000000021e-02 1.000000000000000021e-02 1.000000000000000021e-02 1.000000000000000021e-02 1.000000000000000021e-02 1.000000000000000021e-02 1.000000000000000021e-02 1.000000000000000021e-02 1.000000000000000021e-02 1.000000000000000021e-02 1.000000000000000021e-02 1.000000000000000021e-02 1.000000000000000021e-02 1.000000000000000021e-02 1.000000000000000021e-02 1.000000000000000021e-02 1.000000000000000021e-02 1.000000000000000021e-02 1.000000000000000021e-02 1.000000000000000021e-02 1.000000000000000021e-02 1.000000000000000021e-02 1.000000000000000021e-02 1.000000000000000021e-02 1.000000000000000021e-02 1.000000000000000021e-02 1.000000000000000021e-02 1.000000000000000021e-02 1.000000000000000021e-02 1.000000000000000021e-02 1.000000000000000021e-02 1.000000000000000021e-02 1.000000000000000021e-02 1.000000000000000021e-02 1.000000000000000021e-02 1.000000000000000021e-02 1.000000000000000021e-02 1.000000000000000021e-02 1.000000000000000021e-02 1.000000000000000021e-02 1.000000000000000021e-02 1.000000000000000021e-02 1.000000000000000021e-02 1.000000000000000021e-02 1.000000000000000021e-02 1.000000000000000021e-02 1.000000000000000021e-02 1.000000000000000021e-02 1.000000000000000021e-02 1.000000000000000021e-02 1.000000000000000021e-02 1.000000000000000021e-02 1.000000000000000021e-02 1.000000000000000021e-02 1.000000000000000021e-02 1.000000000000000021e-02 1.000000000000000021e-02 1.000000000000000021e-02 1.000000000000000021e-02 1.000000000000000021e-02 1.000000000000000021e-02 1.000000000000000021e-02 1.000000000000000021e-02 1.000000000000000021e-02 1.000000000000000021e-02 1.000000000000000021e-02 1.000000000000000021e-02 1.000000000000000021e-02 1.000000000000000021e-02 1.000000000000000021e-02 1.000000000000000021e-02 1.000000000000000021e-02 1.000000000000000021e-02 1.000000000000000021e-02 1.000000000000000021e-02 1.000000000000000021e-02 1.000000000000000021e-02 1.000000000000000021e-02 1.000000000000000021e-02 1.000000000000000021e-02 1.000000000000000021e-02 1.000000000000000021e-02 1.000000000000000021e-02 1.000000000000000021e-02 1.000000000000000021e-02 1.000000000000000021e-02 1.000000000000000021e-02 1.000000000000000021e-02 1.000000000000000021e-02 1.000000000000000021e-02 1.000000000000000021e-02 1.000000000000000021e-02 1.000000000000000021e-02 1.000000000000000021e-02 1.000000000000000021e-02 1.000000000000000021e-02 1.000000000000000021e-02 1.000000000000000021e-02 1.000000000000000021e-02 1.000000000000000021e-02 1.000000000000000021e-02 1.000000000000000021e-02 1.000000000000000021e-02 1.000000000000000021e-02 1.000000000000000021e-02 1.000000000000000021e-02 1.000000000000000021e-02 1.000000000000000021e-02 1.000000000000000021e-02 1.000000000000000021e-02 1.000000000000000021e-02 1.000000000000000021e-02 1.000000000000000021e-02 1.000000000000000021e-02 1.000000000000000021e-02 1.000000000000000021e-02 1.000000000000000021e-02 1.000000000000000021e-02 1.000000000000000021e-02 1.000000000000000021e-02 1.000000000000000021e-02 1.000000000000000021e-02 1.000000000000000021e-02 1.000000000000000021e-02 1.000000000000000021e-02 1.000000000000000021e-02 1.000000000000000021e-02 1.000000000000000021e-02 1.000000000000000021e-02 1.000000000000000021e-02 1.000000000000000021e-02 1.000000000000000021e-02 1.000000000000000021e-02 1.000000000000000021e-02 1.000000000000000021e-02 1.000000000000000021e-02 1.000000000000000021e-02 1.000000000000000021e-02 1.000000000000000021e-02 1.000000000000000021e-02 1.000000000000000021e-02 1.000000000000000021e-02 1.000000000000000021e-02 1.000000000000000021e-02 1.000000000000000021e-02 1.000000000000000021e-02 1.000000000000000021e-02 1.000000000000000021e-02 1.000000000000000021e-02 1.000000000000000021e-02 1.000000000000000021e-02 1.000000000000000021e-02 1.000000000000000021e-02 1.000000000000000021e-02 1.000000000000000021e-02 1.000000000000000021e-02 1.000000000000000021e-02 1.000000000000000021e-02 1.000000000000000021e-02 1.000000000000000021e-02 1.000000000000000021e-02
-1.062723672481260877e+02 1.617035038173655437e+02 3.742784930129732857e+01 -8.402675143649556588e+00 -8.372781282129263047e+01 -1.275572099876043453e+01 -1.981822593726642481e+02 6.839469442986459979e-01 -8.069492241611139605e+01 -1.353593664900450655e+01 -1.892454774408151508e+01 6.256035993492837122e+00 -1.699637357187811615e+00 1.598965366270981008e+02 8.065376791270931278e+01 -3.701371450880068181e+01 -5.038350181841787645e+01 7.549357362282287909e+01 3.129380702013135718e+01 -2.419862288153924368e+01 -7.512006550693416784e+01 -7.030636780325974655e+01 -1.313634954321516624e+01 2.757407960059295604e+01 -1.857474662019440927e+02 -9.406306787165338790e+01 -2.487228780556633723e+01 1.921307871261114713e+02 6.743833856349135658e+01 7.317347544756815125e+01 7.653694097088325066e+01 1.122402204670438497e+00 -7.564298266236899337e+01 1.977983662053666478e+02 -2.334386067496253645e+02 5.614839069407110372e+01 -1.144323113616670895e+02 -3.307071786553062509e+01 3.851685993965554999e+00 1.207761423253360391e+02 -1.171132751814116659e+02 -1.296921874174138090e+01 7.369158650297377733e+01 1.654857771956237116e+02 6.797033226218601953e+01 -6.514484628005678246e+01 3.921562128067523645e+01 -2.707720627057692653e+01 -6.296664433688216889e+01 1.492393692866463084e+02 -6.715256488345447394e+01 -4.963669461144318262e+01 -1.328875751556248019e+02 5.580650517144096767e+00 -4.813968586217178114e+01 3.687503398146266420e+01 -8.458057937305581220e+01 -4.769782546266770140e+01 -9.666365268024871682e+01 -1.481922365915094133e+02 1.848974777007700965e+01 4.330486147015427889e+01 -1.173793764259652335e+02 1.224411445812674337e+01 -7.553572367833213264e+01 4.683130992614263732e+01 1.589165029149367001e+02 -1.375465253556041034e+02 -4.125953477098154565e+01 6.897252616356953858e+00 2.808246019213285649e+00 4.041820200298157317e+01 8.005901908839689440e+01 7.248793297127001933e-01 -8.441350533485580954e+00 -6.672811508610134013e+01 7.458304560485441925e+01 -3.116734061691113311e+01 2.508892565227543159e+01 9.917757801599638867e+01 8.406201619639541889e+01 -4.078472485644781642e+01 5.503681890089880113e+01 1.405419570540193774e+02 1.108000978435396604e+02 -3.793847181962277215e+00 1.660410163906590242e+02 -1.063325218343192091e+02 3.956456567622779641e+00 -3.998251549015068917e+01 1.971529494716254760e+02 -2.023345925499295817e+01 2.775133188524760541e+00 -7.320123303452109553e+01 -6.824948805233051807e+00 -6.082119435009448694e+01 6.463335234597163037e+01 -9.015522123948818489e+01 6.546535772055715086e+01 -4.555499956227762226e+01 -4.741466011945380643e+01 -8.739632052059626233e+01 5.056727970185869481e+01 -5.210956315655327842e+01 -1.423568400436445529e+02 -7.573225607763865241e+01 -9.971567565124097143e+01 -1.498869594787269364e+02 1.295713812442622554e+02 -2.613985605071518847e+01 3.055768863471195829e+01 8.548102181474560268e+01 -9.916377582416201619e+01 5.427585644224779315e+01 -4.129077608824832879e+01 -6.620784275489307902e+01 -8.595672225914773890e+01 1.936843814746324881e+02 -5.408573954979404874e+01 -4.722647334964160137e+01 -4.494076325560769192e+01 7.663740324263557113e+01 -3.949794332513415895e+01 1.315041636241936658e+02 -4.762943735867698081e+01 5.258648869048118257e+01 4.331852300133966160e+00 -7.726722385577913599e+01 6.554987934130937788e+01 2.644714931103495132e+02 -8.779995338283228534e+01 4.524471326294667506e+01 -7.274732420146079903e+01 4.314365449231351590e+01 1.251108415463080519e+02 -4.906636382323657131e+01 1.395530858790398199e+01 -2.570990158297225392e+01 -9.724428996375156942e+01 -1.658251864139261755e+01 4.126527520024894535e+00 -7.440971401423721154e+00 -1.424005622592321885e+01 1.127091633411856293e+02 1.243996008789835770e+02 1.778955496893923396e+02 -2.903826667047586056e+02 3.643753598945388461e+01 -1.506353878299213100e+01 -5.947092319636368529e+01 1.720903269003217702e+02 7.262286342172089348e+01 -2.519581287239769818e+00 -1.106215603545230550e+02 -1.036573686117411519e+01 9.553133493980752178e+01 -1.282170340830509758e+02 -1.609174287658183857e+02 1.025013526922992746e+01 4.047777196707355785e+01 -5.827640530127799678e+01 4.013646818799514904e+01 -1.022191832869141876e+02 -1.444404593740452754e+02 2.011906476347652273e+01 4.638091811176460055e+01 4.618634985919162439e+00 -7.964989983119048134e+01 -8.936901866903221503e+01 -8.046812867277384385e+01 -8.363290697528456974e+01 1.211648396910587877e+01 5.427217949194287883e+01 1.113389420992762950e+02 7.588318356581942226e+01 8.556783890823275840e+01 1.027708270105893718e+02 -7.148372839402978229e+01 -7.887581614500597027e+01 6.743864510994444572e+01 6.561066744045763244e+01 5.665493193962368679e+01 -8.969346006607892718e+00 -8.714355197954469645e+01 5.168410759630300078e+01 -1.714893301688542806e+02 6.433838244824795538e+01 -4.260788221164493450e+01 -9.234437589029008109e+01 7.109599455257914258e+01 -1.646352092849920368e+01 -7.387024507074606561e+01 -5.503764713113761786e+01 -8.807675046370444960e+00 2.327609289504790695e+02 7.383695246608030516e+01 5.262229690322326547e+01 -9.964328700939050520e+01 1.423230944704557430e+02 1.041605058316454890e+00 -8.674916961690873052e+01 1.496716836808738549e+02 -1.480490149668360402e+02 1.516098848456620551e+01 -3.122751498905856593e+01 -2.135329647020220705e+02 -1.295061794420923889e+02 -8.471869327383213033e+01 -2.859391167273825474e+01 -1.157786870259068621e+02 5.597811239309562836e+01 6.314994216215323064e+01 -2.683125076827235134e+01 -9.695931997109107670e+01 1.098608075734405816e+02 1.147695308889489496e+02 4.488945297064293527e+01 1.703003670142220471e+01 2.540562215233779000e+02 4.241211420945734289e+01 -1.162001484679348948e+02 -4.384002190041550762e+01 -1.640997888441409884e+02 3.098839016470743957e+01 1.490122011261282182e+02 -1.441396720108629950e+02 1.281005286208771281e+02 -8.846329012076893150e+01 -1.843257547162735221e+01 -8.129153097323676969e-01 5.144770798792369959e+01 -1.124388411718686775e+01 -2.222191903822129433e+01 -1.826382033872710764e+01 -1.233858954713453784e+02 4.513071006476879177e+01 -2.950847213802802926e+01 -1.254749233417858001e+01 -1.043949152671098801e+01 2.199340421809265820e+02 1.696381413609041147e+02 2.264320774698365994e+02 1.282924449416107677e+02 -8.427416804853270094e+01 7.313957939126910901e+01 2.060258147771851256e+01 4.623002310292316963e+01 -3.858727221352442882e+01 2.486402905028915029e+02 -2.271386312901107374e+01 -1.331315630166002393e+02 -1.453889252224835360e+01 -4.464396790142589566e+01 -7.532951705431442235e+01 4.201635074136731163e+01 -1.140357048079535218e+01 1.771372858164870649e+02 8.988012174439860758e+01 3.979892324083687072e+01 9.539609729133782423e+01 9.220604143022188737e+01 -2.238369031824332112e+01 1.359862565164141017e+02 2.586179540340442884e+01 8.729688933068992185e+01 4.646696102963515784e+01 6.739002122885081825e+00 -1.127403087273751083e+02 -1.128878782540901824e+02 -8.772702550909635022e+01 -1.515639738491068478e+01 8.446736564676741921e+01 -2.981827242352013130e+01 9.633113352209115021e+01 4.270472420662419921e+01 -7.084865842252423818e+01 -2.915995805266749841e+01 -5.706961717929671352e+01 1.711989421780118548e+01 -4.508145974525571376e+01 -1.091564127417675820e+02 1.183641886990924519e+02 1.182289088178282128e+02 -7.695863861268607309e+01 5.233717808148508510e+00 -4.417164708070944101e+01 -3.169916698238899500e+01 -1.104882788383310910e+01 -3.045049829854934131e+01 4.337408782405499608e+01 -1.369786165739343744e+02 -5.150684609466000552e+01 -1.478996646434549405e+02 1.695798221665941696e+02 -1.963001168404867514e+01 5.734036754189601481e+01 1.158166276950264084e+01 1.405636731334917613e+02 4.339970472597369877e+01 3.472926736333558040e+01 1.502668889115857667e+02 -4.793788354243780958e+01 -9.502474676531190312e+01 2.650901481257716341e+01 -1.537326434832483528e+02 -5.196306140874217760e+01 9.956327401712439951e+01 -1.240059841769079583e+02 -3.535652630290877596e+01 8.876848019121921141e+01 -9.181001779340007829e+01 -8.695950555660465398e+01 -8.032990433743961489e+01 -6.198443111087984647e+01 2.421805536518709800e+02 1.926676833360350543e+02 1.000697686322410505e+02 -9.932167131684505534e+01 7.271382461194528446e+01 -6.437427464850003389e+01 -3.060422537935287579e+01 1.615283027660332138e+01 -3.138784963449708698e+01 -9.103370698354839874e+01 -2.763262627403264116e+00 1.430471430718462322e+01 1.056678355980506154e+02 -1.247567072132760444e+02 4.078216703987463632e+01 6.190406125500017964e+01 3.347129530405795350e+01 -8.793480311647921610e+01 -1.441315320663953514e+02 1.873416661404734214e+02 -1.726027473385648392e+01 2.442556641379610838e+01 1.518725903734132601e+02 2.584589831590180964e+01 2.687436970659495117e+01 -4.319030693581801472e+01 8.589126835983179831e+01 -1.321069532472034780e+02 -2.983327447423532064e+01 -5.948596484670705564e+00 -5.171005688758365437e+01 6.156056326178061866e+00 2.056035988808373460e+01 -3.466084485401789550e+01 1.323427196593100597e+01 2.069588734495323195e+02 -2.654009844998977385e+01 -2.713436545466843342e+01 -9.841874889369094603e+01 -1.574856244893791057e+00 -7.814542577050963246e+01 6.155921774515745071e+00 1.084984939209229111e+02 -5.034093794224339291e+01 5.842629296662857463e+00 -5.254312301692902309e+01 3.197224090409332753e+00 8.436206569668546251e+01 -1.120900987275393277e+02 -9.371463437139645691e+01 -9.926832433450333326e+01 6.900838632823081298e+01 8.373898346204528309e+01 -8.919420238682238278e+01 6.062410774261990554e+01 2.500798522488065245e+01 3.742609505978396811e+01 -1.715626330573106983e+01 8.838579034664815026e+01 7.707327300139637316e+01 -7.470849219945017694e+01 1.138187823717747627e+01 7.820901060699578977e+01 7.044051907153439629e+01 -1.927036682966220837e+01 2.413163846371032051e+01 -1.282450800699393483e+02 4.695766206344270444e+01 -3.171068310282282354e+01 -3.162884156688325987e+01 1.674874084949247788e+02 4.584643737152452303e+01 1.162326424340944016e+02 1.847023111941165894e+02 -1.331330313091812627e+02 1.442045864594673503e+02 -6.139303610300314773e+01 -1.307047062654390004e+02 7.959982073156110971e+01 -1.296187504068253418e+02 -2.777464771597711035e+01 5.452880207201287988e+01 7.763031948824327344e+00 -1.626708708982116889e+02 8.151605538945815965e+01 2.441863960494634611e+01 6.680501445962175922e+01 3.512669128326097479e+01 9.149205279893003251e+00 -6.490011591718422324e+01 1.118746879486743495e+02 5.270103193103184225e+01 -6.006318243251617872e+01 -9.790698804508286912e+01 3.760677339275814290e+01 2.490900202296893795e+01 7.969776951344236693e+01 1.777682659056773673e+02 -2.379283165256439503e+01 -1.065342059590125530e+02 -8.185533027426220087e+01 -4.961980576589875369e+01 -4.283577339510757298e+01 -1.418635905342679564e+02 -2.179489592895059502e+01 1.252641496212260961e+02 7.205533283901797859e+01 -1.183190314942052623e+02 -1.450130751648481180e+02 -6.581504300487753767e+01 -7.375895075061590944e+01 1.419961168154611357e+02 -1.648339309636309622e+02 8.372397193114458958e+01 -4.453706211755759092e+00 -4.162237448873568013e+01 1.283779203360005461e+01 8.810459741343365181e+01 4.788851898733986445e+01 1.336227200461628968e+02 -1.538700876941148579e+02 -7.828368677444441914e+01 2.455295841258298495e+01 4.053195625209502140e+01 1.992542253753190096e+02 1.406463410790334194e+02 6.338806896312204486e+01 6.970871362796268045e+01 -3.286158125388421780e+01 1.467360669639236903e+02 -1.734395895721644649e+02 -6.133430742657492374e+01 -5.189278936601666459e+01 -5.006923331996126336e+01 -9.980485255985151127e+01 -1.450481828700874942e+01 -6.633989942370666881e+01 6.878055077478083490e+01 -8.828364371764269691e+00 -5.609921215700634889e+01 -6.011403907909211597e+01 1.741777016760504466e+02 5.709731211903904580e+01 -1.329596413169859304e+01 2.019283812592524043e+02 -1.047547932492853988e+02 -3.414114700543816383e+01 6.473304098362309844e+01 -1.365274551321237206e-01 1.449475441856497326e+01 -1.209734011634559323e+02 1.703032497910423047e+02 -4.728743239050852054e+01 -2.597526407403139004e+01 -1.060016433777147569e+02 1.216022679905896666e+02 9.257903344554947012e+01 -7.487095383727952935e+01 -3.637830710509999932e+01 3.765187231324064498e+01 -1.462113274856369856e+02 -2.085275283176839245e-01 -7.214890737159844036e+01 7.410873273963650476e+00 -1.043703244184798109e+02 -1.530797455135447933e+02 -6.825684070347575982e+01 1.430776405573923284e+02 5.457046636746214574e+01 -8.654414421908668942e+01 8.604689958441103670e+01 3.300289119492080658e+01 8.529171048939026889e+01 -4.064904662952016423e+01 -8.111297495083307751e+01 1.650395799682418669e+02 4.015270703313393597e+01 2.791912896094972041e+01 -7.039268416460882349e+01 -4.081503394415793196e+01 9.158963059934420059e+00 -6.925225968523039732e+00 -1.666855685230055144e+02 -3.339245013442072718e+01 6.209338653521738394e+01 1.075603343079556851e+02 1.501491581761719942e+02 -1.281600014216719785e+01 8.638433379286203717e+01 1.520366985231198669e+02 6.109445621965291195e+01 1.422541520781637701e+02 1.547947944737228987e+01 1.264889143942125429e+02 -8.084736921613666993e+01 5.134469802803531024e+01 2.819662191453194922e+01 7.300677057756597321e+01 -1.022189613480757373e+02 1.905952594779407718e+02 -1.237692484631844252e+02 8.496558273651979221e+01 -1.032292464426514016e+02 4.440200748293690225e+01 1.327855781744941943e+01 8.715421563694711438e+01 -7.075801729404429352e+01 -7.254563737353693398e+01 -1.068401868875829486e+01 8.556626617070369889e+01 -2.841913464957588076e+01 -1.564087390492510110e+01 -1.884374324478355689e+01 4.543858669893653612e+00 9.414209898177340108e+01 -5.997363432823114238e+01 -2.588581940238648293e+00 -1.857260747067761315e+02 1.168460434529748397e+02 -1.195026694571162409e+02 -7.067485402117851834e+01 -2.249829929673810724e+01 -1.032975378788295444e+02 -5.084427102245609831e+01 -5.606424829498352835e+01 -1.885199726022687372e+01 1.303138939749579492e+02 5.171804734252759062e+01 9.604954718425508986e+01 -1.301930004093051139e+02 -1.325493360526575657e+02 -2.742860973171710270e+02 9.777178620162730738e+01 9.968193489809685559e+01 4.050361692891777921e+01 -4.065067082182976321e+01 -3.553478947691471035e+01 -1.757184873356581249e+02 1.397255111474764817e+02 -1.027396874448968873e+02 1.023210846553565432e+02 -1.522653630897112009e+02 -1.370416492514187468e+01 -5.297547941647563619e+01 -1.140968180814744528e+02 -4.411105374000207036e+01 -1.202156513042491071e+01 -8.867347314861702046e+01 -9.896937595290148693e+01 -1.182947448021332448e+01 6.809706347171899665e+01 -1.192114863322617992e+02 -1.496362566480429024e+01 -7.055849421239959440e+01 -1.257303035344820898e+02 6.282178059843028350e+00 9.096362946789274417e+01 1.584243277281883877e+02 -1.823023291334638785e+01 -4.406496005835393248e+01 -1.188657150340396669e+02 -1.566585411572721114e+02 9.938856496319947098e+01 -6.963264583627086779e+01 7.561345300412656911e+01 8.995892647788574337e+00 2.795798766370397814e+01 7.070793097748219225e+01 -8.119385391245133121e+01 7.920282543284119470e+01 1.104274592434938000e+02 1.509074969892356251e+02 -1.115963498728517891e+02 9.960125515650477723e+01 -4.579237808105347085e+01 -8.699838122031954413e+01 2.056309634249839178e+02 4.713259494745634015e+01 7.997825867823546275e+01 2.029622773586688211e+01 -6.066571951063406232e+01 -3.347180729594899162e+01 -2.015961791155175433e+02 1.012274861726291562e+02 7.806679355796400444e+01 -7.252950974384093286e+01 -7.003851390769628438e+01 1.391118471419933371e+02 9.683766848565282714e+01 4.898566638941357354e+01 7.287488092907642567e+01 -7.501694878661117727e+00 9.887046003353796664e+01 -9.927065486152089591e+01 1.785328494833790103e+02 -3.783199803783884363e+01 -1.169131701323766492e+02 -3.614898572228072027e+01 6.873823974668194126e+01 1.411624332523277587e+02 1.228620530850189674e+01 1.665525012816452204e+02 4.999349019443282316e+01 3.223779852590261896e+01 -1.066428493574965017e+02 4.289415709190566162e+01 -1.197393229971669513e+02 4.573151485347633383e+01 3.693960270774194754e+01 -1.182330517427658805e+02 -8.148371434070917019e+01 3.820239954849070330e+01 8.359706349505479750e+00 -2.222656210864195714e+01 4.014602120862143408e+01 -2.050926767975472842e+01 -6.044837331948731673e+01 -2.517169645337079231e+01 -2.146643649154822953e+01 -3.814891757490962476e+01 1.797237595009764277e+01 -7.717682050280171779e+01 1.139587776911940153e+02 -7.114565136502294251e+01 -3.999884841584627093e+00 6.291322107885559944e+01 3.702998984946520800e+00 1.530527813713358398e+01 1.530767279187936225e+01 -1.121983074022209621e+02 -4.217696752951092698e+00 6.231581289485435349e+01 -2.217211857477355181e+02 -8.134511813742994946e+01 -1.079527846663319508e+02 4.196614813663119037e+01 9.217125190468651397e+01 -8.792232529202610181e+01 -1.608318485256102406e+02 -1.774299967329126275e+02 1.910888649540112638e+01 -1.388053359501785735e+02 -6.064452388329993227e+00 1.413309299969090773e+02 -6.756159704865915216e+00 3.552130701046728944e+01 -9.455209199131215314e+01 7.634028449291534457e+01 -1.132620837443456878e+02 -1.475353513723085541e+01 -2.890239048829222668e+01 5.499311830834287207e+01 -8.419406078559704909e+00 1.008262273542963925e+02 -1.164763082334013973e+02 -4.776843251585523831e+01 8.267286241810118952e+01 6.305961887248079734e+01 -7.843488684048433868e+01 -5.185824392905791314e+01 -4.705640127382439886e+01 -2.756368770210614230e+02 1.842801127506213561e+02 7.239544187984472501e+01 -2.241794563807592766e+01 -2.823664846999339062e+01 3.950816100557813826e+01 -7.996356766558054119e+01 9.459712503811356044e+01 5.751557182736149798e+01 7.782413650184324183e+01 -7.990785247573944616e+01 -2.514917063469750147e+01 3.163254770397612958e+01 1.650837792381316760e+01 -4.071071538084293451e+01 1.500406281196770806e+02 -1.640364945782207684e+01 3.363667619208569448e+01 -2.182646007461852946e+02 -8.035424796737100905e+01 -6.941704353335822475e+01 2.186165675374230233e+01 1.036200454809969216e+02 -2.199950736414952814e+02 -1.775209954390749374e+02 2.103169808781330801e+02 -1.002389672177205604e+01 9.112928295171118975e+01 5.941493814913716420e+01 -5.250283261224296183e+01 -1.243073012537301167e+02 -9.029903216859081283e+01 -4.767544335077657536e+01 -3.548843525277392530e+01 -3.716310431126731828e+01 1.529345473374476683e+01 3.533383259642932472e+01 1.583614711874216709e+02 1.169770502458426620e+02 6.657605876137502321e+00 -4.193208293903116335e+00 -1.506147012569287824e+02 1.135413593503061804e+02 1.511494138081803555e+02 -9.819573843404501190e+01 6.995114919017615307e+01 1.583386546880141355e+00 5.215059096898055202e+01 1.189504797836267898e+02 6.732011080474534026e+01 -1.272211185684572428e+02 1.528268335747078410e+01 -2.789075387358283464e+01 1.057996255333344493e+01 -2.189935233144202087e+01 4.302174674914802921e+01 -2.474642777601397086e+02 1.719789908688777587e+02 6.877275490792551516e+00 1.513654853160195444e+02 -9.976129418311593611e+00 1.008149427825627953e+02 6.804122254601250575e+01 -3.985956069627569320e+01 2.847625102601282165e+01 -6.923267030252384302e+01 -8.461227309710652378e+01 -6.847678240341588207e+01 -3.048353520876950640e+01 4.294175524444645475e+01 1.047502432804648436e+02 2.706136515924413288e+01 5.916408572300988311e+01 -9.973777772688983134e+01 -1.304783666768652495e+02 -1.282963690136819856e+01 4.412503979102060470e+01 -4.321750256288558489e+01 9.005666264345325089e+01 5.288647351564495835e+01 -2.630539262218757912e+01 2.850149555040676930e+01 5.846186371283179994e+01 -6.863227175815345049e+01 -1.273243169945934739e+02 1.352637809397578224e+02 7.438658987662706501e+00 4.775413382254146200e+01 -1.422606596323233532e+02 -5.089428532325138121e+01 -4.041708475037656956e-01 -6.275650913382137475e+01 4.056657290903773472e+00 5.368636246622439501e+01 1.778071692815507845e+02 3.732584063769735394e+01 -1.045006671504177120e+01 6.895346218276911543e+01 -4.337556089634054501e+01 -1.039924544045081376e+02 -1.318725910563029515e+02 8.932181034772616712e+00 2.397302646959229833e+01 2.277282642204064089e+01 -5.432360485798404426e+01 1.153848601371879141e+02 -7.720184535937595172e+01 1.225949011880258297e+02 8.340319577293851694e+01 -6.215267298479880509e+01 -8.104271157535893622e+01 8.051088383541137716e+01 1.950094085691998558e+01 -5.023679664058123961e+01 -5.148014507755977576e+01 1.308291943201418235e+02 5.486121780044202012e+01 7.648333139359105814e+01 2.502030942727120078e+01 -4.022574093441887300e+01 1.027916146907648596e+02 -5.224176565583360343e+01 5.567109998274868410e-01 7.327237582169927066e+01 9.538573195637010826e+01 2.447748291762331121e+02 -1.678575914021572260e+02 1.541677468931463579e+02 -6.470560370925016969e+01 -1.460224476801537108e+01 -2.410669745841224554e+01 -1.987172329861729736e+01 -5.282057621633184397e+01 8.920568723197922623e+01 1.765047500056507488e+02 -1.139381658235046899e+02 2.968301184511806312e+01 -1.218070743936978744e+02 6.739509050336641849e+01 -4.269252506144385961e+01 -7.785873853325733762e+01 -5.181713637767914094e+01 3.961109694137637405e+01 1.861161256821043253e+01 -7.861673466685753908e+01 -1.356689038672992638e+02 1.997416468952964053e+01 1.516938644974898409e+02 1.375494336608172219e+01 1.757149800829286050e+02 7.177632147091541626e+00 1.297053228128792171e+02 -3.332464847495998583e+01 8.748990982991628584e+01 -6.886740231480909813e+01 -1.088716164327701961e+02 4.768157143082385119e+01 -5.594751421818551762e+01 -7.579190429348398084e+01 7.030290965255336744e+01 6.260411799254455012e+00 -9.101785451406921368e+01 -1.454562565662369593e+02 1.429280383436378372e+02 -8.617614001766568776e+01 -2.301868088468834284e+00 1.161223891889365660e+02 5.608876418422106269e+01 -9.501009614543686155e+01 1.031866537617156432e+01 2.729339699279754541e+02 5.157651633385017931e+01 -1.526778504460956754e+02 -4.622172357171832147e+01 -5.954236688042976766e+01 9.308512257286812641e+00 1.042173516412739929e+02 -1.003056985117252822e+02 2.093685483326380847e+01 1.264707988089276967e+02 1.819832886446325304e+01 -2.048660971318634552e+02 4.681282233584471442e+01 7.321364370692775481e+01 -1.319203051458308096e+01 3.179581110027615054e+01 1.798101185696149573e-01 2.190274007845617277e+01 2.690566483922189533e+01 1.123925997598282152e+02 9.514151070154768775e+01 1.518984636687222611e+01 1.445840300878194000e+02 -6.211776108877299407e+01 2.393351046301887664e+02 6.312040300457449860e+01 1.375545251754592471e+02 -2.131140907090919612e+01 8.742892757124631942e+01 -4.746149341863340254e+01 -1.420745515387841067e+02 2.538309232063670251e+01 9.217049364773222919e+01 -8.498336849525976788e+01 -1.016758925924495571e+02 -6.459317334277797329e+01 3.555603131943261985e+01 -1.108344906610307845e+02 7.250588571349193501e+01 2.720968484384251340e+01 -9.476129791272859393e+01 1.843596239927996976e+02 -1.141668378100911063e+01 -9.881556110441918861e+01 -1.303420720345889627e+01 -1.984073502157829338e+01 -1.361274255886329172e+02 -3.884690736756225249e+01 5.972587313698286948e+01 1.279685436104038132e+02 2.820786886350702005e+01 2.595588211936855672e+01 4.348374146142337793e+01 -3.466311846265554664e+01 -1.413947575765364491e+02 1.544510028982570660e+01 3.004106823726759856e+01 1.292643685953657950e+02 -9.585758290040306662e+00 -7.390926817781569014e+01 7.107236309410050978e+01 9.400983838018304173e-01 3.085465420523208735e+01 1.351614122380003096e+02 -1.723112301227785679e+02 -9.017388302061881689e+01 1.211251713182369940e+02 -2.035574078531651026e+02 -1.735253826674637310e+02 8.590423630200950811e+01 1.453030424995517080e+02 5.985468118464748954e+01 -4.233396019880264483e+00 1.469193234684056222e+02 -2.071579556028557079e+02 1.011071315442112706e+02 3.998379665645202863e+01 1.198992822885528682e+02 -1.779453197943392411e+02 1.004573648414886264e+02 -2.661747324697251926e+01 -1.261408297893303825e+02 -5.020226720489675110e+00 -8.716800510698143967e+01 -1.527792044563705431e+01 -4.121684859113392996e+00 -1.162415963633704763e+02 -1.163579762546338827e+02 -5.902983258250696252e+01 -1.216212129352808375e+02 1.896273160849126214e+02 -1.520518931929838971e+02 -4.735355983977675010e+01 1.628046964467052931e+02 3.201885443102876394e+01 -2.792920382469333731e+02 -1.199738303238407013e+02 3.348965234121255463e+01 5.158375151582703211e+01 8.039541516877527272e+00 -1.458528045793172510e+02 3.367044310475263558e+01 7.094681710918491646e+00 -7.013523507868524121e+01 1.913034753987954275e+02 1.911259493918342685e+02 4.108577673587515022e+00 -1.967871732357720873e+02 1.188623581386595163e+02 2.900620663326672855e+01 3.615694784950302054e+00 7.224590949238194071e+01 -1.957849715894041651e+02 -1.302193498529324529e+02 1.330448694664992502e+02 1.034685052957658513e+02 4.990564134365922655e+01 1.350777864557999806e+02 -1.681998346815737477e+02 -1.932065839222644854e+01 -1.230268936078192183e+02 4.122458652973006110e+01 -9.801341368071005888e+01 8.216499386416397499e+01 -3.202085615862970513e+01 1.168721316666974808e+01 1.674286432548626351e+02 2.695479751193347084e+01 -2.486914149036668675e+02 -1.192671503002311084e+02 -7.863186116824311966e+01 1.491838964592774914e+02 1.183400602175644245e+01 -5.087040607095659794e+01 2.858995464403384545e+01 5.894571560618256711e+01 -3.730230073175365391e+01 1.014397859097434775e+02 -9.506209749100382567e+01 4.643493123456053695e+01 1.056152021519244215e+02 -3.354030625431754942e+01 -9.258640689542183111e+01 -1.070709188621887762e+02 1.130014988642854945e+02 -4.688736888292883265e+01 1.854535099511026033e+02 5.397592609525762697e+01 1.046756608344239794e+02 1.741222351063210283e+02 8.070734936395314918e+00 -1.173055599905078026e+02 -1.563541427862649869e+02 -1.077098551886433171e+02 4.012174740055055366e+01
-1.251478612456036288e+01 -4.476980151544784903e+00 9.541569489443172358e+01 -2.110960084681785816e+02 1.432384964917973207e+02 5.849873642685219721e+01 1.402223964792811728e+02 -1.190460432557992760e+02 -2.542271590235993362e+00 -2.216693544693331930e+01 -2.022873249665556727e+02 3.013035745074429528e+01 -1.687801821259503043e+01 1.127256119043277636e+02 -1.153156580318597975e+02 5.687572288896827644e+01 1.154361677027413720e+02 -4.235618654817777440e+01 -4.566766415644472943e+01 -2.483835879774992961e+01 5.689910509201917677e+01 5.809634173206492846e+01 2.989929274177517726e+01 -2.142397649407797928e+02 -4.748729090603211489e+01 8.438810782136955879e+01 9.139632027846706919e+00 -9.575975351820122938e+00 -6.128962958183821286e+01 -1.429998775409331735e+01 6.757613079382929300e+01 -1.339748965353277015e+02 -5.710661392835817907e+01 8.254882347668155873e+00 1.912961370233381899e+02 1.954010638923794545e+02 -2.964504069595950497e+01 5.149017796325291840e+01 -2.327632961824745716e-01 -1.286534837002168956e+02 8.841399614531135853e+01 9.877489026657194415e+01 9.997033842788894731e+01 1.074938345230718006e+01 5.700292955859541877e+01 4.432777511280406202e+01 3.581339741574060298e+01 2.706787666975499107e+01 1.015945832770614317e+02 8.263665730287546296e+01 6.040237519827947921e+01 1.501755145608513828e+02 2.283624435866406941e+02 1.802013189291404842e+02 -5.448955638154722436e+01 4.539060269354321520e+01 -5.919202023472537633e+01 5.193464267686233882e+01 -1.770939740895656485e+02 5.205019250798451225e+01 -1.886135609142868361e+02 -1.554436899012085291e+02 1.193790536205275998e+01 -8.547627241087736749e+00 1.561664912285793037e+02 -1.916358797134109295e+02 6.934416599983902074e+01 2.117890419052979496e+02 -6.835688710097453047e+00 -1.795240101050047770e+02 3.271341382262542652e+01 1.816638651755204137e+02 -5.631343195199919904e+01 -2.456610691338434833e+02 -9.451196162080887575e+01 8.238181302513206461e+00 -2.120331426350112167e+02 2.960144306371863010e+01 -1.653907975628101781e+02 -1.710136997860028316e+02 -5.273550631240489395e+01 1.404940614595273018e+02 6.400327852526916672e+01 9.795507768267139426e+00 -8.178316929985049910e+01 -3.927828488096178461e+01 5.876435922384009558e+01 -2.141302363893796610e+02 4.989509409211889590e+01 -6.909434536712583963e+01 -7.210253699436010777e+01 -1.631010393499177837e+02 5.997237667509148196e+01 8.550145325462749213e+01 -1.497474343579131357e+02 1.594522828277366102e+02 -3.678539801375649887e+01 -1.561628174761058396e+01 8.091756970948580374e+01 1.443042682386027877e+02 2.009468555080977481e+01 1.398040285444513131e+02 -1.710071934838199681e+01 -8.372684167428118940e+01 -1.809301491446173316e+01 9.328764713202060932e+01 4.269457142912995096e+01 9.287566248572790073e+01 8.959510937597070779e+01 -7.890743680937565330e+01 -1.613186359418180587e+02 1.168217392934794816e+02 5.149324914802959086e+01 1.544439716885561964e+01 2.902360312085602345e+01 -6.449545798410426301e+01 9.117843474728032049e+01 8.534660919376750599e+01 -1.305850083989039589e+01 -6.767845665609367245e+01 2.913046560045034994e+01 5.974432142169401772e+00 -5.837537722952718866e+01 1.610925126748902017e+02 -3.110484074172675761e+01 1.155112720685570338e+02 -6.657812220868825648e+01 3.647205787552034906e+01 -3.425037538744095400e+01 8.503809296051302624e+01 2.229636122166568057e+01 1.098404726903973909e+02 -1.102847885012498494e+02 7.066184279845548133e+01 1.173385695489282625e+02 -4.246852711324518026e+01 7.297006760454321395e+00 -1.218923347438370541e+01 1.110786763288013788e+02 3.512299971422588207e+00 1.603006743512038668e+02 -1.344749439471550545e+02 1.109141191198732486e+02 -8.678148562248432540e+01 9.114751484679312910e+01 -1.303791414747491615e+02 2.806693733148246750e+01 2.355920995871895229e+01 1.678728164540988832e+00 3.455488084870545151e+01 4.381173655565959990e+01 -1.176289008203944064e+01 1.040568791126966097e+01 1.028861784224712181e+02 1.211049375111150681e+02 -8.256078424162963358e+01 -5.155040864264466194e+01 4.504008429305518746e+01 1.433612369293528754e+00 -1.304543318916954604e+02 -5.253147557323975292e+01 -3.370263636634543758e+01 4.655545639068306230e+01 -6.239228025085689922e+01 2.181622936569617366e+01 1.528082419023862712e+02 -7.569768036611129958e+01 7.706196570920080546e+01 8.011098812788377188e+01 1.077128817960554663e+01 1.177059409953105842e+02 5.996509934710411471e+01 1.602727930124845841e+02 -3.304837199925033531e+01 1.072665493186966046e+02 5.303023322577239185e+01 -1.532279722114384057e+01 1.948758690034642598e+02 -1.325012842517263039e+02 4.670299133076230902e+01 -1.791904267983827026e+02 -8.041251199086315182e+01 3.923368047160029448e+01 -6.902861609174853186e+01 -1.489256392617386382e+02 1.905935648604329060e+02 -8.202577721386366250e+01 -4.542500412641508944e+01 -4.425820537853631009e+01 1.164592888615457156e+02 1.863107147533329169e+02 6.193828264623925151e+01 1.399157823141082702e+02 2.099972670133845156e+02 -1.516438394167916037e+00 1.558295192707005583e+02 6.782352500803351347e+01 1.821865620797075564e+02 -1.203996515419737108e+02 -1.130903688820527009e+01 6.092767485143656181e+00 1.817428488023015234e+02 -8.691887915192067737e+01 -5.794283345526694262e+01 -5.064483260228661976e+01 -1.282846526814919628e+02 4.475135351751041490e+00 -9.657404855963368107e+01 1.475680116629361578e+02 2.251953110642162414e+01 1.146356346107581103e+01 6.918989903176678524e+01 -4.688564794952778669e+00 1.119913089503090475e+02 -1.520584294016351805e+02 4.348423046186141505e+01 -1.634138171103623449e+02 1.123715092529848221e+02 9.200101079791396330e+01 -6.437354647004356423e+01 4.480535599897969234e+01 2.279005379534048075e+02 -2.917378958527804045e+01 3.985368506508370956e+01 -3.127863634469523646e+01 5.545579642381614605e+01 6.148373061513258619e+01 -6.021659552978912977e+00 9.748848918328383206e+01 9.705197213278115953e+01 -1.855019927598835352e+02 -1.466197813053888979e+02 -1.146854956878664211e+02 -9.007497281705948211e+00 -1.432765239683294851e+02 1.105585772782474265e+02 1.055426130848212694e+02 5.646872609771268259e+01 1.068407584099067975e+01 1.508378737189200933e+02 8.032012791118755501e+01 6.459420585256798120e+01 -9.716773386822220004e+01 1.458504197961405282e+02 -3.461592549326833357e+00 1.046249222338456661e+02 8.441778279067206014e+00 3.514282574365821432e+01 -7.237267253268841216e+01 -8.676817898657465378e+01 6.846389885317620383e+01 -3.711132710009809710e+00 1.397621172393158133e+02 -1.199657094076046349e+01 -2.712389267484249356e+00 4.383930191729078985e+01 2.161985496823010422e+01 1.351744760840181527e+02 1.407029092857149521e+01 3.427435423654767277e+01 -1.478018318652485448e+02 6.287324821662664220e+01 1.276697367056268462e+02 -1.676753892724161332e+01 -2.177427746364228938e+02 8.058267650048159680e+01 1.299289381647273842e+02 1.945871270003630471e+01 1.802101688158518868e+02 -4.111867214793564429e+00 4.082604912248869766e+01 -4.155614579282472221e+01 -1.319100889205879525e+02 5.332267635208152967e+01 -4.517060511083896301e+01 -7.698948217029949603e+01 3.919916443196431999e+01 -1.756016200481777503e+02 6.805412718877128952e+01 1.562651708199032043e+02 -9.614340100288784186e+01 1.643325768260062318e+02 -9.264921830365037181e+01 -5.651306795994359256e+00 -1.002267517506635031e+01 7.276378843244143013e+01 -4.426152188198922488e+01 -1.022330362187837949e+02 -8.405775053222478732e+01 1.382702774340151564e+02 5.605190990145602115e+01 -1.250075457984007130e+02 4.177750207144770300e+00 4.112576507399298720e+01 7.821455696070772490e+01 -3.820294247950924671e+01 5.676797598267744860e+01 -6.532592040698887104e+01 -1.536926932800611212e+02 -3.278225292376125566e+01 1.334514984571098353e+02 -1.073854988834057451e+02 -6.030797243572100896e+00 -1.541201783651627579e+02 -4.614442654048992232e+00 -1.380613369893065965e+02 3.119453664962960460e+01 5.701665306080064965e+01 -4.760860074570079803e+01 -7.790374337074518962e+01 5.341519155230473714e+00 7.037276853366212492e+01 -6.408702470370764104e+01 1.273254455880133662e+02 9.982723182105259241e+01 -1.206549424639341197e+02 -9.968510389876563238e+01 1.276486462952539398e+02 6.735871776008330869e+01 1.419112169492779572e+02 9.438884946754248517e+01 7.660828087954349996e+01 -5.692325673971241429e+01 -7.715596702598499235e+01 -7.271548249996148172e+01 1.929785085131725566e+02 2.890554664476691826e+01 -2.351634630689556360e+01 -6.457915983005504756e+01 -4.704921433225521810e+01 -1.237524492951641832e+02 -1.550561766504436001e+01 -1.648783101854142501e+02 1.174665900560200242e+02 4.317952221666448054e+01 -1.082303646297146429e+02 -4.548566196993521515e+01 1.124806751710462720e+02 -9.101908304880717537e+01 9.661391415143278039e+01 -1.113106206555436586e+02 -1.107038349047808978e+01 -8.971439614508066995e+01 8.431713106496425780e+01 -3.988966413872321937e+01 9.611299795637812338e+00 2.758209264613633138e+01 -1.189287488933910026e+02 1.173531736300778228e+01 4.544678829461868474e+01 -2.095964480288925813e+01 -6.455100306279356914e+01 1.902724580526244438e+02 8.119034703860810964e+01 4.420873928445374901e+01 -2.948565128610448127e+01 7.528581769949792601e+01 1.573658338744442062e+02 -8.656286484347121757e+01 1.966775977611332564e+02 -1.249647440531874736e+02 -1.726323706142620438e+02 1.424552278414355442e+02 -2.196513147958483785e+02 -8.671554569318757899e-01 -2.299319599538946761e+02 -1.434937468584316491e+02 6.738475415679609171e+01 -1.366547589177580448e+02 5.478193244760714009e+01 1.032515323181915505e+02 -1.504754152118175341e+02 -2.822480291493973326e+01 7.080388432496442874e+01 1.256916363042129916e+02 -1.747353512525740200e+02 8.215379929238550005e+01 -9.197273725352124529e+01 -9.232300227591144548e+00 -1.298546085076726797e+01 -7.467498729670553814e+01 -8.473675177814389770e+01 1.702563525029838729e+02 -2.040034269187220417e+01 1.278491189493474733e+00 1.222887681103466377e+02 -8.147297310090043254e+01 -3.233438598445622603e+01 -1.011700436410815627e+02 -4.585468733057358293e+01 4.819216624442870689e+00 5.575909408692371017e+01 -1.269977442220124146e+02 2.231132683026914094e+02 -5.069463363916228360e+01 1.153975201567749025e+02 -4.596838144602490672e+01 1.127751711917398580e+02 1.311259532919788171e+02 4.513846289685684354e+01 1.149997304994402185e+02 -4.073710562648403055e+01 1.319227908045794493e+02 -1.475471377785288496e+02 -6.165809387450455148e+01 -5.937130227106388247e+01 2.414076500110764556e+01 -1.530295406426621696e+02 6.839844844558088255e+01 -2.908977058549634620e+01 -7.793765715317499598e+01 8.446996213362720596e+01 -1.425209412796330923e+02 -8.605895711013188532e+01 -4.968982203137417031e+01 3.118782479308718436e+01 1.224236212579010186e+02 1.101712288539181372e+02 6.514638896395713630e+01 -1.445243611162230879e+00 1.650100864865733570e+02 1.155709597044710506e+02 -8.914906419306980467e+01 -7.364889214987087485e+01 5.188353422367266887e+01 9.358015144368943439e+00 9.241412437474717478e+01 1.573188184774352578e+02 6.659832743190619908e+01 2.308896686007645371e+01 -9.643301632241177401e+01 1.619858204605076537e+02 -1.071879536975045966e+02 -1.558508084991597968e+02 6.198940343859788271e+01 1.051527652382179383e+02 1.854267761406585890e+01 -1.309101410599025428e+02 2.799303089935157018e+01 3.996148266391546144e+01 -3.685622697472805132e-01 1.234209930353551812e+02 9.223465932211632889e+01 1.613089917121974182e+01 7.382184384397181987e+01 -1.007213307031544645e+02 -6.030176131148627050e+00 9.266529284586677306e+01 2.797997932586103786e+01 -6.125120683749844375e+01 1.865822289673065484e+02 2.176881726330652498e+02 -1.181283298950747849e+02 -2.603761579911652646e+01 -1.978632067679842237e+02 -6.795965902930311131e+01 1.473599679205053121e+02 3.143459912386681321e+00 -6.682612124637773832e+01 1.541194288241504466e+02 -5.879060488199138490e+01 -1.511676068862449540e+02 1.285200290161671433e+02 -6.319888974987605224e+01 3.251501936753099642e+01 8.120888208694417187e+01 1.298580872356965621e+01 -2.241599519461073271e+02 3.983814629782438743e+01 -5.833723147341343562e+00 8.479724230701148713e+01 -2.217188767001560379e+01 9.506262159438713866e+01 1.600812388764995120e+01 -7.961157921619739852e+01 -1.927603083962134534e+01 -1.648452664284455977e+02 1.081341441663040968e+02 2.378940568212661688e+01 -3.913075776619577795e+01 -4.870803461541061097e+01 -5.920664767481883217e+01 3.870005319647768971e+01 1.511443212718045288e+02 1.247918889380761698e+02 4.046332679858352321e+01 -1.860948183877144970e+02 -3.648804441518876018e+01 4.122346670144101921e+01 1.103202823361013856e+02 8.196834722825590802e+01 1.450467912834647954e+01 -1.749212453009485841e+02 1.237930423470996715e+02 -2.104007944683123696e+02 -1.935448767288496583e+02 -1.705269327910364563e+00 -6.936490322501271066e+01 -2.271386079311615092e+01 8.191568520851062374e+01 5.258179075030933092e+01 -1.045402716630320867e+02 -1.424557914010438537e+02 1.370150606121770487e+01 1.163102297900699114e+02 1.941190473347882062e+01 -5.332669338140441084e+01 -4.860262336008556616e+01 -1.096475998258181761e+01 1.517528976950156334e+02 2.102175173486227777e+01 -1.663529156852118547e+02 1.229205014103804956e+02 -6.401615400575525427e+01 -3.994010667257051672e+00 1.474360924172474938e+02 -5.003248831957553477e+01 -1.876877017256549962e+01 -1.051753365424585951e+02 -5.738117599612920117e+00 -2.282232594904060363e+01 1.260416682980271901e+02 1.149294272863212854e+02 6.470279597394687698e+01 6.268704376422373059e+01 -1.790542847988850284e+01 1.293709611967455260e+02 -1.079832119626977942e+02 -4.066213460247832145e+00 -8.717072255183352070e+01 1.503526460246330601e+02 6.981225524246879388e+01 4.944353827378839128e+01 7.880712764058123376e+00 -5.105006630059558859e+01 3.291170715107534761e+01 6.419346396550378309e+00 3.538088707049217074e+00 2.305723845469597677e+01 5.721968757369505454e+01 1.629867631814311153e+02 -3.722581979139915376e+01 -4.973892174252364384e+01 6.394288141330612518e+01 1.107101382273524450e+02 -1.227245081029293239e+01 8.804355204594409656e+01 9.968867430914028205e+01 2.018030065610078623e+02 -8.282814271392686578e+01 -1.174013216803276549e+02 -2.742576420496831702e+01 5.952128202733607054e+01 -9.714889045682610913e+00 1.027991839797708451e+02 3.566153994676795236e+01 -1.556292165208761276e+02 4.311025082476901105e+01 -8.560395394542339886e+01 -1.294526649101363205e+02 1.286985983253982795e+02 -7.278244811982138174e+01 5.664408616477485481e+01 1.063122280116708396e+02 -9.466089206703851744e+01 2.249992434108462547e+01 -6.898805543831345233e+01 3.854629586324629287e+01 -1.096683121856896150e+02 5.892382381380776479e+01 5.229935844560522185e+01 3.668815981624508726e+00 8.030414362947408335e+01 -1.461036012190582198e+02 7.298449972330192281e+01 -2.805756757277720936e+01 -1.603173330158490728e+02 8.970970525918755811e+01 2.331655550784984854e+01 -1.860696711648992618e+02 2.232978872046424499e+02 -5.160353868138097821e-01 9.978178734993070975e+01 -1.144288752530245432e+02 -1.842710033344861813e+02 -8.855306037818874643e+01 2.389276659719736795e+00 1.355493244510673776e+02 3.735462882701565235e+00 -9.070096260576040947e+01 4.774713454814567370e+01 1.300375957315850997e+02 6.163005734930495549e+01 -4.906206753729041026e+01 -5.612994720655041903e+01 8.018205683895315872e+01 2.912702004284454915e+01 -1.856173424103739649e+02 -1.966878831061387700e+01 1.603762134297943476e+02 9.372075199244707733e+01 -5.442161566517167159e+01 -1.060891365544056697e+02 -4.048324620671924379e+01 -4.562489657707513402e+01 -1.085957274933187051e+02 -1.746692728227900204e+01 -4.332113908876091557e+01 -1.078154471895711168e+02 -1.252112300876445943e+02 -2.559948775277206678e+01 -1.192679382829226427e+02 -1.270335032094627223e+02 -3.637311087364064122e+01 -5.248387804829018677e+01 -1.053774496840654535e+02 1.829783979057935994e+02 1.033658453953191270e+01 -2.764291233789352376e+01 -1.670138284789066319e+01 7.732834141301778175e+01 1.538876146523250554e+01 2.461946339987591159e+01 -2.085077410008964449e+01 -4.552943247464758514e+01 2.054702017101048384e+01 -1.429144292126866560e+02 -1.564574831417203882e+02 -8.880545229540442165e+01 -1.875865670641390182e+02 -8.806788801383976306e+01 8.427294431539002062e+01 6.034573865126183989e+01 -2.559610343693211476e+01 5.972627723898451535e+01 -1.539260673793060334e+02 -4.021888408570598017e+01 -1.141723943718422873e+02 -6.560205591758143839e+01 2.074218831902691420e+02 -2.017777623038962247e+02 2.017511183920564690e+02 2.451798937591907901e+01 -5.546391424382827040e+01 9.060055842418510963e+01 1.219552482555363184e+02 -5.099633219562820585e+01 -2.003067469033499606e+02 -1.465439859429334319e+02 1.005451940494869518e+02 8.232376866219628653e+01 -1.332362982413008865e+02 3.137397824656624579e+01 -3.902521812729141004e+01 -7.608062374874826617e+01 -2.794384979923913548e+01 -5.386784761956167955e+01 -8.493111509523328095e+01 -3.349508903251623337e+01 4.471849383817217749e+00 -3.207681289888480336e+01 -3.489830638944952934e-01 -1.404981464511245370e+01 9.034565338195869799e+01 1.249642648614883171e+02 1.292881823633022620e+01 1.652380128428723793e+01 -6.208673192088734538e+01 -1.927442083410612668e+02 3.326691133120831978e+01 -9.013854341287901661e+01 2.540835968606670647e+01 -7.955535257155322171e+00 1.062612943371354257e+00 7.118929999350791604e+01 1.198212309440089456e+02 -6.929928379629460267e+01 3.735136178360250625e+01 -1.896503761420195531e+02 9.531459522812204099e+00 6.782771740683842587e+00 -1.204839249078159042e+02 -3.312665432663280995e+01 -4.357401543097289931e+01 4.677579082290998613e+00 -1.004943561840585176e+02 2.658634582402671143e+01 -9.597247912630331257e+01 5.506804481294332732e+01 6.672982585577410930e+01 3.627935848503210536e+01 -2.851855341269926569e+01 1.056597191594628242e+02 6.006943279809974712e+01 7.864391492103690950e+01 -6.587132452887742318e+01 1.988425789103415653e+01 1.256714621916138555e+02 -5.749807221256465795e+01 -6.801849381083481916e+00 3.142815397881356887e+01 -1.262114100960561416e+02 9.609465981022708547e+01 8.801250184767999940e+01 -9.942786683166087869e+01 -8.089874313992561383e+01 -5.456832594222091615e+01 -4.486202535046177786e+01 -1.573605593544230032e+02 -1.334723275195974566e+02 -1.301346738092009332e+02 1.037731751213140825e+02 5.874920021609290899e+01 1.566695597091052718e+02 7.082088940765970619e+00 -8.410556236937890162e+01 1.842795801584815152e+01 1.357125691504024267e+01 -6.241814826131050609e+01 7.268221074317074226e+01 1.158629582918357386e+02 9.758819138411519489e+00 1.406450668198267238e+02 2.205665138007371695e+01 1.088420991205151012e+02 1.477141301002165186e+01 -2.038315332926457586e+02 2.142047040277894610e+02 -4.799656716693702663e+01 -1.461716193491381262e+02 -6.588891589764278933e+01 -4.199671684685679907e+01 4.044477214561458567e+01 2.499210439394841643e+01 4.467278548001081617e+01 -7.225489487924379262e+01 1.193615291233026170e+02 -8.411353960024665355e+01 -6.837823558318367745e+00 1.387654308613349770e+02 1.067393325738715646e+02 5.653292062455675193e+01 -1.723511929582429332e+02 2.475197613830831855e+01 1.365788216412251757e+02 2.277997320985746299e+01 9.487798987720402977e+01 1.034160233751440501e+02 -2.054736063704388016e+02 7.470153343558874326e+01 -5.606687875068109861e+01 -2.183082347894188047e+02 8.584173315429518425e+01 2.380108572068790096e+01 -1.177323380390276384e+02 -5.641654647069645279e+01 1.335073263852015373e+02 1.418042555737232817e+02 -7.282711772148918783e+01 -1.225306635562749875e+02 -7.989146059915263720e+01 -1.586555507779923744e+02 1.871380120699456384e+01 3.625798698140103227e+01 -1.624068727662312384e+01 -1.181056656127571358e+01 -8.529436916928366941e+01 -8.401572254258626060e+01 -2.345597899384314289e+01 1.269489464332046964e+02 1.289374856750942797e+02 7.672880201829086388e+01 9.180412596530830172e+01 -7.412856966934664626e+01 -1.704284623430370686e+02 -1.242446184701320178e+01 -2.175626102986726806e+01 -6.689933685779384120e+01 1.392096406203755077e+00 6.875697035603626261e+01 -4.979901639992162643e+01 2.327825688121257741e+01 7.454194289914561011e+01 6.599215823475296361e+01 1.040665452439016150e+02 -1.403884262873529849e+02 3.730187779782058044e+01 7.841690570289034667e+01 8.918817060508098393e+01 5.556713161674218071e+01 -9.716456903373281762e+01 1.288684340681758442e+02 1.200003995067727232e+02 9.022327566955476641e+01 9.557141939154101351e+01 -7.925315150756775040e+01 -1.398028828418010860e+01 -1.219729172462044531e+01 7.250032552182335621e+01 6.115725331454044778e+01 5.274385691108562924e+01 9.181744155024040310e+01 1.096719951797105637e+02 1.166966681142001363e+02 -6.100031002766348109e+01 7.588085634930322954e+01 6.138886288045249273e+01 -1.107508415874456631e+02 1.238779615466776249e+02 -9.429575786369445822e+00 -2.629765023610342212e+01 1.876879036736261810e+02 8.336824376476889142e+01 1.169320782311899336e+02 -1.360125602999076193e+02 -1.487059308903144199e+02 -1.448121402784877034e+02 -1.151334556554242425e+02 -4.175078735058113466e+01 1.034849574770338592e+02 -1.591012022126270153e+02 3.065344561519728117e+01 1.361972007818797863e+02 -5.602470269818957149e+01 -8.621576784827934148e+01 -3.318136434291956505e+01 1.282750326115333337e+02 2.146581553808813396e+02 -6.303253476301057390e+01 1.873469989062366281e+01 -2.614665263538353202e+01 6.474199791137702675e+01 5.692949916774536234e+01 -2.016017429441777153e+02 -8.384937045877224193e+01 1.301315850009369797e+02 1.322191316415348012e+02 8.942393881897591257e+01 -4.716661405219177539e+01 -7.169966719708894232e+01 -4.292573285110162828e+01 -1.671303854183535975e+02 6.731407883882000931e+01 -2.426791311285908037e+01 1.574907769391418526e+02 -2.646235875147306871e+01 -2.979113735131487601e+02 1.371683940108986803e+02 4.752963679705635514e+01 -1.116884574226754552e+02 -2.102288300086295791e+01 3.342829723059878688e+01 -1.967346286926672860e+02 -1.082268825288811485e+02 -1.038914377139108041e+02 -5.340656345505914970e+01 5.947156955888510055e+01 -1.562085040166179510e+02 1.022133422679150385e+02 -5.147695624213506704e+01 2.781295590352678371e+00 -1.264360692099613033e+02 -9.827913006614390667e+01 1.666563098576232562e+02 8.214706632361362892e+01 -4.003033047985832127e+01 3.519925232783075586e+01 -2.658117215307571612e+01 4.108498466070101784e+01 -9.919638321614840493e+01 9.382967653103078476e+01 4.786893103533977722e+01 -1.127406606236007036e+02 1.107119590145065189e+02 -4.656001969810370156e+01 9.474118767650703887e+01 -4.684346764053159973e+01 8.380568836717311854e+01 -1.454908015675910633e+02 1.354019309439873382e+02 2.348452615061241033e+01 9.551261302977060552e+01 1.237526098075635019e+02 -1.391626889573016115e+02 -8.151995510168505632e+01 -1.002490105759072776e+02 6.345170226901040422e+01 -1.626307289051252098e+02 1.438676643061100151e+02 1.351007236717646549e+02 5.027826275612205364e+01 -8.059272290877065359e+01 5.418024501093580625e+01 -1.019214495973857595e+02 -1.036076325795984765e+01 3.319148161770908700e+01 -1.744589404105114738e+02 -7.743592782337064762e+01 -1.285130432905577180e+01 9.702686006543868302e+01 -4.769797214189334511e+01 1.033077505441575141e+02 -6.108460999286857174e+01 -2.002122212469095928e+02 -1.017306957885623433e+02 -3.230817692151849485e+01 -5.716688061920103081e+01 2.857699868777972441e+01 4.888594847826662715e+01 6.013043223341347776e+00 2.416655378757350192e+01 -1.115804755659203096e+02 5.124713999808940912e+01 3.103383769865634179e+01 -6.858843610579373262e+01 8.838709182933779829e+00 5.365124700929202817e+01 -9.073218949497211838e+01 -5.242088066225486642e+01 -2.301107566845366392e+01 9.281494368512505844e+01 -1.630160050408106542e+01 3.993705805785128238e+00 -2.171218939334072786e+02 -9.041918026809489106e+01 9.417660283734331017e+01 -8.483745910961719972e+01 2.982348017395384687e+01 2.955813364955310618e+01 3.606258015989616439e+01 6.290233599344991688e+01 -1.689371819548925089e+02 1.370891152864305980e+02 7.767589683119744848e+01 -7.190165765029317591e+00 -7.693563078990536042e+01 1.064921350093052865e+02 5.913340061242526957e+01 -1.915421370849018956e+02 -4.796280101487302971e+01 -7.782815379971177094e+01 -4.931671868293485517e+01 -5.893942320888825037e+01 -9.426660459342036802e+01 -5.747714586456548602e+01 1.824335976501493519e+02 -1.626011107612536648e+02 6.234403380396838656e+01 2.642969566216324750e+01 -7.162589700808428006e+01 9.911535295432580384e+00 -3.757566793373040781e+01 3.281365517795979070e+00 -9.160166658261935879e+01 -1.882229211013906820e+02 1.752515000197404760e+01 3.990103913360182020e+01 -1.218726850342429735e+01 -8.510402159674445244e+00 -3.789514074291023604e+01 -1.809053462473955847e+02 -2.917460573675766966e+01 -6.226095891216590417e+01 1.326305540149230033e+01 -1.488270367582365239e+01 8.633855610902803335e+01 -6.006652985748183227e+01 -9.878724950011884687e+01 -3.399051966091093391e+01 -8.538421461728150419e+00 4.326747291141592200e+01 -2.106443521512847639e+01 -7.038317281549453241e+01 -1.513923086861167988e+01 1.908879700179303995e+01 4.526816865906442899e+01 -1.086151017695864027e+02 -1.324876925084967070e+02 2.195524121424053590e+02 -2.080677956008090632e+02 -7.235501160842042623e+01 -4.413798069327101103e+01 1.332945862876429146e+02 6.031159851317438836e+01 2.182601377528036721e+02 2.333345605819886259e+02 -5.946327487403073064e+01 1.233846365675880890e+02 -5.345500760318967082e+01 -3.892351611910327591e+01 -9.590607681005626262e+01 -7.611119912322827474e+01 -6.628263110357617904e+01 -8.488752319690836146e+01 -2.324253741171076513e+02 -2.581984899952304886e+02 1.283902642309846271e+02 -2.531235326257598928e+01 5.079184305304384139e+01 1.248409835247217217e+02
