# 
#                 ----------------------------------------------------
#                 Data from a 3D direct N-body simulation. 
# 
#                 rows are i-particle; 
#                 coumns are :mass, tag, x ,y, z, vx, vy, vz, ax, ay, az
# 
#                 NTHU, Computational Physics Lab
# 
#                 ----------------------------------------------------
#                 Time = 0.6000000000000003
1.000000000000000000e+00 2.000000000000000000e+00 3.000000000000000000e+00 4.000000000000000000e+00 5.000000000000000000e+00 6.000000000000000000e+00 7.000000000000000000e+00 8.000000000000000000e+00 9.000000000000000000e+00 1.000000000000000000e+01 1.100000000000000000e+01 1.200000000000000000e+01 1.300000000000000000e+01 1.400000000000000000e+01 1.500000000000000000e+01 1.600000000000000000e+01 1.700000000000000000e+01 1.800000000000000000e+01 1.900000000000000000e+01 2.000000000000000000e+01 2.100000000000000000e+01 2.200000000000000000e+01 2.300000000000000000e+01 2.400000000000000000e+01 2.500000000000000000e+01 2.600000000000000000e+01 2.700000000000000000e+01 2.800000000000000000e+01 2.900000000000000000e+01 3.000000000000000000e+01 3.100000000000000000e+01 3.200000000000000000e+01 3.300000000000000000e+01 3.400000000000000000e+01 3.500000000000000000e+01 3.600000000000000000e+01 3.700000000000000000e+01 3.800000000000000000e+01 3.900000000000000000e+01 4.000000000000000000e+01 4.100000000000000000e+01 4.200000000000000000e+01 4.300000000000000000e+01 4.400000000000000000e+01 4.500000000000000000e+01 4.600000000000000000e+01 4.700000000000000000e+01 4.800000000000000000e+01 4.900000000000000000e+01 5.000000000000000000e+01 5.100000000000000000e+01 5.200000000000000000e+01 5.300000000000000000e+01 5.400000000000000000e+01 5.500000000000000000e+01 5.600000000000000000e+01 5.700000000000000000e+01 5.800000000000000000e+01 5.900000000000000000e+01 6.000000000000000000e+01 6.100000000000000000e+01 6.200000000000000000e+01 6.300000000000000000e+01 6.400000000000000000e+01 6.500000000000000000e+01 6.600000000000000000e+01 6.700000000000000000e+01 6.800000000000000000e+01 6.900000000000000000e+01 7.000000000000000000e+01 7.100000000000000000e+01 7.200000000000000000e+01 7.300000000000000000e+01 7.400000000000000000e+01 7.500000000000000000e+01 7.600000000000000000e+01 7.700000000000000000e+01 7.800000000000000000e+01 7.900000000000000000e+01 8.000000000000000000e+01 8.100000000000000000e+01 8.200000000000000000e+01 8.300000000000000000e+01 8.400000000000000000e+01 8.500000000000000000e+01 8.600000000000000000e+01 8.700000000000000000e+01 8.800000000000000000e+01 8.900000000000000000e+01 9.000000000000000000e+01 9.100000000000000000e+01 9.200000000000000000e+01 9.300000000000000000e+01 9.400000000000000000e+01 9.500000000000000000e+01 9.600000000000000000e+01 9.700000000000000000e+01 9.800000000000000000e+01 9.900000000000000000e+01 1.000000000000000000e+02 1.010000000000000000e+02 1.020000000000000000e+02 1.030000000000000000e+02 1.040000000000000000e+02 1.050000000000000000e+02 1.060000000000000000e+02 1.070000000000000000e+02 1.080000000000000000e+02 1.090000000000000000e+02 1.100000000000000000e+02 1.110000000000000000e+02 1.120000000000000000e+02 1.130000000000000000e+02 1.140000000000000000e+02 1.150000000000000000e+02 1.160000000000000000e+02 1.170000000000000000e+02 1.180000000000000000e+02 1.190000000000000000e+02 1.200000000000000000e+02 1.210000000000000000e+02 1.220000000000000000e+02 1.230000000000000000e+02 1.240000000000000000e+02 1.250000000000000000e+02 1.260000000000000000e+02 1.270000000000000000e+02 1.280000000000000000e+02 1.290000000000000000e+02 1.300000000000000000e+02 1.310000000000000000e+02 1.320000000000000000e+02 1.330000000000000000e+02 1.340000000000000000e+02 1.350000000000000000e+02 1.360000000000000000e+02 1.370000000000000000e+02 1.380000000000000000e+02 1.390000000000000000e+02 1.400000000000000000e+02 1.410000000000000000e+02 1.420000000000000000e+02 1.430000000000000000e+02 1.440000000000000000e+02 1.450000000000000000e+02 1.460000000000000000e+02 1.470000000000000000e+02 1.480000000000000000e+02 1.490000000000000000e+02 1.500000000000000000e+02 1.510000000000000000e+02 1.520000000000000000e+02 1.530000000000000000e+02 1.540000000000000000e+02 1.550000000000000000e+02 1.560000000000000000e+02 1.570000000000000000e+02 1.580000000000000000e+02 1.590000000000000000e+02 1.600000000000000000e+02 1.610000000000000000e+02 1.620000000000000000e+02 1.630000000000000000e+02 1.640000000000000000e+02 1.650000000000000000e+02 1.660000000000000000e+02 1.670000000000000000e+02 1.680000000000000000e+02 1.690000000000000000e+02 1.700000000000000000e+02 1.710000000000000000e+02 1.720000000000000000e+02 1.730000000000000000e+02 1.740000000000000000e+02 1.750000000000000000e+02 1.760000000000000000e+02 1.770000000000000000e+02 1.780000000000000000e+02 1.790000000000000000e+02 1.800000000000000000e+02 1.810000000000000000e+02 1.820000000000000000e+02 1.830000000000000000e+02 1.840000000000000000e+02 1.850000000000000000e+02 1.860000000000000000e+02 1.870000000000000000e+02 1.880000000000000000e+02 1.890000000000000000e+02 1.900000000000000000e+02 1.910000000000000000e+02 1.920000000000000000e+02 1.930000000000000000e+02 1.940000000000000000e+02 1.950000000000000000e+02 1.960000000000000000e+02 1.970000000000000000e+02 1.980000000000000000e+02 1.990000000000000000e+02 2.000000000000000000e+02 2.010000000000000000e+02 2.020000000000000000e+02 2.030000000000000000e+02 2.040000000000000000e+02 2.050000000000000000e+02 2.060000000000000000e+02 2.070000000000000000e+02 2.080000000000000000e+02 2.090000000000000000e+02 2.100000000000000000e+02 2.110000000000000000e+02 2.120000000000000000e+02 2.130000000000000000e+02 2.140000000000000000e+02 2.150000000000000000e+02 2.160000000000000000e+02 2.170000000000000000e+02 2.180000000000000000e+02 2.190000000000000000e+02 2.200000000000000000e+02 2.210000000000000000e+02 2.220000000000000000e+02 2.230000000000000000e+02 2.240000000000000000e+02 2.250000000000000000e+02 2.260000000000000000e+02 2.270000000000000000e+02 2.280000000000000000e+02 2.290000000000000000e+02 2.300000000000000000e+02 2.310000000000000000e+02 2.320000000000000000e+02 2.330000000000000000e+02 2.340000000000000000e+02 2.350000000000000000e+02 2.360000000000000000e+02 2.370000000000000000e+02 2.380000000000000000e+02 2.390000000000000000e+02 2.400000000000000000e+02 2.410000000000000000e+02 2.420000000000000000e+02 2.430000000000000000e+02 2.440000000000000000e+02 2.450000000000000000e+02 2.460000000000000000e+02 2.470000000000000000e+02 2.480000000000000000e+02 2.490000000000000000e+02 2.500000000000000000e+02 2.510000000000000000e+02 2.520000000000000000e+02 2.530000000000000000e+02 2.540000000000000000e+02 2.550000000000000000e+02 2.560000000000000000e+02 2.570000000000000000e+02 2.580000000000000000e+02 2.590000000000000000e+02 2.600000000000000000e+02 2.610000000000000000e+02 2.620000000000000000e+02 2.630000000000000000e+02 2.640000000000000000e+02 2.650000000000000000e+02 2.660000000000000000e+02 2.670000000000000000e+02 2.680000000000000000e+02 2.690000000000000000e+02 2.700000000000000000e+02 2.710000000000000000e+02 2.720000000000000000e+02 2.730000000000000000e+02 2.740000000000000000e+02 2.750000000000000000e+02 2.760000000000000000e+02 2.770000000000000000e+02 2.780000000000000000e+02 2.790000000000000000e+02 2.800000000000000000e+02 2.810000000000000000e+02 2.820000000000000000e+02 2.830000000000000000e+02 2.840000000000000000e+02 2.850000000000000000e+02 2.860000000000000000e+02 2.870000000000000000e+02 2.880000000000000000e+02 2.890000000000000000e+02 2.900000000000000000e+02 2.910000000000000000e+02 2.920000000000000000e+02 2.930000000000000000e+02 2.940000000000000000e+02 2.950000000000000000e+02 2.960000000000000000e+02 2.970000000000000000e+02 2.980000000000000000e+02 2.990000000000000000e+02 3.000000000000000000e+02 3.010000000000000000e+02 3.020000000000000000e+02 3.030000000000000000e+02 3.040000000000000000e+02 3.050000000000000000e+02 3.060000000000000000e+02 3.070000000000000000e+02 3.080000000000000000e+02 3.090000000000000000e+02 3.100000000000000000e+02 3.110000000000000000e+02 3.120000000000000000e+02 3.130000000000000000e+02 3.140000000000000000e+02 3.150000000000000000e+02 3.160000000000000000e+02 3.170000000000000000e+02 3.180000000000000000e+02 3.190000000000000000e+02 3.200000000000000000e+02 3.210000000000000000e+02 3.220000000000000000e+02 3.230000000000000000e+02 3.240000000000000000e+02 3.250000000000000000e+02 3.260000000000000000e+02 3.270000000000000000e+02 3.280000000000000000e+02 3.290000000000000000e+02 3.300000000000000000e+02 3.310000000000000000e+02 3.320000000000000000e+02 3.330000000000000000e+02 3.340000000000000000e+02 3.350000000000000000e+02 3.360000000000000000e+02 3.370000000000000000e+02 3.380000000000000000e+02 3.390000000000000000e+02 3.400000000000000000e+02 3.410000000000000000e+02 3.420000000000000000e+02 3.430000000000000000e+02 3.440000000000000000e+02 3.450000000000000000e+02 3.460000000000000000e+02 3.470000000000000000e+02 3.480000000000000000e+02 3.490000000000000000e+02 3.500000000000000000e+02 3.510000000000000000e+02 3.520000000000000000e+02 3.530000000000000000e+02 3.540000000000000000e+02 3.550000000000000000e+02 3.560000000000000000e+02 3.570000000000000000e+02 3.580000000000000000e+02 3.590000000000000000e+02 3.600000000000000000e+02 3.610000000000000000e+02 3.620000000000000000e+02 3.630000000000000000e+02 3.640000000000000000e+02 3.650000000000000000e+02 3.660000000000000000e+02 3.670000000000000000e+02 3.680000000000000000e+02 3.690000000000000000e+02 3.700000000000000000e+02 3.710000000000000000e+02 3.720000000000000000e+02 3.730000000000000000e+02 3.740000000000000000e+02 3.750000000000000000e+02 3.760000000000000000e+02 3.770000000000000000e+02 3.780000000000000000e+02 3.790000000000000000e+02 3.800000000000000000e+02 3.810000000000000000e+02 3.820000000000000000e+02 3.830000000000000000e+02 3.840000000000000000e+02 3.850000000000000000e+02 3.860000000000000000e+02 3.870000000000000000e+02 3.880000000000000000e+02 3.890000000000000000e+02 3.900000000000000000e+02 3.910000000000000000e+02 3.920000000000000000e+02 3.930000000000000000e+02 3.940000000000000000e+02 3.950000000000000000e+02 3.960000000000000000e+02 3.970000000000000000e+02 3.980000000000000000e+02 3.990000000000000000e+02 4.000000000000000000e+02 4.010000000000000000e+02 4.020000000000000000e+02 4.030000000000000000e+02 4.040000000000000000e+02 4.050000000000000000e+02 4.060000000000000000e+02 4.070000000000000000e+02 4.080000000000000000e+02 4.090000000000000000e+02 4.100000000000000000e+02 4.110000000000000000e+02 4.120000000000000000e+02 4.130000000000000000e+02 4.140000000000000000e+02 4.150000000000000000e+02 4.160000000000000000e+02 4.170000000000000000e+02 4.180000000000000000e+02 4.190000000000000000e+02 4.200000000000000000e+02 4.210000000000000000e+02 4.220000000000000000e+02 4.230000000000000000e+02 4.240000000000000000e+02 4.250000000000000000e+02 4.260000000000000000e+02 4.270000000000000000e+02 4.280000000000000000e+02 4.290000000000000000e+02 4.300000000000000000e+02 4.310000000000000000e+02 4.320000000000000000e+02 4.330000000000000000e+02 4.340000000000000000e+02 4.350000000000000000e+02 4.360000000000000000e+02 4.370000000000000000e+02 4.380000000000000000e+02 4.390000000000000000e+02 4.400000000000000000e+02 4.410000000000000000e+02 4.420000000000000000e+02 4.430000000000000000e+02 4.440000000000000000e+02 4.450000000000000000e+02 4.460000000000000000e+02 4.470000000000000000e+02 4.480000000000000000e+02 4.490000000000000000e+02 4.500000000000000000e+02 4.510000000000000000e+02 4.520000000000000000e+02 4.530000000000000000e+02 4.540000000000000000e+02 4.550000000000000000e+02 4.560000000000000000e+02 4.570000000000000000e+02 4.580000000000000000e+02 4.590000000000000000e+02 4.600000000000000000e+02 4.610000000000000000e+02 4.620000000000000000e+02 4.630000000000000000e+02 4.640000000000000000e+02 4.650000000000000000e+02 4.660000000000000000e+02 4.670000000000000000e+02 4.680000000000000000e+02 4.690000000000000000e+02 4.700000000000000000e+02 4.710000000000000000e+02 4.720000000000000000e+02 4.730000000000000000e+02 4.740000000000000000e+02 4.750000000000000000e+02 4.760000000000000000e+02 4.770000000000000000e+02 4.780000000000000000e+02 4.790000000000000000e+02 4.800000000000000000e+02 4.810000000000000000e+02 4.820000000000000000e+02 4.830000000000000000e+02 4.840000000000000000e+02 4.850000000000000000e+02 4.860000000000000000e+02 4.870000000000000000e+02 4.880000000000000000e+02 4.890000000000000000e+02 4.900000000000000000e+02 4.910000000000000000e+02 4.920000000000000000e+02 4.930000000000000000e+02 4.940000000000000000e+02 4.950000000000000000e+02 4.960000000000000000e+02 4.970000000000000000e+02 4.980000000000000000e+02 4.990000000000000000e+02 5.000000000000000000e+02 5.010000000000000000e+02 5.020000000000000000e+02 5.030000000000000000e+02 5.040000000000000000e+02 5.050000000000000000e+02 5.060000000000000000e+02 5.070000000000000000e+02 5.080000000000000000e+02 5.090000000000000000e+02 5.100000000000000000e+02 5.110000000000000000e+02 5.120000000000000000e+02 5.130000000000000000e+02 5.140000000000000000e+02 5.150000000000000000e+02 5.160000000000000000e+02 5.170000000000000000e+02 5.180000000000000000e+02 5.190000000000000000e+02 5.200000000000000000e+02 5.210000000000000000e+02 5.220000000000000000e+02 5.230000000000000000e+02 5.240000000000000000e+02 5.250000000000000000e+02 5.260000000000000000e+02 5.270000000000000000e+02 5.280000000000000000e+02 5.290000000000000000e+02 5.300000000000000000e+02 5.310000000000000000e+02 5.320000000000000000e+02 5.330000000000000000e+02 5.340000000000000000e+02 5.350000000000000000e+02 5.360000000000000000e+02 5.370000000000000000e+02 5.380000000000000000e+02 5.390000000000000000e+02 5.400000000000000000e+02 5.410000000000000000e+02 5.420000000000000000e+02 5.430000000000000000e+02 5.440000000000000000e+02 5.450000000000000000e+02 5.460000000000000000e+02 5.470000000000000000e+02 5.480000000000000000e+02 5.490000000000000000e+02 5.500000000000000000e+02 5.510000000000000000e+02 5.520000000000000000e+02 5.530000000000000000e+02 5.540000000000000000e+02 5.550000000000000000e+02 5.560000000000000000e+02 5.570000000000000000e+02 5.580000000000000000e+02 5.590000000000000000e+02 5.600000000000000000e+02 5.610000000000000000e+02 5.620000000000000000e+02 5.630000000000000000e+02 5.640000000000000000e+02 5.650000000000000000e+02 5.660000000000000000e+02 5.670000000000000000e+02 5.680000000000000000e+02 5.690000000000000000e+02 5.700000000000000000e+02 5.710000000000000000e+02 5.720000000000000000e+02 5.730000000000000000e+02 5.740000000000000000e+02 5.750000000000000000e+02 5.760000000000000000e+02 5.770000000000000000e+02 5.780000000000000000e+02 5.790000000000000000e+02 5.800000000000000000e+02 5.810000000000000000e+02 5.820000000000000000e+02 5.830000000000000000e+02 5.840000000000000000e+02 5.850000000000000000e+02 5.860000000000000000e+02 5.870000000000000000e+02 5.880000000000000000e+02 5.890000000000000000e+02 5.900000000000000000e+02 5.910000000000000000e+02 5.920000000000000000e+02 5.930000000000000000e+02 5.940000000000000000e+02 5.950000000000000000e+02 5.960000000000000000e+02 5.970000000000000000e+02 5.980000000000000000e+02 5.990000000000000000e+02 6.000000000000000000e+02 6.010000000000000000e+02 6.020000000000000000e+02 6.030000000000000000e+02 6.040000000000000000e+02 6.050000000000000000e+02 6.060000000000000000e+02 6.070000000000000000e+02 6.080000000000000000e+02 6.090000000000000000e+02 6.100000000000000000e+02 6.110000000000000000e+02 6.120000000000000000e+02 6.130000000000000000e+02 6.140000000000000000e+02 6.150000000000000000e+02 6.160000000000000000e+02 6.170000000000000000e+02 6.180000000000000000e+02 6.190000000000000000e+02 6.200000000000000000e+02 6.210000000000000000e+02 6.220000000000000000e+02 6.230000000000000000e+02 6.240000000000000000e+02 6.250000000000000000e+02 6.260000000000000000e+02 6.270000000000000000e+02 6.280000000000000000e+02 6.290000000000000000e+02 6.300000000000000000e+02 6.310000000000000000e+02 6.320000000000000000e+02 6.330000000000000000e+02 6.340000000000000000e+02 6.350000000000000000e+02 6.360000000000000000e+02 6.370000000000000000e+02 6.380000000000000000e+02 6.390000000000000000e+02 6.400000000000000000e+02 6.410000000000000000e+02 6.420000000000000000e+02 6.430000000000000000e+02 6.440000000000000000e+02 6.450000000000000000e+02 6.460000000000000000e+02 6.470000000000000000e+02 6.480000000000000000e+02 6.490000000000000000e+02 6.500000000000000000e+02 6.510000000000000000e+02 6.520000000000000000e+02 6.530000000000000000e+02 6.540000000000000000e+02 6.550000000000000000e+02 6.560000000000000000e+02 6.570000000000000000e+02 6.580000000000000000e+02 6.590000000000000000e+02 6.600000000000000000e+02 6.610000000000000000e+02 6.620000000000000000e+02 6.630000000000000000e+02 6.640000000000000000e+02 6.650000000000000000e+02 6.660000000000000000e+02 6.670000000000000000e+02 6.680000000000000000e+02 6.690000000000000000e+02 6.700000000000000000e+02 6.710000000000000000e+02 6.720000000000000000e+02 6.730000000000000000e+02 6.740000000000000000e+02 6.750000000000000000e+02 6.760000000000000000e+02 6.770000000000000000e+02 6.780000000000000000e+02 6.790000000000000000e+02 6.800000000000000000e+02 6.810000000000000000e+02 6.820000000000000000e+02 6.830000000000000000e+02 6.840000000000000000e+02 6.850000000000000000e+02 6.860000000000000000e+02 6.870000000000000000e+02 6.880000000000000000e+02 6.890000000000000000e+02 6.900000000000000000e+02 6.910000000000000000e+02 6.920000000000000000e+02 6.930000000000000000e+02 6.940000000000000000e+02 6.950000000000000000e+02 6.960000000000000000e+02 6.970000000000000000e+02 6.980000000000000000e+02 6.990000000000000000e+02 7.000000000000000000e+02 7.010000000000000000e+02 7.020000000000000000e+02 7.030000000000000000e+02 7.040000000000000000e+02 7.050000000000000000e+02 7.060000000000000000e+02 7.070000000000000000e+02 7.080000000000000000e+02 7.090000000000000000e+02 7.100000000000000000e+02 7.110000000000000000e+02 7.120000000000000000e+02 7.130000000000000000e+02 7.140000000000000000e+02 7.150000000000000000e+02 7.160000000000000000e+02 7.170000000000000000e+02 7.180000000000000000e+02 7.190000000000000000e+02 7.200000000000000000e+02 7.210000000000000000e+02 7.220000000000000000e+02 7.230000000000000000e+02 7.240000000000000000e+02 7.250000000000000000e+02 7.260000000000000000e+02 7.270000000000000000e+02 7.280000000000000000e+02 7.290000000000000000e+02 7.300000000000000000e+02 7.310000000000000000e+02 7.320000000000000000e+02 7.330000000000000000e+02 7.340000000000000000e+02 7.350000000000000000e+02 7.360000000000000000e+02 7.370000000000000000e+02 7.380000000000000000e+02 7.390000000000000000e+02 7.400000000000000000e+02 7.410000000000000000e+02 7.420000000000000000e+02 7.430000000000000000e+02 7.440000000000000000e+02 7.450000000000000000e+02 7.460000000000000000e+02 7.470000000000000000e+02 7.480000000000000000e+02 7.490000000000000000e+02 7.500000000000000000e+02 7.510000000000000000e+02 7.520000000000000000e+02 7.530000000000000000e+02 7.540000000000000000e+02 7.550000000000000000e+02 7.560000000000000000e+02 7.570000000000000000e+02 7.580000000000000000e+02 7.590000000000000000e+02 7.600000000000000000e+02 7.610000000000000000e+02 7.620000000000000000e+02 7.630000000000000000e+02 7.640000000000000000e+02 7.650000000000000000e+02 7.660000000000000000e+02 7.670000000000000000e+02 7.680000000000000000e+02 7.690000000000000000e+02 7.700000000000000000e+02 7.710000000000000000e+02 7.720000000000000000e+02 7.730000000000000000e+02 7.740000000000000000e+02 7.750000000000000000e+02 7.760000000000000000e+02 7.770000000000000000e+02 7.780000000000000000e+02 7.790000000000000000e+02 7.800000000000000000e+02 7.810000000000000000e+02 7.820000000000000000e+02 7.830000000000000000e+02 7.840000000000000000e+02 7.850000000000000000e+02 7.860000000000000000e+02 7.870000000000000000e+02 7.880000000000000000e+02 7.890000000000000000e+02 7.900000000000000000e+02 7.910000000000000000e+02 7.920000000000000000e+02 7.930000000000000000e+02 7.940000000000000000e+02 7.950000000000000000e+02 7.960000000000000000e+02 7.970000000000000000e+02 7.980000000000000000e+02 7.990000000000000000e+02 8.000000000000000000e+02 8.010000000000000000e+02 8.020000000000000000e+02 8.030000000000000000e+02 8.040000000000000000e+02 8.050000000000000000e+02 8.060000000000000000e+02 8.070000000000000000e+02 8.080000000000000000e+02 8.090000000000000000e+02 8.100000000000000000e+02 8.110000000000000000e+02 8.120000000000000000e+02 8.130000000000000000e+02 8.140000000000000000e+02 8.150000000000000000e+02 8.160000000000000000e+02 8.170000000000000000e+02 8.180000000000000000e+02 8.190000000000000000e+02 8.200000000000000000e+02 8.210000000000000000e+02 8.220000000000000000e+02 8.230000000000000000e+02 8.240000000000000000e+02 8.250000000000000000e+02 8.260000000000000000e+02 8.270000000000000000e+02 8.280000000000000000e+02 8.290000000000000000e+02 8.300000000000000000e+02 8.310000000000000000e+02 8.320000000000000000e+02 8.330000000000000000e+02 8.340000000000000000e+02 8.350000000000000000e+02 8.360000000000000000e+02 8.370000000000000000e+02 8.380000000000000000e+02 8.390000000000000000e+02 8.400000000000000000e+02 8.410000000000000000e+02 8.420000000000000000e+02 8.430000000000000000e+02 8.440000000000000000e+02 8.450000000000000000e+02 8.460000000000000000e+02 8.470000000000000000e+02 8.480000000000000000e+02 8.490000000000000000e+02 8.500000000000000000e+02 8.510000000000000000e+02 8.520000000000000000e+02 8.530000000000000000e+02 8.540000000000000000e+02 8.550000000000000000e+02 8.560000000000000000e+02 8.570000000000000000e+02 8.580000000000000000e+02 8.590000000000000000e+02 8.600000000000000000e+02 8.610000000000000000e+02 8.620000000000000000e+02 8.630000000000000000e+02 8.640000000000000000e+02 8.650000000000000000e+02 8.660000000000000000e+02 8.670000000000000000e+02 8.680000000000000000e+02 8.690000000000000000e+02 8.700000000000000000e+02 8.710000000000000000e+02 8.720000000000000000e+02 8.730000000000000000e+02 8.740000000000000000e+02 8.750000000000000000e+02 8.760000000000000000e+02 8.770000000000000000e+02 8.780000000000000000e+02 8.790000000000000000e+02 8.800000000000000000e+02 8.810000000000000000e+02 8.820000000000000000e+02 8.830000000000000000e+02 8.840000000000000000e+02 8.850000000000000000e+02 8.860000000000000000e+02 8.870000000000000000e+02 8.880000000000000000e+02 8.890000000000000000e+02 8.900000000000000000e+02 8.910000000000000000e+02 8.920000000000000000e+02 8.930000000000000000e+02 8.940000000000000000e+02 8.950000000000000000e+02 8.960000000000000000e+02 8.970000000000000000e+02 8.980000000000000000e+02 8.990000000000000000e+02 9.000000000000000000e+02 9.010000000000000000e+02 9.020000000000000000e+02 9.030000000000000000e+02 9.040000000000000000e+02 9.050000000000000000e+02 9.060000000000000000e+02 9.070000000000000000e+02 9.080000000000000000e+02 9.090000000000000000e+02 9.100000000000000000e+02 9.110000000000000000e+02 9.120000000000000000e+02 9.130000000000000000e+02 9.140000000000000000e+02 9.150000000000000000e+02 9.160000000000000000e+02 9.170000000000000000e+02 9.180000000000000000e+02 9.190000000000000000e+02 9.200000000000000000e+02 9.210000000000000000e+02 9.220000000000000000e+02 9.230000000000000000e+02 9.240000000000000000e+02 9.250000000000000000e+02 9.260000000000000000e+02 9.270000000000000000e+02 9.280000000000000000e+02 9.290000000000000000e+02 9.300000000000000000e+02 9.310000000000000000e+02 9.320000000000000000e+02 9.330000000000000000e+02 9.340000000000000000e+02 9.350000000000000000e+02 9.360000000000000000e+02 9.370000000000000000e+02 9.380000000000000000e+02 9.390000000000000000e+02 9.400000000000000000e+02 9.410000000000000000e+02 9.420000000000000000e+02 9.430000000000000000e+02 9.440000000000000000e+02 9.450000000000000000e+02 9.460000000000000000e+02 9.470000000000000000e+02 9.480000000000000000e+02 9.490000000000000000e+02 9.500000000000000000e+02 9.510000000000000000e+02 9.520000000000000000e+02 9.530000000000000000e+02 9.540000000000000000e+02 9.550000000000000000e+02 9.560000000000000000e+02 9.570000000000000000e+02 9.580000000000000000e+02 9.590000000000000000e+02 9.600000000000000000e+02 9.610000000000000000e+02 9.620000000000000000e+02 9.630000000000000000e+02 9.640000000000000000e+02 9.650000000000000000e+02 9.660000000000000000e+02 9.670000000000000000e+02 9.680000000000000000e+02 9.690000000000000000e+02 9.700000000000000000e+02 9.710000000000000000e+02 9.720000000000000000e+02 9.730000000000000000e+02 9.740000000000000000e+02 9.750000000000000000e+02 9.760000000000000000e+02 9.770000000000000000e+02 9.780000000000000000e+02 9.790000000000000000e+02 9.800000000000000000e+02 9.810000000000000000e+02 9.820000000000000000e+02 9.830000000000000000e+02 9.840000000000000000e+02 9.850000000000000000e+02 9.860000000000000000e+02 9.870000000000000000e+02 9.880000000000000000e+02 9.890000000000000000e+02 9.900000000000000000e+02 9.910000000000000000e+02 9.920000000000000000e+02 9.930000000000000000e+02 9.940000000000000000e+02 9.950000000000000000e+02 9.960000000000000000e+02 9.970000000000000000e+02 9.980000000000000000e+02 9.990000000000000000e+02 1.000000000000000000e+03
1.000000000000000021e-02 1.000000000000000021e-02 1.000000000000000021e-02 1.000000000000000021e-02 1.000000000000000021e-02 1.000000000000000021e-02 1.000000000000000021e-02 1.000000000000000021e-02 1.000000000000000021e-02 1.000000000000000021e-02 1.000000000000000021e-02 1.000000000000000021e-02 1.000000000000000021e-02 1.000000000000000021e-02 1.000000000000000021e-02 1.000000000000000021e-02 1.000000000000000021e-02 1.000000000000000021e-02 1.000000000000000021e-02 1.000000000000000021e-02 1.000000000000000021e-02 1.000000000000000021e-02 1.000000000000000021e-02 1.000000000000000021e-02 1.000000000000000021e-02 1.000000000000000021e-02 1.000000000000000021e-02 1.000000000000000021e-02 1.000000000000000021e-02 1.000000000000000021e-02 1.000000000000000021e-02 1.000000000000000021e-02 1.000000000000000021e-02 1.000000000000000021e-02 1.000000000000000021e-02 1.000000000000000021e-02 1.000000000000000021e-02 1.000000000000000021e-02 1.000000000000000021e-02 1.000000000000000021e-02 1.000000000000000021e-02 1.000000000000000021e-02 1.000000000000000021e-02 1.000000000000000021e-02 1.000000000000000021e-02 1.000000000000000021e-02 1.000000000000000021e-02 1.000000000000000021e-02 1.000000000000000021e-02 1.000000000000000021e-02 1.000000000000000021e-02 1.000000000000000021e-02 1.000000000000000021e-02 1.000000000000000021e-02 1.000000000000000021e-02 1.000000000000000021e-02 1.000000000000000021e-02 1.000000000000000021e-02 1.000000000000000021e-02 1.000000000000000021e-02 1.000000000000000021e-02 1.000000000000000021e-02 1.000000000000000021e-02 1.000000000000000021e-02 1.000000000000000021e-02 1.000000000000000021e-02 1.000000000000000021e-02 1.000000000000000021e-02 1.000000000000000021e-02 1.000000000000000021e-02 1.000000000000000021e-02 1.000000000000000021e-02 1.000000000000000021e-02 1.000000000000000021e-02 1.000000000000000021e-02 1.000000000000000021e-02 1.000000000000000021e-02 1.000000000000000021e-02 1.000000000000000021e-02 1.000000000000000021e-02 1.000000000000000021e-02 1.000000000000000021e-02 1.000000000000000021e-02 1.000000000000000021e-02 1.000000000000000021e-02 1.000000000000000021e-02 1.000000000000000021e-02 1.000000000000000021e-02 1.000000000000000021e-02 1.000000000000000021e-02 1.000000000000000021e-02 1.000000000000000021e-02 1.000000000000000021e-02 1.000000000000000021e-02 1.000000000000000021e-02 1.000000000000000021e-02 1.000000000000000021e-02 1.000000000000000021e-02 1.000000000000000021e-02 1.000000000000000021e-02 1.000000000000000021e-02 1.000000000000000021e-02 1.000000000000000021e-02 1.000000000000000021e-02 1.000000000000000021e-02 1.000000000000000021e-02 1.000000000000000021e-02 1.000000000000000021e-02 1.000000000000000021e-02 1.000000000000000021e-02 1.000000000000000021e-02 1.000000000000000021e-02 1.000000000000000021e-02 1.000000000000000021e-02 1.000000000000000021e-02 1.000000000000000021e-02 1.000000000000000021e-02 1.000000000000000021e-02 1.000000000000000021e-02 1.000000000000000021e-02 1.000000000000000021e-02 1.000000000000000021e-02 1.000000000000000021e-02 1.000000000000000021e-02 1.000000000000000021e-02 1.000000000000000021e-02 1.000000000000000021e-02 1.000000000000000021e-02 1.000000000000000021e-02 1.000000000000000021e-02 1.000000000000000021e-02 1.000000000000000021e-02 1.000000000000000021e-02 1.000000000000000021e-02 1.000000000000000021e-02 1.000000000000000021e-02 1.000000000000000021e-02 1.000000000000000021e-02 1.000000000000000021e-02 1.000000000000000021e-02 1.000000000000000021e-02 1.000000000000000021e-02 1.000000000000000021e-02 1.000000000000000021e-02 1.000000000000000021e-02 1.000000000000000021e-02 1.000000000000000021e-02 1.000000000000000021e-02 1.000000000000000021e-02 1.000000000000000021e-02 1.000000000000000021e-02 1.000000000000000021e-02 1.000000000000000021e-02 1.000000000000000021e-02 1.000000000000000021e-02 1.000000000000000021e-02 1.000000000000000021e-02 1.000000000000000021e-02 1.000000000000000021e-02 1.000000000000000021e-02 1.000000000000000021e-02 1.000000000000000021e-02 1.000000000000000021e-02 1.000000000000000021e-02 1.000000000000000021e-02 1.000000000000000021e-02 1.000000000000000021e-02 1.000000000000000021e-02 1.000000000000000021e-02 1.000000000000000021e-02 1.000000000000000021e-02 1.000000000000000021e-02 1.000000000000000021e-02 1.000000000000000021e-02 1.000000000000000021e-02 1.000000000000000021e-02 1.000000000000000021e-02 1.000000000000000021e-02 1.000000000000000021e-02 1.000000000000000021e-02 1.000000000000000021e-02 1.000000000000000021e-02 1.000000000000000021e-02 1.000000000000000021e-02 1.000000000000000021e-02 1.000000000000000021e-02 1.000000000000000021e-02 1.000000000000000021e-02 1.000000000000000021e-02 1.000000000000000021e-02 1.000000000000000021e-02 1.000000000000000021e-02 1.000000000000000021e-02 1.000000000000000021e-02 1.000000000000000021e-02 1.000000000000000021e-02 1.000000000000000021e-02 1.000000000000000021e-02 1.000000000000000021e-02 1.000000000000000021e-02 1.000000000000000021e-02 1.000000000000000021e-02 1.000000000000000021e-02 1.000000000000000021e-02 1.000000000000000021e-02 1.000000000000000021e-02 1.000000000000000021e-02 1.000000000000000021e-02 1.000000000000000021e-02 1.000000000000000021e-02 1.000000000000000021e-02 1.000000000000000021e-02 1.000000000000000021e-02 1.000000000000000021e-02 1.000000000000000021e-02 1.000000000000000021e-02 1.000000000000000021e-02 1.000000000000000021e-02 1.000000000000000021e-02 1.000000000000000021e-02 1.000000000000000021e-02 1.000000000000000021e-02 1.000000000000000021e-02 1.000000000000000021e-02 1.000000000000000021e-02 1.000000000000000021e-02 1.000000000000000021e-02 1.000000000000000021e-02 1.000000000000000021e-02 1.000000000000000021e-02 1.000000000000000021e-02 1.000000000000000021e-02 1.000000000000000021e-02 1.000000000000000021e-02 1.000000000000000021e-02 1.000000000000000021e-02 1.000000000000000021e-02 1.000000000000000021e-02 1.000000000000000021e-02 1.000000000000000021e-02 1.000000000000000021e-02 1.000000000000000021e-02 1.000000000000000021e-02 1.000000000000000021e-02 1.000000000000000021e-02 1.000000000000000021e-02 1.000000000000000021e-02 1.000000000000000021e-02 1.000000000000000021e-02 1.000000000000000021e-02 1.000000000000000021e-02 1.000000000000000021e-02 1.000000000000000021e-02 1.000000000000000021e-02 1.000000000000000021e-02 1.000000000000000021e-02 1.000000000000000021e-02 1.000000000000000021e-02 1.000000000000000021e-02 1.000000000000000021e-02 1.000000000000000021e-02 1.000000000000000021e-02 1.000000000000000021e-02 1.000000000000000021e-02 1.000000000000000021e-02 1.000000000000000021e-02 1.000000000000000021e-02 1.000000000000000021e-02 1.000000000000000021e-02 1.000000000000000021e-02 1.000000000000000021e-02 1.000000000000000021e-02 1.000000000000000021e-02 1.000000000000000021e-02 1.000000000000000021e-02 1.000000000000000021e-02 1.000000000000000021e-02 1.000000000000000021e-02 1.000000000000000021e-02 1.000000000000000021e-02 1.000000000000000021e-02 1.000000000000000021e-02 1.000000000000000021e-02 1.000000000000000021e-02 1.000000000000000021e-02 1.000000000000000021e-02 1.000000000000000021e-02 1.000000000000000021e-02 1.000000000000000021e-02 1.000000000000000021e-02 1.000000000000000021e-02 1.000000000000000021e-02 1.000000000000000021e-02 1.000000000000000021e-02 1.000000000000000021e-02 1.000000000000000021e-02 1.000000000000000021e-02 1.000000000000000021e-02 1.000000000000000021e-02 1.000000000000000021e-02 1.000000000000000021e-02 1.000000000000000021e-02 1.000000000000000021e-02 1.000000000000000021e-02 1.000000000000000021e-02 1.000000000000000021e-02 1.000000000000000021e-02 1.000000000000000021e-02 1.000000000000000021e-02 1.000000000000000021e-02 1.000000000000000021e-02 1.000000000000000021e-02 1.000000000000000021e-02 1.000000000000000021e-02 1.000000000000000021e-02 1.000000000000000021e-02 1.000000000000000021e-02 1.000000000000000021e-02 1.000000000000000021e-02 1.000000000000000021e-02 1.000000000000000021e-02 1.000000000000000021e-02 1.000000000000000021e-02 1.000000000000000021e-02 1.000000000000000021e-02 1.000000000000000021e-02 1.000000000000000021e-02 1.000000000000000021e-02 1.000000000000000021e-02 1.000000000000000021e-02 1.000000000000000021e-02 1.000000000000000021e-02 1.000000000000000021e-02 1.000000000000000021e-02 1.000000000000000021e-02 1.000000000000000021e-02 1.000000000000000021e-02 1.000000000000000021e-02 1.000000000000000021e-02 1.000000000000000021e-02 1.000000000000000021e-02 1.000000000000000021e-02 1.000000000000000021e-02 1.000000000000000021e-02 1.000000000000000021e-02 1.000000000000000021e-02 1.000000000000000021e-02 1.000000000000000021e-02 1.000000000000000021e-02 1.000000000000000021e-02 1.000000000000000021e-02 1.000000000000000021e-02 1.000000000000000021e-02 1.000000000000000021e-02 1.000000000000000021e-02 1.000000000000000021e-02 1.000000000000000021e-02 1.000000000000000021e-02 1.000000000000000021e-02 1.000000000000000021e-02 1.000000000000000021e-02 1.000000000000000021e-02 1.000000000000000021e-02 1.000000000000000021e-02 1.000000000000000021e-02 1.000000000000000021e-02 1.000000000000000021e-02 1.000000000000000021e-02 1.000000000000000021e-02 1.000000000000000021e-02 1.000000000000000021e-02 1.000000000000000021e-02 1.000000000000000021e-02 1.000000000000000021e-02 1.000000000000000021e-02 1.000000000000000021e-02 1.000000000000000021e-02 1.000000000000000021e-02 1.000000000000000021e-02 1.000000000000000021e-02 1.000000000000000021e-02 1.000000000000000021e-02 1.000000000000000021e-02 1.000000000000000021e-02 1.000000000000000021e-02 1.000000000000000021e-02 1.000000000000000021e-02 1.000000000000000021e-02 1.000000000000000021e-02 1.000000000000000021e-02 1.000000000000000021e-02 1.000000000000000021e-02 1.000000000000000021e-02 1.000000000000000021e-02 1.000000000000000021e-02 1.000000000000000021e-02 1.000000000000000021e-02 1.000000000000000021e-02 1.000000000000000021e-02 1.000000000000000021e-02 1.000000000000000021e-02 1.000000000000000021e-02 1.000000000000000021e-02 1.000000000000000021e-02 1.000000000000000021e-02 1.000000000000000021e-02 1.000000000000000021e-02 1.000000000000000021e-02 1.000000000000000021e-02 1.000000000000000021e-02 1.000000000000000021e-02 1.000000000000000021e-02 1.000000000000000021e-02 1.000000000000000021e-02 1.000000000000000021e-02 1.000000000000000021e-02 1.000000000000000021e-02 1.000000000000000021e-02 1.000000000000000021e-02 1.000000000000000021e-02 1.000000000000000021e-02 1.000000000000000021e-02 1.000000000000000021e-02 1.000000000000000021e-02 1.000000000000000021e-02 1.000000000000000021e-02 1.000000000000000021e-02 1.000000000000000021e-02 1.000000000000000021e-02 1.000000000000000021e-02 1.000000000000000021e-02 1.000000000000000021e-02 1.000000000000000021e-02 1.000000000000000021e-02 1.000000000000000021e-02 1.000000000000000021e-02 1.000000000000000021e-02 1.000000000000000021e-02 1.000000000000000021e-02 1.000000000000000021e-02 1.000000000000000021e-02 1.000000000000000021e-02 1.000000000000000021e-02 1.000000000000000021e-02 1.000000000000000021e-02 1.000000000000000021e-02 1.000000000000000021e-02 1.000000000000000021e-02 1.000000000000000021e-02 1.000000000000000021e-02 1.000000000000000021e-02 1.000000000000000021e-02 1.000000000000000021e-02 1.000000000000000021e-02 1.000000000000000021e-02 1.000000000000000021e-02 1.000000000000000021e-02 1.000000000000000021e-02 1.000000000000000021e-02 1.000000000000000021e-02 1.000000000000000021e-02 1.000000000000000021e-02 1.000000000000000021e-02 1.000000000000000021e-02 1.000000000000000021e-02 1.000000000000000021e-02 1.000000000000000021e-02 1.000000000000000021e-02 1.000000000000000021e-02 1.000000000000000021e-02 1.000000000000000021e-02 1.000000000000000021e-02 1.000000000000000021e-02 1.000000000000000021e-02 1.000000000000000021e-02 1.000000000000000021e-02 1.000000000000000021e-02 1.000000000000000021e-02 1.000000000000000021e-02 1.000000000000000021e-02 1.000000000000000021e-02 1.000000000000000021e-02 1.000000000000000021e-02 1.000000000000000021e-02 1.000000000000000021e-02 1.000000000000000021e-02 1.000000000000000021e-02 1.000000000000000021e-02 1.000000000000000021e-02 1.000000000000000021e-02 1.000000000000000021e-02 1.000000000000000021e-02 1.000000000000000021e-02 1.000000000000000021e-02 1.000000000000000021e-02 1.000000000000000021e-02 1.000000000000000021e-02 1.000000000000000021e-02 1.000000000000000021e-02 1.000000000000000021e-02 1.000000000000000021e-02 1.000000000000000021e-02 1.000000000000000021e-02 1.000000000000000021e-02 1.000000000000000021e-02 1.000000000000000021e-02 1.000000000000000021e-02 1.000000000000000021e-02 1.000000000000000021e-02 1.000000000000000021e-02 1.000000000000000021e-02 1.000000000000000021e-02 1.000000000000000021e-02 1.000000000000000021e-02 1.000000000000000021e-02 1.000000000000000021e-02 1.000000000000000021e-02 1.000000000000000021e-02 1.000000000000000021e-02 1.000000000000000021e-02 1.000000000000000021e-02 1.000000000000000021e-02 1.000000000000000021e-02 1.000000000000000021e-02 1.000000000000000021e-02 1.000000000000000021e-02 1.000000000000000021e-02 1.000000000000000021e-02 1.000000000000000021e-02 1.000000000000000021e-02 1.000000000000000021e-02 1.000000000000000021e-02 1.000000000000000021e-02 1.000000000000000021e-02 1.000000000000000021e-02 1.000000000000000021e-02 1.000000000000000021e-02 1.000000000000000021e-02 1.000000000000000021e-02 1.000000000000000021e-02 1.000000000000000021e-02 1.000000000000000021e-02 1.000000000000000021e-02 1.000000000000000021e-02 1.000000000000000021e-02 1.000000000000000021e-02 1.000000000000000021e-02 1.000000000000000021e-02 1.000000000000000021e-02 1.000000000000000021e-02 1.000000000000000021e-02 1.000000000000000021e-02 1.000000000000000021e-02 1.000000000000000021e-02 1.000000000000000021e-02 1.000000000000000021e-02 1.000000000000000021e-02 1.000000000000000021e-02 1.000000000000000021e-02 1.000000000000000021e-02 1.000000000000000021e-02 1.000000000000000021e-02 1.000000000000000021e-02 1.000000000000000021e-02 1.000000000000000021e-02 1.000000000000000021e-02 1.000000000000000021e-02 1.000000000000000021e-02 1.000000000000000021e-02 1.000000000000000021e-02 1.000000000000000021e-02 1.000000000000000021e-02 1.000000000000000021e-02 1.000000000000000021e-02 1.000000000000000021e-02 1.000000000000000021e-02 1.000000000000000021e-02 1.000000000000000021e-02 1.000000000000000021e-02 1.000000000000000021e-02 1.000000000000000021e-02 1.000000000000000021e-02 1.000000000000000021e-02 1.000000000000000021e-02 1.000000000000000021e-02 1.000000000000000021e-02 1.000000000000000021e-02 1.000000000000000021e-02 1.000000000000000021e-02 1.000000000000000021e-02 1.000000000000000021e-02 1.000000000000000021e-02 1.000000000000000021e-02 1.000000000000000021e-02 1.000000000000000021e-02 1.000000000000000021e-02 1.000000000000000021e-02 1.000000000000000021e-02 1.000000000000000021e-02 1.000000000000000021e-02 1.000000000000000021e-02 1.000000000000000021e-02 1.000000000000000021e-02 1.000000000000000021e-02 1.000000000000000021e-02 1.000000000000000021e-02 1.000000000000000021e-02 1.000000000000000021e-02 1.000000000000000021e-02 1.000000000000000021e-02 1.000000000000000021e-02 1.000000000000000021e-02 1.000000000000000021e-02 1.000000000000000021e-02 1.000000000000000021e-02 1.000000000000000021e-02 1.000000000000000021e-02 1.000000000000000021e-02 1.000000000000000021e-02 1.000000000000000021e-02 1.000000000000000021e-02 1.000000000000000021e-02 1.000000000000000021e-02 1.000000000000000021e-02 1.000000000000000021e-02 1.000000000000000021e-02 1.000000000000000021e-02 1.000000000000000021e-02 1.000000000000000021e-02 1.000000000000000021e-02 1.000000000000000021e-02 1.000000000000000021e-02 1.000000000000000021e-02 1.000000000000000021e-02 1.000000000000000021e-02 1.000000000000000021e-02 1.000000000000000021e-02 1.000000000000000021e-02 1.000000000000000021e-02 1.000000000000000021e-02 1.000000000000000021e-02 1.000000000000000021e-02 1.000000000000000021e-02 1.000000000000000021e-02 1.000000000000000021e-02 1.000000000000000021e-02 1.000000000000000021e-02 1.000000000000000021e-02 1.000000000000000021e-02 1.000000000000000021e-02 1.000000000000000021e-02 1.000000000000000021e-02 1.000000000000000021e-02 1.000000000000000021e-02 1.000000000000000021e-02 1.000000000000000021e-02 1.000000000000000021e-02 1.000000000000000021e-02 1.000000000000000021e-02 1.000000000000000021e-02 1.000000000000000021e-02 1.000000000000000021e-02 1.000000000000000021e-02 1.000000000000000021e-02 1.000000000000000021e-02 1.000000000000000021e-02 1.000000000000000021e-02 1.000000000000000021e-02 1.000000000000000021e-02 1.000000000000000021e-02 1.000000000000000021e-02 1.000000000000000021e-02 1.000000000000000021e-02 1.000000000000000021e-02 1.000000000000000021e-02 1.000000000000000021e-02 1.000000000000000021e-02 1.000000000000000021e-02 1.000000000000000021e-02 1.000000000000000021e-02 1.000000000000000021e-02 1.000000000000000021e-02 1.000000000000000021e-02 1.000000000000000021e-02 1.000000000000000021e-02 1.000000000000000021e-02 1.000000000000000021e-02 1.000000000000000021e-02 1.000000000000000021e-02 1.000000000000000021e-02 1.000000000000000021e-02 1.000000000000000021e-02 1.000000000000000021e-02 1.000000000000000021e-02 1.000000000000000021e-02 1.000000000000000021e-02 1.000000000000000021e-02 1.000000000000000021e-02 1.000000000000000021e-02 1.000000000000000021e-02 1.000000000000000021e-02 1.000000000000000021e-02 1.000000000000000021e-02 1.000000000000000021e-02 1.000000000000000021e-02 1.000000000000000021e-02 1.000000000000000021e-02 1.000000000000000021e-02 1.000000000000000021e-02 1.000000000000000021e-02 1.000000000000000021e-02 1.000000000000000021e-02 1.000000000000000021e-02 1.000000000000000021e-02 1.000000000000000021e-02 1.000000000000000021e-02 1.000000000000000021e-02 1.000000000000000021e-02 1.000000000000000021e-02 1.000000000000000021e-02 1.000000000000000021e-02 1.000000000000000021e-02 1.000000000000000021e-02 1.000000000000000021e-02 1.000000000000000021e-02 1.000000000000000021e-02 1.000000000000000021e-02 1.000000000000000021e-02 1.000000000000000021e-02 1.000000000000000021e-02 1.000000000000000021e-02 1.000000000000000021e-02 1.000000000000000021e-02 1.000000000000000021e-02 1.000000000000000021e-02 1.000000000000000021e-02 1.000000000000000021e-02 1.000000000000000021e-02 1.000000000000000021e-02 1.000000000000000021e-02 1.000000000000000021e-02 1.000000000000000021e-02 1.000000000000000021e-02 1.000000000000000021e-02 1.000000000000000021e-02 1.000000000000000021e-02 1.000000000000000021e-02 1.000000000000000021e-02 1.000000000000000021e-02 1.000000000000000021e-02 1.000000000000000021e-02 1.000000000000000021e-02 1.000000000000000021e-02 1.000000000000000021e-02 1.000000000000000021e-02 1.000000000000000021e-02 1.000000000000000021e-02 1.000000000000000021e-02 1.000000000000000021e-02 1.000000000000000021e-02 1.000000000000000021e-02 1.000000000000000021e-02 1.000000000000000021e-02 1.000000000000000021e-02 1.000000000000000021e-02 1.000000000000000021e-02 1.000000000000000021e-02 1.000000000000000021e-02 1.000000000000000021e-02 1.000000000000000021e-02 1.000000000000000021e-02 1.000000000000000021e-02 1.000000000000000021e-02 1.000000000000000021e-02 1.000000000000000021e-02 1.000000000000000021e-02 1.000000000000000021e-02 1.000000000000000021e-02 1.000000000000000021e-02 1.000000000000000021e-02 1.000000000000000021e-02 1.000000000000000021e-02 1.000000000000000021e-02 1.000000000000000021e-02 1.000000000000000021e-02 1.000000000000000021e-02 1.000000000000000021e-02 1.000000000000000021e-02 1.000000000000000021e-02 1.000000000000000021e-02 1.000000000000000021e-02 1.000000000000000021e-02 1.000000000000000021e-02 1.000000000000000021e-02 1.000000000000000021e-02 1.000000000000000021e-02 1.000000000000000021e-02 1.000000000000000021e-02 1.000000000000000021e-02 1.000000000000000021e-02 1.000000000000000021e-02 1.000000000000000021e-02 1.000000000000000021e-02 1.000000000000000021e-02 1.000000000000000021e-02 1.000000000000000021e-02 1.000000000000000021e-02 1.000000000000000021e-02 1.000000000000000021e-02 1.000000000000000021e-02 1.000000000000000021e-02 1.000000000000000021e-02 1.000000000000000021e-02 1.000000000000000021e-02 1.000000000000000021e-02 1.000000000000000021e-02 1.000000000000000021e-02 1.000000000000000021e-02 1.000000000000000021e-02 1.000000000000000021e-02 1.000000000000000021e-02 1.000000000000000021e-02 1.000000000000000021e-02 1.000000000000000021e-02 1.000000000000000021e-02 1.000000000000000021e-02 1.000000000000000021e-02 1.000000000000000021e-02 1.000000000000000021e-02 1.000000000000000021e-02 1.000000000000000021e-02 1.000000000000000021e-02 1.000000000000000021e-02 1.000000000000000021e-02 1.000000000000000021e-02 1.000000000000000021e-02 1.000000000000000021e-02 1.000000000000000021e-02 1.000000000000000021e-02 1.000000000000000021e-02 1.000000000000000021e-02 1.000000000000000021e-02 1.000000000000000021e-02 1.000000000000000021e-02 1.000000000000000021e-02 1.000000000000000021e-02 1.000000000000000021e-02 1.000000000000000021e-02 1.000000000000000021e-02 1.000000000000000021e-02 1.000000000000000021e-02 1.000000000000000021e-02 1.000000000000000021e-02 1.000000000000000021e-02 1.000000000000000021e-02 1.000000000000000021e-02 1.000000000000000021e-02 1.000000000000000021e-02 1.000000000000000021e-02 1.000000000000000021e-02 1.000000000000000021e-02 1.000000000000000021e-02 1.000000000000000021e-02 1.000000000000000021e-02 1.000000000000000021e-02 1.000000000000000021e-02 1.000000000000000021e-02 1.000000000000000021e-02 1.000000000000000021e-02 1.000000000000000021e-02 1.000000000000000021e-02 1.000000000000000021e-02 1.000000000000000021e-02 1.000000000000000021e-02 1.000000000000000021e-02 1.000000000000000021e-02 1.000000000000000021e-02 1.000000000000000021e-02 1.000000000000000021e-02 1.000000000000000021e-02 1.000000000000000021e-02 1.000000000000000021e-02 1.000000000000000021e-02 1.000000000000000021e-02 1.000000000000000021e-02 1.000000000000000021e-02 1.000000000000000021e-02 1.000000000000000021e-02 1.000000000000000021e-02 1.000000000000000021e-02 1.000000000000000021e-02 1.000000000000000021e-02 1.000000000000000021e-02 1.000000000000000021e-02 1.000000000000000021e-02 1.000000000000000021e-02 1.000000000000000021e-02 1.000000000000000021e-02 1.000000000000000021e-02 1.000000000000000021e-02 1.000000000000000021e-02 1.000000000000000021e-02 1.000000000000000021e-02 1.000000000000000021e-02 1.000000000000000021e-02 1.000000000000000021e-02 1.000000000000000021e-02 1.000000000000000021e-02 1.000000000000000021e-02 1.000000000000000021e-02 1.000000000000000021e-02 1.000000000000000021e-02 1.000000000000000021e-02 1.000000000000000021e-02 1.000000000000000021e-02 1.000000000000000021e-02 1.000000000000000021e-02 1.000000000000000021e-02 1.000000000000000021e-02 1.000000000000000021e-02 1.000000000000000021e-02 1.000000000000000021e-02 1.000000000000000021e-02 1.000000000000000021e-02 1.000000000000000021e-02 1.000000000000000021e-02 1.000000000000000021e-02 1.000000000000000021e-02 1.000000000000000021e-02 1.000000000000000021e-02 1.000000000000000021e-02 1.000000000000000021e-02 1.000000000000000021e-02 1.000000000000000021e-02 1.000000000000000021e-02 1.000000000000000021e-02 1.000000000000000021e-02 1.000000000000000021e-02 1.000000000000000021e-02 1.000000000000000021e-02 1.000000000000000021e-02 1.000000000000000021e-02 1.000000000000000021e-02 1.000000000000000021e-02 1.000000000000000021e-02 1.000000000000000021e-02 1.000000000000000021e-02 1.000000000000000021e-02 1.000000000000000021e-02 1.000000000000000021e-02 1.000000000000000021e-02 1.000000000000000021e-02 1.000000000000000021e-02 1.000000000000000021e-02 1.000000000000000021e-02 1.000000000000000021e-02 1.000000000000000021e-02 1.000000000000000021e-02 1.000000000000000021e-02 1.000000000000000021e-02 1.000000000000000021e-02 1.000000000000000021e-02 1.000000000000000021e-02 1.000000000000000021e-02 1.000000000000000021e-02 1.000000000000000021e-02 1.000000000000000021e-02 1.000000000000000021e-02 1.000000000000000021e-02 1.000000000000000021e-02 1.000000000000000021e-02 1.000000000000000021e-02 1.000000000000000021e-02 1.000000000000000021e-02 1.000000000000000021e-02 1.000000000000000021e-02 1.000000000000000021e-02 1.000000000000000021e-02 1.000000000000000021e-02 1.000000000000000021e-02 1.000000000000000021e-02 1.000000000000000021e-02 1.000000000000000021e-02 1.000000000000000021e-02 1.000000000000000021e-02 1.000000000000000021e-02 1.000000000000000021e-02 1.000000000000000021e-02 1.000000000000000021e-02 1.000000000000000021e-02 1.000000000000000021e-02 1.000000000000000021e-02 1.000000000000000021e-02 1.000000000000000021e-02 1.000000000000000021e-02 1.000000000000000021e-02 1.000000000000000021e-02 1.000000000000000021e-02 1.000000000000000021e-02 1.000000000000000021e-02
-1.045541866900539532e+02 1.591458596153454437e+02 3.680941450761033451e+01 -8.260615390395463109e+00 -8.238276426211493231e+01 -1.254984756009503677e+01 -1.950302541645340284e+02 6.825779958667762548e-01 -7.938885620233985208e+01 -1.337069665553168996e+01 -1.862997794530526718e+01 6.170612333472514699e+00 -1.673070294428987470e+00 1.573362551903880160e+02 7.936724133179265550e+01 -3.644019742267619932e+01 -4.960123589671451327e+01 7.428540251712091447e+01 3.079779391673544708e+01 -2.381833300206226767e+01 -7.390988231312657319e+01 -6.916990732084688887e+01 -1.291913139976764491e+01 2.713290677382466498e+01 -1.827700155988068502e+02 -9.254725714116592883e+01 -2.447747452343445218e+01 1.890460053791336179e+02 6.635895017896376658e+01 7.202108928846388380e+01 7.531726041285577367e+01 1.102188761247332005e+00 -7.447622938985819019e+01 1.946680354053588360e+02 -2.297348325025429858e+02 5.527752209346172663e+01 -1.125763677782130685e+02 -3.254742097346928631e+01 3.792523840020765480e+00 1.188475698287083304e+02 -1.152324551387315665e+02 -1.274842148261443064e+01 7.249998127578575691e+01 1.628493020676451408e+02 6.687009893594175480e+01 -6.408129465203069230e+01 3.856337383481372427e+01 -2.665301629243194981e+01 -6.195966610310087930e+01 1.468492133172406966e+02 -6.604284171744379250e+01 -4.883129234514927219e+01 -1.307937480873454490e+02 5.524108622051763007e+00 -4.735991454075988116e+01 3.629223165975202647e+01 -8.323115711714754639e+01 -4.692888192150316229e+01 -9.511923608177536948e+01 -1.458308399298469453e+02 1.817538818195867378e+01 4.263606280078514033e+01 -1.155083443873322295e+02 1.204429769118342897e+01 -7.431142369683171012e+01 4.608569359496883777e+01 1.564037875048986450e+02 -1.353573221851184485e+02 -4.059117476530249036e+01 6.799860811715285003e+00 2.768708186562830242e+00 3.977788840230962109e+01 7.877935221804010268e+01 6.755582245325267854e-01 -8.323711498901131378e+00 -6.565182926363715410e+01 7.338293158781637260e+01 -3.064583208353870347e+01 2.469537341472381442e+01 9.759894423127430230e+01 8.270360131821414029e+01 -4.014141901022868097e+01 5.413419342368496956e+01 1.382914931027811747e+02 1.090343166226295750e+02 -3.719276261003840567e+00 1.633744419413624485e+02 -1.046394587248703658e+02 3.877437266010845818e+00 -3.934390393330640023e+01 1.939906317627354326e+02 -1.991018156209364065e+01 2.740066779474636505e+00 -7.203125904429838045e+01 -6.722976712705503566e+00 -5.983393464413527596e+01 6.360823166480358992e+01 -8.871936250384720779e+01 6.444907041579172358e+01 -4.483810140336179728e+01 -4.664810166619407283e+01 -8.600325238007923190e+01 4.974315700766026538e+01 -5.125851579131874303e+01 -1.400773425341342318e+02 -7.451123837025521368e+01 -9.811506549779690545e+01 -1.474873283110608497e+02 1.274897365613478826e+02 -2.569762708188363121e+01 3.007585176829987716e+01 8.411274206792118946e+01 -9.756030132642713681e+01 5.339608741352810739e+01 -4.062719764282600465e+01 -6.518431625018997977e+01 -8.460555259991970445e+01 1.905518761297651906e+02 -5.321728478419685615e+01 -4.648477884585576447e+01 -4.419926122727593309e+01 7.540682697424976766e+01 -3.887293734351917607e+01 1.293849573219721947e+02 -4.689377590054229472e+01 5.176532979371142318e+01 4.262998531921727619e+00 -7.600316511969914757e+01 6.448253197112849477e+01 2.602466398608628992e+02 -8.641631982353547414e+01 4.450975683630025515e+01 -7.160324967572159949e+01 4.245755153121874770e+01 1.231170903789218585e+02 -4.830520753527120803e+01 1.374568524206922682e+01 -2.530992370640587552e+01 -9.570140321268959838e+01 -1.634453513986483841e+01 4.075782271746263952e+00 -7.316709184332703231e+00 -1.400593564742492347e+01 1.108909019315034499e+02 1.224357977698129076e+02 1.750708870280573990e+02 -2.857784280076573964e+02 3.585169889861255399e+01 -1.483488481066853737e+01 -5.851772609985392393e+01 1.693541719640823260e+02 7.143669324094327067e+01 -2.497005377958927408e+00 -1.088466108849241607e+02 -1.018840280924847264e+01 9.401144630622457044e+01 -1.261563996952694708e+02 -1.583412016279054342e+02 1.008755758278173076e+01 3.982394136529283202e+01 -5.735561763965720417e+01 3.949838516346643047e+01 -1.005842984659458637e+02 -1.421242476258476586e+02 1.978583981396440805e+01 4.563844618499310002e+01 4.554403581446222482e+00 -7.835353007288021843e+01 -8.793588992906826718e+01 -7.916007508527854952e+01 -8.229758141312035491e+01 1.193806104631551435e+01 5.339479451101131247e+01 1.095632144651928428e+02 7.466076534590582980e+01 8.420520849751966352e+01 1.011449257471989398e+02 -7.033378496065151353e+01 -7.760745438010552277e+01 6.635994315842451385e+01 6.459920129507227671e+01 5.574741820178528684e+01 -8.820842140222449501e+00 -8.574730548694323318e+01 5.086268313571085287e+01 -1.687941451700185951e+02 6.332116180162787344e+01 -4.191219131774106188e+01 -9.085995629979741750e+01 6.996216170881250207e+01 -1.621438521583927539e+01 -7.267478507537742871e+01 -5.414382759895757147e+01 -8.678011094042130225e+00 2.290591409985544828e+02 7.269970034777368539e+01 5.178723015235919291e+01 -9.803686806655393582e+01 1.400598689434854123e+02 1.036686602099454513e+00 -8.535415174579989639e+01 1.472987752780443600e+02 -1.456835403077588467e+02 1.492090194165197481e+01 -3.071545058285398611e+01 -2.101374125432094218e+02 -1.274102169594825398e+02 -8.335631511421649975e+01 -2.817760555619935658e+01 -1.139104964307008174e+02 5.507264270828657260e+01 6.214646972197817831e+01 -2.641607896438321035e+01 -9.543341611450566120e+01 1.081021230990699991e+02 1.129125017278946359e+02 4.416862513974002269e+01 1.677565077087772494e+01 2.500179830065621047e+02 4.172554670259806642e+01 -1.143802562009190353e+02 -4.315399156748399889e+01 -1.614622679732568997e+02 3.049445491614013548e+01 1.466136284528366218e+02 -1.417952310891712955e+02 1.260525092884924163e+02 -8.704933897215087768e+01 -1.815228509049148542e+01 -8.233410432222424413e-01 5.063471004680650367e+01 -1.105190590999578504e+01 -2.188143937357612501e+01 -1.793426887128120484e+01 -1.214503806112209929e+02 4.439848242527798305e+01 -2.902705853070982300e+01 -1.232286926106738001e+01 -1.027642962273220739e+01 2.164292777612397174e+02 1.669569250056194676e+02 2.228220147065970878e+02 1.262467124582647671e+02 -8.293104557162047286e+01 7.195659578164215020e+01 2.028764659704335216e+01 4.546350322951121825e+01 -3.794588191300065461e+01 2.446653038681348278e+02 -2.236051113706599125e+01 -1.310098961351829701e+02 -1.430006894843076815e+01 -4.393862233755246649e+01 -7.411589322030117444e+01 4.134279013421323867e+01 -1.122080606559780236e+01 1.743066740637028431e+02 8.841328170957361010e+01 3.915824200649232267e+01 9.385059789360205684e+01 9.078302530157428407e+01 -2.202451639213283840e+01 1.338099208755411667e+02 2.546660393517463916e+01 8.591673848569662653e+01 4.573956749250271514e+01 6.626725712113278099e+00 -1.109312355994143218e+02 -1.111003457221938362e+02 -8.633679842635835655e+01 -1.491016984553089664e+01 8.312492911368258319e+01 -2.932761458520887743e+01 9.479074396031825245e+01 4.203065514993053142e+01 -6.971733151954359187e+01 -2.868438721982283113e+01 -5.615347686746659406e+01 1.684943478330689004e+01 -4.434524465742113364e+01 -1.074131585259244162e+02 1.164627500813211327e+02 1.163468343998694934e+02 -7.574297520010668450e+01 5.128031355107816935e+00 -4.347465028228262440e+01 -3.117202707879289036e+01 -1.087210392175760276e+01 -2.997426887391148398e+01 4.270172980796503026e+01 -1.348148825898915391e+02 -5.069570147575714003e+01 -1.455258795677010255e+02 1.668708804204732417e+02 -1.929488650699365238e+01 5.640769831248356780e+01 1.138683901376419705e+01 1.383116014141554615e+02 4.268790592559613373e+01 3.415814742796386838e+01 1.478768174035400591e+02 -4.716988318534858848e+01 -9.352240816798547485e+01 2.610715372749193008e+01 -1.512751143863156358e+02 -5.113679249060174925e+01 9.798704863813044597e+01 -1.219629620289795042e+02 -3.478763013803574466e+01 8.734319052036252629e+01 -9.031873685902989735e+01 -8.554690772478186034e+01 -7.903414645878244471e+01 -6.096979303059735855e+01 2.383206875034685197e+02 1.895832706340205789e+02 9.845085253683146220e+01 -9.772674401585501869e+01 7.153700913145259221e+01 -6.337256677064516452e+01 -3.018274266296685582e+01 1.590037540813040096e+01 -3.091702592945070194e+01 -8.956640764397771193e+01 -2.751877637765817841e+00 1.405761470596210749e+01 1.039919996505021658e+02 -1.227672085941045594e+02 4.016448903173485263e+01 6.092196278066170834e+01 3.292019509178512493e+01 -8.653485229201432105e+01 -1.418476007739401155e+02 1.843284426212190397e+02 -1.697920968633770755e+01 2.403447199400373790e+01 1.494752970274413428e+02 2.543051698548756789e+01 2.643926131251486922e+01 -4.250833881573828421e+01 8.452878546421818839e+01 -1.299922111184708626e+02 -2.935160812509256090e+01 -5.854967275904161106e+00 -5.087370639098844549e+01 6.101799525785160050e+00 2.021098548451088206e+01 -3.410677034393221874e+01 1.302258245140768445e+01 2.036540819595844880e+02 -2.612173179210185481e+01 -2.671618085997321046e+01 -9.684528228072527156e+01 -1.542408731311525782e+00 -7.688810412086731105e+01 6.045281567287043245e+00 1.067708488739518913e+02 -4.953093336347896525e+01 5.745695851813889199e+00 -5.169408475397163727e+01 3.138260980167415504e+00 8.300341290601423339e+01 -1.102912575342929387e+02 -9.222625187189915152e+01 -9.768986996049494564e+01 6.788477301511453277e+01 8.239545586519595588e+01 -8.773678746061753486e+01 5.966927404516881950e+01 2.461727961910359141e+01 3.682641197109262521e+01 -1.687548230443352537e+01 8.697836718125368805e+01 7.582324074683850768e+01 -7.349900738647517073e+01 1.117580572014090201e+01 7.694376344531181644e+01 6.930149840948305950e+01 -1.897289487859706014e+01 2.373504135266624004e+01 -1.261912638600407206e+02 4.621517791616138737e+01 -3.120767953709867015e+01 -3.113684275579141669e+01 1.648002664562546329e+02 4.510172339648808304e+01 1.143601066169322422e+02 1.817512444311578292e+02 -1.309892942905678979e+02 1.419054229788645500e+02 -6.043475178947569759e+01 -1.286154249964549194e+02 7.832031739806916448e+01 -1.275269018664342582e+02 -2.733374588683478734e+01 5.364485016924132310e+01 7.622446063338448319e+00 -1.600913864027932618e+02 8.022802357837736054e+01 2.403693188842820661e+01 6.572925474409161950e+01 3.457712350688500891e+01 8.998383909057633190e+00 -6.385789458578092592e+01 1.100667261968510360e+02 5.185941932485827266e+01 -5.909605707908245620e+01 -9.633885838012137981e+01 3.698685060777030031e+01 2.453472040170981217e+01 7.842903050103156204e+01 1.749458793421178200e+02 -2.340195351918097444e+01 -1.048334237697450675e+02 -8.051786537101143892e+01 -4.882226402911427243e+01 -4.212558947112669472e+01 -1.395819364262333409e+02 -2.145665542818149163e+01 1.232717167649790895e+02 7.089258701986911149e+01 -1.164202138314536512e+02 -1.427267919744257085e+02 -6.474821793356400690e+01 -7.255181155051228359e+01 1.397506680870974662e+02 -1.621978682121603015e+02 8.239888220610740177e+01 -4.381840961384169120e+00 -4.096300079739925337e+01 1.262393231278776184e+01 8.667725308203993961e+01 4.710151473783540155e+01 1.314808184279724514e+02 -1.514094751347942065e+02 -7.702867590297839229e+01 2.417644932448344264e+01 3.987868942239265380e+01 1.960456898330078843e+02 1.384006050717157450e+02 6.238495314700953287e+01 6.859132167332363395e+01 -3.227317376561744311e+01 1.443697206659776668e+02 -1.706832573346390518e+02 -6.036544641386424104e+01 -5.105870533973938308e+01 -4.926619885459962234e+01 -9.819151702465009635e+01 -1.427839391933558488e+01 -6.527110930463000216e+01 6.766822944830767028e+01 -8.678139124190950682e+00 -5.517938012904653533e+01 -5.911607574059539871e+01 1.713835321864300170e+02 5.620397305068848937e+01 -1.309809591075649671e+01 1.986985535793302518e+02 -1.030897480703149682e+02 -3.358908465315812464e+01 6.369957023833484300e+01 -1.378170474995072114e-01 1.427923924628714403e+01 -1.190644532031326435e+02 1.675798532854215068e+02 -4.651007696457631369e+01 -2.553865185962865425e+01 -1.042990780262317401e+02 1.196538859910644987e+02 9.107441691999878230e+01 -7.366286655192044464e+01 -3.582213620964019896e+01 3.705968257550591716e+01 -1.438589326270559638e+02 -2.256052117813212854e-01 -7.099296238386870073e+01 7.282759828910984723e+00 -1.026847515589222866e+02 -1.506252821126472270e+02 -6.716699930024157084e+01 1.407932493467825168e+02 5.367837967776647190e+01 -8.516899560211641074e+01 8.465645991210848820e+01 3.245994587664156228e+01 8.394749103266165946e+01 -4.000025254048807710e+01 -7.980304675267780112e+01 1.624055878024820458e+02 3.949677864799656390e+01 2.746772057758099450e+01 -6.925501654537329443e+01 -4.016322720394395418e+01 8.994315163455413042e+00 -6.820810092441683459e+00 -1.640249829833088597e+02 -3.286605541609070258e+01 6.109408717188050275e+01 1.058241043620418509e+02 1.477613166851519679e+02 -1.261909855358995003e+01 8.500519686492793880e+01 1.496199514115817806e+02 6.011104098026937237e+01 1.399393842901400262e+02 1.523352961730389410e+01 1.244721845681433336e+02 -7.955675256811706220e+01 5.051097587064489147e+01 2.772985264141581041e+01 7.183273063149349014e+01 -1.005872456832322825e+02 1.875668971200532837e+02 -1.217517787252405412e+02 8.361901504344079683e+01 -1.015508051945840862e+02 4.370371573936323983e+01 1.307027119651255020e+01 8.574880863983615598e+01 -6.961156730449658880e+01 -7.138102773212612817e+01 -1.049972276450432851e+01 8.419273093917280448e+01 -2.796569018559000952e+01 -1.538373737378359252e+01 -1.854016143529285543e+01 4.469861943646533220e+00 9.262177674645224101e+01 -5.899551691972237677e+01 -2.542301093050084226e+00 -1.827481442774289349e+02 1.150036444682449996e+02 -1.175913031854391448e+02 -6.953633670736353167e+01 -2.212862838268328503e+01 -1.016508287006156479e+02 -5.002293234630230501e+01 -5.517407900792751718e+01 -1.856008170555566394e+01 1.282078330095997387e+02 5.088851177036308115e+01 9.449918398326647662e+01 -1.281037606714382946e+02 -1.304157942702456410e+02 -2.699367406821583586e+02 9.621946960828124418e+01 9.806124783465031669e+01 3.987153659658265781e+01 -4.001941193149202292e+01 -3.494377078925434432e+01 -1.729109195348476931e+02 1.374596248219974655e+02 -1.010825183992444494e+02 1.006770746072257907e+02 -1.498016575670483803e+02 -1.348874333542088166e+01 -5.212388363006106573e+01 -1.122668302992390323e+02 -4.340530564309688089e+01 -1.184991040224465131e+01 -8.725618400489935311e+01 -9.736217389678350287e+01 -1.164211515378942252e+01 6.699385880388292946e+01 -1.172834996091320079e+02 -1.471439142695212965e+01 -6.941928463298447127e+01 -1.237031166376451239e+02 6.150747644129911151e+00 8.946592354153986548e+01 1.558866635091349337e+02 -1.793005534229987674e+01 -4.335160099758345353e+01 -1.169675851647471347e+02 -1.541644714626987422e+02 9.780716644265876880e+01 -6.851066646919834113e+01 7.438670576319911731e+01 8.848938094233984586e+00 2.749375142569643415e+01 6.956937457718360918e+01 -7.990653138116667265e+01 7.794176843263295495e+01 1.086626557558278279e+02 1.485234353815463919e+02 -1.097837115023934587e+02 9.801474044865742030e+01 -4.506988264376909115e+01 -8.561007675976854614e+01 2.023606113237237594e+02 4.636099138701433020e+01 7.870146776392340371e+01 1.994203379663813891e+01 -5.973330174103061552e+01 -3.293570270276735101e+01 -1.983814410076351180e+02 9.961456854799831717e+01 7.680966169260987897e+01 -7.136876975108638987e+01 -6.890212544745284617e+01 1.368844321935287383e+02 9.528931080067343373e+01 4.820564106297489104e+01 7.170144386335286413e+01 -7.361932985846891597e+00 9.728630076117795511e+01 -9.770292087044222740e+01 1.756539604943857000e+02 -3.722710830996989984e+01 -1.150508512208904790e+02 -3.558845941237788679e+01 6.763645887666160661e+01 1.388980900576175657e+02 1.206064236683821100e+01 1.638868607626731659e+02 4.918436525205059695e+01 3.173045711764392252e+01 -1.049291711247904999e+02 4.219387671563242037e+01 -1.178011410560798140e+02 4.500954661404111334e+01 3.632244920213906170e+01 -1.163550833181154616e+02 -8.018020908310347750e+01 3.760103849589702207e+01 8.225401231846040773e+00 -2.185911013539038805e+01 3.951599096687047563e+01 -2.018253226537068556e+01 -5.947852898254217990e+01 -2.480409972166114585e+01 -2.110709858282110574e+01 -3.753342881042468804e+01 1.767798794921755956e+01 -7.595592642601629052e+01 1.121278857086244471e+02 -6.998358961370942666e+01 -3.903557859235438965e+00 6.194521900594314445e+01 3.633690017999664512e+00 1.506860507318320153e+01 1.506790114543338888e+01 -1.103893892530684298e+02 -4.145192713104808746e+00 6.131286979647433810e+01 -2.181597052190539330e+02 -8.005574185939981646e+01 -1.062071762027527626e+02 4.129675597314994917e+01 9.068802982573062366e+01 -8.651927644357563452e+01 -1.582483370678758376e+02 -1.746020583964861146e+02 1.879466616713526861e+01 -1.365677886644800481e+02 -5.970874415954882330e+00 1.390633110750942194e+02 -6.632463859968862785e+00 3.494253226760680775e+01 -9.301065642101391973e+01 7.511581081954265926e+01 -1.114346099045298359e+02 -1.452711751596821976e+01 -2.842396659690063032e+01 5.411861905325260835e+01 -8.266738800986113134e+00 9.920231100066774843e+01 -1.146201330171862764e+02 -4.700384759961544034e+01 8.139304319539908761e+01 6.205035039984647227e+01 -7.716261925368786478e+01 -5.103628393112400374e+01 -4.631532996472785157e+01 -2.712427627149063483e+02 1.813362502676312715e+02 7.121964600619017460e+01 -2.204560539524250373e+01 -2.778801813990773084e+01 3.887494260036320526e+01 -7.865785987946519242e+01 9.306466741577202129e+01 5.660775792002855411e+01 7.653694897624248483e+01 -7.862402047678497752e+01 -2.471744665810329167e+01 3.110978040262466493e+01 1.624275715943069542e+01 -4.007170418700815162e+01 1.476602790265807243e+02 -1.613515614562771106e+01 3.310942301086235773e+01 -2.147923994288584879e+02 -7.905468877100074110e+01 -6.829537607435510438e+01 2.151591730918445222e+01 1.019581271127209163e+02 -2.165115074817035747e+02 -1.746866631430509926e+02 2.069368280289293693e+02 -9.861553082398714309e+00 8.965880112991833073e+01 5.843337101551039581e+01 -5.165062346617042266e+01 -1.223164826697794325e+02 -8.885324078285245264e+01 -4.690639054761657434e+01 -3.490907469873616265e+01 -3.657072201816468038e+01 1.503276097760223173e+01 3.479486279787626302e+01 1.558485562366599027e+02 1.151275274961589048e+02 6.575184168526900130e+00 -4.135735080325849466e+00 -1.481845438327835893e+02 1.117265330278685269e+02 1.487212860810932398e+02 -9.664427599585609130e+01 6.882801566541064631e+01 1.529219400795357897e+00 5.133532380892637548e+01 1.170239154040551028e+02 6.624364832980161566e+01 -1.251982949279259287e+02 1.502594551355855756e+01 -2.744586986896975489e+01 1.041271446328152805e+01 -2.152251806627825559e+01 4.232550963565459767e+01 -2.435509288877193512e+02 1.692121555187721356e+02 6.747134465403653358e+00 1.489349141537257424e+02 -9.800212007423226623e+00 9.918612218311757545e+01 6.694875946950932644e+01 -3.920522352807346067e+01 2.803998449655321679e+01 -6.813922880217842248e+01 -8.327063627674627355e+01 -6.736626254175061490e+01 -2.999843600601926497e+01 4.224667674045156218e+01 1.030628848249804292e+02 2.661457435927641768e+01 5.824409052922596430e+01 -9.814515910145972555e+01 -1.283867238321474247e+02 -1.262376437066179236e+01 4.340746704606827677e+01 -4.249488088586919332e+01 8.863610529805738736e+01 5.205139315884357387e+01 -2.587855778173137367e+01 2.804095260262116440e+01 5.753544018485209222e+01 -6.752276759940568240e+01 -1.252817849668783907e+02 1.330826454033057757e+02 7.317964518300015264e+00 4.698565648259228311e+01 -1.399900933205115052e+02 -5.008071833899522574e+01 -3.864271093179145744e-01 -6.178529187911415477e+01 3.986873543915987916e+00 5.283451566743793393e+01 1.749690312000651033e+02 3.673203287234474601e+01 -1.028048779208736718e+01 6.787326615394570695e+01 -4.267495904646715843e+01 -1.023288508476581029e+02 -1.297562565058405255e+02 8.784500866944355835e+00 2.358910289899535684e+01 2.242466173176742572e+01 -5.345713224712092426e+01 1.135336058868062850e+02 -7.596150294141885695e+01 1.206323024950555833e+02 8.206564919208496178e+01 -6.115735850595822143e+01 -7.977625769374853348e+01 7.923234214090901162e+01 1.916560531243752408e+01 -4.944880501401203077e+01 -5.065322751513444643e+01 1.287718909488065151e+02 5.399986668006274471e+01 7.528077286236248256e+01 2.462194885737458705e+01 -3.957037184254895834e+01 1.011325577545698167e+02 -5.141194711148752816e+01 5.609864310184603520e-01 7.209080419476813972e+01 9.387221095888141065e+01 2.409035622159588002e+02 -1.652080874114995481e+02 1.517041935677305844e+02 -6.365486410891759306e+01 -1.437339962038604746e+01 -2.375044150445765467e+01 -1.955418104707234050e+01 -5.195482250219463083e+01 8.780965809578053438e+01 1.736736153415693025e+02 -1.121081335390240667e+02 2.920944607165435869e+01 -1.198616474355689974e+02 6.632038759035192754e+01 -4.199801561656005333e+01 -7.663411549933279332e+01 -5.100191623765102378e+01 3.898885842187188899e+01 1.830477223709013401e+01 -7.734740252783177539e+01 -1.334919069165585483e+02 1.965082780558974562e+01 1.492664473824899574e+02 1.353545323738345019e+01 1.729027956862186102e+02 7.058962834849965340e+00 1.276355545591182903e+02 -3.278676118815685214e+01 8.610781078116345100e+01 -6.776262430594940156e+01 -1.071278492235800144e+02 4.691873627310612704e+01 -5.504415367375053592e+01 -7.458601979191766418e+01 6.915763512008760472e+01 6.172600360667866326e+00 -8.954777469563059356e+01 -1.431418313113829868e+02 1.406518336198197403e+02 -8.479668729727961818e+01 -2.276962451200770676e+00 1.142721849489295209e+02 5.518030626727149013e+01 -9.349804293063003513e+01 1.016716065168236227e+01 2.685712204440577580e+02 5.073999973053174273e+01 -1.502250007008710497e+02 -4.548858215154891127e+01 -5.857409002153226396e+01 9.152553755806593472e+00 1.025515057819724092e+02 -9.871294174764932450e+01 2.061374733742720267e+01 1.244388318978798935e+02 1.790508038978974525e+01 -2.015962773756416766e+02 4.604184016811637292e+01 7.204598760223041154e+01 -1.298906903332502871e+01 3.128075540757221518e+01 1.918641175085687989e-01 2.157718335112136643e+01 2.647551470706097021e+01 1.106086406913137381e+02 9.363790930249795963e+01 1.498112598224987835e+01 1.422746578317657224e+02 -6.112676613408757476e+01 2.355213107600963838e+02 6.212083930564918433e+01 1.353779745572084607e+02 -2.096739790413036886e+01 8.604307961770994950e+01 -4.666419534743568676e+01 -1.398121614222567359e+02 2.496616210347508513e+01 9.066461622184657188e+01 -8.360955798296545538e+01 -1.000566663404822947e+02 -6.356443494648866732e+01 3.500023618580339502e+01 -1.090480304652736834e+02 7.133672727443186545e+01 2.676155836567141222e+01 -9.324898796418987956e+01 1.814044995981470265e+02 -1.123329314643782517e+01 -9.724995331431347267e+01 -1.284036224477392274e+01 -1.952453828745169417e+01 -1.339479785798369562e+02 -3.821907059395744000e+01 5.877696729791698260e+01 1.259357470432957911e+02 2.776857287663966289e+01 2.553112141141177460e+01 4.278842698768617225e+01 -3.409229300264797757e+01 -1.391489046400280074e+02 1.521607792790515923e+01 2.954434283670567041e+01 1.272118307053494846e+02 -9.411863839485075545e+00 -7.272141417336872848e+01 6.993328364146019283e+01 9.159385148246516062e-01 3.031318860513739111e+01 1.329762204044399994e+02 -1.695303881280894132e+02 -8.873738961704785311e+01 1.191925857998193266e+02 -2.003026724432158971e+02 -1.707510027897684211e+02 8.454795674212856227e+01 1.429809554305271604e+02 5.891433027141503231e+01 -4.177264360416971911e+00 1.445511664748032103e+02 -2.038671292372440575e+02 9.949117064236041585e+01 3.934324197138500523e+01 1.179813922571997864e+02 -1.751010130830615878e+02 9.882056773687816076e+01 -2.617001823972447383e+01 -1.241211877588780084e+02 -4.938321074556879964e+00 -8.576763008758152296e+01 -1.499747391458916113e+01 -4.081070108441611666e+00 -1.143851230516697655e+02 -1.144986852800897736e+02 -5.808196196482376195e+01 -1.196684624682511924e+02 1.865888202774041815e+02 -1.496589271676183728e+02 -4.660253456603378908e+01 1.602052090369037103e+02 3.150993243111488695e+01 -2.748338108769824544e+02 -1.180775034432658686e+02 3.294530322784994070e+01 5.076669807559148495e+01 7.886412220556144881e+00 -1.435063134145351285e+02 3.313155652455461819e+01 6.996952696789067616e+00 -6.901564360181721725e+01 1.882584825803664330e+02 1.880605113175550969e+02 4.050039158698766073e+00 -1.936527487539893286e+02 1.169578079268202373e+02 2.853361538622833038e+01 3.581548091435193371e+00 7.107303299075576319e+01 -1.926666155574960442e+02 -1.281305539361653985e+02 1.309073611666541126e+02 1.018207295147694396e+02 4.909593843230332766e+01 1.328989684309331381e+02 -1.655131370871260970e+02 -1.902506638730313782e+01 -1.210479475061953849e+02 4.059704612418880032e+01 -9.645206274188066686e+01 8.086337600715120288e+01 -3.152746162027185406e+01 1.150186129139305535e+01 1.647604802431161772e+02 2.654645795127247965e+01 -2.447207463819518125e+02 -1.173765359549756084e+02 -7.737092311399749178e+01 1.468034069327725035e+02 1.164727301683353566e+01 -5.008802955120706457e+01 2.810867338566311346e+01 5.799063857874909189e+01 -3.669218249581260238e+01 9.981882123990126843e+01 -9.354877185150137109e+01 4.569374943158587854e+01 1.039313766692632015e+02 -3.303557210745643147e+01 -9.110922592806966236e+01 -1.053805408314101300e+02 1.111989441147418347e+02 -4.614910037033031642e+01 1.824928213470629714e+02 5.311468197063057062e+01 1.029995593437497234e+02 1.713815492366192927e+02 7.939540561843336341e+00 -1.154475648695266869e+02 -1.538413376660639642e+02 -1.059797445126239950e+02 3.949618726904088106e+01
-1.230248846916666139e+01 -4.418145564009757109e+00 9.388194602980640013e+01 -2.077339628802551772e+02 1.409526318101682989e+02 5.755055605084250914e+01 1.379871364707051100e+02 -1.171503338323685597e+02 -2.494433968087121922e+00 -2.180625460136333871e+01 -1.990623053957711193e+02 2.963667251158146243e+01 -1.660523933378713579e+01 1.109320453297140574e+02 -1.134944166993983856e+02 5.596958255618071121e+01 1.135803457142597068e+02 -4.168509512551613483e+01 -4.490819982200862626e+01 -2.441414965898884404e+01 5.600201600774867927e+01 5.714802701946241115e+01 2.943019359515854561e+01 -2.108047880436603236e+02 -4.670260194239321550e+01 8.306280621802055464e+01 8.997829262714244436e+00 -9.434262910924026357e+00 -6.030370439889726697e+01 -1.408842291295200511e+01 6.649537019469401855e+01 -1.318302433577617876e+02 -5.621300597455002190e+01 8.112950607177427997e+00 1.882651017732798380e+02 1.922839019427335359e+02 -2.919940596450935999e+01 5.066563370863534743e+01 -2.226062576620984890e-01 -1.265865075747306321e+02 8.699259340108223171e+01 9.718418420637213728e+01 9.836608326838259586e+01 1.057013033923178646e+01 5.608275205039754496e+01 4.361468299039783147e+01 3.523614198091730998e+01 2.664949287984957493e+01 9.996326479799903098e+01 8.130590776506592476e+01 5.942352195131118009e+01 1.477781327204122306e+02 2.247594761251264117e+02 1.773225203423058076e+02 -5.362139716690131053e+01 4.466446000872772970e+01 -5.823197228961849703e+01 5.109012995133832646e+01 -1.742789246026132162e+02 5.121556122192053806e+01 -1.855798113349701168e+02 -1.529581815742338051e+02 1.175089393114309999e+01 -8.421599974695455515e+00 1.536565869421650916e+02 -1.885871003473641565e+02 6.822879609569767467e+01 2.084157635593473685e+02 -6.750605512401311792e+00 -1.766867541537606030e+02 3.216765413798804474e+01 1.787408524346205070e+02 -5.541649361444954280e+01 -2.417639063047154764e+02 -9.300082839374049115e+01 8.134307343288723402e+00 -2.086411341539416355e+02 2.915469529422157180e+01 -1.627441865333894384e+02 -1.682646138562383555e+02 -5.192026372696405190e+01 1.382255934032208415e+02 6.295665428118215345e+01 9.644141673685362903e+00 -8.049386619364967999e+01 -3.864671261855163209e+01 5.781519086831930565e+01 -2.107266679182245923e+02 4.909332820452096513e+01 -6.795965170247562526e+01 -7.096420941639959779e+01 -1.604900643515912293e+02 5.899027126105679031e+01 8.410978350556447936e+01 -1.473405115379094070e+02 1.569102410374262035e+02 -3.618619055825308095e+01 -1.536780250507682766e+01 7.965280991780343811e+01 1.420065992593015949e+02 1.979593816742278278e+01 1.375720907990218507e+02 -1.684313079150719616e+01 -8.238566407371766331e+01 -1.779828670538735480e+01 9.178603609138976083e+01 4.201479728466127028e+01 9.139731594876541010e+01 8.816025214720802694e+01 -7.766802736174987842e+01 -1.587499513585312627e+02 1.149575944684928714e+02 5.066721641496246065e+01 1.522673475268086918e+01 2.855784459420517507e+01 -6.346758991887874402e+01 8.972118318709618734e+01 8.399785573540302153e+01 -1.287196584425837997e+01 -6.660676877029381160e+01 2.864008878055686935e+01 5.883814254921613696e+00 -5.742443039561480589e+01 1.585396473334120060e+02 -3.054655897718444635e+01 1.136659063668202947e+02 -6.550671517691884560e+01 3.589077213888932505e+01 -3.368532582951031884e+01 8.369029330814269940e+01 2.193412275304516612e+01 1.080890386774179603e+02 -1.085373506871761720e+02 6.953384696444641122e+01 1.154523844560610684e+02 -4.177879693884509749e+01 7.205157913645392931e+00 -1.203654229848893387e+01 1.093194758857537465e+02 3.496677636726421845e+00 1.577099438510287257e+02 -1.323228380472081653e+02 1.091229809362932173e+02 -8.536425977205010440e+01 8.970713867291186716e+01 -1.282922162573618436e+02 2.761193357395893599e+01 2.318765941884487702e+01 1.637408723320415316e+00 3.400137926607985150e+01 4.314583900396423388e+01 -1.155488832240838804e+01 1.027485455439001072e+01 1.012384020600787267e+02 1.191526872727520185e+02 -8.125227956280275521e+01 -5.070330707571033457e+01 4.430079275532080629e+01 1.400660357406290801e+00 -1.283751212718135832e+02 -5.170963811264362420e+01 -3.314163561648084766e+01 4.579707677885929940e+01 -6.137398917418191502e+01 2.145748690493983446e+01 1.503603707357573285e+02 -7.447380682921092898e+01 7.584514951834209739e+01 7.881290657462101024e+01 1.061857365338968684e+01 1.158232892663779126e+02 5.900247026755963020e+01 1.577014062182578584e+02 -3.254520571717019095e+01 1.055361861982775054e+02 5.218873086768762448e+01 -1.507079990456253782e+01 1.917600151173643610e+02 -1.303707398319928643e+02 4.596275242132307426e+01 -1.763321955357143906e+02 -7.912309531036505916e+01 3.861678491806673463e+01 -6.793202303608349268e+01 -1.465350449971434443e+02 1.875611172620230889e+02 -8.071778765769620634e+01 -4.470325384322910622e+01 -4.355063440423501930e+01 1.146049295513999482e+02 1.833360461566919355e+02 6.094782927097708836e+01 1.376842235738131421e+02 2.066589774923013181e+02 -1.480471581178645302e+00 1.533297247386999800e+02 6.673929102665636037e+01 1.792811635905644607e+02 -1.184927708585404531e+02 -1.111357426247375280e+01 6.004293660853440073e+00 1.788351701464156065e+02 -8.551273677430927478e+01 -5.704257968820319036e+01 -4.982902968166931856e+01 -1.262673391827239726e+02 4.407568369668465991e+00 -9.502795918751917270e+01 1.452438654132786553e+02 2.214931688208752902e+01 1.127163190946301974e+01 6.808425212819497574e+01 -4.602839764954105739e+00 1.102276499727283863e+02 -1.496479158395360969e+02 4.280101802993500826e+01 -1.607812687345519294e+02 1.105790860262061273e+02 9.056666103093738229e+01 -6.333283428538027238e+01 4.410699470377030451e+01 2.242684704871441852e+02 -2.871745427416402308e+01 3.921379680311816429e+01 -3.078337697696918696e+01 5.457504787838569627e+01 6.049167609173924376e+01 -5.931718551774443959e+00 9.591893411852213092e+01 9.547719699597693932e+01 -1.825384444991804003e+02 -1.442768618195218266e+02 -1.128690171417111827e+02 -8.852159080475040298e+00 -1.409757354607787931e+02 1.087958675611440356e+02 1.038455120182952527e+02 5.558200648380955755e+01 1.051544429471456965e+01 1.484232188548109264e+02 7.903646250097369830e+01 6.357067909586600507e+01 -9.559683950057981860e+01 1.435578702457936799e+02 -3.418755903135111573e+00 1.029692282417764204e+02 8.309789369798636471e+00 3.458062603951388780e+01 -7.120545336799145275e+01 -8.537391029885188232e+01 6.737275535901838452e+01 -3.665647950019372381e+00 1.375028093773848639e+02 -1.179666364086509311e+01 -2.663171316748253137e+00 4.313953545249252386e+01 2.126652883596879562e+01 1.330144122336992041e+02 1.387075628901034285e+01 3.373306761502655604e+01 -1.454275597372842981e+02 6.185394354587430854e+01 1.256197373404512518e+02 -1.646519549562330198e+01 -2.142529416287303832e+02 7.928962543794098394e+01 1.278606676259987722e+02 1.917332857418477232e+01 1.773511852944645284e+02 -4.091829811822222496e+00 4.016307155643423243e+01 -4.090911803408090464e+01 -1.297840229969162067e+02 5.248619153521551084e+01 -4.445515179270029904e+01 -7.573207665196491689e+01 3.857836585466229451e+01 -1.727835700219194166e+02 6.693606891872894948e+01 1.537963506261932594e+02 -9.460358587289097443e+01 1.617278439151333203e+02 -9.114312840209819910e+01 -5.551764503072375234e+00 -9.874018437063597275e+00 7.161921552439292782e+01 -4.357406461888871263e+01 -1.005850382081058285e+02 -8.273770790988415058e+01 1.360711599575308810e+02 5.516079150286913091e+01 -1.230493613871183811e+02 4.101476625056632130e+00 4.045769670055265976e+01 7.695998136634786135e+01 -3.759017184033596237e+01 5.584434849411252344e+01 -6.428251894091964402e+01 -1.512151952210244588e+02 -3.225382387236998483e+01 1.313085273670668585e+02 -1.056862623672917465e+02 -5.920264878312568868e+00 -1.516278640292523789e+02 -4.568577746991076438e+00 -1.358551712009211769e+02 3.071494726410302079e+01 5.613562972936984607e+01 -4.684430333292751669e+01 -7.664493528495876262e+01 5.260641899664790344e+00 6.925093139951162868e+01 -6.306090452352304254e+01 1.252736264279212293e+02 9.825210063153538442e+01 -1.187208148291483525e+02 -9.809333555924874304e+01 1.256015594675217386e+02 6.626415363298602301e+01 1.396422293630066918e+02 9.279694767208961537e+01 7.536404690539424678e+01 -5.601588013789119458e+01 -7.590316128781370253e+01 -7.153743507402573698e+01 1.898732568471828586e+02 2.846916642793467034e+01 -2.314634959016152038e+01 -6.352086122845643956e+01 -4.625760474714985548e+01 -1.217747177725326964e+02 -1.524168500408677396e+01 -1.622436583709824163e+02 1.155783913986783489e+02 4.247016778818716176e+01 -1.064820296262882380e+02 -4.476443166747685609e+01 1.106705005504871053e+02 -8.953327913636869084e+01 9.506965661536311529e+01 -1.095358925436516557e+02 -1.089814254658623405e+01 -8.827686657009439841e+01 8.297982306895671911e+01 -3.924612983352668039e+01 9.430613657071669209e+00 2.715066543452472203e+01 -1.170144278693913833e+02 1.154531371208137003e+01 4.473494933961707432e+01 -2.059976726627116150e+01 -6.351510646439069063e+01 1.872565459463033903e+02 7.989486199217245144e+01 4.348646651913752947e+01 -2.900881364131737783e+01 7.406501997931431447e+01 1.548486884810924664e+02 -8.515296832287417317e+01 1.935381971504667149e+02 -1.229658813327706923e+02 -1.698550765130638638e+02 1.401438693159165041e+02 -2.161405767907758957e+02 -8.341567656277623088e-01 -2.262531869922992200e+02 -1.411779986135882723e+02 6.631317209389534639e+01 -1.344485891094138594e+02 5.389769550864244962e+01 1.016256082394568523e+02 -1.480442214590306662e+02 -2.775374459893547652e+01 6.967712435591441533e+01 1.236707772106304475e+02 -1.719542216280399032e+02 8.085431883077536952e+01 -9.050747881527324523e+01 -9.073363385226700828e+00 -1.276251036637583702e+01 -7.347096291794443346e+01 -8.336833027989737843e+01 1.675334802747538276e+02 -2.008935183482568476e+01 1.266198413481312901e+00 1.203408306801187280e+02 -8.019446231640149847e+01 -3.181951665692423248e+01 -9.957113438126323501e+01 -4.511476224484813713e+01 4.728051813249871671e+00 5.485509345961121852e+01 -1.249664289770238099e+02 2.195490378628031181e+02 -4.987407484508949551e+01 1.135256933574003710e+02 -4.522979740208689492e+01 1.109524207860020510e+02 1.290547729200504818e+02 4.438897517799817649e+01 1.131378735930695427e+02 -4.008417379148131232e+01 1.298075193066804047e+02 -1.452039047720726046e+02 -6.067263149416358914e+01 -5.841941183817884564e+01 2.377368348221944672e+01 -1.505718749385438286e+02 6.729658272349153947e+01 -2.862616882299213472e+01 -7.668866039122453060e+01 8.310442157165140031e+01 -1.402407594061732254e+02 -8.468941331619132029e+01 -4.891609182737180817e+01 3.068354782274381876e+01 1.204548711735996704e+02 1.083876719811684524e+02 6.408549473831391197e+01 -1.401409457590308882e+00 1.623912565319423891e+02 1.137211159070803461e+02 -8.774426150477803787e+01 -7.244924318044701295e+01 5.094255405111597668e+01 9.190380183778270151e+00 9.093587625834739185e+01 1.548369394945831061e+02 6.554094102046663295e+01 2.274524038010680371e+01 -9.490699791121053863e+01 1.593827028365346052e+02 -1.054689485325971248e+02 -1.533578480522099028e+02 6.100519801653523899e+01 1.034845067810632173e+02 1.825707560236304161e+01 -1.288236217884563644e+02 2.753448841496979682e+01 3.931373989344999842e+01 -3.832414222254992842e-01 1.214600847332075801e+02 9.083832277670987310e+01 1.587673016562695238e+01 7.264344077250214582e+01 -9.907973091367942686e+01 -5.959062682990730941e+00 9.119569539975235273e+01 2.753827702029083113e+01 -6.027061140394329186e+01 1.836216345000202637e+02 2.142222784354943599e+02 -1.162178967854659390e+02 -2.563431323618682356e+01 -1.946821747319373515e+02 -6.687389518855735560e+01 1.449802402684299807e+02 3.074458736124393354e+00 -6.575973726139135067e+01 1.516384586163329686e+02 -5.783614615212422905e+01 -1.487570926727514973e+02 1.264694562614760116e+02 -6.217142776433567519e+01 3.202215101991750146e+01 7.989658227283932490e+01 1.278478154671617695e+01 -2.205871938537189294e+02 3.921743317611371538e+01 -5.759521439326250380e+00 8.345888466587301480e+01 -2.181988193477920390e+01 9.351524982909461414e+01 1.576661565165141354e+01 -7.830540955913109258e+01 -1.897292535903806865e+01 -1.622215714869124383e+02 1.063991063870752498e+02 2.341588665671638836e+01 -3.849852608049205571e+01 -4.792208085668881523e+01 -5.828245272879394889e+01 3.809457419567295489e+01 1.487339100049513263e+02 1.227933304094237030e+02 3.980372822188474657e+01 -1.831238781453646993e+02 -3.590615978510344064e+01 4.057061227339235643e+01 1.085455080197856716e+02 8.063812229788644004e+01 1.426382158865710892e+01 -1.721121318790980013e+02 1.217894152465999440e+02 -2.070260814562660698e+02 -1.904466073391559178e+02 -1.668293144474842560e+00 -6.825016297592259207e+01 -2.237051828209678206e+01 8.059755496333754365e+01 5.173770515420051908e+01 -1.028536552818147527e+02 -1.401854591335285818e+02 1.347501982155050015e+01 1.144450613100665208e+02 1.908333117672543722e+01 -5.247188077880794310e+01 -4.784345517960118599e+01 -1.075654567905815640e+01 1.493217909792907108e+02 2.067891527082552017e+01 -1.637208917439872380e+02 1.209862879363947457e+02 -6.301214504400959981e+01 -3.928913271275830343e+00 1.450787827905569998e+02 -4.921797884042963034e+01 -1.847505986744031148e+01 -1.034944132401580958e+02 -5.641707830305745297e+00 -2.245110202117851017e+01 1.240069329987641993e+02 1.130756682841286391e+02 6.366756374031401577e+01 6.170216434109241987e+01 -1.761579258121992453e+01 1.272735813618390068e+02 -1.062670033447183471e+02 -3.996392816789783087e+00 -8.577476481118462459e+01 1.479178928041417294e+02 6.868741423883639641e+01 4.863686861106404535e+01 7.740803199568263793e+00 -5.024653387117476200e+01 3.238311265610305156e+01 6.302941846314190855e+00 3.509378965201770839e+00 2.267846457294263018e+01 5.630213056544342010e+01 1.603786748301302509e+02 -3.664748592947312744e+01 -4.893356264550509849e+01 6.292318817859109714e+01 1.089320810036445835e+02 -1.207948760616103634e+01 8.664992574045720630e+01 9.812632999721060401e+01 1.985949906878467743e+02 -8.149811190525841198e+01 -1.155110700561268970e+02 -2.699188084215147754e+01 5.858292708607475419e+01 -9.560555040858838893e+00 1.011526266051942429e+02 3.509945903198661199e+01 -1.531375151323638022e+02 4.241717121378562894e+01 -8.423432100809340284e+01 -1.273789090478837380e+02 1.266426574754027712e+02 -7.163361919328448835e+01 5.575771499939239106e+01 1.045913176436841354e+02 -9.312624888875363638e+01 2.215506201064873792e+01 -6.788083448695269340e+01 3.794397067355742337e+01 -1.079454386946158735e+02 5.799879689238052549e+01 5.147438179638384526e+01 3.585047270034132261e+00 7.900227633826330020e+01 -1.437442774919391866e+02 7.181244879005508608e+01 -2.764075604769099570e+01 -1.577577810163937215e+02 8.829517521695819937e+01 2.295921231004307117e+01 -1.830739685044224530e+02 2.197523632260314628e+02 -5.115433174181767129e-01 9.818221437034600285e+01 -1.125974090092246627e+02 -1.813240600957721824e+02 -8.713978225235605635e+01 2.363602406013117996e+00 1.333672365231512060e+02 3.654335047253511437e+00 -8.925691609725333819e+01 4.695755769884307540e+01 1.279581021785963628e+02 6.063385716224671995e+01 -4.826543552534001691e+01 -5.523694956578811599e+01 7.889853785118555152e+01 2.864463349559986582e+01 -1.826711603509505153e+02 -1.935281564923419495e+01 1.578061635271554621e+02 9.220349026901577361e+01 -5.356146610116554996e+01 -1.043933636091139050e+02 -3.983101503808904909e+01 -4.489626956470848285e+01 -1.068580070960987172e+02 -1.716479273178735099e+01 -4.262609041842303981e+01 -1.060945571957781794e+02 -1.232320712152391877e+02 -2.520568223555449450e+01 -1.173711298981361182e+02 -1.250314664179990558e+02 -3.579201808534765661e+01 -5.163245252754602177e+01 -1.037098985252702477e+02 1.800406961583129259e+02 1.016588528610253483e+01 -2.719516920467332710e+01 -1.642741164359517114e+01 7.608731796212644838e+01 1.514757646415549353e+01 2.422367628793458039e+01 -2.049189121663458124e+01 -4.482596782177628825e+01 2.021186921219799970e+01 -1.406289527768509231e+02 -1.539364117433337071e+02 -8.735136626881268285e+01 -1.845725731112874826e+02 -8.664442137740542194e+01 8.289670005017076448e+01 5.937991860013513445e+01 -2.517785560094846176e+01 5.876466486585130156e+01 -1.514671405150127157e+02 -3.960360795752890084e+01 -1.123468682975286015e+02 -6.454422864371291269e+01 2.041167304751244274e+02 -1.985340873860464797e+02 1.985053053314682359e+02 2.410706683873899792e+01 -5.455717795350710730e+01 8.912007627469880333e+01 1.199920264953053390e+02 -5.017397179170936994e+01 -1.971063307951272066e+02 -1.441856837174042028e+02 9.893711800764729958e+01 8.099808378736250347e+01 -1.310834203134514269e+02 3.085680261149614978e+01 -3.841057510823021914e+01 -7.485847924542026988e+01 -2.749642176798637649e+01 -5.299362586529231578e+01 -8.355440294512327171e+01 -3.296989230567887574e+01 4.423654526272207121e+00 -3.153701375962723930e+01 -3.299713610924823737e-01 -1.380238504133625277e+01 8.887211844560728480e+01 1.229726186903294263e+02 1.271586231042452653e+01 1.626529403414130925e+01 -6.110744130724452816e+01 -1.896683213543296631e+02 3.272912741743172660e+01 -8.867915615535254403e+01 2.500680716974101969e+01 -7.798772951449402413e+00 1.066168779713794645e+00 7.009528368660740227e+01 1.179024489038482812e+02 -6.819861151876267513e+01 3.675133116128481703e+01 -1.866355727394549717e+02 9.387438286764295370e+00 6.640811257087349873e+00 -1.185562831362645539e+02 -3.258571440577308209e+01 -4.287476460036892689e+01 4.597942535233777051e+00 -9.887460314643794845e+01 2.615618712843993876e+01 -9.442573352227114469e+01 5.415220200315382471e+01 6.567123762235506490e+01 3.570614543717874767e+01 -2.805885113951289966e+01 1.039779027523573092e+02 5.911996034649254028e+01 7.738814264448723179e+01 -6.482419680361276448e+01 1.954348164490106043e+01 1.236503396044811467e+02 -5.658837681829375299e+01 -6.695695122900457541e+00 3.092141073885571600e+01 -1.242032338628851278e+02 9.454790068744820530e+01 8.660457419419331870e+01 -9.785850303685303686e+01 -7.960153396955416838e+01 -5.370421991905469383e+01 -4.418094063355525236e+01 -1.548204076373361318e+02 -1.313264874570800771e+02 -1.280637272794647288e+02 1.021162953906508193e+02 5.782823938024671406e+01 1.541784950929280740e+02 6.974662432428043068e+00 -8.273644026431747989e+01 1.814710549054563060e+01 1.335203779584368355e+01 -6.144841007000583488e+01 7.152346856300475508e+01 1.140128446798349415e+02 9.587007045339930755e+00 1.383742143392334754e+02 2.169396347128596858e+01 1.070972809702153228e+02 1.452233397094767042e+01 -2.005803547937643430e+02 2.107859465133311971e+02 -4.722979031553976625e+01 -1.438110164346196882e+02 -6.483624496419675154e+01 -4.129488801886574123e+01 3.982499897912404663e+01 2.460073518900690459e+01 4.397754113196255332e+01 -7.109229113532188649e+01 1.174712109425709059e+02 -8.278065609698843730e+01 -6.730582497842554801e+00 1.365377777444294338e+02 1.050205428023104020e+02 5.564930079380933847e+01 -1.696067259334641619e+02 2.435701309072258880e+01 1.343860289534768242e+02 2.241102668325300584e+01 9.336259807225748375e+01 1.017570530467757095e+02 -2.022247912656802100e+02 7.350700350241025660e+01 -5.516930117464087857e+01 -2.148294125460755595e+02 8.447096476229663153e+01 2.341394538038525397e+01 -1.158427837164119012e+02 -5.550841842677774451e+01 1.313455480839754443e+02 1.395442577262329564e+02 -7.168128618680484010e+01 -1.205733737530372167e+02 -7.860659818456890946e+01 -1.561060582678856292e+02 1.841961534987343185e+01 3.569193728781380059e+01 -1.600502824792394208e+01 -1.162599199451324594e+01 -8.395089635849781473e+01 -8.264922753699656255e+01 -2.308933791734922636e+01 1.249231717102058354e+02 1.268481057652324466e+02 7.549020676894186010e+01 9.034292992014827917e+01 -7.290800641243082225e+01 -1.677191887383441724e+02 -1.220787332002784531e+01 -2.138384551628343644e+01 -6.583961291030607299e+01 1.363480288093914750e+00 6.764220250545696445e+01 -4.899135342319123509e+01 2.293166180725886960e+01 7.334699513601538001e+01 6.493478224887743977e+01 1.024044379055226557e+02 -1.381202122784515609e+02 3.669819345705086278e+01 7.715539908031635719e+01 8.775266050118226246e+01 5.466217967161155400e+01 -9.559888332813898160e+01 1.267882282667166862e+02 1.180804616561629814e+02 8.877837403690929818e+01 9.403650517835419009e+01 -7.797061541904969317e+01 -1.374916708098164442e+01 -1.201117974898665253e+01 7.132347040612741296e+01 6.017593799968686596e+01 5.191710874934269526e+01 9.032940806841159542e+01 1.079213645606157712e+02 1.148522972422095023e+02 -5.998851286422971185e+01 7.466742453002288471e+01 6.039306273619863674e+01 -1.089713914196021989e+02 1.218872534505354110e+02 -9.271145131866289191e+00 -2.587993813260281684e+01 1.846922450429121909e+02 8.204829987782657952e+01 1.150722036485046686e+02 -1.338469643918542431e+02 -1.463368535742025642e+02 -1.424672382710801628e+02 -1.132833097713340891e+02 -4.108344267118028625e+01 1.018084424294276431e+02 -1.565688728519374422e+02 3.015217478035461340e+01 1.340184210071179791e+02 -5.513650957162781197e+01 -8.483372591840746679e+01 -3.266141532926787505e+01 1.262127761887059307e+02 2.112206421001459375e+02 -6.205118389074526419e+01 1.844017193125487353e+01 -2.572034351938230756e+01 6.371275461005661356e+01 5.601042688416610105e+01 -1.983902725605417743e+02 -8.251697362657495205e+01 1.280661202532637617e+02 1.301094376434052720e+02 8.799813608314096314e+01 -4.643056576633900789e+01 -7.054787038057575899e+01 -4.222696506154309759e+01 -1.644899212937087611e+02 6.622950204259304030e+01 -2.387093645258214991e+01 1.549760079203076941e+02 -2.604850237055142514e+01 -2.931899086427570751e+02 1.349760259813192249e+02 4.673826712530429717e+01 -1.098970721635230348e+02 -2.070437730378402108e+01 3.288903008258838412e+01 -1.936046327437923935e+02 -1.064896427267058385e+02 -1.022559403710698405e+02 -5.253440666807777149e+01 5.851085188686268168e+01 -1.537291377006257562e+02 1.005628808402428405e+02 -5.065779029929473865e+01 2.744712671678630755e+00 -1.244170348647680413e+02 -9.674138575662161088e+01 1.639885117991338461e+02 8.083669334995961719e+01 -3.938936324009707590e+01 3.462298804812798636e+01 -2.615007456170413036e+01 4.046038055430125979e+01 -9.761244395956322251e+01 9.236486211889125286e+01 4.709496273527388155e+01 -1.109317925023843259e+02 1.089367107012265450e+02 -4.580085434749052098e+01 9.321900908195414104e+01 -4.608735970765606993e+01 8.245353676581275693e+01 -1.431513308439618584e+02 1.332446694958458693e+02 2.310320230854809509e+01 9.399230276743185186e+01 1.217758476371134577e+02 -1.369380784336420902e+02 -8.021744324049612374e+01 -9.864578592497572629e+01 6.242905542537617691e+01 -1.600274525572120012e+02 1.415907041432595861e+02 1.329158102097537437e+02 4.946699738581461503e+01 -7.930138229631145919e+01 5.331699767647162957e+01 -1.003049864017585975e+02 -1.018184793698064539e+01 3.265037039153558140e+01 -1.716595235898610383e+02 -7.618072867313431118e+01 -1.264466609880002679e+01 9.545757944511430537e+01 -4.693762687338929851e+01 1.016703019032214428e+02 -6.009496368180064962e+01 -1.969835722918586498e+02 -1.000940109059204275e+02 -3.176794665877854840e+01 -5.624184515281592667e+01 2.811064011383135508e+01 4.812077486508906077e+01 5.909433400237103839e+00 2.381514208376633945e+01 -1.098166801692024990e+02 5.044797840937499700e+01 3.054047640232718308e+01 -6.747368997212100794e+01 8.707828069158809470e+00 5.282146872584393549e+01 -8.927442787016795478e+01 -5.159281299074359595e+01 -2.265763340469210974e+01 9.131854435906468836e+01 -1.604234837257825674e+01 3.931076602756061522e+00 -2.136850485020817132e+02 -8.896523050516047704e+01 9.267931144464152737e+01 -8.345175196862882672e+01 2.934460169898616400e+01 2.908182791583661242e+01 3.546948564637611412e+01 6.189498541018917876e+01 -1.662376228976585821e+02 1.349073507559622556e+02 7.646893707476338875e+01 -7.086619572394236677e+00 -7.570523808021061996e+01 1.047666615160768941e+02 5.819081238803816802e+01 -1.885009593151711158e+02 -4.719066674104923464e+01 -7.659724345446004179e+01 -4.851157521763494174e+01 -5.798207794095787904e+01 -9.273786845478723251e+01 -5.655266136355977835e+01 1.795385859404947269e+02 -1.599846196887332894e+02 6.133973457279726205e+01 2.600968070109155050e+01 -7.048888706893141887e+01 9.760508693596285923e+00 -3.698579980311621540e+01 3.234408138496719154e+00 -9.014942087831489914e+01 -1.852299540613408340e+02 1.724646632154579606e+01 3.925522150679022815e+01 -1.199080793389628496e+01 -8.347058896432146824e+00 -3.728909432457596296e+01 -1.780033894644411703e+02 -2.870004923500503580e+01 -6.126145709256319094e+01 1.303639920686608100e+01 -1.464826121699693928e+01 8.498085949738602096e+01 -5.910966012376157153e+01 -9.720262261933440584e+01 -3.342533941058661640e+01 -8.385413906420078334e+00 4.254547198798963592e+01 -2.071659454351140894e+01 -6.929708670144232485e+01 -1.490166469330560517e+01 1.877282422496761427e+01 4.454470669908711500e+01 -1.068664723263716780e+02 -1.303655337713840652e+02 2.160511248847828938e+02 -2.047528513787688667e+02 -7.118636301256866261e+01 -4.342116628575757886e+01 1.311585045504982361e+02 5.934496159834164075e+01 2.148049410435571929e+02 2.296157073853501345e+02 -5.852680941347185950e+01 1.214003862265712002e+02 -5.263812997494763124e+01 -3.830777897503866569e+01 -9.435929301215412579e+01 -7.489325410776889669e+01 -6.520953661528193379e+01 -8.354585439156031157e+01 -2.287190693264074071e+02 -2.540593234182611297e+02 1.263300478891058560e+02 -2.491458936324256612e+01 4.998354460287573886e+01 1.228703698663186259e+02
