# 
#                 ----------------------------------------------------
#                 Data from a 3D direct N-body simulation. 
# 
#                 rows are i-particle; 
#                 coumns are :mass, tag, x ,y, z, vx, vy, vz, ax, ay, az
# 
#                 NTHU, Computational Physics Lab
# 
#                 ----------------------------------------------------
#                 Time = 5.199999999999934
1.000000000000000000e+00 2.000000000000000000e+00 3.000000000000000000e+00 4.000000000000000000e+00 5.000000000000000000e+00 6.000000000000000000e+00 7.000000000000000000e+00 8.000000000000000000e+00 9.000000000000000000e+00 1.000000000000000000e+01 1.100000000000000000e+01 1.200000000000000000e+01 1.300000000000000000e+01 1.400000000000000000e+01 1.500000000000000000e+01 1.600000000000000000e+01 1.700000000000000000e+01 1.800000000000000000e+01 1.900000000000000000e+01 2.000000000000000000e+01 2.100000000000000000e+01 2.200000000000000000e+01 2.300000000000000000e+01 2.400000000000000000e+01 2.500000000000000000e+01 2.600000000000000000e+01 2.700000000000000000e+01 2.800000000000000000e+01 2.900000000000000000e+01 3.000000000000000000e+01 3.100000000000000000e+01 3.200000000000000000e+01 3.300000000000000000e+01 3.400000000000000000e+01 3.500000000000000000e+01 3.600000000000000000e+01 3.700000000000000000e+01 3.800000000000000000e+01 3.900000000000000000e+01 4.000000000000000000e+01 4.100000000000000000e+01 4.200000000000000000e+01 4.300000000000000000e+01 4.400000000000000000e+01 4.500000000000000000e+01 4.600000000000000000e+01 4.700000000000000000e+01 4.800000000000000000e+01 4.900000000000000000e+01 5.000000000000000000e+01 5.100000000000000000e+01 5.200000000000000000e+01 5.300000000000000000e+01 5.400000000000000000e+01 5.500000000000000000e+01 5.600000000000000000e+01 5.700000000000000000e+01 5.800000000000000000e+01 5.900000000000000000e+01 6.000000000000000000e+01 6.100000000000000000e+01 6.200000000000000000e+01 6.300000000000000000e+01 6.400000000000000000e+01 6.500000000000000000e+01 6.600000000000000000e+01 6.700000000000000000e+01 6.800000000000000000e+01 6.900000000000000000e+01 7.000000000000000000e+01 7.100000000000000000e+01 7.200000000000000000e+01 7.300000000000000000e+01 7.400000000000000000e+01 7.500000000000000000e+01 7.600000000000000000e+01 7.700000000000000000e+01 7.800000000000000000e+01 7.900000000000000000e+01 8.000000000000000000e+01 8.100000000000000000e+01 8.200000000000000000e+01 8.300000000000000000e+01 8.400000000000000000e+01 8.500000000000000000e+01 8.600000000000000000e+01 8.700000000000000000e+01 8.800000000000000000e+01 8.900000000000000000e+01 9.000000000000000000e+01 9.100000000000000000e+01 9.200000000000000000e+01 9.300000000000000000e+01 9.400000000000000000e+01 9.500000000000000000e+01 9.600000000000000000e+01 9.700000000000000000e+01 9.800000000000000000e+01 9.900000000000000000e+01 1.000000000000000000e+02 1.010000000000000000e+02 1.020000000000000000e+02 1.030000000000000000e+02 1.040000000000000000e+02 1.050000000000000000e+02 1.060000000000000000e+02 1.070000000000000000e+02 1.080000000000000000e+02 1.090000000000000000e+02 1.100000000000000000e+02 1.110000000000000000e+02 1.120000000000000000e+02 1.130000000000000000e+02 1.140000000000000000e+02 1.150000000000000000e+02 1.160000000000000000e+02 1.170000000000000000e+02 1.180000000000000000e+02 1.190000000000000000e+02 1.200000000000000000e+02 1.210000000000000000e+02 1.220000000000000000e+02 1.230000000000000000e+02 1.240000000000000000e+02 1.250000000000000000e+02 1.260000000000000000e+02 1.270000000000000000e+02 1.280000000000000000e+02 1.290000000000000000e+02 1.300000000000000000e+02 1.310000000000000000e+02 1.320000000000000000e+02 1.330000000000000000e+02 1.340000000000000000e+02 1.350000000000000000e+02 1.360000000000000000e+02 1.370000000000000000e+02 1.380000000000000000e+02 1.390000000000000000e+02 1.400000000000000000e+02 1.410000000000000000e+02 1.420000000000000000e+02 1.430000000000000000e+02 1.440000000000000000e+02 1.450000000000000000e+02 1.460000000000000000e+02 1.470000000000000000e+02 1.480000000000000000e+02 1.490000000000000000e+02 1.500000000000000000e+02 1.510000000000000000e+02 1.520000000000000000e+02 1.530000000000000000e+02 1.540000000000000000e+02 1.550000000000000000e+02 1.560000000000000000e+02 1.570000000000000000e+02 1.580000000000000000e+02 1.590000000000000000e+02 1.600000000000000000e+02 1.610000000000000000e+02 1.620000000000000000e+02 1.630000000000000000e+02 1.640000000000000000e+02 1.650000000000000000e+02 1.660000000000000000e+02 1.670000000000000000e+02 1.680000000000000000e+02 1.690000000000000000e+02 1.700000000000000000e+02 1.710000000000000000e+02 1.720000000000000000e+02 1.730000000000000000e+02 1.740000000000000000e+02 1.750000000000000000e+02 1.760000000000000000e+02 1.770000000000000000e+02 1.780000000000000000e+02 1.790000000000000000e+02 1.800000000000000000e+02 1.810000000000000000e+02 1.820000000000000000e+02 1.830000000000000000e+02 1.840000000000000000e+02 1.850000000000000000e+02 1.860000000000000000e+02 1.870000000000000000e+02 1.880000000000000000e+02 1.890000000000000000e+02 1.900000000000000000e+02 1.910000000000000000e+02 1.920000000000000000e+02 1.930000000000000000e+02 1.940000000000000000e+02 1.950000000000000000e+02 1.960000000000000000e+02 1.970000000000000000e+02 1.980000000000000000e+02 1.990000000000000000e+02 2.000000000000000000e+02 2.010000000000000000e+02 2.020000000000000000e+02 2.030000000000000000e+02 2.040000000000000000e+02 2.050000000000000000e+02 2.060000000000000000e+02 2.070000000000000000e+02 2.080000000000000000e+02 2.090000000000000000e+02 2.100000000000000000e+02 2.110000000000000000e+02 2.120000000000000000e+02 2.130000000000000000e+02 2.140000000000000000e+02 2.150000000000000000e+02 2.160000000000000000e+02 2.170000000000000000e+02 2.180000000000000000e+02 2.190000000000000000e+02 2.200000000000000000e+02 2.210000000000000000e+02 2.220000000000000000e+02 2.230000000000000000e+02 2.240000000000000000e+02 2.250000000000000000e+02 2.260000000000000000e+02 2.270000000000000000e+02 2.280000000000000000e+02 2.290000000000000000e+02 2.300000000000000000e+02 2.310000000000000000e+02 2.320000000000000000e+02 2.330000000000000000e+02 2.340000000000000000e+02 2.350000000000000000e+02 2.360000000000000000e+02 2.370000000000000000e+02 2.380000000000000000e+02 2.390000000000000000e+02 2.400000000000000000e+02 2.410000000000000000e+02 2.420000000000000000e+02 2.430000000000000000e+02 2.440000000000000000e+02 2.450000000000000000e+02 2.460000000000000000e+02 2.470000000000000000e+02 2.480000000000000000e+02 2.490000000000000000e+02 2.500000000000000000e+02 2.510000000000000000e+02 2.520000000000000000e+02 2.530000000000000000e+02 2.540000000000000000e+02 2.550000000000000000e+02 2.560000000000000000e+02 2.570000000000000000e+02 2.580000000000000000e+02 2.590000000000000000e+02 2.600000000000000000e+02 2.610000000000000000e+02 2.620000000000000000e+02 2.630000000000000000e+02 2.640000000000000000e+02 2.650000000000000000e+02 2.660000000000000000e+02 2.670000000000000000e+02 2.680000000000000000e+02 2.690000000000000000e+02 2.700000000000000000e+02 2.710000000000000000e+02 2.720000000000000000e+02 2.730000000000000000e+02 2.740000000000000000e+02 2.750000000000000000e+02 2.760000000000000000e+02 2.770000000000000000e+02 2.780000000000000000e+02 2.790000000000000000e+02 2.800000000000000000e+02 2.810000000000000000e+02 2.820000000000000000e+02 2.830000000000000000e+02 2.840000000000000000e+02 2.850000000000000000e+02 2.860000000000000000e+02 2.870000000000000000e+02 2.880000000000000000e+02 2.890000000000000000e+02 2.900000000000000000e+02 2.910000000000000000e+02 2.920000000000000000e+02 2.930000000000000000e+02 2.940000000000000000e+02 2.950000000000000000e+02 2.960000000000000000e+02 2.970000000000000000e+02 2.980000000000000000e+02 2.990000000000000000e+02 3.000000000000000000e+02 3.010000000000000000e+02 3.020000000000000000e+02 3.030000000000000000e+02 3.040000000000000000e+02 3.050000000000000000e+02 3.060000000000000000e+02 3.070000000000000000e+02 3.080000000000000000e+02 3.090000000000000000e+02 3.100000000000000000e+02 3.110000000000000000e+02 3.120000000000000000e+02 3.130000000000000000e+02 3.140000000000000000e+02 3.150000000000000000e+02 3.160000000000000000e+02 3.170000000000000000e+02 3.180000000000000000e+02 3.190000000000000000e+02 3.200000000000000000e+02 3.210000000000000000e+02 3.220000000000000000e+02 3.230000000000000000e+02 3.240000000000000000e+02 3.250000000000000000e+02 3.260000000000000000e+02 3.270000000000000000e+02 3.280000000000000000e+02 3.290000000000000000e+02 3.300000000000000000e+02 3.310000000000000000e+02 3.320000000000000000e+02 3.330000000000000000e+02 3.340000000000000000e+02 3.350000000000000000e+02 3.360000000000000000e+02 3.370000000000000000e+02 3.380000000000000000e+02 3.390000000000000000e+02 3.400000000000000000e+02 3.410000000000000000e+02 3.420000000000000000e+02 3.430000000000000000e+02 3.440000000000000000e+02 3.450000000000000000e+02 3.460000000000000000e+02 3.470000000000000000e+02 3.480000000000000000e+02 3.490000000000000000e+02 3.500000000000000000e+02 3.510000000000000000e+02 3.520000000000000000e+02 3.530000000000000000e+02 3.540000000000000000e+02 3.550000000000000000e+02 3.560000000000000000e+02 3.570000000000000000e+02 3.580000000000000000e+02 3.590000000000000000e+02 3.600000000000000000e+02 3.610000000000000000e+02 3.620000000000000000e+02 3.630000000000000000e+02 3.640000000000000000e+02 3.650000000000000000e+02 3.660000000000000000e+02 3.670000000000000000e+02 3.680000000000000000e+02 3.690000000000000000e+02 3.700000000000000000e+02 3.710000000000000000e+02 3.720000000000000000e+02 3.730000000000000000e+02 3.740000000000000000e+02 3.750000000000000000e+02 3.760000000000000000e+02 3.770000000000000000e+02 3.780000000000000000e+02 3.790000000000000000e+02 3.800000000000000000e+02 3.810000000000000000e+02 3.820000000000000000e+02 3.830000000000000000e+02 3.840000000000000000e+02 3.850000000000000000e+02 3.860000000000000000e+02 3.870000000000000000e+02 3.880000000000000000e+02 3.890000000000000000e+02 3.900000000000000000e+02 3.910000000000000000e+02 3.920000000000000000e+02 3.930000000000000000e+02 3.940000000000000000e+02 3.950000000000000000e+02 3.960000000000000000e+02 3.970000000000000000e+02 3.980000000000000000e+02 3.990000000000000000e+02 4.000000000000000000e+02 4.010000000000000000e+02 4.020000000000000000e+02 4.030000000000000000e+02 4.040000000000000000e+02 4.050000000000000000e+02 4.060000000000000000e+02 4.070000000000000000e+02 4.080000000000000000e+02 4.090000000000000000e+02 4.100000000000000000e+02 4.110000000000000000e+02 4.120000000000000000e+02 4.130000000000000000e+02 4.140000000000000000e+02 4.150000000000000000e+02 4.160000000000000000e+02 4.170000000000000000e+02 4.180000000000000000e+02 4.190000000000000000e+02 4.200000000000000000e+02 4.210000000000000000e+02 4.220000000000000000e+02 4.230000000000000000e+02 4.240000000000000000e+02 4.250000000000000000e+02 4.260000000000000000e+02 4.270000000000000000e+02 4.280000000000000000e+02 4.290000000000000000e+02 4.300000000000000000e+02 4.310000000000000000e+02 4.320000000000000000e+02 4.330000000000000000e+02 4.340000000000000000e+02 4.350000000000000000e+02 4.360000000000000000e+02 4.370000000000000000e+02 4.380000000000000000e+02 4.390000000000000000e+02 4.400000000000000000e+02 4.410000000000000000e+02 4.420000000000000000e+02 4.430000000000000000e+02 4.440000000000000000e+02 4.450000000000000000e+02 4.460000000000000000e+02 4.470000000000000000e+02 4.480000000000000000e+02 4.490000000000000000e+02 4.500000000000000000e+02 4.510000000000000000e+02 4.520000000000000000e+02 4.530000000000000000e+02 4.540000000000000000e+02 4.550000000000000000e+02 4.560000000000000000e+02 4.570000000000000000e+02 4.580000000000000000e+02 4.590000000000000000e+02 4.600000000000000000e+02 4.610000000000000000e+02 4.620000000000000000e+02 4.630000000000000000e+02 4.640000000000000000e+02 4.650000000000000000e+02 4.660000000000000000e+02 4.670000000000000000e+02 4.680000000000000000e+02 4.690000000000000000e+02 4.700000000000000000e+02 4.710000000000000000e+02 4.720000000000000000e+02 4.730000000000000000e+02 4.740000000000000000e+02 4.750000000000000000e+02 4.760000000000000000e+02 4.770000000000000000e+02 4.780000000000000000e+02 4.790000000000000000e+02 4.800000000000000000e+02 4.810000000000000000e+02 4.820000000000000000e+02 4.830000000000000000e+02 4.840000000000000000e+02 4.850000000000000000e+02 4.860000000000000000e+02 4.870000000000000000e+02 4.880000000000000000e+02 4.890000000000000000e+02 4.900000000000000000e+02 4.910000000000000000e+02 4.920000000000000000e+02 4.930000000000000000e+02 4.940000000000000000e+02 4.950000000000000000e+02 4.960000000000000000e+02 4.970000000000000000e+02 4.980000000000000000e+02 4.990000000000000000e+02 5.000000000000000000e+02 5.010000000000000000e+02 5.020000000000000000e+02 5.030000000000000000e+02 5.040000000000000000e+02 5.050000000000000000e+02 5.060000000000000000e+02 5.070000000000000000e+02 5.080000000000000000e+02 5.090000000000000000e+02 5.100000000000000000e+02 5.110000000000000000e+02 5.120000000000000000e+02 5.130000000000000000e+02 5.140000000000000000e+02 5.150000000000000000e+02 5.160000000000000000e+02 5.170000000000000000e+02 5.180000000000000000e+02 5.190000000000000000e+02 5.200000000000000000e+02 5.210000000000000000e+02 5.220000000000000000e+02 5.230000000000000000e+02 5.240000000000000000e+02 5.250000000000000000e+02 5.260000000000000000e+02 5.270000000000000000e+02 5.280000000000000000e+02 5.290000000000000000e+02 5.300000000000000000e+02 5.310000000000000000e+02 5.320000000000000000e+02 5.330000000000000000e+02 5.340000000000000000e+02 5.350000000000000000e+02 5.360000000000000000e+02 5.370000000000000000e+02 5.380000000000000000e+02 5.390000000000000000e+02 5.400000000000000000e+02 5.410000000000000000e+02 5.420000000000000000e+02 5.430000000000000000e+02 5.440000000000000000e+02 5.450000000000000000e+02 5.460000000000000000e+02 5.470000000000000000e+02 5.480000000000000000e+02 5.490000000000000000e+02 5.500000000000000000e+02 5.510000000000000000e+02 5.520000000000000000e+02 5.530000000000000000e+02 5.540000000000000000e+02 5.550000000000000000e+02 5.560000000000000000e+02 5.570000000000000000e+02 5.580000000000000000e+02 5.590000000000000000e+02 5.600000000000000000e+02 5.610000000000000000e+02 5.620000000000000000e+02 5.630000000000000000e+02 5.640000000000000000e+02 5.650000000000000000e+02 5.660000000000000000e+02 5.670000000000000000e+02 5.680000000000000000e+02 5.690000000000000000e+02 5.700000000000000000e+02 5.710000000000000000e+02 5.720000000000000000e+02 5.730000000000000000e+02 5.740000000000000000e+02 5.750000000000000000e+02 5.760000000000000000e+02 5.770000000000000000e+02 5.780000000000000000e+02 5.790000000000000000e+02 5.800000000000000000e+02 5.810000000000000000e+02 5.820000000000000000e+02 5.830000000000000000e+02 5.840000000000000000e+02 5.850000000000000000e+02 5.860000000000000000e+02 5.870000000000000000e+02 5.880000000000000000e+02 5.890000000000000000e+02 5.900000000000000000e+02 5.910000000000000000e+02 5.920000000000000000e+02 5.930000000000000000e+02 5.940000000000000000e+02 5.950000000000000000e+02 5.960000000000000000e+02 5.970000000000000000e+02 5.980000000000000000e+02 5.990000000000000000e+02 6.000000000000000000e+02 6.010000000000000000e+02 6.020000000000000000e+02 6.030000000000000000e+02 6.040000000000000000e+02 6.050000000000000000e+02 6.060000000000000000e+02 6.070000000000000000e+02 6.080000000000000000e+02 6.090000000000000000e+02 6.100000000000000000e+02 6.110000000000000000e+02 6.120000000000000000e+02 6.130000000000000000e+02 6.140000000000000000e+02 6.150000000000000000e+02 6.160000000000000000e+02 6.170000000000000000e+02 6.180000000000000000e+02 6.190000000000000000e+02 6.200000000000000000e+02 6.210000000000000000e+02 6.220000000000000000e+02 6.230000000000000000e+02 6.240000000000000000e+02 6.250000000000000000e+02 6.260000000000000000e+02 6.270000000000000000e+02 6.280000000000000000e+02 6.290000000000000000e+02 6.300000000000000000e+02 6.310000000000000000e+02 6.320000000000000000e+02 6.330000000000000000e+02 6.340000000000000000e+02 6.350000000000000000e+02 6.360000000000000000e+02 6.370000000000000000e+02 6.380000000000000000e+02 6.390000000000000000e+02 6.400000000000000000e+02 6.410000000000000000e+02 6.420000000000000000e+02 6.430000000000000000e+02 6.440000000000000000e+02 6.450000000000000000e+02 6.460000000000000000e+02 6.470000000000000000e+02 6.480000000000000000e+02 6.490000000000000000e+02 6.500000000000000000e+02 6.510000000000000000e+02 6.520000000000000000e+02 6.530000000000000000e+02 6.540000000000000000e+02 6.550000000000000000e+02 6.560000000000000000e+02 6.570000000000000000e+02 6.580000000000000000e+02 6.590000000000000000e+02 6.600000000000000000e+02 6.610000000000000000e+02 6.620000000000000000e+02 6.630000000000000000e+02 6.640000000000000000e+02 6.650000000000000000e+02 6.660000000000000000e+02 6.670000000000000000e+02 6.680000000000000000e+02 6.690000000000000000e+02 6.700000000000000000e+02 6.710000000000000000e+02 6.720000000000000000e+02 6.730000000000000000e+02 6.740000000000000000e+02 6.750000000000000000e+02 6.760000000000000000e+02 6.770000000000000000e+02 6.780000000000000000e+02 6.790000000000000000e+02 6.800000000000000000e+02 6.810000000000000000e+02 6.820000000000000000e+02 6.830000000000000000e+02 6.840000000000000000e+02 6.850000000000000000e+02 6.860000000000000000e+02 6.870000000000000000e+02 6.880000000000000000e+02 6.890000000000000000e+02 6.900000000000000000e+02 6.910000000000000000e+02 6.920000000000000000e+02 6.930000000000000000e+02 6.940000000000000000e+02 6.950000000000000000e+02 6.960000000000000000e+02 6.970000000000000000e+02 6.980000000000000000e+02 6.990000000000000000e+02 7.000000000000000000e+02 7.010000000000000000e+02 7.020000000000000000e+02 7.030000000000000000e+02 7.040000000000000000e+02 7.050000000000000000e+02 7.060000000000000000e+02 7.070000000000000000e+02 7.080000000000000000e+02 7.090000000000000000e+02 7.100000000000000000e+02 7.110000000000000000e+02 7.120000000000000000e+02 7.130000000000000000e+02 7.140000000000000000e+02 7.150000000000000000e+02 7.160000000000000000e+02 7.170000000000000000e+02 7.180000000000000000e+02 7.190000000000000000e+02 7.200000000000000000e+02 7.210000000000000000e+02 7.220000000000000000e+02 7.230000000000000000e+02 7.240000000000000000e+02 7.250000000000000000e+02 7.260000000000000000e+02 7.270000000000000000e+02 7.280000000000000000e+02 7.290000000000000000e+02 7.300000000000000000e+02 7.310000000000000000e+02 7.320000000000000000e+02 7.330000000000000000e+02 7.340000000000000000e+02 7.350000000000000000e+02 7.360000000000000000e+02 7.370000000000000000e+02 7.380000000000000000e+02 7.390000000000000000e+02 7.400000000000000000e+02 7.410000000000000000e+02 7.420000000000000000e+02 7.430000000000000000e+02 7.440000000000000000e+02 7.450000000000000000e+02 7.460000000000000000e+02 7.470000000000000000e+02 7.480000000000000000e+02 7.490000000000000000e+02 7.500000000000000000e+02 7.510000000000000000e+02 7.520000000000000000e+02 7.530000000000000000e+02 7.540000000000000000e+02 7.550000000000000000e+02 7.560000000000000000e+02 7.570000000000000000e+02 7.580000000000000000e+02 7.590000000000000000e+02 7.600000000000000000e+02 7.610000000000000000e+02 7.620000000000000000e+02 7.630000000000000000e+02 7.640000000000000000e+02 7.650000000000000000e+02 7.660000000000000000e+02 7.670000000000000000e+02 7.680000000000000000e+02 7.690000000000000000e+02 7.700000000000000000e+02 7.710000000000000000e+02 7.720000000000000000e+02 7.730000000000000000e+02 7.740000000000000000e+02 7.750000000000000000e+02 7.760000000000000000e+02 7.770000000000000000e+02 7.780000000000000000e+02 7.790000000000000000e+02 7.800000000000000000e+02 7.810000000000000000e+02 7.820000000000000000e+02 7.830000000000000000e+02 7.840000000000000000e+02 7.850000000000000000e+02 7.860000000000000000e+02 7.870000000000000000e+02 7.880000000000000000e+02 7.890000000000000000e+02 7.900000000000000000e+02 7.910000000000000000e+02 7.920000000000000000e+02 7.930000000000000000e+02 7.940000000000000000e+02 7.950000000000000000e+02 7.960000000000000000e+02 7.970000000000000000e+02 7.980000000000000000e+02 7.990000000000000000e+02 8.000000000000000000e+02 8.010000000000000000e+02 8.020000000000000000e+02 8.030000000000000000e+02 8.040000000000000000e+02 8.050000000000000000e+02 8.060000000000000000e+02 8.070000000000000000e+02 8.080000000000000000e+02 8.090000000000000000e+02 8.100000000000000000e+02 8.110000000000000000e+02 8.120000000000000000e+02 8.130000000000000000e+02 8.140000000000000000e+02 8.150000000000000000e+02 8.160000000000000000e+02 8.170000000000000000e+02 8.180000000000000000e+02 8.190000000000000000e+02 8.200000000000000000e+02 8.210000000000000000e+02 8.220000000000000000e+02 8.230000000000000000e+02 8.240000000000000000e+02 8.250000000000000000e+02 8.260000000000000000e+02 8.270000000000000000e+02 8.280000000000000000e+02 8.290000000000000000e+02 8.300000000000000000e+02 8.310000000000000000e+02 8.320000000000000000e+02 8.330000000000000000e+02 8.340000000000000000e+02 8.350000000000000000e+02 8.360000000000000000e+02 8.370000000000000000e+02 8.380000000000000000e+02 8.390000000000000000e+02 8.400000000000000000e+02 8.410000000000000000e+02 8.420000000000000000e+02 8.430000000000000000e+02 8.440000000000000000e+02 8.450000000000000000e+02 8.460000000000000000e+02 8.470000000000000000e+02 8.480000000000000000e+02 8.490000000000000000e+02 8.500000000000000000e+02 8.510000000000000000e+02 8.520000000000000000e+02 8.530000000000000000e+02 8.540000000000000000e+02 8.550000000000000000e+02 8.560000000000000000e+02 8.570000000000000000e+02 8.580000000000000000e+02 8.590000000000000000e+02 8.600000000000000000e+02 8.610000000000000000e+02 8.620000000000000000e+02 8.630000000000000000e+02 8.640000000000000000e+02 8.650000000000000000e+02 8.660000000000000000e+02 8.670000000000000000e+02 8.680000000000000000e+02 8.690000000000000000e+02 8.700000000000000000e+02 8.710000000000000000e+02 8.720000000000000000e+02 8.730000000000000000e+02 8.740000000000000000e+02 8.750000000000000000e+02 8.760000000000000000e+02 8.770000000000000000e+02 8.780000000000000000e+02 8.790000000000000000e+02 8.800000000000000000e+02 8.810000000000000000e+02 8.820000000000000000e+02 8.830000000000000000e+02 8.840000000000000000e+02 8.850000000000000000e+02 8.860000000000000000e+02 8.870000000000000000e+02 8.880000000000000000e+02 8.890000000000000000e+02 8.900000000000000000e+02 8.910000000000000000e+02 8.920000000000000000e+02 8.930000000000000000e+02 8.940000000000000000e+02 8.950000000000000000e+02 8.960000000000000000e+02 8.970000000000000000e+02 8.980000000000000000e+02 8.990000000000000000e+02 9.000000000000000000e+02 9.010000000000000000e+02 9.020000000000000000e+02 9.030000000000000000e+02 9.040000000000000000e+02 9.050000000000000000e+02 9.060000000000000000e+02 9.070000000000000000e+02 9.080000000000000000e+02 9.090000000000000000e+02 9.100000000000000000e+02 9.110000000000000000e+02 9.120000000000000000e+02 9.130000000000000000e+02 9.140000000000000000e+02 9.150000000000000000e+02 9.160000000000000000e+02 9.170000000000000000e+02 9.180000000000000000e+02 9.190000000000000000e+02 9.200000000000000000e+02 9.210000000000000000e+02 9.220000000000000000e+02 9.230000000000000000e+02 9.240000000000000000e+02 9.250000000000000000e+02 9.260000000000000000e+02 9.270000000000000000e+02 9.280000000000000000e+02 9.290000000000000000e+02 9.300000000000000000e+02 9.310000000000000000e+02 9.320000000000000000e+02 9.330000000000000000e+02 9.340000000000000000e+02 9.350000000000000000e+02 9.360000000000000000e+02 9.370000000000000000e+02 9.380000000000000000e+02 9.390000000000000000e+02 9.400000000000000000e+02 9.410000000000000000e+02 9.420000000000000000e+02 9.430000000000000000e+02 9.440000000000000000e+02 9.450000000000000000e+02 9.460000000000000000e+02 9.470000000000000000e+02 9.480000000000000000e+02 9.490000000000000000e+02 9.500000000000000000e+02 9.510000000000000000e+02 9.520000000000000000e+02 9.530000000000000000e+02 9.540000000000000000e+02 9.550000000000000000e+02 9.560000000000000000e+02 9.570000000000000000e+02 9.580000000000000000e+02 9.590000000000000000e+02 9.600000000000000000e+02 9.610000000000000000e+02 9.620000000000000000e+02 9.630000000000000000e+02 9.640000000000000000e+02 9.650000000000000000e+02 9.660000000000000000e+02 9.670000000000000000e+02 9.680000000000000000e+02 9.690000000000000000e+02 9.700000000000000000e+02 9.710000000000000000e+02 9.720000000000000000e+02 9.730000000000000000e+02 9.740000000000000000e+02 9.750000000000000000e+02 9.760000000000000000e+02 9.770000000000000000e+02 9.780000000000000000e+02 9.790000000000000000e+02 9.800000000000000000e+02 9.810000000000000000e+02 9.820000000000000000e+02 9.830000000000000000e+02 9.840000000000000000e+02 9.850000000000000000e+02 9.860000000000000000e+02 9.870000000000000000e+02 9.880000000000000000e+02 9.890000000000000000e+02 9.900000000000000000e+02 9.910000000000000000e+02 9.920000000000000000e+02 9.930000000000000000e+02 9.940000000000000000e+02 9.950000000000000000e+02 9.960000000000000000e+02 9.970000000000000000e+02 9.980000000000000000e+02 9.990000000000000000e+02 1.000000000000000000e+03
1.000000000000000021e-02 1.000000000000000021e-02 1.000000000000000021e-02 1.000000000000000021e-02 1.000000000000000021e-02 1.000000000000000021e-02 1.000000000000000021e-02 1.000000000000000021e-02 1.000000000000000021e-02 1.000000000000000021e-02 1.000000000000000021e-02 1.000000000000000021e-02 1.000000000000000021e-02 1.000000000000000021e-02 1.000000000000000021e-02 1.000000000000000021e-02 1.000000000000000021e-02 1.000000000000000021e-02 1.000000000000000021e-02 1.000000000000000021e-02 1.000000000000000021e-02 1.000000000000000021e-02 1.000000000000000021e-02 1.000000000000000021e-02 1.000000000000000021e-02 1.000000000000000021e-02 1.000000000000000021e-02 1.000000000000000021e-02 1.000000000000000021e-02 1.000000000000000021e-02 1.000000000000000021e-02 1.000000000000000021e-02 1.000000000000000021e-02 1.000000000000000021e-02 1.000000000000000021e-02 1.000000000000000021e-02 1.000000000000000021e-02 1.000000000000000021e-02 1.000000000000000021e-02 1.000000000000000021e-02 1.000000000000000021e-02 1.000000000000000021e-02 1.000000000000000021e-02 1.000000000000000021e-02 1.000000000000000021e-02 1.000000000000000021e-02 1.000000000000000021e-02 1.000000000000000021e-02 1.000000000000000021e-02 1.000000000000000021e-02 1.000000000000000021e-02 1.000000000000000021e-02 1.000000000000000021e-02 1.000000000000000021e-02 1.000000000000000021e-02 1.000000000000000021e-02 1.000000000000000021e-02 1.000000000000000021e-02 1.000000000000000021e-02 1.000000000000000021e-02 1.000000000000000021e-02 1.000000000000000021e-02 1.000000000000000021e-02 1.000000000000000021e-02 1.000000000000000021e-02 1.000000000000000021e-02 1.000000000000000021e-02 1.000000000000000021e-02 1.000000000000000021e-02 1.000000000000000021e-02 1.000000000000000021e-02 1.000000000000000021e-02 1.000000000000000021e-02 1.000000000000000021e-02 1.000000000000000021e-02 1.000000000000000021e-02 1.000000000000000021e-02 1.000000000000000021e-02 1.000000000000000021e-02 1.000000000000000021e-02 1.000000000000000021e-02 1.000000000000000021e-02 1.000000000000000021e-02 1.000000000000000021e-02 1.000000000000000021e-02 1.000000000000000021e-02 1.000000000000000021e-02 1.000000000000000021e-02 1.000000000000000021e-02 1.000000000000000021e-02 1.000000000000000021e-02 1.000000000000000021e-02 1.000000000000000021e-02 1.000000000000000021e-02 1.000000000000000021e-02 1.000000000000000021e-02 1.000000000000000021e-02 1.000000000000000021e-02 1.000000000000000021e-02 1.000000000000000021e-02 1.000000000000000021e-02 1.000000000000000021e-02 1.000000000000000021e-02 1.000000000000000021e-02 1.000000000000000021e-02 1.000000000000000021e-02 1.000000000000000021e-02 1.000000000000000021e-02 1.000000000000000021e-02 1.000000000000000021e-02 1.000000000000000021e-02 1.000000000000000021e-02 1.000000000000000021e-02 1.000000000000000021e-02 1.000000000000000021e-02 1.000000000000000021e-02 1.000000000000000021e-02 1.000000000000000021e-02 1.000000000000000021e-02 1.000000000000000021e-02 1.000000000000000021e-02 1.000000000000000021e-02 1.000000000000000021e-02 1.000000000000000021e-02 1.000000000000000021e-02 1.000000000000000021e-02 1.000000000000000021e-02 1.000000000000000021e-02 1.000000000000000021e-02 1.000000000000000021e-02 1.000000000000000021e-02 1.000000000000000021e-02 1.000000000000000021e-02 1.000000000000000021e-02 1.000000000000000021e-02 1.000000000000000021e-02 1.000000000000000021e-02 1.000000000000000021e-02 1.000000000000000021e-02 1.000000000000000021e-02 1.000000000000000021e-02 1.000000000000000021e-02 1.000000000000000021e-02 1.000000000000000021e-02 1.000000000000000021e-02 1.000000000000000021e-02 1.000000000000000021e-02 1.000000000000000021e-02 1.000000000000000021e-02 1.000000000000000021e-02 1.000000000000000021e-02 1.000000000000000021e-02 1.000000000000000021e-02 1.000000000000000021e-02 1.000000000000000021e-02 1.000000000000000021e-02 1.000000000000000021e-02 1.000000000000000021e-02 1.000000000000000021e-02 1.000000000000000021e-02 1.000000000000000021e-02 1.000000000000000021e-02 1.000000000000000021e-02 1.000000000000000021e-02 1.000000000000000021e-02 1.000000000000000021e-02 1.000000000000000021e-02 1.000000000000000021e-02 1.000000000000000021e-02 1.000000000000000021e-02 1.000000000000000021e-02 1.000000000000000021e-02 1.000000000000000021e-02 1.000000000000000021e-02 1.000000000000000021e-02 1.000000000000000021e-02 1.000000000000000021e-02 1.000000000000000021e-02 1.000000000000000021e-02 1.000000000000000021e-02 1.000000000000000021e-02 1.000000000000000021e-02 1.000000000000000021e-02 1.000000000000000021e-02 1.000000000000000021e-02 1.000000000000000021e-02 1.000000000000000021e-02 1.000000000000000021e-02 1.000000000000000021e-02 1.000000000000000021e-02 1.000000000000000021e-02 1.000000000000000021e-02 1.000000000000000021e-02 1.000000000000000021e-02 1.000000000000000021e-02 1.000000000000000021e-02 1.000000000000000021e-02 1.000000000000000021e-02 1.000000000000000021e-02 1.000000000000000021e-02 1.000000000000000021e-02 1.000000000000000021e-02 1.000000000000000021e-02 1.000000000000000021e-02 1.000000000000000021e-02 1.000000000000000021e-02 1.000000000000000021e-02 1.000000000000000021e-02 1.000000000000000021e-02 1.000000000000000021e-02 1.000000000000000021e-02 1.000000000000000021e-02 1.000000000000000021e-02 1.000000000000000021e-02 1.000000000000000021e-02 1.000000000000000021e-02 1.000000000000000021e-02 1.000000000000000021e-02 1.000000000000000021e-02 1.000000000000000021e-02 1.000000000000000021e-02 1.000000000000000021e-02 1.000000000000000021e-02 1.000000000000000021e-02 1.000000000000000021e-02 1.000000000000000021e-02 1.000000000000000021e-02 1.000000000000000021e-02 1.000000000000000021e-02 1.000000000000000021e-02 1.000000000000000021e-02 1.000000000000000021e-02 1.000000000000000021e-02 1.000000000000000021e-02 1.000000000000000021e-02 1.000000000000000021e-02 1.000000000000000021e-02 1.000000000000000021e-02 1.000000000000000021e-02 1.000000000000000021e-02 1.000000000000000021e-02 1.000000000000000021e-02 1.000000000000000021e-02 1.000000000000000021e-02 1.000000000000000021e-02 1.000000000000000021e-02 1.000000000000000021e-02 1.000000000000000021e-02 1.000000000000000021e-02 1.000000000000000021e-02 1.000000000000000021e-02 1.000000000000000021e-02 1.000000000000000021e-02 1.000000000000000021e-02 1.000000000000000021e-02 1.000000000000000021e-02 1.000000000000000021e-02 1.000000000000000021e-02 1.000000000000000021e-02 1.000000000000000021e-02 1.000000000000000021e-02 1.000000000000000021e-02 1.000000000000000021e-02 1.000000000000000021e-02 1.000000000000000021e-02 1.000000000000000021e-02 1.000000000000000021e-02 1.000000000000000021e-02 1.000000000000000021e-02 1.000000000000000021e-02 1.000000000000000021e-02 1.000000000000000021e-02 1.000000000000000021e-02 1.000000000000000021e-02 1.000000000000000021e-02 1.000000000000000021e-02 1.000000000000000021e-02 1.000000000000000021e-02 1.000000000000000021e-02 1.000000000000000021e-02 1.000000000000000021e-02 1.000000000000000021e-02 1.000000000000000021e-02 1.000000000000000021e-02 1.000000000000000021e-02 1.000000000000000021e-02 1.000000000000000021e-02 1.000000000000000021e-02 1.000000000000000021e-02 1.000000000000000021e-02 1.000000000000000021e-02 1.000000000000000021e-02 1.000000000000000021e-02 1.000000000000000021e-02 1.000000000000000021e-02 1.000000000000000021e-02 1.000000000000000021e-02 1.000000000000000021e-02 1.000000000000000021e-02 1.000000000000000021e-02 1.000000000000000021e-02 1.000000000000000021e-02 1.000000000000000021e-02 1.000000000000000021e-02 1.000000000000000021e-02 1.000000000000000021e-02 1.000000000000000021e-02 1.000000000000000021e-02 1.000000000000000021e-02 1.000000000000000021e-02 1.000000000000000021e-02 1.000000000000000021e-02 1.000000000000000021e-02 1.000000000000000021e-02 1.000000000000000021e-02 1.000000000000000021e-02 1.000000000000000021e-02 1.000000000000000021e-02 1.000000000000000021e-02 1.000000000000000021e-02 1.000000000000000021e-02 1.000000000000000021e-02 1.000000000000000021e-02 1.000000000000000021e-02 1.000000000000000021e-02 1.000000000000000021e-02 1.000000000000000021e-02 1.000000000000000021e-02 1.000000000000000021e-02 1.000000000000000021e-02 1.000000000000000021e-02 1.000000000000000021e-02 1.000000000000000021e-02 1.000000000000000021e-02 1.000000000000000021e-02 1.000000000000000021e-02 1.000000000000000021e-02 1.000000000000000021e-02 1.000000000000000021e-02 1.000000000000000021e-02 1.000000000000000021e-02 1.000000000000000021e-02 1.000000000000000021e-02 1.000000000000000021e-02 1.000000000000000021e-02 1.000000000000000021e-02 1.000000000000000021e-02 1.000000000000000021e-02 1.000000000000000021e-02 1.000000000000000021e-02 1.000000000000000021e-02 1.000000000000000021e-02 1.000000000000000021e-02 1.000000000000000021e-02 1.000000000000000021e-02 1.000000000000000021e-02 1.000000000000000021e-02 1.000000000000000021e-02 1.000000000000000021e-02 1.000000000000000021e-02 1.000000000000000021e-02 1.000000000000000021e-02 1.000000000000000021e-02 1.000000000000000021e-02 1.000000000000000021e-02 1.000000000000000021e-02 1.000000000000000021e-02 1.000000000000000021e-02 1.000000000000000021e-02 1.000000000000000021e-02 1.000000000000000021e-02 1.000000000000000021e-02 1.000000000000000021e-02 1.000000000000000021e-02 1.000000000000000021e-02 1.000000000000000021e-02 1.000000000000000021e-02 1.000000000000000021e-02 1.000000000000000021e-02 1.000000000000000021e-02 1.000000000000000021e-02 1.000000000000000021e-02 1.000000000000000021e-02 1.000000000000000021e-02 1.000000000000000021e-02 1.000000000000000021e-02 1.000000000000000021e-02 1.000000000000000021e-02 1.000000000000000021e-02 1.000000000000000021e-02 1.000000000000000021e-02 1.000000000000000021e-02 1.000000000000000021e-02 1.000000000000000021e-02 1.000000000000000021e-02 1.000000000000000021e-02 1.000000000000000021e-02 1.000000000000000021e-02 1.000000000000000021e-02 1.000000000000000021e-02 1.000000000000000021e-02 1.000000000000000021e-02 1.000000000000000021e-02 1.000000000000000021e-02 1.000000000000000021e-02 1.000000000000000021e-02 1.000000000000000021e-02 1.000000000000000021e-02 1.000000000000000021e-02 1.000000000000000021e-02 1.000000000000000021e-02 1.000000000000000021e-02 1.000000000000000021e-02 1.000000000000000021e-02 1.000000000000000021e-02 1.000000000000000021e-02 1.000000000000000021e-02 1.000000000000000021e-02 1.000000000000000021e-02 1.000000000000000021e-02 1.000000000000000021e-02 1.000000000000000021e-02 1.000000000000000021e-02 1.000000000000000021e-02 1.000000000000000021e-02 1.000000000000000021e-02 1.000000000000000021e-02 1.000000000000000021e-02 1.000000000000000021e-02 1.000000000000000021e-02 1.000000000000000021e-02 1.000000000000000021e-02 1.000000000000000021e-02 1.000000000000000021e-02 1.000000000000000021e-02 1.000000000000000021e-02 1.000000000000000021e-02 1.000000000000000021e-02 1.000000000000000021e-02 1.000000000000000021e-02 1.000000000000000021e-02 1.000000000000000021e-02 1.000000000000000021e-02 1.000000000000000021e-02 1.000000000000000021e-02 1.000000000000000021e-02 1.000000000000000021e-02 1.000000000000000021e-02 1.000000000000000021e-02 1.000000000000000021e-02 1.000000000000000021e-02 1.000000000000000021e-02 1.000000000000000021e-02 1.000000000000000021e-02 1.000000000000000021e-02 1.000000000000000021e-02 1.000000000000000021e-02 1.000000000000000021e-02 1.000000000000000021e-02 1.000000000000000021e-02 1.000000000000000021e-02 1.000000000000000021e-02 1.000000000000000021e-02 1.000000000000000021e-02 1.000000000000000021e-02 1.000000000000000021e-02 1.000000000000000021e-02 1.000000000000000021e-02 1.000000000000000021e-02 1.000000000000000021e-02 1.000000000000000021e-02 1.000000000000000021e-02 1.000000000000000021e-02 1.000000000000000021e-02 1.000000000000000021e-02 1.000000000000000021e-02 1.000000000000000021e-02 1.000000000000000021e-02 1.000000000000000021e-02 1.000000000000000021e-02 1.000000000000000021e-02 1.000000000000000021e-02 1.000000000000000021e-02 1.000000000000000021e-02 1.000000000000000021e-02 1.000000000000000021e-02 1.000000000000000021e-02 1.000000000000000021e-02 1.000000000000000021e-02 1.000000000000000021e-02 1.000000000000000021e-02 1.000000000000000021e-02 1.000000000000000021e-02 1.000000000000000021e-02 1.000000000000000021e-02 1.000000000000000021e-02 1.000000000000000021e-02 1.000000000000000021e-02 1.000000000000000021e-02 1.000000000000000021e-02 1.000000000000000021e-02 1.000000000000000021e-02 1.000000000000000021e-02 1.000000000000000021e-02 1.000000000000000021e-02 1.000000000000000021e-02 1.000000000000000021e-02 1.000000000000000021e-02 1.000000000000000021e-02 1.000000000000000021e-02 1.000000000000000021e-02 1.000000000000000021e-02 1.000000000000000021e-02 1.000000000000000021e-02 1.000000000000000021e-02 1.000000000000000021e-02 1.000000000000000021e-02 1.000000000000000021e-02 1.000000000000000021e-02 1.000000000000000021e-02 1.000000000000000021e-02 1.000000000000000021e-02 1.000000000000000021e-02 1.000000000000000021e-02 1.000000000000000021e-02 1.000000000000000021e-02 1.000000000000000021e-02 1.000000000000000021e-02 1.000000000000000021e-02 1.000000000000000021e-02 1.000000000000000021e-02 1.000000000000000021e-02 1.000000000000000021e-02 1.000000000000000021e-02 1.000000000000000021e-02 1.000000000000000021e-02 1.000000000000000021e-02 1.000000000000000021e-02 1.000000000000000021e-02 1.000000000000000021e-02 1.000000000000000021e-02 1.000000000000000021e-02 1.000000000000000021e-02 1.000000000000000021e-02 1.000000000000000021e-02 1.000000000000000021e-02 1.000000000000000021e-02 1.000000000000000021e-02 1.000000000000000021e-02 1.000000000000000021e-02 1.000000000000000021e-02 1.000000000000000021e-02 1.000000000000000021e-02 1.000000000000000021e-02 1.000000000000000021e-02 1.000000000000000021e-02 1.000000000000000021e-02 1.000000000000000021e-02 1.000000000000000021e-02 1.000000000000000021e-02 1.000000000000000021e-02 1.000000000000000021e-02 1.000000000000000021e-02 1.000000000000000021e-02 1.000000000000000021e-02 1.000000000000000021e-02 1.000000000000000021e-02 1.000000000000000021e-02 1.000000000000000021e-02 1.000000000000000021e-02 1.000000000000000021e-02 1.000000000000000021e-02 1.000000000000000021e-02 1.000000000000000021e-02 1.000000000000000021e-02 1.000000000000000021e-02 1.000000000000000021e-02 1.000000000000000021e-02 1.000000000000000021e-02 1.000000000000000021e-02 1.000000000000000021e-02 1.000000000000000021e-02 1.000000000000000021e-02 1.000000000000000021e-02 1.000000000000000021e-02 1.000000000000000021e-02 1.000000000000000021e-02 1.000000000000000021e-02 1.000000000000000021e-02 1.000000000000000021e-02 1.000000000000000021e-02 1.000000000000000021e-02 1.000000000000000021e-02 1.000000000000000021e-02 1.000000000000000021e-02 1.000000000000000021e-02 1.000000000000000021e-02 1.000000000000000021e-02 1.000000000000000021e-02 1.000000000000000021e-02 1.000000000000000021e-02 1.000000000000000021e-02 1.000000000000000021e-02 1.000000000000000021e-02 1.000000000000000021e-02 1.000000000000000021e-02 1.000000000000000021e-02 1.000000000000000021e-02 1.000000000000000021e-02 1.000000000000000021e-02 1.000000000000000021e-02 1.000000000000000021e-02 1.000000000000000021e-02 1.000000000000000021e-02 1.000000000000000021e-02 1.000000000000000021e-02 1.000000000000000021e-02 1.000000000000000021e-02 1.000000000000000021e-02 1.000000000000000021e-02 1.000000000000000021e-02 1.000000000000000021e-02 1.000000000000000021e-02 1.000000000000000021e-02 1.000000000000000021e-02 1.000000000000000021e-02 1.000000000000000021e-02 1.000000000000000021e-02 1.000000000000000021e-02 1.000000000000000021e-02 1.000000000000000021e-02 1.000000000000000021e-02 1.000000000000000021e-02 1.000000000000000021e-02 1.000000000000000021e-02 1.000000000000000021e-02 1.000000000000000021e-02 1.000000000000000021e-02 1.000000000000000021e-02 1.000000000000000021e-02 1.000000000000000021e-02 1.000000000000000021e-02 1.000000000000000021e-02 1.000000000000000021e-02 1.000000000000000021e-02 1.000000000000000021e-02 1.000000000000000021e-02 1.000000000000000021e-02 1.000000000000000021e-02 1.000000000000000021e-02 1.000000000000000021e-02 1.000000000000000021e-02 1.000000000000000021e-02 1.000000000000000021e-02 1.000000000000000021e-02 1.000000000000000021e-02 1.000000000000000021e-02 1.000000000000000021e-02 1.000000000000000021e-02 1.000000000000000021e-02 1.000000000000000021e-02 1.000000000000000021e-02 1.000000000000000021e-02 1.000000000000000021e-02 1.000000000000000021e-02 1.000000000000000021e-02 1.000000000000000021e-02 1.000000000000000021e-02 1.000000000000000021e-02 1.000000000000000021e-02 1.000000000000000021e-02 1.000000000000000021e-02 1.000000000000000021e-02 1.000000000000000021e-02 1.000000000000000021e-02 1.000000000000000021e-02 1.000000000000000021e-02 1.000000000000000021e-02 1.000000000000000021e-02 1.000000000000000021e-02 1.000000000000000021e-02 1.000000000000000021e-02 1.000000000000000021e-02 1.000000000000000021e-02 1.000000000000000021e-02 1.000000000000000021e-02 1.000000000000000021e-02 1.000000000000000021e-02 1.000000000000000021e-02 1.000000000000000021e-02 1.000000000000000021e-02 1.000000000000000021e-02 1.000000000000000021e-02 1.000000000000000021e-02 1.000000000000000021e-02 1.000000000000000021e-02 1.000000000000000021e-02 1.000000000000000021e-02 1.000000000000000021e-02 1.000000000000000021e-02 1.000000000000000021e-02 1.000000000000000021e-02 1.000000000000000021e-02 1.000000000000000021e-02 1.000000000000000021e-02 1.000000000000000021e-02 1.000000000000000021e-02 1.000000000000000021e-02 1.000000000000000021e-02 1.000000000000000021e-02 1.000000000000000021e-02 1.000000000000000021e-02 1.000000000000000021e-02 1.000000000000000021e-02 1.000000000000000021e-02 1.000000000000000021e-02 1.000000000000000021e-02 1.000000000000000021e-02 1.000000000000000021e-02 1.000000000000000021e-02 1.000000000000000021e-02 1.000000000000000021e-02 1.000000000000000021e-02 1.000000000000000021e-02 1.000000000000000021e-02 1.000000000000000021e-02 1.000000000000000021e-02 1.000000000000000021e-02 1.000000000000000021e-02 1.000000000000000021e-02 1.000000000000000021e-02 1.000000000000000021e-02 1.000000000000000021e-02 1.000000000000000021e-02 1.000000000000000021e-02 1.000000000000000021e-02 1.000000000000000021e-02 1.000000000000000021e-02 1.000000000000000021e-02 1.000000000000000021e-02 1.000000000000000021e-02 1.000000000000000021e-02 1.000000000000000021e-02 1.000000000000000021e-02 1.000000000000000021e-02 1.000000000000000021e-02 1.000000000000000021e-02 1.000000000000000021e-02 1.000000000000000021e-02 1.000000000000000021e-02 1.000000000000000021e-02 1.000000000000000021e-02 1.000000000000000021e-02 1.000000000000000021e-02 1.000000000000000021e-02 1.000000000000000021e-02 1.000000000000000021e-02 1.000000000000000021e-02 1.000000000000000021e-02 1.000000000000000021e-02 1.000000000000000021e-02 1.000000000000000021e-02 1.000000000000000021e-02 1.000000000000000021e-02 1.000000000000000021e-02 1.000000000000000021e-02 1.000000000000000021e-02 1.000000000000000021e-02 1.000000000000000021e-02 1.000000000000000021e-02 1.000000000000000021e-02 1.000000000000000021e-02 1.000000000000000021e-02 1.000000000000000021e-02 1.000000000000000021e-02 1.000000000000000021e-02 1.000000000000000021e-02 1.000000000000000021e-02 1.000000000000000021e-02 1.000000000000000021e-02 1.000000000000000021e-02 1.000000000000000021e-02 1.000000000000000021e-02 1.000000000000000021e-02 1.000000000000000021e-02 1.000000000000000021e-02 1.000000000000000021e-02 1.000000000000000021e-02 1.000000000000000021e-02 1.000000000000000021e-02 1.000000000000000021e-02 1.000000000000000021e-02 1.000000000000000021e-02 1.000000000000000021e-02 1.000000000000000021e-02 1.000000000000000021e-02 1.000000000000000021e-02 1.000000000000000021e-02 1.000000000000000021e-02 1.000000000000000021e-02 1.000000000000000021e-02 1.000000000000000021e-02 1.000000000000000021e-02 1.000000000000000021e-02 1.000000000000000021e-02 1.000000000000000021e-02 1.000000000000000021e-02 1.000000000000000021e-02 1.000000000000000021e-02 1.000000000000000021e-02 1.000000000000000021e-02 1.000000000000000021e-02 1.000000000000000021e-02 1.000000000000000021e-02 1.000000000000000021e-02 1.000000000000000021e-02 1.000000000000000021e-02 1.000000000000000021e-02 1.000000000000000021e-02 1.000000000000000021e-02 1.000000000000000021e-02 1.000000000000000021e-02 1.000000000000000021e-02 1.000000000000000021e-02 1.000000000000000021e-02 1.000000000000000021e-02 1.000000000000000021e-02 1.000000000000000021e-02 1.000000000000000021e-02 1.000000000000000021e-02 1.000000000000000021e-02 1.000000000000000021e-02 1.000000000000000021e-02 1.000000000000000021e-02 1.000000000000000021e-02 1.000000000000000021e-02 1.000000000000000021e-02 1.000000000000000021e-02 1.000000000000000021e-02 1.000000000000000021e-02 1.000000000000000021e-02 1.000000000000000021e-02 1.000000000000000021e-02 1.000000000000000021e-02 1.000000000000000021e-02 1.000000000000000021e-02 1.000000000000000021e-02 1.000000000000000021e-02 1.000000000000000021e-02 1.000000000000000021e-02 1.000000000000000021e-02 1.000000000000000021e-02 1.000000000000000021e-02 1.000000000000000021e-02 1.000000000000000021e-02 1.000000000000000021e-02 1.000000000000000021e-02 1.000000000000000021e-02 1.000000000000000021e-02 1.000000000000000021e-02 1.000000000000000021e-02 1.000000000000000021e-02 1.000000000000000021e-02 1.000000000000000021e-02 1.000000000000000021e-02 1.000000000000000021e-02 1.000000000000000021e-02 1.000000000000000021e-02 1.000000000000000021e-02 1.000000000000000021e-02 1.000000000000000021e-02 1.000000000000000021e-02 1.000000000000000021e-02 1.000000000000000021e-02 1.000000000000000021e-02 1.000000000000000021e-02 1.000000000000000021e-02 1.000000000000000021e-02 1.000000000000000021e-02 1.000000000000000021e-02 1.000000000000000021e-02 1.000000000000000021e-02 1.000000000000000021e-02 1.000000000000000021e-02 1.000000000000000021e-02 1.000000000000000021e-02 1.000000000000000021e-02 1.000000000000000021e-02 1.000000000000000021e-02 1.000000000000000021e-02 1.000000000000000021e-02 1.000000000000000021e-02 1.000000000000000021e-02 1.000000000000000021e-02 1.000000000000000021e-02 1.000000000000000021e-02 1.000000000000000021e-02 1.000000000000000021e-02 1.000000000000000021e-02 1.000000000000000021e-02 1.000000000000000021e-02 1.000000000000000021e-02 1.000000000000000021e-02 1.000000000000000021e-02 1.000000000000000021e-02 1.000000000000000021e-02 1.000000000000000021e-02 1.000000000000000021e-02 1.000000000000000021e-02 1.000000000000000021e-02 1.000000000000000021e-02 1.000000000000000021e-02 1.000000000000000021e-02 1.000000000000000021e-02 1.000000000000000021e-02 1.000000000000000021e-02 1.000000000000000021e-02 1.000000000000000021e-02 1.000000000000000021e-02 1.000000000000000021e-02 1.000000000000000021e-02 1.000000000000000021e-02 1.000000000000000021e-02 1.000000000000000021e-02 1.000000000000000021e-02 1.000000000000000021e-02 1.000000000000000021e-02 1.000000000000000021e-02 1.000000000000000021e-02 1.000000000000000021e-02 1.000000000000000021e-02 1.000000000000000021e-02 1.000000000000000021e-02 1.000000000000000021e-02 1.000000000000000021e-02 1.000000000000000021e-02 1.000000000000000021e-02 1.000000000000000021e-02 1.000000000000000021e-02 1.000000000000000021e-02 1.000000000000000021e-02 1.000000000000000021e-02 1.000000000000000021e-02 1.000000000000000021e-02 1.000000000000000021e-02 1.000000000000000021e-02 1.000000000000000021e-02 1.000000000000000021e-02 1.000000000000000021e-02 1.000000000000000021e-02 1.000000000000000021e-02 1.000000000000000021e-02 1.000000000000000021e-02 1.000000000000000021e-02 1.000000000000000021e-02 1.000000000000000021e-02 1.000000000000000021e-02 1.000000000000000021e-02 1.000000000000000021e-02 1.000000000000000021e-02 1.000000000000000021e-02 1.000000000000000021e-02 1.000000000000000021e-02 1.000000000000000021e-02 1.000000000000000021e-02 1.000000000000000021e-02 1.000000000000000021e-02 1.000000000000000021e-02 1.000000000000000021e-02 1.000000000000000021e-02 1.000000000000000021e-02 1.000000000000000021e-02 1.000000000000000021e-02 1.000000000000000021e-02 1.000000000000000021e-02 1.000000000000000021e-02 1.000000000000000021e-02 1.000000000000000021e-02 1.000000000000000021e-02 1.000000000000000021e-02 1.000000000000000021e-02 1.000000000000000021e-02 1.000000000000000021e-02 1.000000000000000021e-02 1.000000000000000021e-02 1.000000000000000021e-02 1.000000000000000021e-02 1.000000000000000021e-02 1.000000000000000021e-02 1.000000000000000021e-02 1.000000000000000021e-02 1.000000000000000021e-02 1.000000000000000021e-02 1.000000000000000021e-02 1.000000000000000021e-02 1.000000000000000021e-02 1.000000000000000021e-02 1.000000000000000021e-02 1.000000000000000021e-02 1.000000000000000021e-02
-1.106341850705266978e+02 1.681962610743739219e+02 3.899783883676881402e+01 -8.763314330656852391e+00 -8.714237308965743978e+01 -1.327835407319326144e+01 -2.061837185991065837e+02 6.874567343698337885e-01 -8.401048836108483897e+01 -1.395541779800687721e+01 -1.967233305800260013e+01 6.472886108393851146e+00 -1.767000589811769329e+00 1.663959692451702779e+02 8.391975225385444048e+01 -3.846973291331973854e+01 -5.236933136427512636e+01 7.856071330264582286e+01 3.255305185037291693e+01 -2.516399905799318759e+01 -7.819226403371588674e+01 -7.319136151115272071e+01 -1.368769837584366833e+01 2.869399863729633182e+01 -1.933058999728677634e+02 -9.791124493351138369e+01 -2.587460115684660877e+01 1.999616584026625219e+02 7.017848663532069509e+01 7.609884146815858230e+01 7.963335809888191363e+01 1.173732600250602554e+00 -7.860504954855403525e+01 2.057448332812246861e+02 -2.428406418533780595e+02 5.835911625079037890e+01 -1.191438490511413733e+02 -3.439911666931441658e+01 4.001898993014552097e+00 1.256719538062336596e+02 -1.218878946932538696e+02 -1.352968988981549536e+01 7.671667378215295230e+01 1.721786015833480405e+02 7.076336821219349815e+01 -6.784467404762973786e+01 4.087164429034113766e+01 -2.815413567596070976e+01 -6.552298193630096534e+01 1.553068747698122536e+02 -6.996964117642691861e+01 -5.168108991171566657e+01 -1.382027499579049561e+02 5.724199844050726682e+00 -5.011931841990659109e+01 3.835452494354644415e+01 -8.800619904224372192e+01 -4.964975220638950049e+01 -1.005842676916584253e+02 -1.541870332942015409e+02 1.928771061029770451e+01 4.500269554703621822e+01 -1.221292553749251226e+02 1.275137383640385913e+01 -7.864371436498733203e+01 4.872412510681512998e+01 1.652951850078193843e+02 -1.431038963310127485e+02 -4.295650019631693795e+01 7.144595050365284195e+00 2.908706559662015856e+00 4.204369161997417592e+01 8.330756740973792773e+01 8.500703359408444681e-01 -8.739977993429734582e+00 -6.946024767121072330e+01 7.762956672306961536e+01 -3.249155146940490368e+01 2.608793408254811652e+01 1.031850326427749565e+02 8.751039011663314682e+01 -4.241785753007344795e+01 5.732816933772647872e+01 1.462549483756152711e+02 1.152825938565936923e+02 -3.983112596732542698e+00 1.728103215664911261e+02 -1.106304264129658748e+02 4.157131498871668107e+00 -4.160382671165458390e+01 2.051806556256552483e+02 -2.105411844398562238e+01 2.864164017423047159e+00 -7.617120116749464387e+01 -7.083809876394822957e+00 -6.332754893128335283e+01 6.723581756005560806e+01 -9.380036601370470351e+01 6.804522598290317603e+01 -4.737487342201629303e+01 -4.936071729349779247e+01 -9.093279567754495929e+01 5.265946939323361420e+01 -5.427012906951177484e+01 -1.481435583636796594e+02 -7.883185938205434695e+01 -1.037790898707666543e+02 -1.559785454942946217e+02 1.348557350851233139e+02 -2.726263214336173846e+01 3.178078663196354725e+01 8.895470806070382253e+01 -1.032345703365073319e+02 5.650929609957166377e+01 -4.297531080547669546e+01 -6.880616963028853661e+01 -8.938677721660710063e+01 2.016364317473657763e+02 -5.629042702432820988e+01 -4.910916239747697887e+01 -4.682314157723060077e+01 7.976134234019369273e+01 -4.108458758327109450e+01 1.368838665299818160e+02 -4.949711612551154616e+01 5.467110837679165058e+01 4.506635851568324469e+00 -8.047622603570597732e+01 6.825927570244290621e+01 2.751963404650538223e+02 -9.131252478579679632e+01 4.711063607462573799e+01 -7.565174348815563121e+01 4.488544269214972360e+01 1.301721121568531601e+02 -5.099869292216734351e+01 1.448752986865551406e+01 -2.672518747516817683e+01 -1.011609917290280976e+02 -1.718577443033743535e+01 4.255379462254906819e+00 -7.756412066471719768e+00 -1.483440901686131141e+01 1.173250452732519165e+02 1.293848995908653023e+02 1.850660982873710623e+02 -3.020705672851181589e+02 3.792466586815429963e+01 -1.564468170009372905e+01 -6.189085826759092868e+01 1.790356050591229575e+02 7.563419440958386986e+01 -2.577084376338304672e+00 -1.151274867740583971e+02 -1.081584548915895816e+01 9.938973659166472885e+01 -1.334482061234326125e+02 -1.674572970952046376e+02 1.066292293687753379e+01 4.213784376162507783e+01 -6.061393063031756157e+01 4.175633049507445094e+01 -1.063694386969307430e+02 -1.503204495861682517e+02 2.096504831660034540e+01 4.826583131789769965e+01 4.781763385715465553e+00 -8.294086819820951462e+01 -9.300728046647851954e+01 -8.378904354821396794e+01 -8.702279074706831352e+01 1.256944022081145818e+01 5.649947941946180663e+01 1.158468065247155465e+02 7.898643533534823291e+01 8.902714947805399959e+01 1.068984419820896790e+02 -7.440291573628628896e+01 -8.209569492096558463e+01 7.017718980387375893e+01 6.817833353838493338e+01 5.895886520763505700e+01 -9.346103029907753879e+00 -9.068809325361117146e+01 5.376939483188174762e+01 -1.783311214732076166e+02 6.692069798037101691e+01 -4.437386305687247301e+01 -9.611283430996982702e+01 7.397425229584102624e+01 -1.709602488591832170e+01 -7.690518078003097457e+01 -5.730673548768967152e+01 -9.136859877121834117e+00 2.421580805588380372e+02 7.672392360052737104e+01 5.474233901171218264e+01 -1.037213585594983130e+02 1.480684585043826189e+02 1.054182617092242591e+00 -9.029044371789092338e+01 1.556954668133736561e+02 -1.540540716511956703e+02 1.577041244250131236e+01 -3.252757704897472024e+01 -2.221526753749357113e+02 -1.348271949549577471e+02 -8.817736310485086904e+01 -2.965072712792856180e+01 -1.205212544797443144e+02 5.827711539246458727e+01 6.569741770005798287e+01 -2.788468760193558182e+01 -1.008329055167181707e+02 1.143253996707016000e+02 1.194838034463741252e+02 4.671934082678345135e+01 1.767563107487137586e+01 2.643072523065843598e+02 4.415520812221061675e+01 -1.208201869756600217e+02 -4.558151236364408732e+01 -1.707954756404085117e+02 3.224241729042238802e+01 1.551013072125627446e+02 -1.500913317823780915e+02 1.332996974704269633e+02 -9.205290587527512969e+01 -1.914415757472440660e+01 -7.862834600001210594e-01 5.351158728539252252e+01 -1.173138117135656877e+01 -2.308621372079024070e+01 -1.910061882255618926e+01 -1.282993466561722187e+02 4.698968356549799097e+01 -3.073056888525132990e+01 -1.311775272528104530e+01 -1.085306340363338329e+01 2.288309910466417705e+02 1.764444580958252402e+02 2.355963975719466816e+02 1.334858299463137143e+02 -8.768385189782645739e+01 7.614289025703696723e+01 2.140202358652013359e+01 4.817591145990968471e+01 -4.021558216271478869e+01 2.587309112550636314e+02 -2.361085711152386679e+01 -1.385177994790029743e+02 -1.514515649263302244e+01 -4.643450048207951397e+01 -7.841074355482251690e+01 4.372639365181024829e+01 -1.186743606181536670e+01 1.843231646665246899e+02 9.360390155640864407e+01 4.142563072522028023e+01 9.931955248213121479e+01 9.581848797674433627e+01 -2.329547134839100053e+01 1.415112238050951134e+02 2.686517340803901277e+01 9.080045990249497834e+01 4.831363223340240154e+01 7.024210776495050546e+00 -1.173331494982005836e+02 -1.174256987937736199e+02 -9.125613299921074884e+01 -1.578171816557144069e+01 8.787537070806909867e+01 -3.106394201662545385e+01 1.002417304984223421e+02 4.441595151588587242e+01 -7.372084908501410894e+01 -3.036728966548097475e+01 -5.939525124427172642e+01 1.780674719008820617e+01 -4.695042813800904469e+01 -1.135818715541408039e+02 1.231911909880624876e+02 1.230067926986646256e+02 -8.004481679032009822e+01 5.502091623657406672e+00 -4.594125224671575580e+01 -3.303735873826856562e+01 -1.149753527040930479e+01 -3.165934618929549060e+01 4.508096986962915054e+01 -1.424717661087873353e+02 -5.356594527874445077e+01 -1.539258340753502807e+02 1.764574450074823631e+02 -2.048079663650840843e+01 5.970846661726985616e+01 1.207633193984725750e+01 1.462808462619105114e+02 4.520685385754431707e+01 3.617934674095351966e+01 1.563341435606983225e+02 -4.988747726904611568e+01 -9.883894957440598716e+01 2.752909982663772936e+01 -1.599712039148895713e+02 -5.406062536648970251e+01 1.035648544221308640e+02 -1.291926118829058794e+02 -3.680083158583414615e+01 9.238676173083926813e+01 -9.559596374793883911e+01 -9.054566326277186761e+01 -8.361954232070834792e+01 -6.456034522725418867e+01 2.519789763770903619e+02 2.004976358689121412e+02 1.041795539814982732e+02 -1.033704928450643479e+02 7.570149007957232357e+01 -6.691716208260709209e+01 -3.167360353722101607e+01 1.679387647198427302e+01 -3.258312764883717705e+01 -9.475859489916324208e+01 -2.792065248653161191e+00 1.493204454264350467e+01 1.099222481716461175e+02 -1.298071770878501070e+02 4.235012660590902556e+01 6.439741435895395227e+01 3.487018835277304873e+01 -9.148877338484432187e+01 -1.499293783098136430e+02 1.949909596440530208e+02 -1.797370233940965889e+01 2.541849527609855386e+01 1.579582427602944392e+02 2.690068696724534902e+01 2.797896666479208960e+01 -4.492171073033358653e+01 8.935021440365773060e+01 -1.374756645250382405e+02 -3.105597729307577026e+01 -6.186276144654439868e+00 -5.383340603257176582e+01 6.293742823487577631e+00 2.144733320192111847e+01 -3.606733799755822645e+01 1.377170627528124136e+01 2.153482364752495073e+02 -2.760213526164663733e+01 -2.819591448322909244e+01 -1.024130321229033882e+02 -1.657162656577241044e+00 -8.133726504914088196e+01 6.436997670110460312e+00 1.128844742257645919e+02 -5.239714132068450425e+01 6.088781450755369029e+00 -5.469842886647852964e+01 3.346981090218583699e+00 8.781119793228054959e+01 -1.166568146104122690e+02 -9.749300047405466785e+01 -1.032753028755801665e+02 7.186072261907806080e+01 8.714973077870149609e+01 -9.289420774519713575e+01 6.304801086513582931e+01 2.599995924564475303e+01 3.894830876198640368e+01 -1.786904362836665427e+01 9.195891613092526029e+01 8.024675904186608477e+01 -7.777905868151546542e+01 1.190499551442666260e+01 8.142101319724551445e+01 7.333226130258958619e+01 -2.002540506615256888e+01 2.513811698798798133e+01 -1.334590290079636645e+02 4.884259455744097522e+01 -3.298764130621129453e+01 -3.287789707384640536e+01 1.743089909050099493e+02 4.773713005941468879e+01 1.209865337530844442e+02 1.921938485623643658e+02 -1.385751750498068304e+02 1.500416095789111921e+02 -6.382596245904440480e+01 -1.360085921634980934e+02 8.284806633732183911e+01 -1.349289771270820495e+02 -2.889369027111056454e+01 5.677269899791104280e+01 8.120029380727768142e+00 -1.692191167590258374e+02 8.478610131527560156e+01 2.538767449997192216e+01 6.953601975423202930e+01 3.652193055793377141e+01 9.531988209163269943e+00 -6.754604857244295602e+01 1.164645208699671315e+02 5.483779797362546304e+01 -6.251844431426458470e+01 -1.018879417657220614e+02 3.918062305018004565e+01 2.585918519130206050e+01 8.291876467444610910e+01 1.849331222914267983e+02 -2.478495374377666138e+01 -1.108519758789527430e+02 -8.525080542649894255e+01 -5.164455331730130183e+01 -4.463875596133768653e+01 -1.476559432087017001e+02 -2.265350625898968318e+01 1.303218191865200026e+02 7.500721810576479243e+01 -1.231394753348028814e+02 -1.508172235685001112e+02 -6.852347492158455111e+01 -7.682342675601914550e+01 1.476964432468771236e+02 -1.715257859660545989e+02 8.708784022748379527e+01 -4.636212087264302006e+00 -4.329636567455197849e+01 1.338085864774222777e+01 9.172809005315264130e+01 4.988650306179958704e+01 1.390601656312171883e+02 -1.601168257219412965e+02 -8.146972686869891334e+01 2.550885532593379423e+01 4.219036904594491943e+01 2.073994361935051245e+02 1.463473766610399593e+02 6.593479071933715829e+01 7.254542779338727598e+01 -3.435645908571429175e+01 1.527433574539654444e+02 -1.804368977546362203e+02 -6.379412803831679923e+01 -5.401038301459070823e+01 -5.210773493078114171e+01 -1.039010050640200262e+02 -1.507948597779677513e+01 -6.905316589017681395e+01 7.160424802807018807e+01 -9.209800321792933175e+00 -5.843455701293826365e+01 -6.264742985139682929e+01 1.812709820537195071e+02 5.936485137398226186e+01 -1.379811726273181272e+01 2.101277574431097719e+02 -1.089817169171500808e+02 -3.554272862372160091e+01 6.735666439087630408e+01 -1.333696364406971591e-01 1.504184804668991404e+01 -1.258197593982487064e+02 1.772170384436248298e+02 -4.926096517648851858e+01 -2.708363796320910311e+01 -1.103239149923904989e+02 1.265491162463617201e+02 9.639887657639742713e+01 -7.793784377217393455e+01 -3.779030090048826196e+01 3.915511116020567783e+01 -1.521832899907674914e+02 -1.649465082026343177e-01 -7.508342545866371154e+01 7.736093670226585672e+00 -1.086492015992443214e+02 -1.593108328959187929e+02 -7.102263005221526271e+01 1.488768736444759782e+02 5.683547410187051696e+01 -9.003525356245913258e+01 8.957664227738726481e+01 3.438143492843980908e+01 8.870417473993443025e+01 -4.229627942334172275e+01 -8.443860017633515724e+01 1.717262412590866631e+02 4.181783509797035947e+01 2.906510979642913384e+01 -7.328080898380071062e+01 -4.246973770812102345e+01 9.576983192739513484e+00 -7.190354049338671949e+00 -1.734398893243572388e+02 -3.472893401432239813e+01 6.463037553300462434e+01 1.119680704321185090e+02 1.562110504321261431e+02 -1.331587585161666887e+01 8.988551562253879013e+01 1.581721701024784466e+02 6.359102478968171823e+01 1.481304693782719255e+02 1.610384695569493019e+01 1.316086615066867012e+02 -8.412387411891756983e+01 5.346151848071124135e+01 2.938153995639929050e+01 7.598705063681819638e+01 -1.063612388143310881e+02 1.982829255735492211e+02 -1.288910871699246172e+02 8.838401703494892558e+01 -1.074903184148554374e+02 4.617499625728667922e+01 1.380733401272573779e+01 9.072209296571662662e+01 -7.366862389100663222e+01 -7.550206565562777428e+01 -1.115193627990626268e+01 8.905324143714058494e+01 -2.957032521560969229e+01 -1.629364847652685100e+01 -1.961435352214740035e+01 4.731567577490878307e+00 9.800179638759186673e+01 -6.245680168459101367e+01 -2.706106298674076704e+00 -1.932859631670245619e+02 1.215233300576121422e+02 -1.243549043347579470e+02 -7.356667223815819057e+01 -2.343685571590768291e+01 -1.074779858720087162e+02 -5.292945309072009508e+01 -5.832420814304193613e+01 -1.959311890966301917e+01 1.356605004770250673e+02 5.382400393417063356e+01 9.998539507836444784e+01 -1.354969613127396997e+02 -1.379657153868043622e+02 -2.853269487825028250e+02 1.017124449998055411e+02 1.037960694714485044e+02 4.210819899381500164e+01 -4.225331350382245432e+01 -3.703522187788130537e+01 -1.828456954428599772e+02 1.454777923191467721e+02 -1.069467813445725000e+02 1.064950690324868816e+02 -1.585200316194691936e+02 -1.425103530572785182e+01 -5.513742372501198474e+01 -1.187423858400132133e+02 -4.590271369201188634e+01 -1.245742342597843333e+01 -9.227160631158064064e+01 -1.030494639215577166e+02 -1.230509041452897634e+01 7.089778258400431810e+01 -1.241060877868583958e+02 -1.559637175404292186e+01 -7.345074354345504730e+01 -1.308766113785350171e+02 6.615926934455709230e+00 9.476569635377087764e+01 1.648666193111061773e+02 -1.899226605747059438e+01 -4.587593419656371907e+01 -1.236844281581284690e+02 -1.629900880182189269e+02 1.034031405834949311e+02 -7.248105679835754245e+01 7.872784083492656748e+01 9.369042120035093291e+00 2.913644008023445764e+01 7.359855794824274255e+01 -8.446192477724240177e+01 8.240429002686225601e+01 1.149076148545307774e+02 1.569597753693037134e+02 -1.161983737707449933e+02 1.036288701761912137e+02 -4.762662059990494612e+01 -9.052291497747111748e+01 2.139328071634828916e+02 4.909129719398524117e+01 8.321975077352337280e+01 2.119546745273445154e+01 -6.303276621268202007e+01 -3.483277506443526761e+01 -2.097570322968466314e+02 1.053219576082862545e+02 8.125835959895997007e+01 -7.547621865696496002e+01 -7.292356754714519695e+01 1.447663022880544474e+02 1.007684711954277788e+02 5.096604654970519732e+01 7.585392256824023605e+01 -7.856539635489322215e+00 1.028923681766520843e+02 -1.032507344786212400e+02 1.858411760776943424e+02 -3.936767812680083267e+01 -1.216407779519111898e+02 -3.757192642560404039e+01 7.153530702004373154e+01 1.469107521792725493e+02 1.285872790306114055e+01 1.733194227314148179e+02 5.204756173773341033e+01 3.352577809431588207e+01 -1.109932849775579626e+02 4.467207031069618495e+01 -1.246596236094342771e+02 4.756434589802540813e+01 3.850661454862922994e+01 -1.230005028456132550e+02 -8.479259990269913771e+01 3.972948306943813179e+01 8.700684495681352715e+00 -2.315939031593474340e+01 4.174560040541727091e+01 -2.133888972867502787e+01 -6.291046864042130693e+01 -2.610460384279836887e+01 -2.237872405308036150e+01 -3.971158997699215831e+01 1.871984587795043709e+01 -8.027625107708531971e+01 1.186068906656887521e+02 -7.409577280830706059e+01 -4.244409453995285020e+00 6.537057160601642636e+01 3.878902414946920896e+00 1.590605193160937603e+01 1.591627988843145047e+01 -1.167905517354063818e+02 -4.401773652444390450e+00 6.486173377133998486e+01 -2.307622226491570530e+02 -8.461836750671619711e+01 -1.123842486759052122e+02 4.366510117794963008e+01 9.593693455737408726e+01 -9.148430483802690105e+01 -1.673902490885258771e+02 -1.846090255773806916e+02 1.990663828255260270e+01 -1.444857200219975653e+02 -6.301957124489434570e+00 1.470875516050702174e+02 -7.070223190927342749e+00 3.699172493066294010e+01 -9.846554784478324507e+01 7.944888294984927768e+01 -1.179012481116752440e+02 -1.532832124575043764e+01 -3.011696754692873768e+01 5.721328429905744883e+01 -8.806974449953219874e+00 1.049488414838311314e+02 -1.211883589539722834e+02 -4.970944769059443047e+01 8.592185972853299347e+01 6.562188496262467652e+01 -8.166482391678347597e+01 -5.394490135230157790e+01 -4.893783186059805246e+01 -2.867913635311025473e+02 1.917533675600749064e+02 7.538087994948108417e+01 -2.336304797240039477e+01 -2.937551655890525382e+01 4.111469034492455421e+01 -8.327827712344669919e+01 9.848741515792028167e+01 5.982016054731768406e+01 8.109184107118821316e+01 -8.316716255215163756e+01 -2.624609131201252765e+01 3.295966853003847064e+01 1.718265847602643603e+01 -4.233299064395200162e+01 1.560835253770585211e+02 -1.708539204152209834e+01 3.497522040060741944e+01 -2.270790080147106664e+02 -8.365354821648243444e+01 -7.226470086454492048e+01 2.273929516801294071e+01 1.078390618139175245e+02 -2.288383126668123850e+02 -1.847160788018344988e+02 2.188976854073285097e+02 -1.043609795195676426e+01 9.486237736931737174e+01 6.190700244017819642e+01 -5.466650392918539580e+01 -1.293614677922653016e+02 -9.396953996874367476e+01 -4.962792319996068358e+01 -3.695917453129467134e+01 -3.866689723489930230e+01 1.595530165973557857e+01 3.670230393765174171e+01 1.647407787800534038e+02 1.216721525830515844e+02 6.866380037287195925e+00 -4.339204485072776230e+00 -1.567841302214738448e+02 1.181486372057044747e+02 1.573136804849550288e+02 -1.021342806127534857e+02 7.280230691101765217e+01 1.721181928533143335e+00 5.422030920877434568e+01 1.238414223349606686e+02 7.005269485314650524e+01 -1.323564883174408635e+02 1.593441378110168039e+01 -2.902010021157213870e+01 1.100372961435217967e+01 -2.285616945675239720e+01 4.478937452968354904e+01 -2.573983417916624603e+02 1.790029518495701666e+02 7.207457365478622258e+00 1.575358549122228737e+02 -1.042278177381041715e+01 1.049499806612188166e+02 7.081460284879092626e+01 -4.152084340884847080e+01 2.958381847612992388e+01 -7.200801168195589241e+01 -8.801832596912890949e+01 -7.129597763925205811e+01 -3.171423127752223081e+01 4.470606015355721041e+01 1.090335730480939986e+02 2.819573061913720480e+01 6.149959194916156946e+01 -1.037806985818774734e+02 -1.357881658199633534e+02 -1.335243051837573169e+01 4.594665839129557128e+01 -4.505194885313058251e+01 9.366286788557816578e+01 5.500647795234169735e+01 -2.738897178152475931e+01 2.967064344815263865e+01 6.081359279984656752e+01 -7.144890013405805007e+01 -1.325095124808039202e+02 1.408006312163236942e+02 7.745063138365805955e+00 4.970519539670483766e+01 -1.480247921204599209e+02 -5.295972405775211200e+01 -4.493007467706555125e-01 -6.522192853226171394e+01 4.233901421104491192e+00 5.584879646881680060e+01 1.850119343049142628e+02 3.883337992624012713e+01 -1.088056925429894584e+01 7.169562595111116821e+01 -4.515413807908047517e+01 -1.082156073862280579e+02 -1.372452269862175740e+02 9.306997714740370853e+00 2.494762186171496054e+01 2.365660283905310735e+01 -5.652329818289754115e+01 1.200845273204609214e+02 -8.035072614510920630e+01 1.275772503417027650e+02 8.679876880159423536e+01 -6.467994705592735727e+01 -8.425770041698629598e+01 8.375624774579395648e+01 2.035214736082846443e+01 -5.223714813795157852e+01 -5.357936520296657790e+01 1.360519107485690711e+02 5.704818055905285235e+01 7.953605996064204930e+01 2.603155721456612426e+01 -4.188961698363085162e+01 1.070034138520698264e+02 -5.434842167966634463e+01 5.457292488731997349e-01 7.627202821613035155e+01 9.922805421703421302e+01 2.546022013985978560e+02 -1.745835185138077748e+02 1.604217347855139337e+02 -6.737311305092060820e+01 -1.518330514815214549e+01 -2.501109819880166896e+01 -2.067795941986672759e+01 -5.501841072732091220e+01 9.274956515812317548e+01 1.836917801872975247e+02 -1.185839050270189290e+02 3.088516154577305173e+01 -1.267456719944053134e+02 7.012354975858369244e+01 -4.445574711462792550e+01 -8.096756384431249387e+01 -5.388648298475158782e+01 4.119076778328527411e+01 1.939045046584562826e+01 -8.183914796370015665e+01 -1.411954189699378048e+02 2.079513217018293858e+01 1.578559996885761620e+02 1.431193675824219014e+01 1.828538374001635134e+02 7.478972610568933810e+00 1.349596653088637481e+02 -3.469011852116003070e+01 9.099869155139890609e+01 -7.167201936734579704e+01 -1.132983222412958781e+02 4.961816223937510273e+01 -5.824071076304505112e+01 -7.885313622527267796e+01 7.321042351647970747e+01 6.483336109530530855e+00 -9.474973277383695347e+01 -1.513317097464750418e+02 1.487064291540735326e+02 -8.967809154007500183e+01 -2.365194107542294422e+00 1.208193251522787506e+02 5.839498656694015466e+01 -9.884868278558285226e+01 1.070332666111242403e+01 2.840088767343471545e+02 5.370001825478699686e+01 -1.589045271031481548e+02 -4.808303448312142336e+01 -6.200044033788805820e+01 9.704586921563208790e+00 1.084463460369358359e+02 -1.043489937421466607e+02 2.175715214797209285e+01 1.316291438794789315e+02 1.894298856803324327e+01 -2.131667320806397754e+02 4.876998905454814803e+01 7.617789099018463617e+01 -1.370719895967518198e+01 3.310341128543269917e+01 1.492745098396741077e-01 2.272901390736564053e+01 2.799761652152419344e+01 1.169214730215881559e+02 9.895866348339644958e+01 1.571975022256301280e+01 1.504466726839726221e+02 -6.463343428317082839e+01 2.490164434449028477e+02 6.565774423402004345e+01 1.430768681238900797e+02 -2.218470905723762598e+01 9.094715156738426742e+01 -4.948555008362988872e+01 -1.478177621244676061e+02 2.644158416675421819e+01 9.599331273475073090e+01 -8.847090677526793456e+01 -1.057863023815756236e+02 -6.720480349650084406e+01 3.696690018605641370e+01 -1.153698854282674802e+02 7.547393909038454751e+01 2.834745024732076502e+01 -9.860044954958975438e+01 1.918614041866082118e+02 -1.188221457781985535e+01 -1.027899190780119767e+02 -1.352636701752729209e+01 -2.064355544469782444e+01 -1.416599825074672481e+02 -4.044069499948233215e+01 6.213474446433289700e+01 1.331290278729893544e+02 2.932316604724119458e+01 2.703416335628026701e+01 4.524882589465441640e+01 -3.611237931116677657e+01 -1.470962042067678226e+02 1.602721618368925860e+01 3.130198738897249910e+01 1.344748795350288333e+02 -1.002717898549160580e+01 -7.692470518045058725e+01 7.396424537272383759e+01 1.001459086181804459e+00 3.222917762640329187e+01 1.407116863129121498e+02 -1.793706444206742390e+02 -9.382066731791574909e+01 1.260312025021826372e+02 -2.118197192709126853e+02 -1.805682626510831312e+02 8.934724611916675485e+01 1.511978417766205496e+02 6.224180483274609088e+01 -4.375932137933131294e+00 1.529311539024419062e+02 -2.155119746286918598e+02 1.052094852493704735e+02 4.160994400744979060e+01 1.247681380344800317e+02 -1.851656417485562827e+02 1.046125606917943855e+02 -2.775341245003930624e+01 -1.312680998120005142e+02 -5.228353854569648185e+00 -9.072313623369055335e+01 -1.598987260037791636e+01 -4.224811322380568335e+00 -1.209543775013822824e+02 -1.210779595757728089e+02 -6.143615261210664613e+01 -1.265784177559174424e+02 1.973406116418742329e+02 -1.581265341039505188e+02 -4.926018535007129628e+01 1.694035813336889760e+02 3.331080790692044502e+01 -2.906092708033980898e+02 -1.247878378878841801e+02 3.487167874556899960e+01 5.365796039143408791e+01 8.428405379947953691e+00 -1.518094506562441381e+02 3.503845599403040723e+01 7.342788118151913679e+00 -7.297748171440332499e+01 1.990333692684985465e+02 1.989077584041248770e+02 4.257159037701403470e+00 -2.047441873389013267e+02 1.236971881509070101e+02 3.020597182103339051e+01 3.702390086586329510e+00 7.522338645472052576e+01 -2.037010091577161575e+02 -1.355219576689523251e+02 1.384711685755471535e+02 1.076514319594505196e+02 5.196121849555358096e+01 1.406088508092768734e+02 -1.750202186110554976e+02 -2.007109534754958347e+01 -1.280506435745156466e+02 4.281740322151372879e+01 -1.019770269889480261e+02 8.546930195078856229e+01 -3.327329794903493365e+01 1.215779607638129001e+01 1.742019852201598553e+02 2.799138890633861720e+01 -2.587708730394971326e+02 -1.240666252066354645e+02 -8.183290839908057990e+01 1.552269546121358985e+02 1.230804638891249425e+01 -5.285649846283602926e+01 2.981172576399361418e+01 6.137025831115660424e+01 -3.885120600695496051e+01 1.055547679071255374e+02 -9.890388296706750282e+01 4.831644122053957346e+01 1.098896403167889702e+02 -3.482144046570934393e+01 -9.633635390776775864e+01 -1.113621414822371776e+02 1.175773847401601699e+02 -4.876155044140859474e+01 1.929694164505028482e+02 5.616236520280056510e+01 1.089306296942618530e+02 1.810794634554104050e+02 8.403771991500210703e+00 -1.220219988152984314e+02 -1.627330707378961847e+02 -1.121019062586962036e+02 4.170964137458838650e+01
-1.305376576570394853e+01 -4.626337330213988075e+00 9.930928968318383454e+01 -2.196306612336724982e+02 1.490413596699972913e+02 6.090586222887824874e+01 1.458966473793645662e+02 -1.238584602338695362e+02 -2.663734302321188796e+00 -2.308252986311133625e+01 -2.104742018854332173e+02 3.138366659984753326e+01 -1.757055692686424209e+01 1.172786646787169218e+02 -1.199390497083539060e+02 5.917613131499986423e+01 1.201473209335337060e+02 -4.405988160051577296e+01 -4.759572851967730145e+01 -2.591535135165628034e+01 5.917642109136469486e+01 6.050383256982950542e+01 3.109019406701596822e+01 -2.229595651934199054e+02 -4.947928179031305262e+01 8.775256569069493651e+01 9.499616262878928907e+00 -9.935737122438544233e+00 -6.379247936522659046e+01 -1.483688422417464103e+01 7.031974294503231704e+01 -1.394192110394110671e+02 -5.937503669786005389e+01 8.615172230933360709e+00 1.989904190245021880e+02 2.033141122296211165e+02 -3.077631821675951329e+01 5.358337403393905873e+01 -2.586307626217829725e-01 -1.339005884483599687e+02 9.202234477277751523e+01 1.028129775381860185e+02 1.040428432522105737e+02 1.120442075327356690e+01 5.933885420256948606e+01 4.613795406964152335e+01 3.727900929204920999e+01 2.813007115756902010e+01 1.057358288121543097e+02 8.601479772239686383e+01 6.288740746927346237e+01 1.562613451403981060e+02 2.375085681122995140e+02 1.875093057650331616e+02 -5.669348943129816121e+01 4.723396299736290160e+01 -6.162918696319983525e+01 5.407850388868379810e+01 -1.842401390673116737e+02 5.416894667816269049e+01 -1.963149642232712040e+02 -1.617534268246953673e+02 1.241265965957463813e+01 -8.867551761512615371e+00 1.625380889253042369e+02 -1.993754675734688817e+02 7.217558124516135365e+01 2.203522009651773885e+02 -7.051800086764430375e+00 -1.867263013782461485e+02 3.409901194252336154e+01 1.890842131722682495e+02 -5.859032333360892153e+01 -2.555539574511209935e+02 -9.834822467061373175e+01 8.501890739695785015e+00 -2.206438546546750104e+02 3.073563503545566533e+01 -1.721094676842505180e+02 -1.779923967979677570e+02 -5.480504271817152073e+01 1.462528529759058813e+02 6.666030502200912622e+01 1.017973931725685333e+01 -8.505609816129422995e+01 -4.088158103624200379e+01 6.117387624069404950e+01 -2.227703305870597319e+02 5.193013616709610858e+01 -7.197507227273887054e+01 -7.499223181934038962e+01 -1.697292738988197982e+02 6.246585123105033688e+01 8.903446162168229705e+01 -1.558576167612293375e+02 1.659055948931618900e+02 -3.830651763860283410e+01 -1.624707731388618015e+01 8.412819929846106959e+01 1.501370842715055574e+02 2.085292566489446386e+01 1.454699619135693922e+02 -1.775467234274571027e+01 -8.713151741704156450e+01 -1.884124146752066764e+01 9.709957994065578646e+01 4.442030870311217683e+01 9.662852154035098806e+01 9.323754279304027648e+01 -8.205371997479207380e+01 -1.678394204842206534e+02 1.215540726507893936e+02 5.358992008575653898e+01 1.599700981452974702e+01 3.020596567640127716e+01 -6.710488655850424777e+01 9.487782922030156385e+01 8.877048348441783787e+01 -1.353210934332075155e+01 -7.039912817695429226e+01 3.037542530419848674e+01 6.204453836350129592e+00 -6.078940208504958065e+01 1.675731122370277717e+02 -3.252198882423500947e+01 1.201959154652080315e+02 -6.929793696120759705e+01 3.794757820102929458e+01 -3.568498415130071066e+01 8.845949581302409115e+01 2.321596800229912105e+01 1.142869471967620427e+02 -1.147209782306192807e+02 7.352529639164545472e+01 1.221268160466802470e+02 -4.421955120492217617e+01 7.530075084108595718e+00 -1.257668210816855137e+01 1.155445723337684854e+02 3.551056647597803817e+00 1.668775003514619470e+02 -1.399383567244669848e+02 1.154611515815869325e+02 -9.037920880930329304e+01 9.480403432617663384e+01 -1.356769179268436858e+02 2.922196288452722612e+01 2.450226591233190376e+01 1.784494023636448157e+00 3.595999210870969165e+01 4.550142644086173505e+01 -1.229098477937388267e+01 1.073755837832870697e+01 1.070692215432356420e+02 1.260610392846846963e+02 -8.588248560933136844e+01 -5.370091270373519876e+01 4.691685717228811114e+01 1.517237087278094476e+00 -1.357327661625428163e+02 -5.461781323938233612e+01 -3.512684479555370132e+01 4.848075797205542870e+01 -6.497731236248742448e+01 2.272689704237421893e+01 1.590224291008698572e+02 -7.880459688992360157e+01 8.015097851448955169e+01 8.340638828025024054e+01 1.115900837409698276e+01 1.224852680127224005e+02 6.240862068078842384e+01 1.668004284460013480e+02 -3.432566290480246352e+01 1.116592954970955418e+02 5.516646139326238796e+01 -1.596257610307484676e+01 2.027856850819907208e+02 -1.379098792857406011e+02 4.858210325433577026e+01 -1.864461972477288612e+02 -8.368585720965600672e+01 4.079961045368541761e+01 -7.181246653697066051e+01 -1.549942536697960236e+02 1.982915244911376647e+02 -8.534621942579803999e+01 -4.725750769636219673e+01 -4.605451201019595686e+01 1.211667977799687890e+02 1.938621819929347225e+02 6.445263765973784587e+01 1.455809948691839963e+02 2.184718351922439297e+02 -1.607760580443733156e+00 1.621754332868885626e+02 7.057591158916521579e+01 1.895621094598326692e+02 -1.252404123526908251e+02 -1.180517680740765485e+01 6.317356042665854154e+00 1.891241545090542786e+02 -9.048857453737102219e+01 -6.022815441425610317e+01 -5.271570890836150625e+01 -1.334056693217776228e+02 4.646724503469084055e+00 -1.004990113342488485e+02 1.534681148459934548e+02 2.345930930433011596e+01 1.195088590025247122e+01 7.199668046143656852e+01 -4.906391377661545761e+00 1.164685377078451296e+02 -1.581776393257508175e+02 4.521858796338155884e+01 -1.700966780154259936e+02 1.169217622493908806e+02 9.564210864932977074e+01 -6.701554610434557446e+01 4.657818275801006536e+01 2.371207336023209962e+02 -3.033223772063083246e+01 4.147809972227195630e+01 -3.253573380677935489e+01 5.769171818623612324e+01 6.400218728324146866e+01 -6.249958737204595494e+00 1.014732120781182232e+02 1.010499080865350692e+02 -1.930251389542537765e+02 -1.525675289186470422e+02 -1.192968466086961428e+02 -9.401733388592058205e+00 -1.491172637437343553e+02 1.150333627952073954e+02 1.098508869513280501e+02 5.871980816842943796e+01 1.111210259379615017e+01 1.569675544435181109e+02 8.357859905289500091e+01 6.719246365250809561e+01 -1.011555911066523095e+02 1.516703021103593585e+02 -3.570468312645857623e+00 1.088281355095185461e+02 8.776713992989398250e+00 3.657023050080812965e+01 -7.533567698777100929e+01 -9.030779838455343622e+01 7.123384156876028328e+01 -3.826635667814552111e+00 1.454976929177248053e+02 -1.250409477933670388e+01 -2.837361017568004407e+00 4.561622898768948886e+01 2.251678872674268206e+01 1.406581593209881476e+02 1.457673451677971954e+01 3.564832412448471644e+01 -1.538292613672471134e+02 6.546083932318963150e+01 1.328738615041670812e+02 -1.753596989288459440e+01 -2.266018741723209189e+02 8.386545695622737639e+01 1.351797025296016272e+02 2.018319165951051275e+01 1.874678765048453499e+02 -4.162704499819088966e+00 4.250898300840751176e+01 -4.319870606724896334e+01 -1.373072659372559201e+02 5.544619540939246605e+01 -4.698698192188740563e+01 -8.018176548585918795e+01 4.077507159152192173e+01 -1.827552961731221046e+02 7.089276775420145782e+01 1.625326880082943717e+02 -1.000524649024826402e+02 1.709449168638993513e+02 -9.647289219070540867e+01 -5.904184631868597322e+00 -1.040003818066571206e+01 7.566937508051312022e+01 -4.600675497135781455e+01 -1.064168952305659843e+02 -8.740881916939446228e+01 1.438531005140435468e+02 5.831418937981478479e+01 -1.299784097837172965e+02 4.371330785999620439e+00 4.282242655617104532e+01 8.139943762044860875e+01 -3.975838368545469592e+01 5.911273582741499411e+01 -6.797469645236581925e+01 -1.599821564343008617e+02 -3.412382475748628963e+01 1.388915412632612743e+02 -1.116994351769980938e+02 -6.311126860608143652e+00 -1.604472543310724006e+02 -4.730867351785057906e+00 -1.436619884994240977e+02 3.241203639484341892e+01 5.925341322307783543e+01 -4.954899829821613366e+01 -8.109952771114254233e+01 5.546862224680403131e+00 7.322089796719700416e+01 -6.669211364275034271e+01 1.325342559726359752e+02 1.038257656856006719e+02 -1.255648152283224448e+02 -1.037261144624501696e+02 1.328453346630217311e+02 7.013757295514322720e+01 1.476712687630833898e+02 9.843088973849310719e+01 7.976712743862098876e+01 -5.922701649293097148e+01 -8.033641679884043185e+01 -7.570631979102491016e+01 2.008615045524523168e+02 3.001331950418972028e+01 -2.445559290911448969e+01 -6.726583699689369666e+01 -4.905896277824059126e+01 -1.287730584835665866e+02 -1.617573028598156171e+01 -1.715664243425062523e+02 1.222598779045082438e+02 4.498057229258140666e+01 -1.126687380383133359e+02 -4.731667574308669089e+01 1.170760988293170328e+02 -9.479103657483881307e+01 1.005343186408357496e+02 -1.158159810501593796e+02 -1.150771953756794375e+01 -9.336424531526310489e+01 8.771202357185039489e+01 -4.152357153762405773e+01 1.006995450783367652e+01 2.867701892970840660e+01 -1.237884520482020747e+02 1.221766156831817263e+01 4.725380922587621058e+01 -2.187343354923548588e+01 -6.718109371270531938e+01 1.979286244828749943e+02 8.447933695106894447e+01 4.604228028902219449e+01 -3.069629452108219425e+01 7.838493458346171394e+01 1.637556942137759677e+02 -9.014214715946955891e+01 2.046473543217431086e+02 -1.300392787801379484e+02 -1.796827450289329420e+02 1.483229274341360338e+02 -2.285635302778434550e+02 -9.512948246525166907e-01 -2.392705890139017697e+02 -1.493726341368803787e+02 7.010523026109109423e+01 -1.422552646996666965e+02 5.702673085620111948e+01 1.073790627367672528e+02 -1.566473253924693552e+02 -2.942071075462736474e+01 7.366430383516996017e+01 1.308218653775747953e+02 -1.817955349780726237e+02 8.545256815913619164e+01 -9.569257616417314694e+01 -9.635597663120419654e+00 -1.355089112446158772e+01 -7.773153391757294628e+01 -8.821087292383582223e+01 1.771687202100234231e+02 -2.118988084006767281e+01 1.309639243721272495e+00 1.272338143524849698e+02 -8.471847399265769241e+01 -3.364138421696247860e+01 -1.052291676809848013e+02 -4.773317147217174750e+01 5.050695156946135356e+00 5.805406832307996012e+01 -1.321544743223819296e+02 2.321611918824765723e+02 -5.277768306844836133e+01 1.201495050553437096e+02 -4.784347458277820664e+01 1.174023342553526135e+02 1.363838447723482261e+02 4.704130011029963754e+01 1.197263632024532285e+02 -4.239478491571642138e+01 1.372927361094195930e+02 -1.534957766637976135e+02 -6.415985171989625258e+01 -6.178782725138903231e+01 2.507269589422561396e+01 -1.592685878353178452e+02 7.119576886087567402e+01 -3.026648802591220289e+01 -8.110848329502839249e+01 8.793648648671522494e+01 -1.483093086300319499e+02 -8.953577362709903298e+01 -5.165410908406699519e+01 3.246803811412180352e+01 1.274216871329464880e+02 1.146989580184773700e+02 6.783968796294695380e+01 -1.557105007267064911e+00 1.716584387588735012e+02 1.202670663474653736e+02 -9.271530345684629992e+01 -7.669448122384368105e+01 5.427240802161914957e+01 9.783502840210829277e+00 9.616687578969468575e+01 1.636192637287670379e+02 6.928268403409126108e+01 2.396175765110431755e+01 -1.003070980314383860e+02 1.685942908877194668e+02 -1.115518131967111088e+02 -1.621794132728568627e+02 6.448795082596569728e+01 1.093878320961770356e+02 1.926779279114456855e+01 -1.362071396653269346e+02 2.915708296866970528e+01 4.160583425554089843e+01 -3.313026453505948377e-01 1.283990832160572495e+02 9.577888078392722093e+01 1.677610791627396480e+01 7.681332662405097267e+01 -1.048888128743991928e+02 -6.210688215361679809e+00 9.639620536996947919e+01 2.910095593319402596e+01 -6.374054279519975097e+01 1.940979750786053444e+02 2.264865047394011697e+02 -1.229782382690595313e+02 -2.706150154751695780e+01 -2.059385858320082718e+02 -7.071596170113549817e+01 1.534016449781206290e+02 3.318694767065311080e+00 -6.953325846761666185e+01 1.604177085877621209e+02 -6.121376389281036978e+01 -1.572871523689062769e+02 1.337256216511092362e+02 -6.580716892153473907e+01 3.376612678544177726e+01 8.454050803221289812e+01 1.349640427654429153e+01 -2.332296835983150061e+02 4.141387752427294799e+01 -6.021489028162261725e+00 8.819487753227460303e+01 -2.306547252191992925e+01 9.899099016385657990e+01 1.662122231543138895e+01 -8.292739675621093909e+01 -2.004547875697938153e+01 -1.715058211751364752e+02 1.125389749177142278e+02 2.473806837717529916e+01 -4.073580288208459166e+01 -5.070206524751744581e+01 -6.155284944097381583e+01 4.023724166704425187e+01 1.572634862882948141e+02 1.298655846854396430e+02 4.213798856488258338e+01 -1.936368367335970788e+02 -3.796528217939755478e+01 4.288084827359801210e+01 1.148256245387359087e+02 8.534532527685395564e+01 1.511621064572023521e+01 -1.820524622379450648e+02 1.288796656084370511e+02 -2.189678735302386769e+02 -2.014102174472423030e+02 -1.799204910312318217e+00 -7.219505824451779574e+01 -2.358551972966976962e+01 8.526196531743779872e+01 5.472473311284609565e+01 -1.088221056722969422e+02 -1.482192901460885821e+02 1.427638081875423204e+01 1.210452959200520411e+02 2.024607360867044648e+01 -5.549704728595034453e+01 -5.052984561118786644e+01 -1.149359422914603357e+01 1.579245120344439499e+02 2.189199628598709069e+01 -1.730342887546452175e+02 1.278306937233510894e+02 -6.656489502342689946e+01 -4.159395305519958619e+00 1.534204866870372257e+02 -5.210029930724571301e+01 -1.951448823916881281e+01 -1.094427275556669485e+02 -5.982825130820675241e+00 -2.376480427742380641e+01 1.312072412203252156e+02 1.196357337607949773e+02 6.733073564735404659e+01 6.518747900908324766e+01 -1.864081738414862599e+01 1.346954542534043355e+02 -1.123401196057366604e+02 -4.243485781925477873e+00 -9.071457325874551714e+01 1.565337592931406618e+02 7.266773997236006721e+01 5.149134241146057178e+01 8.235938673936447074e+00 -5.309116762545468760e+01 3.425366673850404453e+01 6.714698636044570179e+00 3.610873313896830528e+00 2.401881492143383667e+01 5.954896728065884304e+01 1.696077324957237522e+02 -3.869408896299100320e+01 -5.178349096771009386e+01 6.653154893534512837e+01 1.152239620309611468e+02 -1.276230052807979654e+01 9.158098078242016982e+01 1.036546674842389848e+02 2.099468384804287950e+02 -8.620461716891011861e+01 -1.222001601196894853e+02 -2.852721131303228219e+01 6.190342658868355841e+01 -1.010678571777189028e+01 1.069796291008686637e+02 3.708821192149780188e+01 -1.619546990137444311e+02 4.486976322325388367e+01 -8.908109476585403286e+01 -1.347171128427580697e+02 1.339179317911901705e+02 -7.569888141678686111e+01 5.889423745324333481e+01 1.106811640393245142e+02 -9.855700578893390684e+01 2.337529573893638357e+01 -7.179916468161796672e+01 4.007548567246528393e+01 -1.140420433281005614e+02 6.127215369713341886e+01 5.439380874192544013e+01 3.881396692374757151e+00 8.360930783914045605e+01 -1.520931381169345400e+02 7.595963579449627900e+01 -2.911573353406594933e+01 -1.668150129735069811e+02 9.330076675426342092e+01 2.422380329288791145e+01 -1.936744950391380655e+02 2.322983502979815000e+02 -5.273128021176447522e-01 1.038425017917001156e+02 -1.190781864331844275e+02 -1.917520773660181135e+02 -9.214090078751713975e+01 2.454506243289040768e+00 1.410889222423450349e+02 3.941175083469847351e+00 -9.436690709953961687e+01 4.975143433912855784e+01 1.353165858432761866e+02 6.415899927838417227e+01 -5.108441231184978903e+01 -5.839706205621001800e+01 8.344077782171652302e+01 3.035158483934980822e+01 -1.930964151338262127e+02 -2.047097831393959311e+01 1.669005955091754743e+02 9.757256490874742383e+01 -5.660509749551069092e+01 -1.103941829051616850e+02 -4.213906812173598837e+01 -4.747466119871925372e+01 -1.130071285520658932e+02 -1.823405712170588444e+01 -4.508559493614085767e+01 -1.121841295454488261e+02 -1.302352515866487295e+02 -2.659925723093043004e+01 -1.240831917103660089e+02 -1.321159680384534170e+02 -3.784823709101391387e+01 -5.464535467690998161e+01 -1.096106299479941981e+02 1.904361999486995956e+02 1.076976748844529830e+01 -2.877972635087801123e+01 -1.739701985293719844e+01 8.047887317486222969e+01 1.600154927171766417e+01 2.562428725701236942e+01 -2.176179011079024406e+01 -4.731542354399086747e+01 2.139810862827902938e+01 -1.487164813411088744e+02 -1.628576661599667830e+02 -9.249673856190200638e+01 -1.952381151068681788e+02 -9.168170965584711496e+01 8.776661022530362288e+01 6.279774739964238250e+01 -2.665810856922688643e+01 6.216755526638446838e+01 -1.601680546002519634e+02 -4.178075190714955056e+01 -1.188068209946247009e+02 -6.828769629673506358e+01 2.158123013512376929e+02 -2.100121549087677124e+02 2.099910036476110804e+02 2.556141010027838689e+01 -5.776589506423911757e+01 9.435903776214532002e+01 1.269393374634724410e+02 -5.308400425079086205e+01 -2.084312847711339884e+02 -1.525307655093870096e+02 1.046275493001178774e+02 8.568940502346893595e+01 -1.387016356876219731e+02 3.268689154514586903e+01 -4.058560982574019249e+01 -7.918337555618725787e+01 -2.907985514333364208e+01 -5.608721066940798750e+01 -8.842608520256952431e+01 -3.482832095394642380e+01 4.594646259801837829e+00 -3.344719660433329267e+01 -3.971995917142494559e-01 -1.467785529062112815e+01 9.408636028552317043e+01 1.300204095021973103e+02 1.346943202016650964e+01 1.718005637599005908e+01 -6.457283521562217743e+01 -2.005525207873847364e+02 3.463220562227065358e+01 -9.384350359140597675e+01 2.642777411711580982e+01 -8.353534997955723185e+00 1.053458450296046456e+00 7.396655272992107655e+01 1.246920553867833661e+02 -7.209342425135318422e+01 3.887466338713714009e+01 -1.973035434861869533e+02 9.897114582821332718e+00 7.142189145772437797e+00 -1.253773677153552200e+02 -3.449977316159458951e+01 -4.534924773055142566e+01 4.879695621770941294e+00 -1.046063925551640494e+02 2.767807532650661173e+01 -9.989929353918057586e+01 5.739306219463737335e+01 6.941721145139010218e+01 3.773492013260309363e+01 -2.968564768921965680e+01 1.099292504717610939e+02 6.247968389498510078e+01 8.183188833038177279e+01 -6.852953997246427775e+01 2.074934118268900107e+01 1.308021894260110969e+02 -5.980729711435915164e+01 -7.071366308638057596e+00 3.271459306354494601e+01 -1.313093165136145899e+02 1.000212816108711991e+02 9.158697681257743284e+01 -1.034116687866936672e+02 -8.419177543346354753e+01 -5.676211903153245686e+01 -4.659107464619992101e+01 -1.638089833258914609e+02 -1.389200791906892505e+02 -1.353921000417089715e+02 1.079791779917493812e+02 6.108710912180880825e+01 1.629932468264024124e+02 7.355013110746467575e+00 -8.758142635767889317e+01 1.914103595617165965e+01 1.412779700444331965e+01 -6.487998400702815616e+01 7.562388742003970776e+01 1.205596872294367046e+02 1.019488468255109126e+01 1.464099818905853283e+02 2.297734524496956254e+01 1.132714477230846057e+02 1.540371842730018059e+01 -2.120849031687541526e+02 2.228834599015152094e+02 -4.994324969165183603e+01 -1.521643991347161204e+02 -6.856132246763365856e+01 -4.377833866269772756e+01 4.201809931510974394e+01 2.598577933921333383e+01 4.643737958531762189e+01 -7.520625406724187201e+01 1.241604143630670620e+02 -8.749738236699583638e+01 -7.110081079154732642e+00 1.444206472324737831e+02 1.111026727265117557e+02 5.877613685188258330e+01 -1.793182106297822145e+02 2.575499344598353701e+01 1.421456249879287554e+02 2.371663619815605273e+01 9.872513172425649941e+01 1.076274813158297832e+02 -2.137209310784557204e+02 7.773390773998887937e+01 -5.834558681421184190e+01 -2.271394509604454015e+02 8.932164317453417368e+01 2.478391734820624848e+01 -1.225293965245769101e+02 -5.872194277199839263e+01 1.389954030790565866e+02 1.475413781802219262e+02 -7.573607438937553127e+01 -1.274994210090388123e+02 -8.315318363070892360e+01 -1.651277953191625159e+02 1.946063979956464962e+01 3.769496365402682159e+01 -1.683900314882790283e+01 -1.227918199209654837e+01 -8.870490539987235934e+01 -8.748485855256706145e+01 -2.438661783853622111e+01 1.320914713305605801e+02 1.342414883473282998e+02 7.987315639109833398e+01 9.551360450600688523e+01 -7.722712209865041189e+01 -1.773060932210742351e+02 -1.297424751287288025e+01 -2.270166306953092672e+01 -6.958976797233627565e+01 1.464595674666899772e+00 7.158701819915035003e+01 -5.184944232400165731e+01 2.415804405779365638e+01 7.757538290438755268e+01 6.867642199839301043e+01 1.082862101121398410e+02 -1.461467806174609052e+02 3.883438768455990697e+01 8.161909998582733294e+01 9.283250642347319115e+01 5.786440563068401133e+01 -1.011392372124357024e+02 1.341493101397710461e+02 1.248745583024001320e+02 9.389130526300219515e+01 9.946800676317830892e+01 -8.250905863984714017e+01 -1.456694798045199413e+01 -1.266972064921197472e+01 7.548795977347944586e+01 6.364844770574335797e+01 5.484259420276909225e+01 9.559486127888105500e+01 1.141161478500699360e+02 1.213788195832951118e+02 -6.356898649725275163e+01 7.896134700732801548e+01 6.391658312912952766e+01 -1.152684504874767271e+02 1.289316751563129912e+02 -9.831797121540539308e+00 -2.735805266721024864e+01 1.952925559633494572e+02 8.671925382876838739e+01 1.216534371882628278e+02 -1.415102142478214660e+02 -1.547200497840458411e+02 -1.507649343192314575e+02 -1.198302691146051018e+02 -4.344460238701019961e+01 1.077409913572450080e+02 -1.655296566605059638e+02 3.192597484996590396e+01 1.417281957654248004e+02 -5.827958954734350527e+01 -8.972415687076272661e+01 -3.450121521930960711e+01 1.335102900743940495e+02 2.233844194831426364e+02 -6.552372487982250959e+01 1.948243392508861049e+01 -2.722891776642182649e+01 6.735484420431178876e+01 5.926260066077522737e+01 -2.097542119687713011e+02 -8.723175614621918328e+01 1.353750542692718852e+02 1.375748042179851893e+02 9.304349052121656882e+01 -4.903515707646696598e+01 -7.462359785445934790e+01 -4.469966534607318920e+01 -1.738333185867810471e+02 7.006734556708425998e+01 -2.527568050403484179e+01 1.638747001092255573e+02 -2.751292699613448178e+01 -3.098968349138437475e+02 1.427338347085310204e+02 4.953868638409992542e+01 -1.162360543894871228e+02 -2.183178961126740347e+01 3.479736907955798841e+01 -2.046803061493978930e+02 -1.126370229112803543e+02 -1.080432973009221058e+02 -5.562075360621501829e+01 6.191046113583259114e+01 -1.625025227617709618e+02 1.064033289123426584e+02 -5.355651686096349806e+01 2.874091841943295922e+00 -1.315615783471988607e+02 -1.021830580118137419e+02 1.734288599913821542e+02 8.547356542500368448e+01 -4.165762969044137520e+01 3.666201947196400113e+01 -2.767553980070461250e+01 4.267061991309155644e+01 -1.032172322142369865e+02 9.754782552101342219e+01 4.983490303872308402e+01 -1.173325524717247959e+02 1.152185080076370411e+02 -4.848721941217806375e+01 9.860549771280597042e+01 -4.876338688326535475e+01 8.723819031296562798e+01 -1.514296955971701379e+02 1.408783927872630102e+02 2.445257182382633587e+01 9.937206586756755655e+01 1.287710190165500705e+02 -1.448100747917804938e+02 -8.482648770181116049e+01 -1.043189093256968221e+02 6.604780550426409036e+01 -1.692393991304961105e+02 1.496476948202034407e+02 1.406474504356908426e+02 5.233805598347264265e+01 -8.387093290088051845e+01 5.637176981382966545e+01 -1.060251481130492692e+02 -1.081493359529674336e+01 3.456510356974969511e+01 -1.815653649777623855e+02 -8.062252071002292553e+01 -1.337596941232972192e+01 1.010106652192498728e+02 -4.962816602031777080e+01 1.074646200282013666e+02 -6.359689626859659484e+01 -2.084083029783525660e+02 -1.058855030555149881e+02 -3.367960524175212811e+01 -5.951512532125698840e+01 2.976114542272355834e+01 5.082709116429267482e+01 6.276056140303787778e+00 2.505861050323860795e+01 -1.160581293036300536e+02 5.327580585483339348e+01 3.228624578841871795e+01 -7.141847495261384893e+01 9.171020784016311822e+00 5.575782986241901540e+01 -9.443270137101222872e+01 -5.452298064736618244e+01 -2.390835973833870298e+01 9.661369218127360625e+01 -1.695972205113087838e+01 4.152694300459959464e+00 -2.258463625980871541e+02 -9.411026381841612931e+01 9.797776730459187888e+01 -8.835509387823540806e+01 3.103921612547866005e+01 3.076733711109209324e+01 3.756819981544959575e+01 6.545962136240142115e+01 -1.757901222361726923e+02 1.426277970682542389e+02 8.073997454009017360e+01 -7.453019194998857344e+00 -8.005902182119913846e+01 1.108723080577980369e+02 6.152629160860907831e+01 -1.992622621248334838e+02 -4.992294055007796061e+01 -8.095284019146778576e+01 -5.136079229804618507e+01 -6.136976896837503404e+01 -9.814746371543868975e+01 -5.982391736148537120e+01 1.897826750812952241e+02 -1.692432472292188663e+02 6.489355141246731762e+01 2.749590386679425436e+01 -7.451229674345539422e+01 1.029490839129132240e+01 -3.907306608464551090e+01 3.400586077049407407e+00 -9.528837221177190031e+01 -1.958208353696287531e+02 1.823247483959251269e+01 4.154046607409082270e+01 -1.268593841187945692e+01 -8.925048144580356890e+00 -3.943358258037540054e+01 -1.882721360591604309e+02 -3.037934480591358977e+01 -6.479830545535220665e+01 1.383842535277088004e+01 -1.547779794771093798e+01 8.978525371340813876e+01 -6.249552114076414711e+01 -1.028099091433773395e+02 -3.542529573819408029e+01 -8.926848747147960950e+00 4.510042038610900050e+01 -2.194748972602590342e+01 -7.314020530168215828e+01 -1.574228745363154580e+01 1.989091743975158622e+01 4.710475086918182797e+01 -1.130540995119529981e+02 -1.378750075635631163e+02 2.284405241720174331e+02 -2.164829910665659725e+02 -7.532171206033848421e+01 -4.595770411689128565e+01 1.387172415009829649e+02 6.276548865152841472e+01 2.270312766661927810e+02 2.427749547993677481e+02 -6.184053243822948076e+01 1.284218091705771485e+02 -5.552876109780554259e+01 -4.048664643046875966e+01 -9.983277397620595650e+01 -7.920301562393611050e+01 -6.900677009116347449e+01 -8.829333681686308921e+01 -2.418338012810561679e+02 -2.687058752346169399e+02 1.336199894697084289e+02 -2.632210987516210920e+01 5.284379454072337978e+01 1.298436059334526362e+02
