# 
#                 ----------------------------------------------------
#                 Data from a 3D direct N-body simulation. 
# 
#                 rows are i-particle; 
#                 coumns are :mass, tag, x ,y, z, vx, vy, vz, ax, ay, az
# 
#                 NTHU, Computational Physics Lab
# 
#                 ----------------------------------------------------
#                 Time = 6.599999999999904
1.000000000000000000e+00 2.000000000000000000e+00 3.000000000000000000e+00 4.000000000000000000e+00 5.000000000000000000e+00 6.000000000000000000e+00 7.000000000000000000e+00 8.000000000000000000e+00 9.000000000000000000e+00 1.000000000000000000e+01 1.100000000000000000e+01 1.200000000000000000e+01 1.300000000000000000e+01 1.400000000000000000e+01 1.500000000000000000e+01 1.600000000000000000e+01 1.700000000000000000e+01 1.800000000000000000e+01 1.900000000000000000e+01 2.000000000000000000e+01 2.100000000000000000e+01 2.200000000000000000e+01 2.300000000000000000e+01 2.400000000000000000e+01 2.500000000000000000e+01 2.600000000000000000e+01 2.700000000000000000e+01 2.800000000000000000e+01 2.900000000000000000e+01 3.000000000000000000e+01 3.100000000000000000e+01 3.200000000000000000e+01 3.300000000000000000e+01 3.400000000000000000e+01 3.500000000000000000e+01 3.600000000000000000e+01 3.700000000000000000e+01 3.800000000000000000e+01 3.900000000000000000e+01 4.000000000000000000e+01 4.100000000000000000e+01 4.200000000000000000e+01 4.300000000000000000e+01 4.400000000000000000e+01 4.500000000000000000e+01 4.600000000000000000e+01 4.700000000000000000e+01 4.800000000000000000e+01 4.900000000000000000e+01 5.000000000000000000e+01 5.100000000000000000e+01 5.200000000000000000e+01 5.300000000000000000e+01 5.400000000000000000e+01 5.500000000000000000e+01 5.600000000000000000e+01 5.700000000000000000e+01 5.800000000000000000e+01 5.900000000000000000e+01 6.000000000000000000e+01 6.100000000000000000e+01 6.200000000000000000e+01 6.300000000000000000e+01 6.400000000000000000e+01 6.500000000000000000e+01 6.600000000000000000e+01 6.700000000000000000e+01 6.800000000000000000e+01 6.900000000000000000e+01 7.000000000000000000e+01 7.100000000000000000e+01 7.200000000000000000e+01 7.300000000000000000e+01 7.400000000000000000e+01 7.500000000000000000e+01 7.600000000000000000e+01 7.700000000000000000e+01 7.800000000000000000e+01 7.900000000000000000e+01 8.000000000000000000e+01 8.100000000000000000e+01 8.200000000000000000e+01 8.300000000000000000e+01 8.400000000000000000e+01 8.500000000000000000e+01 8.600000000000000000e+01 8.700000000000000000e+01 8.800000000000000000e+01 8.900000000000000000e+01 9.000000000000000000e+01 9.100000000000000000e+01 9.200000000000000000e+01 9.300000000000000000e+01 9.400000000000000000e+01 9.500000000000000000e+01 9.600000000000000000e+01 9.700000000000000000e+01 9.800000000000000000e+01 9.900000000000000000e+01 1.000000000000000000e+02 1.010000000000000000e+02 1.020000000000000000e+02 1.030000000000000000e+02 1.040000000000000000e+02 1.050000000000000000e+02 1.060000000000000000e+02 1.070000000000000000e+02 1.080000000000000000e+02 1.090000000000000000e+02 1.100000000000000000e+02 1.110000000000000000e+02 1.120000000000000000e+02 1.130000000000000000e+02 1.140000000000000000e+02 1.150000000000000000e+02 1.160000000000000000e+02 1.170000000000000000e+02 1.180000000000000000e+02 1.190000000000000000e+02 1.200000000000000000e+02 1.210000000000000000e+02 1.220000000000000000e+02 1.230000000000000000e+02 1.240000000000000000e+02 1.250000000000000000e+02 1.260000000000000000e+02 1.270000000000000000e+02 1.280000000000000000e+02 1.290000000000000000e+02 1.300000000000000000e+02 1.310000000000000000e+02 1.320000000000000000e+02 1.330000000000000000e+02 1.340000000000000000e+02 1.350000000000000000e+02 1.360000000000000000e+02 1.370000000000000000e+02 1.380000000000000000e+02 1.390000000000000000e+02 1.400000000000000000e+02 1.410000000000000000e+02 1.420000000000000000e+02 1.430000000000000000e+02 1.440000000000000000e+02 1.450000000000000000e+02 1.460000000000000000e+02 1.470000000000000000e+02 1.480000000000000000e+02 1.490000000000000000e+02 1.500000000000000000e+02 1.510000000000000000e+02 1.520000000000000000e+02 1.530000000000000000e+02 1.540000000000000000e+02 1.550000000000000000e+02 1.560000000000000000e+02 1.570000000000000000e+02 1.580000000000000000e+02 1.590000000000000000e+02 1.600000000000000000e+02 1.610000000000000000e+02 1.620000000000000000e+02 1.630000000000000000e+02 1.640000000000000000e+02 1.650000000000000000e+02 1.660000000000000000e+02 1.670000000000000000e+02 1.680000000000000000e+02 1.690000000000000000e+02 1.700000000000000000e+02 1.710000000000000000e+02 1.720000000000000000e+02 1.730000000000000000e+02 1.740000000000000000e+02 1.750000000000000000e+02 1.760000000000000000e+02 1.770000000000000000e+02 1.780000000000000000e+02 1.790000000000000000e+02 1.800000000000000000e+02 1.810000000000000000e+02 1.820000000000000000e+02 1.830000000000000000e+02 1.840000000000000000e+02 1.850000000000000000e+02 1.860000000000000000e+02 1.870000000000000000e+02 1.880000000000000000e+02 1.890000000000000000e+02 1.900000000000000000e+02 1.910000000000000000e+02 1.920000000000000000e+02 1.930000000000000000e+02 1.940000000000000000e+02 1.950000000000000000e+02 1.960000000000000000e+02 1.970000000000000000e+02 1.980000000000000000e+02 1.990000000000000000e+02 2.000000000000000000e+02 2.010000000000000000e+02 2.020000000000000000e+02 2.030000000000000000e+02 2.040000000000000000e+02 2.050000000000000000e+02 2.060000000000000000e+02 2.070000000000000000e+02 2.080000000000000000e+02 2.090000000000000000e+02 2.100000000000000000e+02 2.110000000000000000e+02 2.120000000000000000e+02 2.130000000000000000e+02 2.140000000000000000e+02 2.150000000000000000e+02 2.160000000000000000e+02 2.170000000000000000e+02 2.180000000000000000e+02 2.190000000000000000e+02 2.200000000000000000e+02 2.210000000000000000e+02 2.220000000000000000e+02 2.230000000000000000e+02 2.240000000000000000e+02 2.250000000000000000e+02 2.260000000000000000e+02 2.270000000000000000e+02 2.280000000000000000e+02 2.290000000000000000e+02 2.300000000000000000e+02 2.310000000000000000e+02 2.320000000000000000e+02 2.330000000000000000e+02 2.340000000000000000e+02 2.350000000000000000e+02 2.360000000000000000e+02 2.370000000000000000e+02 2.380000000000000000e+02 2.390000000000000000e+02 2.400000000000000000e+02 2.410000000000000000e+02 2.420000000000000000e+02 2.430000000000000000e+02 2.440000000000000000e+02 2.450000000000000000e+02 2.460000000000000000e+02 2.470000000000000000e+02 2.480000000000000000e+02 2.490000000000000000e+02 2.500000000000000000e+02 2.510000000000000000e+02 2.520000000000000000e+02 2.530000000000000000e+02 2.540000000000000000e+02 2.550000000000000000e+02 2.560000000000000000e+02 2.570000000000000000e+02 2.580000000000000000e+02 2.590000000000000000e+02 2.600000000000000000e+02 2.610000000000000000e+02 2.620000000000000000e+02 2.630000000000000000e+02 2.640000000000000000e+02 2.650000000000000000e+02 2.660000000000000000e+02 2.670000000000000000e+02 2.680000000000000000e+02 2.690000000000000000e+02 2.700000000000000000e+02 2.710000000000000000e+02 2.720000000000000000e+02 2.730000000000000000e+02 2.740000000000000000e+02 2.750000000000000000e+02 2.760000000000000000e+02 2.770000000000000000e+02 2.780000000000000000e+02 2.790000000000000000e+02 2.800000000000000000e+02 2.810000000000000000e+02 2.820000000000000000e+02 2.830000000000000000e+02 2.840000000000000000e+02 2.850000000000000000e+02 2.860000000000000000e+02 2.870000000000000000e+02 2.880000000000000000e+02 2.890000000000000000e+02 2.900000000000000000e+02 2.910000000000000000e+02 2.920000000000000000e+02 2.930000000000000000e+02 2.940000000000000000e+02 2.950000000000000000e+02 2.960000000000000000e+02 2.970000000000000000e+02 2.980000000000000000e+02 2.990000000000000000e+02 3.000000000000000000e+02 3.010000000000000000e+02 3.020000000000000000e+02 3.030000000000000000e+02 3.040000000000000000e+02 3.050000000000000000e+02 3.060000000000000000e+02 3.070000000000000000e+02 3.080000000000000000e+02 3.090000000000000000e+02 3.100000000000000000e+02 3.110000000000000000e+02 3.120000000000000000e+02 3.130000000000000000e+02 3.140000000000000000e+02 3.150000000000000000e+02 3.160000000000000000e+02 3.170000000000000000e+02 3.180000000000000000e+02 3.190000000000000000e+02 3.200000000000000000e+02 3.210000000000000000e+02 3.220000000000000000e+02 3.230000000000000000e+02 3.240000000000000000e+02 3.250000000000000000e+02 3.260000000000000000e+02 3.270000000000000000e+02 3.280000000000000000e+02 3.290000000000000000e+02 3.300000000000000000e+02 3.310000000000000000e+02 3.320000000000000000e+02 3.330000000000000000e+02 3.340000000000000000e+02 3.350000000000000000e+02 3.360000000000000000e+02 3.370000000000000000e+02 3.380000000000000000e+02 3.390000000000000000e+02 3.400000000000000000e+02 3.410000000000000000e+02 3.420000000000000000e+02 3.430000000000000000e+02 3.440000000000000000e+02 3.450000000000000000e+02 3.460000000000000000e+02 3.470000000000000000e+02 3.480000000000000000e+02 3.490000000000000000e+02 3.500000000000000000e+02 3.510000000000000000e+02 3.520000000000000000e+02 3.530000000000000000e+02 3.540000000000000000e+02 3.550000000000000000e+02 3.560000000000000000e+02 3.570000000000000000e+02 3.580000000000000000e+02 3.590000000000000000e+02 3.600000000000000000e+02 3.610000000000000000e+02 3.620000000000000000e+02 3.630000000000000000e+02 3.640000000000000000e+02 3.650000000000000000e+02 3.660000000000000000e+02 3.670000000000000000e+02 3.680000000000000000e+02 3.690000000000000000e+02 3.700000000000000000e+02 3.710000000000000000e+02 3.720000000000000000e+02 3.730000000000000000e+02 3.740000000000000000e+02 3.750000000000000000e+02 3.760000000000000000e+02 3.770000000000000000e+02 3.780000000000000000e+02 3.790000000000000000e+02 3.800000000000000000e+02 3.810000000000000000e+02 3.820000000000000000e+02 3.830000000000000000e+02 3.840000000000000000e+02 3.850000000000000000e+02 3.860000000000000000e+02 3.870000000000000000e+02 3.880000000000000000e+02 3.890000000000000000e+02 3.900000000000000000e+02 3.910000000000000000e+02 3.920000000000000000e+02 3.930000000000000000e+02 3.940000000000000000e+02 3.950000000000000000e+02 3.960000000000000000e+02 3.970000000000000000e+02 3.980000000000000000e+02 3.990000000000000000e+02 4.000000000000000000e+02 4.010000000000000000e+02 4.020000000000000000e+02 4.030000000000000000e+02 4.040000000000000000e+02 4.050000000000000000e+02 4.060000000000000000e+02 4.070000000000000000e+02 4.080000000000000000e+02 4.090000000000000000e+02 4.100000000000000000e+02 4.110000000000000000e+02 4.120000000000000000e+02 4.130000000000000000e+02 4.140000000000000000e+02 4.150000000000000000e+02 4.160000000000000000e+02 4.170000000000000000e+02 4.180000000000000000e+02 4.190000000000000000e+02 4.200000000000000000e+02 4.210000000000000000e+02 4.220000000000000000e+02 4.230000000000000000e+02 4.240000000000000000e+02 4.250000000000000000e+02 4.260000000000000000e+02 4.270000000000000000e+02 4.280000000000000000e+02 4.290000000000000000e+02 4.300000000000000000e+02 4.310000000000000000e+02 4.320000000000000000e+02 4.330000000000000000e+02 4.340000000000000000e+02 4.350000000000000000e+02 4.360000000000000000e+02 4.370000000000000000e+02 4.380000000000000000e+02 4.390000000000000000e+02 4.400000000000000000e+02 4.410000000000000000e+02 4.420000000000000000e+02 4.430000000000000000e+02 4.440000000000000000e+02 4.450000000000000000e+02 4.460000000000000000e+02 4.470000000000000000e+02 4.480000000000000000e+02 4.490000000000000000e+02 4.500000000000000000e+02 4.510000000000000000e+02 4.520000000000000000e+02 4.530000000000000000e+02 4.540000000000000000e+02 4.550000000000000000e+02 4.560000000000000000e+02 4.570000000000000000e+02 4.580000000000000000e+02 4.590000000000000000e+02 4.600000000000000000e+02 4.610000000000000000e+02 4.620000000000000000e+02 4.630000000000000000e+02 4.640000000000000000e+02 4.650000000000000000e+02 4.660000000000000000e+02 4.670000000000000000e+02 4.680000000000000000e+02 4.690000000000000000e+02 4.700000000000000000e+02 4.710000000000000000e+02 4.720000000000000000e+02 4.730000000000000000e+02 4.740000000000000000e+02 4.750000000000000000e+02 4.760000000000000000e+02 4.770000000000000000e+02 4.780000000000000000e+02 4.790000000000000000e+02 4.800000000000000000e+02 4.810000000000000000e+02 4.820000000000000000e+02 4.830000000000000000e+02 4.840000000000000000e+02 4.850000000000000000e+02 4.860000000000000000e+02 4.870000000000000000e+02 4.880000000000000000e+02 4.890000000000000000e+02 4.900000000000000000e+02 4.910000000000000000e+02 4.920000000000000000e+02 4.930000000000000000e+02 4.940000000000000000e+02 4.950000000000000000e+02 4.960000000000000000e+02 4.970000000000000000e+02 4.980000000000000000e+02 4.990000000000000000e+02 5.000000000000000000e+02 5.010000000000000000e+02 5.020000000000000000e+02 5.030000000000000000e+02 5.040000000000000000e+02 5.050000000000000000e+02 5.060000000000000000e+02 5.070000000000000000e+02 5.080000000000000000e+02 5.090000000000000000e+02 5.100000000000000000e+02 5.110000000000000000e+02 5.120000000000000000e+02 5.130000000000000000e+02 5.140000000000000000e+02 5.150000000000000000e+02 5.160000000000000000e+02 5.170000000000000000e+02 5.180000000000000000e+02 5.190000000000000000e+02 5.200000000000000000e+02 5.210000000000000000e+02 5.220000000000000000e+02 5.230000000000000000e+02 5.240000000000000000e+02 5.250000000000000000e+02 5.260000000000000000e+02 5.270000000000000000e+02 5.280000000000000000e+02 5.290000000000000000e+02 5.300000000000000000e+02 5.310000000000000000e+02 5.320000000000000000e+02 5.330000000000000000e+02 5.340000000000000000e+02 5.350000000000000000e+02 5.360000000000000000e+02 5.370000000000000000e+02 5.380000000000000000e+02 5.390000000000000000e+02 5.400000000000000000e+02 5.410000000000000000e+02 5.420000000000000000e+02 5.430000000000000000e+02 5.440000000000000000e+02 5.450000000000000000e+02 5.460000000000000000e+02 5.470000000000000000e+02 5.480000000000000000e+02 5.490000000000000000e+02 5.500000000000000000e+02 5.510000000000000000e+02 5.520000000000000000e+02 5.530000000000000000e+02 5.540000000000000000e+02 5.550000000000000000e+02 5.560000000000000000e+02 5.570000000000000000e+02 5.580000000000000000e+02 5.590000000000000000e+02 5.600000000000000000e+02 5.610000000000000000e+02 5.620000000000000000e+02 5.630000000000000000e+02 5.640000000000000000e+02 5.650000000000000000e+02 5.660000000000000000e+02 5.670000000000000000e+02 5.680000000000000000e+02 5.690000000000000000e+02 5.700000000000000000e+02 5.710000000000000000e+02 5.720000000000000000e+02 5.730000000000000000e+02 5.740000000000000000e+02 5.750000000000000000e+02 5.760000000000000000e+02 5.770000000000000000e+02 5.780000000000000000e+02 5.790000000000000000e+02 5.800000000000000000e+02 5.810000000000000000e+02 5.820000000000000000e+02 5.830000000000000000e+02 5.840000000000000000e+02 5.850000000000000000e+02 5.860000000000000000e+02 5.870000000000000000e+02 5.880000000000000000e+02 5.890000000000000000e+02 5.900000000000000000e+02 5.910000000000000000e+02 5.920000000000000000e+02 5.930000000000000000e+02 5.940000000000000000e+02 5.950000000000000000e+02 5.960000000000000000e+02 5.970000000000000000e+02 5.980000000000000000e+02 5.990000000000000000e+02 6.000000000000000000e+02 6.010000000000000000e+02 6.020000000000000000e+02 6.030000000000000000e+02 6.040000000000000000e+02 6.050000000000000000e+02 6.060000000000000000e+02 6.070000000000000000e+02 6.080000000000000000e+02 6.090000000000000000e+02 6.100000000000000000e+02 6.110000000000000000e+02 6.120000000000000000e+02 6.130000000000000000e+02 6.140000000000000000e+02 6.150000000000000000e+02 6.160000000000000000e+02 6.170000000000000000e+02 6.180000000000000000e+02 6.190000000000000000e+02 6.200000000000000000e+02 6.210000000000000000e+02 6.220000000000000000e+02 6.230000000000000000e+02 6.240000000000000000e+02 6.250000000000000000e+02 6.260000000000000000e+02 6.270000000000000000e+02 6.280000000000000000e+02 6.290000000000000000e+02 6.300000000000000000e+02 6.310000000000000000e+02 6.320000000000000000e+02 6.330000000000000000e+02 6.340000000000000000e+02 6.350000000000000000e+02 6.360000000000000000e+02 6.370000000000000000e+02 6.380000000000000000e+02 6.390000000000000000e+02 6.400000000000000000e+02 6.410000000000000000e+02 6.420000000000000000e+02 6.430000000000000000e+02 6.440000000000000000e+02 6.450000000000000000e+02 6.460000000000000000e+02 6.470000000000000000e+02 6.480000000000000000e+02 6.490000000000000000e+02 6.500000000000000000e+02 6.510000000000000000e+02 6.520000000000000000e+02 6.530000000000000000e+02 6.540000000000000000e+02 6.550000000000000000e+02 6.560000000000000000e+02 6.570000000000000000e+02 6.580000000000000000e+02 6.590000000000000000e+02 6.600000000000000000e+02 6.610000000000000000e+02 6.620000000000000000e+02 6.630000000000000000e+02 6.640000000000000000e+02 6.650000000000000000e+02 6.660000000000000000e+02 6.670000000000000000e+02 6.680000000000000000e+02 6.690000000000000000e+02 6.700000000000000000e+02 6.710000000000000000e+02 6.720000000000000000e+02 6.730000000000000000e+02 6.740000000000000000e+02 6.750000000000000000e+02 6.760000000000000000e+02 6.770000000000000000e+02 6.780000000000000000e+02 6.790000000000000000e+02 6.800000000000000000e+02 6.810000000000000000e+02 6.820000000000000000e+02 6.830000000000000000e+02 6.840000000000000000e+02 6.850000000000000000e+02 6.860000000000000000e+02 6.870000000000000000e+02 6.880000000000000000e+02 6.890000000000000000e+02 6.900000000000000000e+02 6.910000000000000000e+02 6.920000000000000000e+02 6.930000000000000000e+02 6.940000000000000000e+02 6.950000000000000000e+02 6.960000000000000000e+02 6.970000000000000000e+02 6.980000000000000000e+02 6.990000000000000000e+02 7.000000000000000000e+02 7.010000000000000000e+02 7.020000000000000000e+02 7.030000000000000000e+02 7.040000000000000000e+02 7.050000000000000000e+02 7.060000000000000000e+02 7.070000000000000000e+02 7.080000000000000000e+02 7.090000000000000000e+02 7.100000000000000000e+02 7.110000000000000000e+02 7.120000000000000000e+02 7.130000000000000000e+02 7.140000000000000000e+02 7.150000000000000000e+02 7.160000000000000000e+02 7.170000000000000000e+02 7.180000000000000000e+02 7.190000000000000000e+02 7.200000000000000000e+02 7.210000000000000000e+02 7.220000000000000000e+02 7.230000000000000000e+02 7.240000000000000000e+02 7.250000000000000000e+02 7.260000000000000000e+02 7.270000000000000000e+02 7.280000000000000000e+02 7.290000000000000000e+02 7.300000000000000000e+02 7.310000000000000000e+02 7.320000000000000000e+02 7.330000000000000000e+02 7.340000000000000000e+02 7.350000000000000000e+02 7.360000000000000000e+02 7.370000000000000000e+02 7.380000000000000000e+02 7.390000000000000000e+02 7.400000000000000000e+02 7.410000000000000000e+02 7.420000000000000000e+02 7.430000000000000000e+02 7.440000000000000000e+02 7.450000000000000000e+02 7.460000000000000000e+02 7.470000000000000000e+02 7.480000000000000000e+02 7.490000000000000000e+02 7.500000000000000000e+02 7.510000000000000000e+02 7.520000000000000000e+02 7.530000000000000000e+02 7.540000000000000000e+02 7.550000000000000000e+02 7.560000000000000000e+02 7.570000000000000000e+02 7.580000000000000000e+02 7.590000000000000000e+02 7.600000000000000000e+02 7.610000000000000000e+02 7.620000000000000000e+02 7.630000000000000000e+02 7.640000000000000000e+02 7.650000000000000000e+02 7.660000000000000000e+02 7.670000000000000000e+02 7.680000000000000000e+02 7.690000000000000000e+02 7.700000000000000000e+02 7.710000000000000000e+02 7.720000000000000000e+02 7.730000000000000000e+02 7.740000000000000000e+02 7.750000000000000000e+02 7.760000000000000000e+02 7.770000000000000000e+02 7.780000000000000000e+02 7.790000000000000000e+02 7.800000000000000000e+02 7.810000000000000000e+02 7.820000000000000000e+02 7.830000000000000000e+02 7.840000000000000000e+02 7.850000000000000000e+02 7.860000000000000000e+02 7.870000000000000000e+02 7.880000000000000000e+02 7.890000000000000000e+02 7.900000000000000000e+02 7.910000000000000000e+02 7.920000000000000000e+02 7.930000000000000000e+02 7.940000000000000000e+02 7.950000000000000000e+02 7.960000000000000000e+02 7.970000000000000000e+02 7.980000000000000000e+02 7.990000000000000000e+02 8.000000000000000000e+02 8.010000000000000000e+02 8.020000000000000000e+02 8.030000000000000000e+02 8.040000000000000000e+02 8.050000000000000000e+02 8.060000000000000000e+02 8.070000000000000000e+02 8.080000000000000000e+02 8.090000000000000000e+02 8.100000000000000000e+02 8.110000000000000000e+02 8.120000000000000000e+02 8.130000000000000000e+02 8.140000000000000000e+02 8.150000000000000000e+02 8.160000000000000000e+02 8.170000000000000000e+02 8.180000000000000000e+02 8.190000000000000000e+02 8.200000000000000000e+02 8.210000000000000000e+02 8.220000000000000000e+02 8.230000000000000000e+02 8.240000000000000000e+02 8.250000000000000000e+02 8.260000000000000000e+02 8.270000000000000000e+02 8.280000000000000000e+02 8.290000000000000000e+02 8.300000000000000000e+02 8.310000000000000000e+02 8.320000000000000000e+02 8.330000000000000000e+02 8.340000000000000000e+02 8.350000000000000000e+02 8.360000000000000000e+02 8.370000000000000000e+02 8.380000000000000000e+02 8.390000000000000000e+02 8.400000000000000000e+02 8.410000000000000000e+02 8.420000000000000000e+02 8.430000000000000000e+02 8.440000000000000000e+02 8.450000000000000000e+02 8.460000000000000000e+02 8.470000000000000000e+02 8.480000000000000000e+02 8.490000000000000000e+02 8.500000000000000000e+02 8.510000000000000000e+02 8.520000000000000000e+02 8.530000000000000000e+02 8.540000000000000000e+02 8.550000000000000000e+02 8.560000000000000000e+02 8.570000000000000000e+02 8.580000000000000000e+02 8.590000000000000000e+02 8.600000000000000000e+02 8.610000000000000000e+02 8.620000000000000000e+02 8.630000000000000000e+02 8.640000000000000000e+02 8.650000000000000000e+02 8.660000000000000000e+02 8.670000000000000000e+02 8.680000000000000000e+02 8.690000000000000000e+02 8.700000000000000000e+02 8.710000000000000000e+02 8.720000000000000000e+02 8.730000000000000000e+02 8.740000000000000000e+02 8.750000000000000000e+02 8.760000000000000000e+02 8.770000000000000000e+02 8.780000000000000000e+02 8.790000000000000000e+02 8.800000000000000000e+02 8.810000000000000000e+02 8.820000000000000000e+02 8.830000000000000000e+02 8.840000000000000000e+02 8.850000000000000000e+02 8.860000000000000000e+02 8.870000000000000000e+02 8.880000000000000000e+02 8.890000000000000000e+02 8.900000000000000000e+02 8.910000000000000000e+02 8.920000000000000000e+02 8.930000000000000000e+02 8.940000000000000000e+02 8.950000000000000000e+02 8.960000000000000000e+02 8.970000000000000000e+02 8.980000000000000000e+02 8.990000000000000000e+02 9.000000000000000000e+02 9.010000000000000000e+02 9.020000000000000000e+02 9.030000000000000000e+02 9.040000000000000000e+02 9.050000000000000000e+02 9.060000000000000000e+02 9.070000000000000000e+02 9.080000000000000000e+02 9.090000000000000000e+02 9.100000000000000000e+02 9.110000000000000000e+02 9.120000000000000000e+02 9.130000000000000000e+02 9.140000000000000000e+02 9.150000000000000000e+02 9.160000000000000000e+02 9.170000000000000000e+02 9.180000000000000000e+02 9.190000000000000000e+02 9.200000000000000000e+02 9.210000000000000000e+02 9.220000000000000000e+02 9.230000000000000000e+02 9.240000000000000000e+02 9.250000000000000000e+02 9.260000000000000000e+02 9.270000000000000000e+02 9.280000000000000000e+02 9.290000000000000000e+02 9.300000000000000000e+02 9.310000000000000000e+02 9.320000000000000000e+02 9.330000000000000000e+02 9.340000000000000000e+02 9.350000000000000000e+02 9.360000000000000000e+02 9.370000000000000000e+02 9.380000000000000000e+02 9.390000000000000000e+02 9.400000000000000000e+02 9.410000000000000000e+02 9.420000000000000000e+02 9.430000000000000000e+02 9.440000000000000000e+02 9.450000000000000000e+02 9.460000000000000000e+02 9.470000000000000000e+02 9.480000000000000000e+02 9.490000000000000000e+02 9.500000000000000000e+02 9.510000000000000000e+02 9.520000000000000000e+02 9.530000000000000000e+02 9.540000000000000000e+02 9.550000000000000000e+02 9.560000000000000000e+02 9.570000000000000000e+02 9.580000000000000000e+02 9.590000000000000000e+02 9.600000000000000000e+02 9.610000000000000000e+02 9.620000000000000000e+02 9.630000000000000000e+02 9.640000000000000000e+02 9.650000000000000000e+02 9.660000000000000000e+02 9.670000000000000000e+02 9.680000000000000000e+02 9.690000000000000000e+02 9.700000000000000000e+02 9.710000000000000000e+02 9.720000000000000000e+02 9.730000000000000000e+02 9.740000000000000000e+02 9.750000000000000000e+02 9.760000000000000000e+02 9.770000000000000000e+02 9.780000000000000000e+02 9.790000000000000000e+02 9.800000000000000000e+02 9.810000000000000000e+02 9.820000000000000000e+02 9.830000000000000000e+02 9.840000000000000000e+02 9.850000000000000000e+02 9.860000000000000000e+02 9.870000000000000000e+02 9.880000000000000000e+02 9.890000000000000000e+02 9.900000000000000000e+02 9.910000000000000000e+02 9.920000000000000000e+02 9.930000000000000000e+02 9.940000000000000000e+02 9.950000000000000000e+02 9.960000000000000000e+02 9.970000000000000000e+02 9.980000000000000000e+02 9.990000000000000000e+02 1.000000000000000000e+03
1.000000000000000021e-02 1.000000000000000021e-02 1.000000000000000021e-02 1.000000000000000021e-02 1.000000000000000021e-02 1.000000000000000021e-02 1.000000000000000021e-02 1.000000000000000021e-02 1.000000000000000021e-02 1.000000000000000021e-02 1.000000000000000021e-02 1.000000000000000021e-02 1.000000000000000021e-02 1.000000000000000021e-02 1.000000000000000021e-02 1.000000000000000021e-02 1.000000000000000021e-02 1.000000000000000021e-02 1.000000000000000021e-02 1.000000000000000021e-02 1.000000000000000021e-02 1.000000000000000021e-02 1.000000000000000021e-02 1.000000000000000021e-02 1.000000000000000021e-02 1.000000000000000021e-02 1.000000000000000021e-02 1.000000000000000021e-02 1.000000000000000021e-02 1.000000000000000021e-02 1.000000000000000021e-02 1.000000000000000021e-02 1.000000000000000021e-02 1.000000000000000021e-02 1.000000000000000021e-02 1.000000000000000021e-02 1.000000000000000021e-02 1.000000000000000021e-02 1.000000000000000021e-02 1.000000000000000021e-02 1.000000000000000021e-02 1.000000000000000021e-02 1.000000000000000021e-02 1.000000000000000021e-02 1.000000000000000021e-02 1.000000000000000021e-02 1.000000000000000021e-02 1.000000000000000021e-02 1.000000000000000021e-02 1.000000000000000021e-02 1.000000000000000021e-02 1.000000000000000021e-02 1.000000000000000021e-02 1.000000000000000021e-02 1.000000000000000021e-02 1.000000000000000021e-02 1.000000000000000021e-02 1.000000000000000021e-02 1.000000000000000021e-02 1.000000000000000021e-02 1.000000000000000021e-02 1.000000000000000021e-02 1.000000000000000021e-02 1.000000000000000021e-02 1.000000000000000021e-02 1.000000000000000021e-02 1.000000000000000021e-02 1.000000000000000021e-02 1.000000000000000021e-02 1.000000000000000021e-02 1.000000000000000021e-02 1.000000000000000021e-02 1.000000000000000021e-02 1.000000000000000021e-02 1.000000000000000021e-02 1.000000000000000021e-02 1.000000000000000021e-02 1.000000000000000021e-02 1.000000000000000021e-02 1.000000000000000021e-02 1.000000000000000021e-02 1.000000000000000021e-02 1.000000000000000021e-02 1.000000000000000021e-02 1.000000000000000021e-02 1.000000000000000021e-02 1.000000000000000021e-02 1.000000000000000021e-02 1.000000000000000021e-02 1.000000000000000021e-02 1.000000000000000021e-02 1.000000000000000021e-02 1.000000000000000021e-02 1.000000000000000021e-02 1.000000000000000021e-02 1.000000000000000021e-02 1.000000000000000021e-02 1.000000000000000021e-02 1.000000000000000021e-02 1.000000000000000021e-02 1.000000000000000021e-02 1.000000000000000021e-02 1.000000000000000021e-02 1.000000000000000021e-02 1.000000000000000021e-02 1.000000000000000021e-02 1.000000000000000021e-02 1.000000000000000021e-02 1.000000000000000021e-02 1.000000000000000021e-02 1.000000000000000021e-02 1.000000000000000021e-02 1.000000000000000021e-02 1.000000000000000021e-02 1.000000000000000021e-02 1.000000000000000021e-02 1.000000000000000021e-02 1.000000000000000021e-02 1.000000000000000021e-02 1.000000000000000021e-02 1.000000000000000021e-02 1.000000000000000021e-02 1.000000000000000021e-02 1.000000000000000021e-02 1.000000000000000021e-02 1.000000000000000021e-02 1.000000000000000021e-02 1.000000000000000021e-02 1.000000000000000021e-02 1.000000000000000021e-02 1.000000000000000021e-02 1.000000000000000021e-02 1.000000000000000021e-02 1.000000000000000021e-02 1.000000000000000021e-02 1.000000000000000021e-02 1.000000000000000021e-02 1.000000000000000021e-02 1.000000000000000021e-02 1.000000000000000021e-02 1.000000000000000021e-02 1.000000000000000021e-02 1.000000000000000021e-02 1.000000000000000021e-02 1.000000000000000021e-02 1.000000000000000021e-02 1.000000000000000021e-02 1.000000000000000021e-02 1.000000000000000021e-02 1.000000000000000021e-02 1.000000000000000021e-02 1.000000000000000021e-02 1.000000000000000021e-02 1.000000000000000021e-02 1.000000000000000021e-02 1.000000000000000021e-02 1.000000000000000021e-02 1.000000000000000021e-02 1.000000000000000021e-02 1.000000000000000021e-02 1.000000000000000021e-02 1.000000000000000021e-02 1.000000000000000021e-02 1.000000000000000021e-02 1.000000000000000021e-02 1.000000000000000021e-02 1.000000000000000021e-02 1.000000000000000021e-02 1.000000000000000021e-02 1.000000000000000021e-02 1.000000000000000021e-02 1.000000000000000021e-02 1.000000000000000021e-02 1.000000000000000021e-02 1.000000000000000021e-02 1.000000000000000021e-02 1.000000000000000021e-02 1.000000000000000021e-02 1.000000000000000021e-02 1.000000000000000021e-02 1.000000000000000021e-02 1.000000000000000021e-02 1.000000000000000021e-02 1.000000000000000021e-02 1.000000000000000021e-02 1.000000000000000021e-02 1.000000000000000021e-02 1.000000000000000021e-02 1.000000000000000021e-02 1.000000000000000021e-02 1.000000000000000021e-02 1.000000000000000021e-02 1.000000000000000021e-02 1.000000000000000021e-02 1.000000000000000021e-02 1.000000000000000021e-02 1.000000000000000021e-02 1.000000000000000021e-02 1.000000000000000021e-02 1.000000000000000021e-02 1.000000000000000021e-02 1.000000000000000021e-02 1.000000000000000021e-02 1.000000000000000021e-02 1.000000000000000021e-02 1.000000000000000021e-02 1.000000000000000021e-02 1.000000000000000021e-02 1.000000000000000021e-02 1.000000000000000021e-02 1.000000000000000021e-02 1.000000000000000021e-02 1.000000000000000021e-02 1.000000000000000021e-02 1.000000000000000021e-02 1.000000000000000021e-02 1.000000000000000021e-02 1.000000000000000021e-02 1.000000000000000021e-02 1.000000000000000021e-02 1.000000000000000021e-02 1.000000000000000021e-02 1.000000000000000021e-02 1.000000000000000021e-02 1.000000000000000021e-02 1.000000000000000021e-02 1.000000000000000021e-02 1.000000000000000021e-02 1.000000000000000021e-02 1.000000000000000021e-02 1.000000000000000021e-02 1.000000000000000021e-02 1.000000000000000021e-02 1.000000000000000021e-02 1.000000000000000021e-02 1.000000000000000021e-02 1.000000000000000021e-02 1.000000000000000021e-02 1.000000000000000021e-02 1.000000000000000021e-02 1.000000000000000021e-02 1.000000000000000021e-02 1.000000000000000021e-02 1.000000000000000021e-02 1.000000000000000021e-02 1.000000000000000021e-02 1.000000000000000021e-02 1.000000000000000021e-02 1.000000000000000021e-02 1.000000000000000021e-02 1.000000000000000021e-02 1.000000000000000021e-02 1.000000000000000021e-02 1.000000000000000021e-02 1.000000000000000021e-02 1.000000000000000021e-02 1.000000000000000021e-02 1.000000000000000021e-02 1.000000000000000021e-02 1.000000000000000021e-02 1.000000000000000021e-02 1.000000000000000021e-02 1.000000000000000021e-02 1.000000000000000021e-02 1.000000000000000021e-02 1.000000000000000021e-02 1.000000000000000021e-02 1.000000000000000021e-02 1.000000000000000021e-02 1.000000000000000021e-02 1.000000000000000021e-02 1.000000000000000021e-02 1.000000000000000021e-02 1.000000000000000021e-02 1.000000000000000021e-02 1.000000000000000021e-02 1.000000000000000021e-02 1.000000000000000021e-02 1.000000000000000021e-02 1.000000000000000021e-02 1.000000000000000021e-02 1.000000000000000021e-02 1.000000000000000021e-02 1.000000000000000021e-02 1.000000000000000021e-02 1.000000000000000021e-02 1.000000000000000021e-02 1.000000000000000021e-02 1.000000000000000021e-02 1.000000000000000021e-02 1.000000000000000021e-02 1.000000000000000021e-02 1.000000000000000021e-02 1.000000000000000021e-02 1.000000000000000021e-02 1.000000000000000021e-02 1.000000000000000021e-02 1.000000000000000021e-02 1.000000000000000021e-02 1.000000000000000021e-02 1.000000000000000021e-02 1.000000000000000021e-02 1.000000000000000021e-02 1.000000000000000021e-02 1.000000000000000021e-02 1.000000000000000021e-02 1.000000000000000021e-02 1.000000000000000021e-02 1.000000000000000021e-02 1.000000000000000021e-02 1.000000000000000021e-02 1.000000000000000021e-02 1.000000000000000021e-02 1.000000000000000021e-02 1.000000000000000021e-02 1.000000000000000021e-02 1.000000000000000021e-02 1.000000000000000021e-02 1.000000000000000021e-02 1.000000000000000021e-02 1.000000000000000021e-02 1.000000000000000021e-02 1.000000000000000021e-02 1.000000000000000021e-02 1.000000000000000021e-02 1.000000000000000021e-02 1.000000000000000021e-02 1.000000000000000021e-02 1.000000000000000021e-02 1.000000000000000021e-02 1.000000000000000021e-02 1.000000000000000021e-02 1.000000000000000021e-02 1.000000000000000021e-02 1.000000000000000021e-02 1.000000000000000021e-02 1.000000000000000021e-02 1.000000000000000021e-02 1.000000000000000021e-02 1.000000000000000021e-02 1.000000000000000021e-02 1.000000000000000021e-02 1.000000000000000021e-02 1.000000000000000021e-02 1.000000000000000021e-02 1.000000000000000021e-02 1.000000000000000021e-02 1.000000000000000021e-02 1.000000000000000021e-02 1.000000000000000021e-02 1.000000000000000021e-02 1.000000000000000021e-02 1.000000000000000021e-02 1.000000000000000021e-02 1.000000000000000021e-02 1.000000000000000021e-02 1.000000000000000021e-02 1.000000000000000021e-02 1.000000000000000021e-02 1.000000000000000021e-02 1.000000000000000021e-02 1.000000000000000021e-02 1.000000000000000021e-02 1.000000000000000021e-02 1.000000000000000021e-02 1.000000000000000021e-02 1.000000000000000021e-02 1.000000000000000021e-02 1.000000000000000021e-02 1.000000000000000021e-02 1.000000000000000021e-02 1.000000000000000021e-02 1.000000000000000021e-02 1.000000000000000021e-02 1.000000000000000021e-02 1.000000000000000021e-02 1.000000000000000021e-02 1.000000000000000021e-02 1.000000000000000021e-02 1.000000000000000021e-02 1.000000000000000021e-02 1.000000000000000021e-02 1.000000000000000021e-02 1.000000000000000021e-02 1.000000000000000021e-02 1.000000000000000021e-02 1.000000000000000021e-02 1.000000000000000021e-02 1.000000000000000021e-02 1.000000000000000021e-02 1.000000000000000021e-02 1.000000000000000021e-02 1.000000000000000021e-02 1.000000000000000021e-02 1.000000000000000021e-02 1.000000000000000021e-02 1.000000000000000021e-02 1.000000000000000021e-02 1.000000000000000021e-02 1.000000000000000021e-02 1.000000000000000021e-02 1.000000000000000021e-02 1.000000000000000021e-02 1.000000000000000021e-02 1.000000000000000021e-02 1.000000000000000021e-02 1.000000000000000021e-02 1.000000000000000021e-02 1.000000000000000021e-02 1.000000000000000021e-02 1.000000000000000021e-02 1.000000000000000021e-02 1.000000000000000021e-02 1.000000000000000021e-02 1.000000000000000021e-02 1.000000000000000021e-02 1.000000000000000021e-02 1.000000000000000021e-02 1.000000000000000021e-02 1.000000000000000021e-02 1.000000000000000021e-02 1.000000000000000021e-02 1.000000000000000021e-02 1.000000000000000021e-02 1.000000000000000021e-02 1.000000000000000021e-02 1.000000000000000021e-02 1.000000000000000021e-02 1.000000000000000021e-02 1.000000000000000021e-02 1.000000000000000021e-02 1.000000000000000021e-02 1.000000000000000021e-02 1.000000000000000021e-02 1.000000000000000021e-02 1.000000000000000021e-02 1.000000000000000021e-02 1.000000000000000021e-02 1.000000000000000021e-02 1.000000000000000021e-02 1.000000000000000021e-02 1.000000000000000021e-02 1.000000000000000021e-02 1.000000000000000021e-02 1.000000000000000021e-02 1.000000000000000021e-02 1.000000000000000021e-02 1.000000000000000021e-02 1.000000000000000021e-02 1.000000000000000021e-02 1.000000000000000021e-02 1.000000000000000021e-02 1.000000000000000021e-02 1.000000000000000021e-02 1.000000000000000021e-02 1.000000000000000021e-02 1.000000000000000021e-02 1.000000000000000021e-02 1.000000000000000021e-02 1.000000000000000021e-02 1.000000000000000021e-02 1.000000000000000021e-02 1.000000000000000021e-02 1.000000000000000021e-02 1.000000000000000021e-02 1.000000000000000021e-02 1.000000000000000021e-02 1.000000000000000021e-02 1.000000000000000021e-02 1.000000000000000021e-02 1.000000000000000021e-02 1.000000000000000021e-02 1.000000000000000021e-02 1.000000000000000021e-02 1.000000000000000021e-02 1.000000000000000021e-02 1.000000000000000021e-02 1.000000000000000021e-02 1.000000000000000021e-02 1.000000000000000021e-02 1.000000000000000021e-02 1.000000000000000021e-02 1.000000000000000021e-02 1.000000000000000021e-02 1.000000000000000021e-02 1.000000000000000021e-02 1.000000000000000021e-02 1.000000000000000021e-02 1.000000000000000021e-02 1.000000000000000021e-02 1.000000000000000021e-02 1.000000000000000021e-02 1.000000000000000021e-02 1.000000000000000021e-02 1.000000000000000021e-02 1.000000000000000021e-02 1.000000000000000021e-02 1.000000000000000021e-02 1.000000000000000021e-02 1.000000000000000021e-02 1.000000000000000021e-02 1.000000000000000021e-02 1.000000000000000021e-02 1.000000000000000021e-02 1.000000000000000021e-02 1.000000000000000021e-02 1.000000000000000021e-02 1.000000000000000021e-02 1.000000000000000021e-02 1.000000000000000021e-02 1.000000000000000021e-02 1.000000000000000021e-02 1.000000000000000021e-02 1.000000000000000021e-02 1.000000000000000021e-02 1.000000000000000021e-02 1.000000000000000021e-02 1.000000000000000021e-02 1.000000000000000021e-02 1.000000000000000021e-02 1.000000000000000021e-02 1.000000000000000021e-02 1.000000000000000021e-02 1.000000000000000021e-02 1.000000000000000021e-02 1.000000000000000021e-02 1.000000000000000021e-02 1.000000000000000021e-02 1.000000000000000021e-02 1.000000000000000021e-02 1.000000000000000021e-02 1.000000000000000021e-02 1.000000000000000021e-02 1.000000000000000021e-02 1.000000000000000021e-02 1.000000000000000021e-02 1.000000000000000021e-02 1.000000000000000021e-02 1.000000000000000021e-02 1.000000000000000021e-02 1.000000000000000021e-02 1.000000000000000021e-02 1.000000000000000021e-02 1.000000000000000021e-02 1.000000000000000021e-02 1.000000000000000021e-02 1.000000000000000021e-02 1.000000000000000021e-02 1.000000000000000021e-02 1.000000000000000021e-02 1.000000000000000021e-02 1.000000000000000021e-02 1.000000000000000021e-02 1.000000000000000021e-02 1.000000000000000021e-02 1.000000000000000021e-02 1.000000000000000021e-02 1.000000000000000021e-02 1.000000000000000021e-02 1.000000000000000021e-02 1.000000000000000021e-02 1.000000000000000021e-02 1.000000000000000021e-02 1.000000000000000021e-02 1.000000000000000021e-02 1.000000000000000021e-02 1.000000000000000021e-02 1.000000000000000021e-02 1.000000000000000021e-02 1.000000000000000021e-02 1.000000000000000021e-02 1.000000000000000021e-02 1.000000000000000021e-02 1.000000000000000021e-02 1.000000000000000021e-02 1.000000000000000021e-02 1.000000000000000021e-02 1.000000000000000021e-02 1.000000000000000021e-02 1.000000000000000021e-02 1.000000000000000021e-02 1.000000000000000021e-02 1.000000000000000021e-02 1.000000000000000021e-02 1.000000000000000021e-02 1.000000000000000021e-02 1.000000000000000021e-02 1.000000000000000021e-02 1.000000000000000021e-02 1.000000000000000021e-02 1.000000000000000021e-02 1.000000000000000021e-02 1.000000000000000021e-02 1.000000000000000021e-02 1.000000000000000021e-02 1.000000000000000021e-02 1.000000000000000021e-02 1.000000000000000021e-02 1.000000000000000021e-02 1.000000000000000021e-02 1.000000000000000021e-02 1.000000000000000021e-02 1.000000000000000021e-02 1.000000000000000021e-02 1.000000000000000021e-02 1.000000000000000021e-02 1.000000000000000021e-02 1.000000000000000021e-02 1.000000000000000021e-02 1.000000000000000021e-02 1.000000000000000021e-02 1.000000000000000021e-02 1.000000000000000021e-02 1.000000000000000021e-02 1.000000000000000021e-02 1.000000000000000021e-02 1.000000000000000021e-02 1.000000000000000021e-02 1.000000000000000021e-02 1.000000000000000021e-02 1.000000000000000021e-02 1.000000000000000021e-02 1.000000000000000021e-02 1.000000000000000021e-02 1.000000000000000021e-02 1.000000000000000021e-02 1.000000000000000021e-02 1.000000000000000021e-02 1.000000000000000021e-02 1.000000000000000021e-02 1.000000000000000021e-02 1.000000000000000021e-02 1.000000000000000021e-02 1.000000000000000021e-02 1.000000000000000021e-02 1.000000000000000021e-02 1.000000000000000021e-02 1.000000000000000021e-02 1.000000000000000021e-02 1.000000000000000021e-02 1.000000000000000021e-02 1.000000000000000021e-02 1.000000000000000021e-02 1.000000000000000021e-02 1.000000000000000021e-02 1.000000000000000021e-02 1.000000000000000021e-02 1.000000000000000021e-02 1.000000000000000021e-02 1.000000000000000021e-02 1.000000000000000021e-02 1.000000000000000021e-02 1.000000000000000021e-02 1.000000000000000021e-02 1.000000000000000021e-02 1.000000000000000021e-02 1.000000000000000021e-02 1.000000000000000021e-02 1.000000000000000021e-02 1.000000000000000021e-02 1.000000000000000021e-02 1.000000000000000021e-02 1.000000000000000021e-02 1.000000000000000021e-02 1.000000000000000021e-02 1.000000000000000021e-02 1.000000000000000021e-02 1.000000000000000021e-02 1.000000000000000021e-02 1.000000000000000021e-02 1.000000000000000021e-02 1.000000000000000021e-02 1.000000000000000021e-02 1.000000000000000021e-02 1.000000000000000021e-02 1.000000000000000021e-02 1.000000000000000021e-02 1.000000000000000021e-02 1.000000000000000021e-02 1.000000000000000021e-02 1.000000000000000021e-02 1.000000000000000021e-02 1.000000000000000021e-02 1.000000000000000021e-02 1.000000000000000021e-02 1.000000000000000021e-02 1.000000000000000021e-02 1.000000000000000021e-02 1.000000000000000021e-02 1.000000000000000021e-02 1.000000000000000021e-02 1.000000000000000021e-02 1.000000000000000021e-02 1.000000000000000021e-02 1.000000000000000021e-02 1.000000000000000021e-02 1.000000000000000021e-02 1.000000000000000021e-02 1.000000000000000021e-02 1.000000000000000021e-02 1.000000000000000021e-02 1.000000000000000021e-02 1.000000000000000021e-02 1.000000000000000021e-02 1.000000000000000021e-02 1.000000000000000021e-02 1.000000000000000021e-02 1.000000000000000021e-02 1.000000000000000021e-02 1.000000000000000021e-02 1.000000000000000021e-02 1.000000000000000021e-02 1.000000000000000021e-02 1.000000000000000021e-02 1.000000000000000021e-02 1.000000000000000021e-02 1.000000000000000021e-02 1.000000000000000021e-02 1.000000000000000021e-02 1.000000000000000021e-02 1.000000000000000021e-02 1.000000000000000021e-02 1.000000000000000021e-02 1.000000000000000021e-02 1.000000000000000021e-02 1.000000000000000021e-02 1.000000000000000021e-02 1.000000000000000021e-02 1.000000000000000021e-02 1.000000000000000021e-02 1.000000000000000021e-02 1.000000000000000021e-02 1.000000000000000021e-02 1.000000000000000021e-02 1.000000000000000021e-02 1.000000000000000021e-02 1.000000000000000021e-02 1.000000000000000021e-02 1.000000000000000021e-02 1.000000000000000021e-02 1.000000000000000021e-02 1.000000000000000021e-02 1.000000000000000021e-02 1.000000000000000021e-02 1.000000000000000021e-02 1.000000000000000021e-02 1.000000000000000021e-02 1.000000000000000021e-02 1.000000000000000021e-02 1.000000000000000021e-02 1.000000000000000021e-02 1.000000000000000021e-02 1.000000000000000021e-02 1.000000000000000021e-02 1.000000000000000021e-02 1.000000000000000021e-02 1.000000000000000021e-02 1.000000000000000021e-02 1.000000000000000021e-02 1.000000000000000021e-02 1.000000000000000021e-02 1.000000000000000021e-02 1.000000000000000021e-02 1.000000000000000021e-02 1.000000000000000021e-02 1.000000000000000021e-02 1.000000000000000021e-02 1.000000000000000021e-02 1.000000000000000021e-02 1.000000000000000021e-02 1.000000000000000021e-02 1.000000000000000021e-02 1.000000000000000021e-02 1.000000000000000021e-02 1.000000000000000021e-02 1.000000000000000021e-02 1.000000000000000021e-02 1.000000000000000021e-02 1.000000000000000021e-02 1.000000000000000021e-02 1.000000000000000021e-02 1.000000000000000021e-02 1.000000000000000021e-02 1.000000000000000021e-02 1.000000000000000021e-02 1.000000000000000021e-02 1.000000000000000021e-02 1.000000000000000021e-02 1.000000000000000021e-02 1.000000000000000021e-02 1.000000000000000021e-02 1.000000000000000021e-02 1.000000000000000021e-02 1.000000000000000021e-02 1.000000000000000021e-02 1.000000000000000021e-02 1.000000000000000021e-02 1.000000000000000021e-02 1.000000000000000021e-02 1.000000000000000021e-02 1.000000000000000021e-02 1.000000000000000021e-02 1.000000000000000021e-02 1.000000000000000021e-02 1.000000000000000021e-02 1.000000000000000021e-02 1.000000000000000021e-02 1.000000000000000021e-02 1.000000000000000021e-02 1.000000000000000021e-02 1.000000000000000021e-02 1.000000000000000021e-02 1.000000000000000021e-02 1.000000000000000021e-02 1.000000000000000021e-02 1.000000000000000021e-02 1.000000000000000021e-02 1.000000000000000021e-02 1.000000000000000021e-02 1.000000000000000021e-02 1.000000000000000021e-02 1.000000000000000021e-02 1.000000000000000021e-02 1.000000000000000021e-02 1.000000000000000021e-02 1.000000000000000021e-02 1.000000000000000021e-02 1.000000000000000021e-02 1.000000000000000021e-02 1.000000000000000021e-02 1.000000000000000021e-02 1.000000000000000021e-02 1.000000000000000021e-02 1.000000000000000021e-02 1.000000000000000021e-02 1.000000000000000021e-02 1.000000000000000021e-02 1.000000000000000021e-02 1.000000000000000021e-02 1.000000000000000021e-02 1.000000000000000021e-02 1.000000000000000021e-02 1.000000000000000021e-02 1.000000000000000021e-02 1.000000000000000021e-02 1.000000000000000021e-02 1.000000000000000021e-02 1.000000000000000021e-02 1.000000000000000021e-02 1.000000000000000021e-02 1.000000000000000021e-02 1.000000000000000021e-02 1.000000000000000021e-02 1.000000000000000021e-02 1.000000000000000021e-02 1.000000000000000021e-02 1.000000000000000021e-02 1.000000000000000021e-02 1.000000000000000021e-02 1.000000000000000021e-02 1.000000000000000021e-02 1.000000000000000021e-02 1.000000000000000021e-02 1.000000000000000021e-02 1.000000000000000021e-02 1.000000000000000021e-02 1.000000000000000021e-02 1.000000000000000021e-02 1.000000000000000021e-02 1.000000000000000021e-02 1.000000000000000021e-02 1.000000000000000021e-02 1.000000000000000021e-02 1.000000000000000021e-02 1.000000000000000021e-02 1.000000000000000021e-02 1.000000000000000021e-02 1.000000000000000021e-02 1.000000000000000021e-02 1.000000000000000021e-02 1.000000000000000021e-02 1.000000000000000021e-02 1.000000000000000021e-02 1.000000000000000021e-02 1.000000000000000021e-02 1.000000000000000021e-02 1.000000000000000021e-02 1.000000000000000021e-02 1.000000000000000021e-02 1.000000000000000021e-02 1.000000000000000021e-02 1.000000000000000021e-02 1.000000000000000021e-02 1.000000000000000021e-02 1.000000000000000021e-02 1.000000000000000021e-02 1.000000000000000021e-02 1.000000000000000021e-02 1.000000000000000021e-02 1.000000000000000021e-02 1.000000000000000021e-02 1.000000000000000021e-02 1.000000000000000021e-02 1.000000000000000021e-02 1.000000000000000021e-02 1.000000000000000021e-02 1.000000000000000021e-02 1.000000000000000021e-02 1.000000000000000021e-02 1.000000000000000021e-02 1.000000000000000021e-02 1.000000000000000021e-02 1.000000000000000021e-02 1.000000000000000021e-02 1.000000000000000021e-02 1.000000000000000021e-02 1.000000000000000021e-02 1.000000000000000021e-02 1.000000000000000021e-02 1.000000000000000021e-02 1.000000000000000021e-02 1.000000000000000021e-02 1.000000000000000021e-02 1.000000000000000021e-02 1.000000000000000021e-02 1.000000000000000021e-02 1.000000000000000021e-02 1.000000000000000021e-02 1.000000000000000021e-02 1.000000000000000021e-02 1.000000000000000021e-02 1.000000000000000021e-02 1.000000000000000021e-02 1.000000000000000021e-02 1.000000000000000021e-02 1.000000000000000021e-02 1.000000000000000021e-02 1.000000000000000021e-02 1.000000000000000021e-02 1.000000000000000021e-02 1.000000000000000021e-02 1.000000000000000021e-02 1.000000000000000021e-02 1.000000000000000021e-02 1.000000000000000021e-02 1.000000000000000021e-02 1.000000000000000021e-02 1.000000000000000021e-02 1.000000000000000021e-02 1.000000000000000021e-02 1.000000000000000021e-02 1.000000000000000021e-02 1.000000000000000021e-02 1.000000000000000021e-02 1.000000000000000021e-02 1.000000000000000021e-02 1.000000000000000021e-02 1.000000000000000021e-02 1.000000000000000021e-02 1.000000000000000021e-02 1.000000000000000021e-02 1.000000000000000021e-02 1.000000000000000021e-02 1.000000000000000021e-02 1.000000000000000021e-02 1.000000000000000021e-02 1.000000000000000021e-02 1.000000000000000021e-02 1.000000000000000021e-02 1.000000000000000021e-02 1.000000000000000021e-02 1.000000000000000021e-02 1.000000000000000021e-02 1.000000000000000021e-02 1.000000000000000021e-02 1.000000000000000021e-02 1.000000000000000021e-02 1.000000000000000021e-02 1.000000000000000021e-02 1.000000000000000021e-02 1.000000000000000021e-02 1.000000000000000021e-02 1.000000000000000021e-02 1.000000000000000021e-02 1.000000000000000021e-02 1.000000000000000021e-02 1.000000000000000021e-02 1.000000000000000021e-02 1.000000000000000021e-02 1.000000000000000021e-02 1.000000000000000021e-02 1.000000000000000021e-02 1.000000000000000021e-02 1.000000000000000021e-02 1.000000000000000021e-02 1.000000000000000021e-02 1.000000000000000021e-02 1.000000000000000021e-02 1.000000000000000021e-02 1.000000000000000021e-02
-1.124847699465252759e+02 1.709508780854561394e+02 3.966394317801248093e+01 -8.916323500099538890e+00 -8.859105959653405193e+01 -1.350009008161331181e+01 -2.095783659567542543e+02 6.889600205629751173e-01 -8.541716114313150854e+01 -1.413339021550095964e+01 -1.998958819457860159e+01 6.564885356344666079e+00 -1.795547430609854445e+00 1.691534103098884430e+02 8.530539823716972592e+01 -3.908750689192436312e+01 -5.321183663822297660e+01 7.986202477167158520e+01 3.308733256244799037e+01 -2.557356277638168862e+01 -7.949570155802931026e+01 -7.441535289722023094e+01 -1.392158277118891441e+01 2.916912356455928190e+01 -1.965126279926663813e+02 -9.954394939091220351e+01 -2.629986429274196880e+01 2.032839583480113106e+02 7.134104067081302958e+01 7.733993859433593343e+01 8.094711556893778948e+01 1.195517120341028638e+00 -7.986181105935240510e+01 2.091161620494489739e+02 -2.468294445953069953e+02 5.929702422285146923e+01 -1.211428056545208136e+02 -3.496269211120824139e+01 4.065638989685368188e+00 1.277490491489439393e+02 -1.239135858848084411e+02 -1.376745969066669950e+01 7.800014466177249517e+01 1.750180781453493069e+02 7.194834872561069972e+01 -6.899007343883718590e+01 4.157433078795717307e+01 -2.861107168894463371e+01 -6.660755568806568760e+01 1.578810450407978010e+02 -7.116480030037610049e+01 -5.254837294107075252e+01 -1.404577036764153490e+02 5.785107769633304642e+00 -5.095925036474675807e+01 3.898221656575990579e+01 -8.945955962645105330e+01 -5.047783949385764402e+01 -1.022476303334040182e+02 -1.567304792740141863e+02 1.962622922343334508e+01 4.572303603826289020e+01 -1.241444943644542178e+02 1.296658804548786925e+01 -7.996231891799902769e+01 4.952717762575686322e+01 1.680013961443898722e+02 -1.454616361752636919e+02 -4.367657503325962409e+01 7.249576736980976044e+00 2.951365621276747842e+00 4.273332559058209057e+01 8.468580686349562825e+01 9.031780764509491632e-01 -8.866670631675987124e+00 -7.061934368660597272e+01 7.892206237964073523e+01 -3.305349625856641893e+01 2.651175213888115678e+01 1.048852282951877868e+02 8.897337376191305225e+01 -4.311075372232129865e+01 5.830028635693431482e+01 1.486787553131061088e+02 1.171843125750394279e+02 -4.063394701059282355e+00 1.756822753913533006e+02 -1.124538331687385693e+02 4.242302654222059211e+00 -4.229174642367782866e+01 2.085864665665084488e+02 -2.140228971590361695e+01 2.901941080378098725e+00 -7.743120186914150338e+01 -7.193633404815667376e+00 -6.439094740814320517e+01 6.833999065315835253e+01 -9.534690371549802990e+01 6.913974116302044592e+01 -4.814696402247849250e+01 -5.018639047379755169e+01 -9.243321154302466880e+01 5.354714180532302237e+01 -5.518682146946419209e+01 -1.505986543259881216e+02 -8.014688258174720659e+01 -1.055030975911694071e+02 -1.585629434083731155e+02 1.370976560562912709e+02 -2.773904170019734394e+01 3.229966577559800101e+01 9.042854190721726582e+01 -1.049617542285769360e+02 5.745689314806969605e+01 -4.368998924248874971e+01 -6.990854967398243502e+01 -9.084201923219464447e+01 2.050101552069477577e+02 -5.722581035276949279e+01 -4.990784877808879116e+01 -4.762176890933348261e+01 8.108671945640466561e+01 -4.175774685792568874e+01 1.391662387791804179e+02 -5.028956001691331323e+01 5.555554988050315046e+01 4.580786830170135993e+00 -8.183771914280831083e+01 6.940870735952253767e+01 2.797463665437710461e+02 -9.280281923975906011e+01 4.790234861954927226e+01 -7.688401649565436458e+01 4.562444208331145745e+01 1.323194045936907344e+02 -5.181853613314638807e+01 1.471336228174850902e+01 -2.715589758983549018e+01 -1.028226817423122270e+02 -1.744133312619059950e+01 4.310059228086943861e+00 -7.890237870071898918e+00 -1.508657793635721589e+01 1.192834202104185835e+02 1.314999822760014183e+02 1.881082528673572938e+02 -3.070291605337168335e+02 3.855557129563174357e+01 -1.589153535951037988e+01 -6.291761394143792074e+01 1.819819350063602599e+02 7.691184582478764753e+01 -2.601561523804147846e+00 -1.170392099654717413e+02 -1.100678115234983245e+01 1.010267264282510666e+02 -1.356676278693080064e+02 -1.702318757019766053e+02 1.083808211854637804e+01 4.284225996917133017e+01 -6.160566637844689808e+01 4.244359136549410039e+01 -1.081302206711674785e+02 -1.528151460908046602e+02 2.132399388758301484e+01 4.906556448747222987e+01 4.851002169273631814e+00 -8.433711242861926394e+01 -9.455091748537665808e+01 -8.519811093151687942e+01 -8.846101059221390983e+01 1.276161927185400025e+01 5.744443248733062291e+01 1.177593367209993005e+02 8.030304497291001553e+01 9.049487020240789548e+01 1.086496865274839507e+02 -7.564140025176331505e+01 -8.346178307701356403e+01 7.133912114201893928e+01 6.926768696576512241e+01 5.993639249370541933e+01 -9.505851726053480277e+00 -9.219193014463598956e+01 5.465411680576264075e+01 -1.812337689599075929e+02 6.801628362078329815e+01 -4.512306505943018919e+01 -9.771170495434074610e+01 7.519535940096396587e+01 -1.736439404482439386e+01 -7.819285542666527533e+01 -5.826944612089654640e+01 -9.276529709230219467e+00 2.461448770915461068e+02 7.794874075416315407e+01 5.564185722716459281e+01 -1.054515473276183855e+02 1.505059902895331447e+02 1.059557029886891266e+00 -9.179283331235714627e+01 1.582511129561706582e+02 -1.566018326829710361e+02 1.602894507384189993e+01 -3.307920379519085685e+01 -2.258096182540807604e+02 -1.370848000977699712e+02 -8.964481194180346790e+01 -3.009908895140532437e+01 -1.225333508186316465e+02 5.925265901202459418e+01 6.677824721420900289e+01 -2.833140704087284334e+01 -1.024763018501437983e+02 1.162195678569496664e+02 1.214839117126615520e+02 4.749569582868479500e+01 1.794945547899743232e+01 2.686562230716309045e+02 4.489481354930238410e+01 -1.227803318970423305e+02 -4.632033841512642169e+01 -1.736362523776616626e+02 3.277450793962241704e+01 1.576847385802885242e+02 -1.526164384780338992e+02 1.355055502448638265e+02 -9.357591950433318573e+01 -1.944607194497790204e+01 -7.749164266032603221e-01 5.438722006666242237e+01 -1.193826789725960857e+01 -2.345288401334934747e+01 -1.945572590821845083e+01 -1.303839324145011460e+02 4.777843908235571746e+01 -3.124905361879232402e+01 -1.335970752988982468e+01 -1.102837063409951490e+01 2.326055530296106042e+02 1.793320494928718460e+02 2.394844209519525577e+02 1.356892377556131919e+02 -8.913047498657616075e+01 7.741716743414787061e+01 2.174117737276723972e+01 4.900148318618614951e+01 -4.090644861060108184e+01 2.630118922241047699e+02 -2.399140980863357697e+01 -1.408030618963195195e+02 -1.540236723152200682e+01 -4.719413678591130434e+01 -7.971813219494104885e+01 4.445196338001955638e+01 -1.206419808541811811e+01 1.873719175518872646e+02 9.518379548994978734e+01 4.211589601002012984e+01 1.009841579972354424e+02 9.735111310166034571e+01 -2.368230066435346615e+01 1.438553241673134266e+02 2.729092279192186155e+01 9.228686894193684509e+01 4.909715562212573303e+01 7.145291407150830665e+00 -1.192818662687742801e+02 -1.193509341219123172e+02 -9.275335923510405678e+01 -1.604712185596426366e+01 8.932130733987050064e+01 -3.159247119242608193e+01 1.019009274779647427e+02 4.514198003057547481e+01 -7.493950354941522107e+01 -3.087953745429544483e+01 -6.038190335127484332e+01 1.809826377086055160e+01 -4.774337144587696002e+01 -1.154594525017909774e+02 1.252391231973192589e+02 1.250339006279373564e+02 -8.135421309565427350e+01 5.615985096388798503e+00 -4.669211969770822179e+01 -3.360510462005287025e+01 -1.168793766063273232e+01 -3.217217341679598519e+01 4.580515410308884583e+01 -1.448024363127630068e+02 -5.443951891980452729e+01 -1.564825590599650980e+02 1.793756781900680153e+02 -2.084177021168294530e+01 6.071334389416012556e+01 1.228623990516969222e+01 1.487064689027975248e+02 4.597363689608951631e+01 3.679466136127383891e+01 1.589081922741992798e+02 -5.071459996118009173e+01 -1.004573354702537813e+02 2.796185345707125691e+01 -1.626179557715550459e+02 -5.495054738953525231e+01 1.052626569316063296e+02 -1.313932056242121575e+02 -3.741364356529931001e+01 9.392188894765811824e+01 -9.720228235331093458e+01 -9.206720062936258842e+01 -8.501531406449591088e+01 -6.565327880171953723e+01 2.561360073419962191e+02 2.038195535424004845e+02 1.059231943989777562e+02 -1.050882408442532352e+02 7.696913506514913195e+01 -6.799600023360815726e+01 -3.212711329988650277e+01 1.706591782602872343e+01 -3.309026000065394157e+01 -9.633893510794037240e+01 -2.804244377893404305e+00 1.519821666016850514e+01 1.117273023420544149e+02 -1.319498851816043441e+02 4.301532527702462261e+01 6.545533846241549725e+01 3.546363641144227330e+01 -9.299662132310422180e+01 -1.523891427728589747e+02 1.982362555399727739e+02 -1.827634855273576875e+01 2.583980010036489716e+01 1.605401227204420991e+02 2.734832164470448745e+01 2.844762088739456019e+01 -4.565635049702168402e+01 9.081778483288914572e+01 -1.397535142812534161e+02 -3.157470487201700138e+01 -6.287111080900740667e+00 -5.473434733198551783e+01 6.352138116613343932e+00 2.182366558571211357e+01 -3.666403043088438096e+01 1.399973676791506172e+01 2.189074746753250622e+02 -2.805270814236722643e+01 -2.864626973178955183e+01 -1.041076173062935908e+02 -1.692055807894203179e+00 -8.269145157621041164e+01 6.556332588707829423e+00 1.147453665125945150e+02 -5.326948536205166818e+01 6.193247115662756208e+00 -5.561282378289946848e+01 3.410547993771142927e+00 8.927456649934984512e+01 -1.185943854147528498e+02 -9.909601157683007955e+01 -1.049752860171262796e+02 7.307084068759218098e+01 8.859681947199490537e+01 -9.446407825505374944e+01 6.407637233749186123e+01 2.642087205537770345e+01 3.959407239916959043e+01 -1.817144692951517371e+01 9.347496745079408242e+01 8.159322160339456786e+01 -7.908186196535434931e+01 1.212692798677510275e+01 8.278377213184380423e+01 7.455921881558421660e+01 -2.034568965420596953e+01 2.556500566820668752e+01 -1.356711790204760746e+02 4.964233120969430502e+01 -3.352942343089226540e+01 -3.340785591559473033e+01 1.772031507948982210e+02 4.853935267657300301e+01 1.230035555535038867e+02 1.953722285186921681e+02 -1.408841078334480699e+02 1.525182061615252849e+02 -6.485826228935022186e+01 -1.382588603076795835e+02 8.422622391129625896e+01 -1.371818624728045393e+02 -2.936836610223495470e+01 5.772466218949524830e+01 8.271534629916915904e+00 -1.719972941058971116e+02 8.617357091388993240e+01 2.579881494736410019e+01 7.069472329311140868e+01 3.711392568976960860e+01 9.694351063850573880e+00 -6.866868712177442546e+01 1.184118843499885401e+02 5.574445517408823036e+01 -6.356017436914822127e+01 -1.035769621712652366e+02 3.984839946360348506e+01 2.626232786364367300e+01 8.428539216537748757e+01 1.879728971716928072e+02 -2.520580946502401787e+01 -1.126839221900309269e+02 -8.669146338448416600e+01 -5.250362714960739652e+01 -4.540374356188434746e+01 -1.501134957551770412e+02 -2.301776428952861053e+01 1.324674732959096843e+02 7.625965707744927613e+01 -1.251846641429344231e+02 -1.532797987424713142e+02 -6.967264601731328355e+01 -7.812359011385352403e+01 1.501149043342290952e+02 -1.743648832524130512e+02 8.851500983983308402e+01 -4.713671984017029359e+00 -4.400662508856896693e+01 1.361132994282895758e+01 9.326542584110414680e+01 5.073421698963272775e+01 1.413670890993407738e+02 -1.627671916440968118e+02 -8.282148094320572795e+01 2.591444671042787817e+01 4.289398776913900946e+01 2.108551729585753094e+02 1.487661305143414836e+02 6.701536306295331258e+01 7.374898834377002288e+01 -3.499109923254967924e+01 1.552920749948268622e+02 -1.834056447858780245e+02 -6.483785540547579274e+01 -5.490888000258410528e+01 -5.297256763073770713e+01 -1.056390819447088347e+02 -1.532324231042469087e+01 -7.020432456989708214e+01 7.280222665253633352e+01 -9.371660290958143236e+00 -5.942546889932204834e+01 -6.372224268015256854e+01 1.842804130449266609e+02 6.032676617218130133e+01 -1.401109885587347748e+01 2.136065210570479280e+02 -1.107750688962152594e+02 -3.613741923431206970e+01 6.846979847025463073e+01 -1.320778799126339220e-01 1.527395507397722874e+01 -1.278760244354939886e+02 1.801503886003059449e+02 -5.009832449519666397e+01 -2.755387811184949243e+01 -1.121577609281285817e+02 1.286481793346356710e+02 9.801959473426627767e+01 -7.923903396753736672e+01 -3.838940067732782779e+01 3.979284406013196218e+01 -1.547170559797198734e+02 -1.463623034419281599e-01 -7.632845356434872031e+01 7.874069662178420081e+00 -1.104645298536688358e+02 -1.619545421072621139e+02 -7.219572646111215874e+01 1.513373173015507973e+02 5.779658478841326996e+01 -9.151647382154821742e+01 9.107417667920964277e+01 3.496639463277377757e+01 9.015197561291886075e+01 -4.299522689795644936e+01 -8.584964612177581955e+01 1.745631609442833394e+02 4.252428578254128411e+01 2.955132410758577066e+01 -7.450615636232542727e+01 -4.317178173455303636e+01 9.754353150715369125e+00 -7.302862413639322980e+00 -1.763055763730756382e+02 -3.529603046719057602e+01 6.570680025410977976e+01 1.138381776255513103e+02 1.587829476467131542e+02 -1.352796462630687913e+01 9.137098782250471629e+01 1.607753670427191537e+02 6.465026043278604106e+01 1.506236043505329860e+02 1.636874361521369536e+01 1.337808224155974415e+02 -8.551404097218971856e+01 5.435975093953523185e+01 2.988424974803713496e+01 7.725142287604623448e+01 -1.081186635834530563e+02 2.015444775468251919e+02 -1.310642234296752235e+02 8.983435451478378297e+01 -1.092982171793771045e+02 4.692733946460235472e+01 1.403168356125227767e+01 9.223586433181887401e+01 -7.490358662932270306e+01 -7.675635406744339662e+01 -1.135048355170359891e+01 9.053269196249573270e+01 -3.005876682667527078e+01 -1.657060116009154527e+01 -1.994127063786554999e+01 4.811148270211436540e+00 9.963941607045295257e+01 -6.351037166244925913e+01 -2.755982594347035519e+00 -1.964934061870571611e+02 1.235078102187107163e+02 -1.264135543858103716e+02 -7.479418881253157281e+01 -2.383509766094104165e+01 -1.092516506998937587e+02 -5.381417731926851644e+01 -5.928310218672547904e+01 -1.990757705327491323e+01 1.379289437797660014e+02 5.471752758545739681e+01 1.016552769324316046e+02 -1.377473356129395938e+02 -1.402637655297324670e+02 -2.900110194913279997e+02 1.033843077655028395e+02 1.055414222672103932e+02 4.278895982222313421e+01 -4.293331165879318689e+01 -3.767183186835725195e+01 -1.858694856150160319e+02 1.479183258749844185e+02 -1.087317880453179129e+02 1.082662243372500370e+02 -1.611737939947768439e+02 -1.448305362811163555e+01 -5.605469526215310339e+01 -1.207133215357632281e+02 -4.666287191842835824e+01 -1.264238220943657787e+01 -9.379825219226165700e+01 -1.047805219244611834e+02 -1.250687136801054677e+01 7.208608064908932533e+01 -1.261827842310213441e+02 -1.586484061807084167e+01 -7.467792787795218601e+01 -1.330600471029993628e+02 6.757566220402396517e+00 9.637877634222381573e+01 1.675999311224181270e+02 -1.931557128597720308e+01 -4.664428388371862866e+01 -1.257288888067380270e+02 -1.656763840034789439e+02 1.051063998078545865e+02 -7.368960119190495561e+01 8.004923550402979515e+01 9.527393682011018328e+00 2.963639230652200496e+01 7.482506850712894675e+01 -8.584848334844294016e+01 8.376261930567673630e+01 1.168083983915146007e+02 1.595275861862942293e+02 -1.181510403781062877e+02 1.053376827093499912e+02 -4.840487221845172172e+01 -9.201832711135735110e+01 2.174548763345848670e+02 4.992226904831633760e+01 8.459509742339260185e+01 2.157701773067567075e+01 -6.403702576022396897e+01 -3.541019172259583314e+01 -2.132193629301883391e+02 1.070590648182577382e+02 8.261251591076813838e+01 -7.672642647301380237e+01 -7.414768461983156556e+01 1.471652637622698023e+02 1.024362315587700181e+02 5.180633847809038173e+01 7.711788924666693390e+01 -8.007106591600157586e+00 1.045988722036888703e+02 -1.049394383473019445e+02 1.889418342344454516e+02 -4.001925739538884841e+01 -1.236465057234315168e+02 -3.817562641157151404e+01 7.272204018011271387e+01 1.493495861705788741e+02 1.310159193151345747e+01 1.761903600135267993e+02 5.291904345916205443e+01 3.407223961000468648e+01 -1.128390603412648829e+02 4.542644925170392867e+01 -1.267471479383508495e+02 4.834197146359425545e+01 3.917156941096777700e+01 -1.250231825319907415e+02 -8.619636309745128244e+01 4.037756481315548029e+01 8.845362473355862676e+00 -2.355516267579414347e+01 4.242432324393163867e+01 -2.169094201189923155e+01 -6.395506989086647565e+01 -2.650029115329189011e+01 -2.276580568869508880e+01 -4.037465681589962685e+01 1.903702757372888854e+01 -8.159125973499560303e+01 1.205790089336614983e+02 -7.534745193116107487e+01 -4.348148043177427979e+00 6.641313123226512971e+01 3.953513798984036320e+00 1.616092094700716331e+01 1.617445942680468463e+01 -1.187389315982066194e+02 -4.479878284549537959e+00 6.594181843277785049e+01 -2.345979606657113266e+02 -8.600710849770786126e+01 -1.142643892733185993e+02 4.438575562871762514e+01 9.753473522375213633e+01 -9.299561041665904781e+01 -1.701727072970589631e+02 -1.876548461391928697e+02 2.024512616812038246e+01 -1.468957681056594708e+02 -6.402700459886808915e+00 1.495299026732934635e+02 -7.203489612160569600e+00 3.761603897560556220e+01 -1.001260418113060666e+02 8.076781430386128591e+01 -1.198694575270368006e+02 -1.557218392886378844e+01 -3.063229082586168772e+01 5.815528989871845766e+01 -8.971410784917861037e+00 1.066979800169646069e+02 -1.231875022949739531e+02 -5.053296923355797077e+01 8.730031558117211432e+01 6.670902045941134872e+01 -8.303523840061178873e+01 -5.483020912063300045e+01 -4.973611730151998245e+01 -2.915236510594857577e+02 1.949239934607778935e+02 7.664773130044522986e+01 -2.376397019418529055e+01 -2.985868789758773900e+01 4.179589327336947946e+01 -8.468460866209946403e+01 1.001379266559126648e+02 6.079792184621832263e+01 8.247823450917657340e+01 -8.455004585784736548e+01 -2.671187025234066681e+01 3.352272795286640417e+01 1.746872231994718661e+01 -4.302129956077603623e+01 1.586473751906374616e+02 -1.737469144481713812e+01 3.554314204125934396e+01 -2.308186013254685918e+02 -8.505342490516201792e+01 -7.347294173342223189e+01 2.311162387625496351e+01 1.096290714345258550e+02 -2.325901307857499205e+02 -1.877686374669331144e+02 2.225381149654642456e+02 -1.061101162602169623e+01 9.644625184896263193e+01 6.296440545298648317e+01 -5.558457768981107705e+01 -1.315058867219535443e+02 -9.552689921697609066e+01 -5.045635894596595961e+01 -3.758314722759779158e+01 -3.930489179151480528e+01 1.623612060621657349e+01 3.728299860254370657e+01 1.674473047790414455e+02 1.236640808491959405e+02 6.954762174370920036e+00 -4.401184607623609857e+00 -1.594016982068425250e+02 1.201034099210381783e+02 1.599290549459159934e+02 -1.038052656916867136e+02 7.401194164851006008e+01 1.779765023080620345e+00 5.509845118201727843e+01 1.259165465072019572e+02 7.121198330856574898e+01 -1.345353406189101406e+02 1.621091028205368545e+01 -2.949922732721707064e+01 1.118314746586171182e+01 -2.326219008335648653e+01 4.553938315490690769e+01 -2.616128668689788128e+02 1.819830023978700524e+02 7.347461437222682967e+00 1.601537754231113126e+02 -1.061230879970713659e+01 1.067043793835518386e+02 7.199127546145929557e+01 -4.222574299533463460e+01 3.005374528942398982e+01 -7.318529680887253619e+01 -8.946346569071315002e+01 -7.249207559145317248e+01 -3.223604851267165827e+01 4.545450213378082083e+01 1.108507576381355477e+02 2.867706088152511867e+01 6.249046818644131207e+01 -1.054959266061855061e+02 -1.380409091194118218e+02 -1.357430253243947327e+01 4.671950255244951933e+01 -4.583023977333595411e+01 9.519284570657332267e+01 5.590595036360820558e+01 -2.784870318970600778e+01 3.016667735226564062e+01 6.181131190688637389e+01 -7.264391388551041473e+01 -1.347094190201752326e+02 1.431496481577710824e+02 7.875063431431017058e+00 5.053304717610187424e+01 -1.504703416459117875e+02 -5.383606570769322985e+01 -4.684835714812182195e-01 -6.626787284763548769e+01 4.309137398414382147e+00 5.676621769430060027e+01 1.880686089616822301e+02 3.947301654109212166e+01 -1.106322032100556285e+01 7.285902103099459737e+01 -4.590873815008993830e+01 -1.100073139211359461e+02 -1.395246930301132693e+02 9.465984640573662290e+00 2.536109523135760568e+01 2.403152486685303657e+01 -5.745657806066230222e+01 1.220784617490990627e+02 -8.168674694711742745e+01 1.296911262944859118e+02 8.823942393496264458e+01 -6.575241703490996770e+01 -8.562169469830220692e+01 8.513299968776695437e+01 2.071325272585538002e+01 -5.308580903369323067e+01 -5.446999358563235916e+01 1.382677453947443951e+02 5.797617130715939027e+01 8.083118990520104319e+01 2.646058174749965985e+01 -4.259560552593679006e+01 1.087903807495469266e+02 -5.524223486353974977e+01 5.410172509836191912e-01 7.754472285433098477e+01 1.008582571046366922e+02 2.587715177771960384e+02 -1.774370508704083989e+02 1.630750873938737584e+02 -6.850488564435323724e+01 -1.542987540571651905e+01 -2.539480707305357399e+01 -2.102006799395256920e+01 -5.595088816962184808e+01 9.425307498204752221e+01 1.867409487918033335e+02 -1.205549375652478687e+02 3.139517322242805619e+01 -1.288409198807040070e+02 7.128122800057298036e+01 -4.520387863786206140e+01 -8.228652833699301539e+01 -5.476436333803787448e+01 4.186098993541580882e+01 1.972084181512451906e+01 -8.320634082942376608e+01 -1.435401218121903923e+02 2.114349975224239842e+01 1.604703339744664561e+02 1.454816518168937556e+01 1.858825407840343473e+02 7.606856618387912938e+00 1.371889106043198865e+02 -3.526943521795615766e+01 9.248742092621121458e+01 -7.286193129330460749e+01 -1.151764093963366946e+02 5.043981353964805692e+01 -5.921360294145059555e+01 -8.015189871260353982e+01 7.444402692257366994e+01 6.577917575682090678e+00 -9.633301037829023983e+01 -1.538244806075514362e+02 1.511580054650604836e+02 -9.116387699100336306e+01 -2.392103092451594470e+00 1.228120734596250969e+02 5.937344058000105917e+01 -1.004772970752711245e+02 1.086654617958843438e+01 2.887074191343891130e+02 5.460091302883004971e+01 -1.615462350670424883e+02 -4.887278900382386126e+01 -6.304331719080424534e+01 9.872692811218882980e+00 1.102405924019537764e+02 -1.060643903803790380e+02 2.210519885666796824e+01 1.338176463122438804e+02 1.925901205475749478e+01 -2.166883471289766874e+02 4.960032620849539597e+01 7.743553186900375351e+01 -1.392573825883360961e+01 3.365821312910645702e+01 1.363459599944663592e-01 2.307949665052068511e+01 2.846088200151168479e+01 1.188429627483107396e+02 1.005781927856330782e+02 1.594458845031943994e+01 1.529340154985828519e+02 -6.570071892904482525e+01 2.531237482261762750e+02 6.673418581088826329e+01 1.454184602675942983e+02 -2.255521684605366772e+01 9.243985666819354208e+01 -5.034430134792012979e+01 -1.502543668274853417e+02 2.689069338861368053e+01 9.761520022643863115e+01 -8.995054000725994570e+01 -1.075301397529911469e+02 -6.831285744785466818e+01 3.756545236743792771e+01 -1.172942134089592372e+02 7.673319157217115105e+01 2.883022700668596272e+01 -1.002292677337429581e+02 1.950441057340374584e+02 -1.207971277499313345e+01 -1.044760611986504415e+02 -1.373520012758378606e+01 -2.098421484139747761e+01 -1.440071750080652180e+02 -4.111686710971945047e+01 6.315673554535105438e+01 1.353184516036192235e+02 2.979638941460240886e+01 2.749163350935777217e+01 4.599767235515120234e+01 -3.672731747578849593e+01 -1.495151794389197164e+02 1.627452336220074258e+01 3.183692324572430010e+01 1.366854906442703452e+02 -1.021444698333540835e+01 -7.820402909649190804e+01 7.519125828771187514e+01 1.027504371259455818e+00 3.281232214146561432e+01 1.430677735019088175e+02 -1.823656936144523684e+02 -9.536791210473097635e+01 1.281126470902209178e+02 -2.153250624078290798e+02 -1.835562434053631478e+02 9.080797768883594756e+01 1.536987774718719493e+02 6.325455660948401970e+01 -4.436422200948574535e+00 1.554817739232444467e+02 -2.190562622935925106e+02 1.069500013237266387e+02 4.229987589732103714e+01 1.268338642803078073e+02 -1.882288742438473719e+02 1.063754740081230068e+02 -2.823536411396981904e+01 -1.334435059945442106e+02 -5.316738158816196602e+00 -9.223151164861323537e+01 -1.629193332685079909e+01 -4.268573487625066498e+00 -1.229538197565065047e+02 -1.230804778937162638e+02 -6.245709277291150840e+01 -1.286815664513942750e+02 2.006129976786774307e+02 -1.607037324560738512e+02 -5.006912966267837817e+01 1.722031851150579485e+02 3.385894016977481868e+01 -2.954106010760701793e+02 -1.268302493463569931e+02 3.545808266996907321e+01 5.453798977961762517e+01 8.593439804985219865e+00 -1.543365822732683910e+02 3.561885403031759267e+01 7.448055683067906330e+00 -7.418336869414233092e+01 2.023128407084482490e+02 2.022092609677303017e+02 4.320186809178467868e+00 -2.081200548447577887e+02 1.257484118089153640e+02 3.071500881814206707e+01 3.739176156473897450e+00 7.648663078884800370e+01 -2.070594150803971445e+02 -1.377716643779539822e+02 1.407733656466996024e+02 1.094260530385671046e+02 5.283335486339202447e+01 1.429554532515888638e+02 -1.779138410378083961e+02 -2.038949904331799701e+01 -1.301820435590181546e+02 4.349307295662681838e+01 -1.036586359229712144e+02 8.687121270562667519e+01 -3.380462752353729883e+01 1.235746808032057409e+01 1.770756534424621407e+02 2.843116996306717681e+01 -2.630470352203641937e+02 -1.261028582032628407e+02 -8.319101282824283317e+01 1.577907906581373254e+02 1.250916506377742543e+01 -5.369910778240549121e+01 3.033007656502096694e+01 6.239890026667922740e+01 -3.950837667000972431e+01 1.073006109778693116e+02 -1.005338414645069349e+02 4.911467758448013399e+01 1.117030845735123137e+02 -3.536490435100147778e+01 -9.792731484723813651e+01 -1.131827687697289377e+02 1.195187399828518835e+02 -4.955670541911068483e+01 1.961581118539917554e+02 5.709002940097390422e+01 1.107358709336228912e+02 1.840310572961941205e+02 8.545062574530506438e+00 -1.240229078719454634e+02 -1.654393936496929314e+02 -1.139652963509157217e+02 4.238326646248524554e+01
-1.328245280705075615e+01 -4.689704198204817764e+00 1.009612136877132684e+02 -2.232515177135008742e+02 1.515032975192470417e+02 6.192715231631357398e+01 1.483039587552789840e+02 -1.259001873428343998e+02 -2.715275813106896585e+00 -2.347097198348332014e+01 -2.139475416974993323e+02 3.191541827455254676e+01 -1.786440245647570180e+01 1.192103260047153981e+02 -1.219005879531768244e+02 6.015214718393349358e+01 1.221460828147121589e+02 -4.478272546958580591e+01 -4.841377510806491102e+01 -2.637232068432513188e+01 6.014259219533003176e+01 6.152528745412433153e+01 3.159547093499555359e+01 -2.266589749798030198e+02 -5.032440525370669349e+01 8.918000676335205412e+01 9.652346621318697473e+00 -1.008837579228855041e+01 -6.485434260442981724e+01 -1.506459530854476903e+01 7.148375867092403269e+01 -1.417290007335306541e+02 -6.033741186119858213e+01 8.768023239790027290e+00 2.022547076283547653e+02 2.066712673942152776e+02 -3.125627516853350940e+01 5.447144705466440939e+01 -2.696395004849026500e-01 -1.361267011876965114e+02 9.355323056448185071e+01 1.045261638440657492e+02 1.057706406961007986e+02 1.139747106663895515e+01 6.032988949438816917e+01 4.690591799477546431e+01 3.790089560692819504e+01 2.858075845957838723e+01 1.074928058689984027e+02 8.744798287027194306e+01 6.394176746802211397e+01 1.588432826308995516e+02 2.413887960027932138e+02 1.906097742809360795e+02 -5.762855056026388922e+01 4.801602563979978555e+01 -6.266318685563143731e+01 5.498806130773912315e+01 -1.872719569968391795e+02 5.506784323719535479e+01 -1.995823694441620546e+02 -1.644304375926701027e+02 1.261408426369168900e+01 -9.003281099760062745e+00 1.652413156067867703e+02 -2.026590855268227074e+02 7.337682559318761832e+01 2.239851479284581899e+02 -7.143537551857941814e+00 -1.897818298047359917e+02 3.468692714636043206e+01 1.922324017010926127e+02 -5.955629717993141270e+01 -2.597509778004731515e+02 -9.997585805660980895e+01 8.613779357058451325e+00 -2.242969785781315579e+02 3.121686556507743759e+01 -1.749599571783672616e+02 -1.809531586141534945e+02 -5.568305845553489775e+01 1.486961306109461702e+02 6.778761551345377256e+01 1.034274438772676419e+01 -8.644464804458334584e+01 -4.156179806076000460e+01 6.219613261661816495e+01 -2.264359352196690622e+02 5.279340136464977462e+01 -7.319734290420898049e+01 -7.621820179744626955e+01 -1.725414071046006939e+02 6.352386926553709401e+01 9.053344120695966524e+01 -1.584499398594309127e+02 1.686435439771258302e+02 -3.895186365497391989e+01 -1.651470430694164904e+01 8.549031979725504016e+01 1.526117246745764646e+02 2.117455433307853241e+01 1.478737924851191110e+02 -1.803213766767338555e+01 -8.857598630235986548e+01 -1.915869998184074774e+01 9.871682590099327115e+01 4.515250451471015936e+01 9.822069859930516600e+01 9.478286033743152927e+01 -8.338854264105636105e+01 -1.706059285137754387e+02 1.235618421828580864e+02 5.447934138800579973e+01 1.623148706845584499e+01 3.070759567109195487e+01 -6.821200972849128163e+01 9.644735924239681424e+01 9.022308389996004507e+01 -1.373307360356048612e+01 -7.155345004364505712e+01 3.090365434242054121e+01 6.302035358207802140e+00 -6.181356806393127101e+01 1.703225603950435243e+02 -3.312319015835004876e+01 1.221834444540418758e+02 -7.045183463820549719e+01 3.857353522291482051e+01 -3.629370997946932675e+01 8.991102701601867864e+01 2.360613707264787564e+01 1.161735484499285178e+02 -1.166031575401279952e+02 7.474012789000050816e+01 1.241582917676164328e+02 -4.496248038289596138e+01 7.628916700135150109e+00 -1.274099271881722473e+01 1.174392904181321171e+02 3.567123604614537591e+00 1.696678161208649271e+02 -1.422563229253794646e+02 1.173903182530032154e+02 -9.190557759779760261e+01 9.635535928477558798e+01 -1.379245408661680869e+02 2.971198034584148573e+01 2.490230489866600649e+01 1.829731604217272656e+00 3.655612846906711155e+01 4.621798547150672221e+01 -1.251506228552923616e+01 1.087825172391772277e+01 1.088439394748754552e+02 1.281637889381026127e+02 -8.729173875701515328e+01 -5.461331771399424184e+01 4.771310901479659350e+01 1.552704695540360946e+00 -1.379722826855884534e+02 -5.550298132170983934e+01 -3.573110801810672399e+01 4.929762893739498963e+01 -6.607405022562207364e+01 2.311324653365384307e+01 1.616588998218244910e+02 -8.012274899619298196e+01 8.146153968580573235e+01 8.480454853992735309e+01 1.132352016910811443e+01 1.245129804188509155e+02 6.344523571178306298e+01 1.695698395042052766e+02 -3.486755332229620308e+01 1.135230028527446393e+02 5.607278414226797736e+01 -1.623403613097819687e+01 2.061415054768919788e+02 -1.402045545607549002e+02 4.937932050616216628e+01 -1.895245103656504853e+02 -8.507463614119829742e+01 4.146392965308076839e+01 -7.299357300499048051e+01 -1.575688931845535876e+02 2.015574115311760011e+02 -8.675495872794060404e+01 -4.803508719944644412e+01 -4.681664938173118173e+01 1.231640422317515515e+02 1.970659939462762225e+02 6.551938623041345977e+01 1.479846195708345249e+02 2.220672919151829205e+02 -1.646512351652955175e+00 1.648677557847497326e+02 7.174363203133864886e+01 1.926912559355885719e+02 -1.272941583184870922e+02 -1.201564580185278963e+01 6.412636523773054265e+00 1.922557313207676373e+02 -9.200309699058789192e+01 -6.119770961329597725e+01 -5.359425953309693824e+01 -1.355782812962174546e+02 4.719550020763188414e+00 -1.021642604337731797e+02 1.559713323814521573e+02 2.385800464681429389e+01 1.215767553412930546e+01 7.318749370985879921e+01 -4.998894058391131878e+00 1.183680708452579324e+02 -1.607737561390066219e+02 4.595439620481783294e+01 -1.729319289176573307e+02 1.188522778800035695e+02 9.718684002588274495e+01 -6.813647371147519038e+01 4.733031745655984679e+01 2.410324689699625367e+02 -3.082372469263839676e+01 4.216727956960408363e+01 -3.306900708237744624e+01 5.864036287580828599e+01 6.507069142468091627e+01 -6.346807521159606225e+00 1.031638936434093523e+02 1.027461796348534762e+02 -1.962168979762432457e+02 -1.550909548046948885e+02 -1.212532969165812347e+02 -9.568949373133722958e+00 -1.515952676687836913e+02 1.169318449672712035e+02 1.116787419794565324e+02 5.967488654177648044e+01 1.129367298463518843e+01 1.595680962245299668e+02 8.496095813228420468e+01 6.829478562443235035e+01 -1.028474928873176992e+02 1.541394807050629083e+02 -3.616714654033467369e+00 1.106114399494579885e+02 8.918760656402184850e+00 3.717591279176458841e+01 -7.659273542177609784e+01 -9.180958808846672525e+01 7.240901777293359487e+01 -3.875654091061349060e+00 1.479311368782537954e+02 -1.271943553357631096e+01 -2.890393640187588709e+00 4.637032198704377350e+01 2.289731804093926115e+01 1.429847538293688558e+02 1.479156113466173927e+01 3.623119340555926726e+01 -1.563865309378485335e+02 6.655865718256460184e+01 1.350817878811720902e+02 -1.786235165045840390e+01 -2.303604009825761239e+02 8.525832549518938208e+01 1.374075232326005676e+02 2.049056383932895642e+01 1.905470228859880137e+02 -4.184260286885177038e+00 4.322295163610424140e+01 -4.389559319944233096e+01 -1.395970767046420065e+02 5.634713786362419086e+01 -4.775765912447283768e+01 -8.153623584851727912e+01 4.144365273055370125e+01 -1.857902570796804866e+02 7.209724237501067989e+01 1.651918459911434525e+02 -1.017109805181562905e+02 1.737502865860176655e+02 -9.809527231577045825e+01 -6.011546474091181480e+00 -1.056013301602428101e+01 7.690210333566064094e+01 -4.674721887204270843e+01 -1.081920638624428932e+02 -8.883056449593460968e+01 1.462217559491594159e+02 5.927403032848852860e+01 -1.320872976546097846e+02 4.453440556792584104e+00 4.354255494557688877e+01 8.275067773831801787e+01 -4.041824601513971515e+01 6.010755146461313103e+01 -6.909847833833846664e+01 -1.626505909639051310e+02 -3.469304878918278234e+01 1.411995179075845499e+02 -1.135297920938715635e+02 -6.429948384746997370e+00 -1.631316468297228823e+02 -4.780258956802492243e+00 -1.460381814429976828e+02 3.292858469079650519e+01 6.020247167583504933e+01 -5.037230405156164892e+01 -8.245545907507953132e+01 5.633993641037634781e+00 7.442935573114274916e+01 -6.779743592529129614e+01 1.347441973942140123e+02 1.055221645844109872e+02 -1.276478593895724174e+02 -1.054406342005051584e+02 1.350500892336768288e+02 7.131662483337231606e+01 1.501150570360740630e+02 1.001460808177903630e+02 8.110741203771573282e+01 -6.020454181603322041e+01 -8.168580239817978850e+01 -7.697532879795916472e+01 2.042059852070071031e+02 3.048329956217616044e+01 -2.485407110282194765e+01 -6.840573317488902205e+01 -4.991169833689973245e+01 -1.309031025017479806e+02 -1.646007393482847547e+01 -1.744038688836258757e+02 1.242934634270242498e+02 4.574481156358038447e+01 -1.145518050706899515e+02 -4.809355178570309874e+01 1.190258232314256190e+02 -9.639138227778275336e+01 1.021976718046541777e+02 -1.177274625475259597e+02 -1.169330105654252527e+01 -9.491297043675635337e+01 8.915235823218550593e+01 -4.221687694319020778e+01 1.026453100325944767e+01 2.914143614517802661e+01 -1.258502570507045135e+02 1.242230380511369248e+01 4.802044279240451630e+01 -2.226120639529341005e+01 -6.829709911260226818e+01 2.011768558938950093e+02 8.587485195674830152e+01 4.682017949037289384e+01 -3.120998707158618757e+01 7.969978128939938244e+01 1.664666194902245024e+02 -9.166076036083802592e+01 2.080286734182626844e+02 -1.321923176866315828e+02 -1.826739450706963623e+02 1.508124217266834535e+02 -2.323446115155153677e+02 -9.871463627646666072e-01 -2.432325164622721161e+02 -1.518668931097060977e+02 7.125949842090028596e+01 -1.446313311920187914e+02 5.797915058454948678e+01 1.091302127819416938e+02 -1.592658843580534267e+02 -2.992812472405017488e+01 7.487789064977610565e+01 1.329984729182192496e+02 -1.847909267260310173e+02 8.685208182304056379e+01 -9.727082841674727831e+01 -9.806628083268297047e+00 -1.379056683419284468e+01 -7.902832384666841392e+01 -8.968492257018500879e+01 1.801014306823541062e+02 -2.152487742211388522e+01 1.322830110426672423e+00 1.293318288589237852e+02 -8.609537410370695909e+01 -3.419587753494964488e+01 -1.069513667986355188e+02 -4.853019156851009797e+01 5.148924495914354971e+00 5.902777885505730637e+01 -1.343423080936903489e+02 2.359998130045605080e+02 -5.366143999048802016e+01 1.221656745476633006e+02 -4.863906199844917921e+01 1.193654480937907749e+02 1.386145813746406361e+02 4.784868482543510737e+01 1.217317587393798419e+02 -4.309814073971411830e+01 1.395710631559859678e+02 -1.560196202991687073e+02 -6.522128581780212642e+01 -6.281309732560008285e+01 2.546810522174651581e+01 -1.619156039482421079e+02 7.238262537985814049e+01 -3.076565160975239621e+01 -8.245380436925618994e+01 8.940719591280368661e+01 -1.507650678475050370e+02 -9.101090329409618107e+01 -5.248752678673409378e+01 3.301121069381267858e+01 1.295422724933408176e+02 1.166199114853519632e+02 6.898240724690570858e+01 -1.604809726667109082e+00 1.744791806417133557e+02 1.222594982148991534e+02 -9.422833662742051786e+01 -7.798668427383832125e+01 5.528596576457722733e+01 9.963993390874042788e+00 9.775906590889002246e+01 1.662923000983770692e+02 7.042159388885764315e+01 2.433213749715915952e+01 -1.019507891790484564e+02 1.713981139981086983e+02 -1.134032430040865904e+02 -1.648644083439986616e+02 6.554801490227383454e+01 1.111846333422873414e+02 1.957546951422622783e+01 -1.384545370224635406e+02 2.965094787340019167e+01 4.230347164864280529e+01 -3.154966483477765204e-01 1.305111650555759866e+02 9.728240644774548684e+01 1.704983714582643728e+01 7.808250334587361863e+01 -1.066569780094055915e+02 -6.287268092663047092e+00 9.797917994765550986e+01 2.957641051319853887e+01 -6.479667931640155132e+01 1.972866350497925794e+02 2.302192515403860966e+02 -1.250359197823959931e+02 -2.749592589437492407e+01 -2.093646907540005202e+02 -7.188535718680059006e+01 1.559651252483778876e+02 3.393069135636605171e+00 -7.068180808308738960e+01 1.630898846564155917e+02 -6.224189535838657150e+01 -1.598835494763416989e+02 1.359341757493731677e+02 -6.691375579336386181e+01 3.429689138304554064e+01 8.595408786631807629e+01 1.371314580605627498e+01 -2.370776231050593879e+02 4.208240063500655026e+01 -6.100898082182599325e+00 8.963640826160460051e+01 -2.344458229199786103e+01 1.006577454582106697e+02 1.688134095503605181e+01 -8.433417176484586264e+01 -2.037192201514531220e+01 -1.743316787478614742e+02 1.144078993569698781e+02 2.514073840107920788e+01 -4.141679278146654752e+01 -5.154761081098986608e+01 -6.254827743618631075e+01 4.088946622510422202e+01 1.598596730305538642e+02 1.320182401547703250e+02 4.284857366977254856e+01 -1.968366465042486482e+02 -3.859204913338248844e+01 4.358403558465354877e+01 1.167370421264272693e+02 8.677808713757292480e+01 1.537569945487980050e+01 -1.850779883054516972e+02 1.310378305335009088e+02 -2.226025984603965355e+02 -2.047472364476929840e+02 -1.839086539364989115e+00 -7.339590792906888339e+01 -2.395535453781128510e+01 8.668170545930404103e+01 5.563396906812070597e+01 -1.106388150810521296e+02 -1.506645544599054176e+02 1.452024521133874480e+01 1.230542800066629070e+02 2.060000433032090683e+01 -5.641798697574095200e+01 -5.134749751473464130e+01 -1.171806795074006757e+01 1.605429127099280606e+02 2.226117733718127312e+01 -1.758688446940441565e+02 1.299139154347622025e+02 -6.764622153983265207e+01 -4.229615078935435868e+00 1.559595082060373556e+02 -5.297763928003836753e+01 -1.983091348263497622e+01 -1.112533142742151995e+02 -6.086629698997539251e+00 -2.416470187463353980e+01 1.333988929377490820e+02 1.216326006067337744e+02 6.844563715428238027e+01 6.624841681176825148e+01 -1.895286628760828052e+01 1.369544854327867256e+02 -1.141886608630962456e+02 -4.318706896070464651e+00 -9.221813474629772145e+01 1.591562917188810502e+02 7.387920699035626626e+01 5.236015087292912540e+01 8.386669708726213202e+00 -5.395761296119474792e+01 3.482304198779653603e+01 6.839942886077208684e+00 3.641713048434574329e+00 2.442678661551765984e+01 6.053718661147028257e+01 1.724168089211289328e+02 -3.931707481020718120e+01 -5.265096503600867095e+01 6.762986051679602895e+01 1.171390390878061822e+02 -1.297012384307090649e+01 9.308161112439179874e+01 1.053371348854861509e+02 2.134019656332000636e+02 -8.763716095253025173e+01 -1.242362409959488758e+02 -2.899451295183924415e+01 6.291410214740249529e+01 -1.027309700281432825e+01 1.087535433193781245e+02 3.769340574149696010e+01 -1.646384000032824417e+02 4.561628754052785695e+01 -9.055640243944866086e+01 -1.369506381658946168e+02 1.361323623998934806e+02 -7.693622831770167636e+01 5.984890196535355500e+01 1.125348468463971159e+02 -1.002101011734533671e+02 2.374664534756379197e+01 -7.299195134742203095e+01 4.072432004375183823e+01 -1.158976826258747934e+02 6.226849117089133046e+01 5.528247805463897180e+01 3.971556499208338309e+00 8.501167397856187335e+01 -1.546343539117161470e+02 7.722178639540227607e+01 -2.956469606511115344e+01 -1.695717514139622040e+02 9.482438441665244966e+01 2.460875638242906760e+01 -1.969009275767012355e+02 2.361168471486921305e+02 -5.320453168871709382e-01 1.055653366701879747e+02 -1.210507059379029329e+02 -1.949260200301881980e+02 -9.366313400781810117e+01 2.482203027443009358e+00 1.434392411868344652e+02 4.028349902326859855e+00 -9.592227516102194329e+01 5.060173880014060899e+01 1.375562711397378166e+02 6.523193562932426914e+01 -5.194242873320349219e+01 -5.935898141442298481e+01 8.482349469389123442e+01 3.087111584209161208e+01 -1.962694802164588452e+02 -2.081134523727697072e+01 1.696686842517316052e+02 9.920679217144085271e+01 -5.753143326758721798e+01 -1.122207280859004470e+02 -4.284160305255680612e+01 -4.825948126063941857e+01 -1.148787414522657713e+02 -1.855957766608760551e+01 -4.583419399528069960e+01 -1.140376211128407675e+02 -1.323666569016577341e+02 -2.702344850449527414e+01 -1.261261410777060377e+02 -1.342723186161652222e+02 -3.847406666638038786e+01 -5.556241329812859675e+01 -1.114065931056904475e+02 1.936003469223252011e+02 1.095348792140719318e+01 -2.926210833622243968e+01 -1.769220769963586548e+01 8.181556210140536223e+01 1.626174954712900345e+01 2.605063114800202939e+01 -2.214828436880166862e+01 -4.807323023598463863e+01 2.175930839593533150e+01 -1.511781471817617728e+02 -1.655731184615786731e+02 -9.406279793235418651e+01 -1.984844902326850331e+02 -9.321501282684958767e+01 8.924882519117466018e+01 6.383812213922255552e+01 -2.710877999089844437e+01 6.320335709912993138e+01 -1.628162098968452085e+02 -4.244336786084862467e+01 -1.207731061405816888e+02 -6.942721938337741960e+01 2.193720441827949230e+02 -2.135057188896150535e+02 2.134869247184941798e+02 2.600419481721425186e+01 -5.874260276571885697e+01 9.595368182172101967e+01 1.290540158951841931e+02 -5.396974176423901781e+01 -2.118782256169497202e+02 -1.550707435665216849e+02 1.063595880541770526e+02 8.711742946456978132e+01 -1.410204040954111804e+02 3.324391885754751996e+01 -4.124765371210981613e+01 -8.049985342180941927e+01 -2.956189047026361294e+01 -5.702883446541505919e+01 -8.990889853917754238e+01 -3.539395112217757600e+01 4.646937501905510359e+00 -3.402862273310060459e+01 -4.176368775713560355e-01 -1.494427469595303748e+01 9.567340755801841112e+01 1.321656172178186353e+02 1.369879685887569565e+01 1.745848692826304216e+01 -6.562763329558875114e+01 -2.038652587047049565e+02 3.521148360132789890e+01 -9.541545441595268073e+01 2.686028871005935059e+01 -8.522410011539953700e+00 1.049521605081547460e+00 7.514483691959850375e+01 1.267584946983231475e+02 -7.327886930239226615e+01 3.952097405987306189e+01 -2.005504272880997689e+02 1.005226667038966859e+01 7.294270478447343997e+00 -1.274534554837069038e+02 -3.508229336698406087e+01 -4.610246366555394815e+01 4.965426171340304506e+00 -1.063510397381818962e+02 2.814114299216395310e+01 -1.015654061642625976e+02 5.837950970863953160e+01 7.055739672752383740e+01 3.835263104055214001e+01 -3.018084393972099733e+01 1.117406931136480921e+02 6.350223600580950034e+01 8.318446232863429657e+01 -6.965731836856447501e+01 2.111636098729699995e+01 1.329789380523894806e+02 -6.078696760787671138e+01 -7.185726801198295988e+00 3.326039265938653955e+01 -1.334721589358918834e+02 1.016872175349102747e+02 9.310363178720727717e+01 -1.051017808133119473e+02 -8.558886772925859532e+01 -5.769294030853215105e+01 -4.732466943352847721e+01 -1.665448215201385551e+02 -1.412315009526597009e+02 -1.376226921474181495e+02 1.097635751872258680e+02 6.207898488226369693e+01 1.656761124922895192e+02 7.470896248412553398e+00 -8.905620063786344076e+01 1.944361348758533481e+01 1.436392999918995983e+01 -6.592447902545498550e+01 7.687197639391310133e+01 1.225523570761320542e+02 1.037984630715864576e+01 1.488558868244986684e+02 2.336795277662158909e+01 1.151506458503815082e+02 1.567198080849046526e+01 -2.155864891468607141e+02 2.265655097782400844e+02 -5.076922185668375676e+01 -1.547069890177594687e+02 -6.969517051639832061e+01 -4.453420152222187767e+01 4.268559496328924041e+01 2.640742073082769892e+01 4.718588806216261844e+01 -7.645840130040505755e+01 1.261964643212035924e+02 -8.893310444223367028e+01 -7.225596597824983647e+00 1.468199970408882677e+02 1.129538924812260490e+02 5.972787917779097455e+01 -1.822740363145129834e+02 2.618069156493571725e+01 1.445074987535010678e+02 2.411405236090013560e+01 1.003574087852457524e+02 1.094142533338386158e+02 -2.172199335064919126e+02 7.902041358195171483e+01 -5.931241170006560992e+01 -2.308861761475150161e+02 9.079807898812913436e+01 2.520091369526757319e+01 -1.245647178540037601e+02 -5.970005070972452188e+01 1.413238787147246569e+02 1.499753936570891710e+02 -7.697030407093768645e+01 -1.296074830673997553e+02 -8.453700657122371354e+01 -1.678737842950981189e+02 1.977750468379487003e+01 3.830462360678248501e+01 -1.709287719121427784e+01 -1.247802152653750696e+01 -9.015187521920039160e+01 -8.895675400767272833e+01 -2.478140419510958736e+01 1.342732202872214202e+02 1.364917502600615080e+02 8.120721912575821477e+01 9.708744202492192699e+01 -7.854174196324095192e+01 -1.802239768109693330e+02 -1.320748314828403025e+01 -2.310275922213700284e+01 -7.073131314951316995e+01 1.495293707892092261e+00 7.278774890848995938e+01 -5.271940462119476933e+01 2.453127432221744542e+01 7.886234261359876996e+01 6.981526492894636249e+01 1.100765662619727294e+02 -1.485899586002110766e+02 3.948457689231231171e+01 8.297756868037639322e+01 9.437873240442948486e+01 5.883904334418551230e+01 -1.028255572964481388e+02 1.363898280002380830e+02 1.269425775347516208e+02 9.544752264560554522e+01 1.011212146114872326e+02 -8.389045103419508109e+01 -1.481582057913077577e+01 -1.287014153656305737e+01 7.675553700752485042e+01 6.470538554840700840e+01 5.573299607294589464e+01 9.719744589707282501e+01 1.160016468516778190e+02 1.233653052600907216e+02 -6.465883832555185506e+01 8.026832131178397844e+01 6.498891614747547862e+01 -1.171852363726002011e+02 1.310758308790353794e+02 -1.000245766199042308e+01 -2.780794349913146135e+01 1.985188911521260025e+02 8.814105235928700210e+01 1.236564961056037788e+02 -1.438427058944629664e+02 -1.572716210736076903e+02 -1.532905071325362769e+02 -1.218229762072820392e+02 -4.416310314362346645e+01 1.095466909794812693e+02 -1.682569763355674581e+02 3.246586581493529877e+01 1.440747802651866323e+02 -5.923630820945116682e+01 -9.121261744169346741e+01 -3.506114357440741003e+01 1.357314318622159988e+02 2.270865819732897819e+02 -6.658062230820907246e+01 1.979968999722112244e+01 -2.768810015845153316e+01 6.846338707059604189e+01 6.025243090862199580e+01 -2.132129488438200724e+02 -8.866676873822825655e+01 1.375997076940275576e+02 1.398470297535966722e+02 9.457914325286812129e+01 -4.982791861803757172e+01 -7.586411060860309874e+01 -4.545229971296296867e+01 -1.766770767645407716e+02 7.123544369052964953e+01 -2.570324198487097078e+01 1.665831463924163529e+02 -2.795862662544417532e+01 -3.149816605916623189e+02 1.450950128466262470e+02 5.039108814615719467e+01 -1.181654347285732314e+02 -2.217512380784431159e+01 3.537825488093842807e+01 -2.080513248124221093e+02 -1.145080840741128725e+02 -1.098047801085032091e+02 -5.656021028585091415e+01 6.294520306552163191e+01 -1.651728128363787675e+02 1.081810453779072247e+02 -5.443881258325837535e+01 2.913432016676591019e+00 -1.337361474979578588e+02 -1.038394442395927229e+02 1.763022479514648921e+02 8.688487675363569451e+01 -4.234809342677450417e+01 3.728257146590054560e+01 -2.813983458384623049e+01 4.334335583257210800e+01 -1.049230800444733802e+02 9.912512724205031134e+01 5.066951370322208703e+01 -1.192806896304211506e+02 1.171304389816993137e+02 -4.930485557439535427e+01 1.002450333926101536e+02 -4.957813282158504364e+01 8.869445168036384075e+01 -1.539493245699553370e+02 1.432018794819502432e+02 2.486328656514979585e+01 1.010094937085884510e+02 1.309002381531614958e+02 -1.472060583420989417e+02 -8.622932363301723058e+01 -1.060456051562947550e+02 6.714924620566833369e+01 -1.720432233698851689e+02 1.520998513865932864e+02 1.430007758904306741e+02 5.321208403801215070e+01 -8.526176809264792666e+01 5.730159205910071307e+01 -1.077662631897389502e+02 -1.100761225917987218e+01 3.514786595480249076e+01 -1.845802994474032346e+02 -8.197454013255465100e+01 -1.359860470556891165e+01 1.027008662907321934e+02 -5.044706926454082208e+01 1.092282513293960449e+02 -6.466275911011243238e+01 -2.118855444293866981e+02 -1.076482087404057637e+02 -3.426145429650166818e+01 -6.051138169635066788e+01 3.026363947654317599e+01 5.165007076242909534e+01 6.387638752114350282e+00 2.543706348884891000e+01 -1.179578751163810750e+02 5.413646222638335104e+01 3.281758258830622310e+01 -7.261922069693834203e+01 9.312032439504910997e+00 5.665162356434198188e+01 -9.600263275979457944e+01 -5.541481436877881350e+01 -2.428906067567093885e+01 9.822536348339868084e+01 -1.723893341432346560e+01 4.220146758952498800e+00 -2.295477220417475621e+02 -9.567629692658394447e+01 9.959052628928066042e+01 -8.984745268650523542e+01 3.155503322751282269e+01 3.128038186563579615e+01 3.820697730936839775e+01 6.654459841543260268e+01 -1.786975184179341909e+02 1.449776882106946232e+02 8.203999199297508937e+01 -7.564535025754335784e+00 -8.138413252249993945e+01 1.127306149714066947e+02 6.254152643341811313e+01 -2.025375543619851726e+02 -5.075455882694269860e+01 -8.227849274237601662e+01 -5.222807739906632207e+01 -6.240089146684165655e+01 -9.979398021172808342e+01 -6.081951924179228541e+01 1.929005487603666325e+02 -1.720612367304631505e+02 6.597522410555141903e+01 2.794824134604251142e+01 -7.573688939379727003e+01 1.045755065719476029e+01 -3.970834265546163522e+01 3.451173178771166139e+00 -9.685252648037659640e+01 -1.990443510983650981e+02 1.853250946463297666e+01 4.223599869638304227e+01 -1.289747969541726391e+01 -9.100960787426217280e+00 -4.008626178454112932e+01 -1.913975580843703597e+02 -3.089048571440993030e+01 -6.587481721154445324e+01 1.408252659244068639e+01 -1.573025010616854047e+01 9.124758683112544588e+01 -6.352600819656400688e+01 -1.045165520119477947e+02 -3.603402489723586655e+01 -9.091645904097996223e+00 4.587810687682750199e+01 -2.232214964297649473e+01 -7.430987349957968036e+01 -1.599813128699479670e+01 2.023122579839316515e+01 4.788394908862090915e+01 -1.149373805830956599e+02 -1.401606577587302525e+02 2.322113329782211792e+02 -2.200532132075543359e+02 -7.658036636402438546e+01 -4.672975660288669530e+01 1.410178832698638018e+02 6.380658231677703185e+01 2.307524712435370020e+02 2.467800648987623902e+02 -6.284909710132615857e+01 1.305588862782063870e+02 -5.640859372590823995e+01 -4.114983607262982446e+01 -1.014987471220068045e+02 -8.051474073969690437e+01 -7.016251902833033682e+01 -8.973824348382886740e+01 -2.458253027644872475e+02 -2.731636653850333687e+02 1.358386374628009605e+02 -2.675051140879933342e+01 5.371436768820827012e+01 1.319660528353434188e+02
