# 
#                 ----------------------------------------------------
#                 Data from a 3D direct N-body simulation. 
# 
#                 rows are i-particle; 
#                 coumns are :mass, tag, x ,y, z, vx, vy, vz, ax, ay, az
# 
#                 NTHU, Computational Physics Lab
# 
#                 ----------------------------------------------------
#                 Time = 9.199999999999848
1.000000000000000000e+00 2.000000000000000000e+00 3.000000000000000000e+00 4.000000000000000000e+00 5.000000000000000000e+00 6.000000000000000000e+00 7.000000000000000000e+00 8.000000000000000000e+00 9.000000000000000000e+00 1.000000000000000000e+01 1.100000000000000000e+01 1.200000000000000000e+01 1.300000000000000000e+01 1.400000000000000000e+01 1.500000000000000000e+01 1.600000000000000000e+01 1.700000000000000000e+01 1.800000000000000000e+01 1.900000000000000000e+01 2.000000000000000000e+01 2.100000000000000000e+01 2.200000000000000000e+01 2.300000000000000000e+01 2.400000000000000000e+01 2.500000000000000000e+01 2.600000000000000000e+01 2.700000000000000000e+01 2.800000000000000000e+01 2.900000000000000000e+01 3.000000000000000000e+01 3.100000000000000000e+01 3.200000000000000000e+01 3.300000000000000000e+01 3.400000000000000000e+01 3.500000000000000000e+01 3.600000000000000000e+01 3.700000000000000000e+01 3.800000000000000000e+01 3.900000000000000000e+01 4.000000000000000000e+01 4.100000000000000000e+01 4.200000000000000000e+01 4.300000000000000000e+01 4.400000000000000000e+01 4.500000000000000000e+01 4.600000000000000000e+01 4.700000000000000000e+01 4.800000000000000000e+01 4.900000000000000000e+01 5.000000000000000000e+01 5.100000000000000000e+01 5.200000000000000000e+01 5.300000000000000000e+01 5.400000000000000000e+01 5.500000000000000000e+01 5.600000000000000000e+01 5.700000000000000000e+01 5.800000000000000000e+01 5.900000000000000000e+01 6.000000000000000000e+01 6.100000000000000000e+01 6.200000000000000000e+01 6.300000000000000000e+01 6.400000000000000000e+01 6.500000000000000000e+01 6.600000000000000000e+01 6.700000000000000000e+01 6.800000000000000000e+01 6.900000000000000000e+01 7.000000000000000000e+01 7.100000000000000000e+01 7.200000000000000000e+01 7.300000000000000000e+01 7.400000000000000000e+01 7.500000000000000000e+01 7.600000000000000000e+01 7.700000000000000000e+01 7.800000000000000000e+01 7.900000000000000000e+01 8.000000000000000000e+01 8.100000000000000000e+01 8.200000000000000000e+01 8.300000000000000000e+01 8.400000000000000000e+01 8.500000000000000000e+01 8.600000000000000000e+01 8.700000000000000000e+01 8.800000000000000000e+01 8.900000000000000000e+01 9.000000000000000000e+01 9.100000000000000000e+01 9.200000000000000000e+01 9.300000000000000000e+01 9.400000000000000000e+01 9.500000000000000000e+01 9.600000000000000000e+01 9.700000000000000000e+01 9.800000000000000000e+01 9.900000000000000000e+01 1.000000000000000000e+02 1.010000000000000000e+02 1.020000000000000000e+02 1.030000000000000000e+02 1.040000000000000000e+02 1.050000000000000000e+02 1.060000000000000000e+02 1.070000000000000000e+02 1.080000000000000000e+02 1.090000000000000000e+02 1.100000000000000000e+02 1.110000000000000000e+02 1.120000000000000000e+02 1.130000000000000000e+02 1.140000000000000000e+02 1.150000000000000000e+02 1.160000000000000000e+02 1.170000000000000000e+02 1.180000000000000000e+02 1.190000000000000000e+02 1.200000000000000000e+02 1.210000000000000000e+02 1.220000000000000000e+02 1.230000000000000000e+02 1.240000000000000000e+02 1.250000000000000000e+02 1.260000000000000000e+02 1.270000000000000000e+02 1.280000000000000000e+02 1.290000000000000000e+02 1.300000000000000000e+02 1.310000000000000000e+02 1.320000000000000000e+02 1.330000000000000000e+02 1.340000000000000000e+02 1.350000000000000000e+02 1.360000000000000000e+02 1.370000000000000000e+02 1.380000000000000000e+02 1.390000000000000000e+02 1.400000000000000000e+02 1.410000000000000000e+02 1.420000000000000000e+02 1.430000000000000000e+02 1.440000000000000000e+02 1.450000000000000000e+02 1.460000000000000000e+02 1.470000000000000000e+02 1.480000000000000000e+02 1.490000000000000000e+02 1.500000000000000000e+02 1.510000000000000000e+02 1.520000000000000000e+02 1.530000000000000000e+02 1.540000000000000000e+02 1.550000000000000000e+02 1.560000000000000000e+02 1.570000000000000000e+02 1.580000000000000000e+02 1.590000000000000000e+02 1.600000000000000000e+02 1.610000000000000000e+02 1.620000000000000000e+02 1.630000000000000000e+02 1.640000000000000000e+02 1.650000000000000000e+02 1.660000000000000000e+02 1.670000000000000000e+02 1.680000000000000000e+02 1.690000000000000000e+02 1.700000000000000000e+02 1.710000000000000000e+02 1.720000000000000000e+02 1.730000000000000000e+02 1.740000000000000000e+02 1.750000000000000000e+02 1.760000000000000000e+02 1.770000000000000000e+02 1.780000000000000000e+02 1.790000000000000000e+02 1.800000000000000000e+02 1.810000000000000000e+02 1.820000000000000000e+02 1.830000000000000000e+02 1.840000000000000000e+02 1.850000000000000000e+02 1.860000000000000000e+02 1.870000000000000000e+02 1.880000000000000000e+02 1.890000000000000000e+02 1.900000000000000000e+02 1.910000000000000000e+02 1.920000000000000000e+02 1.930000000000000000e+02 1.940000000000000000e+02 1.950000000000000000e+02 1.960000000000000000e+02 1.970000000000000000e+02 1.980000000000000000e+02 1.990000000000000000e+02 2.000000000000000000e+02 2.010000000000000000e+02 2.020000000000000000e+02 2.030000000000000000e+02 2.040000000000000000e+02 2.050000000000000000e+02 2.060000000000000000e+02 2.070000000000000000e+02 2.080000000000000000e+02 2.090000000000000000e+02 2.100000000000000000e+02 2.110000000000000000e+02 2.120000000000000000e+02 2.130000000000000000e+02 2.140000000000000000e+02 2.150000000000000000e+02 2.160000000000000000e+02 2.170000000000000000e+02 2.180000000000000000e+02 2.190000000000000000e+02 2.200000000000000000e+02 2.210000000000000000e+02 2.220000000000000000e+02 2.230000000000000000e+02 2.240000000000000000e+02 2.250000000000000000e+02 2.260000000000000000e+02 2.270000000000000000e+02 2.280000000000000000e+02 2.290000000000000000e+02 2.300000000000000000e+02 2.310000000000000000e+02 2.320000000000000000e+02 2.330000000000000000e+02 2.340000000000000000e+02 2.350000000000000000e+02 2.360000000000000000e+02 2.370000000000000000e+02 2.380000000000000000e+02 2.390000000000000000e+02 2.400000000000000000e+02 2.410000000000000000e+02 2.420000000000000000e+02 2.430000000000000000e+02 2.440000000000000000e+02 2.450000000000000000e+02 2.460000000000000000e+02 2.470000000000000000e+02 2.480000000000000000e+02 2.490000000000000000e+02 2.500000000000000000e+02 2.510000000000000000e+02 2.520000000000000000e+02 2.530000000000000000e+02 2.540000000000000000e+02 2.550000000000000000e+02 2.560000000000000000e+02 2.570000000000000000e+02 2.580000000000000000e+02 2.590000000000000000e+02 2.600000000000000000e+02 2.610000000000000000e+02 2.620000000000000000e+02 2.630000000000000000e+02 2.640000000000000000e+02 2.650000000000000000e+02 2.660000000000000000e+02 2.670000000000000000e+02 2.680000000000000000e+02 2.690000000000000000e+02 2.700000000000000000e+02 2.710000000000000000e+02 2.720000000000000000e+02 2.730000000000000000e+02 2.740000000000000000e+02 2.750000000000000000e+02 2.760000000000000000e+02 2.770000000000000000e+02 2.780000000000000000e+02 2.790000000000000000e+02 2.800000000000000000e+02 2.810000000000000000e+02 2.820000000000000000e+02 2.830000000000000000e+02 2.840000000000000000e+02 2.850000000000000000e+02 2.860000000000000000e+02 2.870000000000000000e+02 2.880000000000000000e+02 2.890000000000000000e+02 2.900000000000000000e+02 2.910000000000000000e+02 2.920000000000000000e+02 2.930000000000000000e+02 2.940000000000000000e+02 2.950000000000000000e+02 2.960000000000000000e+02 2.970000000000000000e+02 2.980000000000000000e+02 2.990000000000000000e+02 3.000000000000000000e+02 3.010000000000000000e+02 3.020000000000000000e+02 3.030000000000000000e+02 3.040000000000000000e+02 3.050000000000000000e+02 3.060000000000000000e+02 3.070000000000000000e+02 3.080000000000000000e+02 3.090000000000000000e+02 3.100000000000000000e+02 3.110000000000000000e+02 3.120000000000000000e+02 3.130000000000000000e+02 3.140000000000000000e+02 3.150000000000000000e+02 3.160000000000000000e+02 3.170000000000000000e+02 3.180000000000000000e+02 3.190000000000000000e+02 3.200000000000000000e+02 3.210000000000000000e+02 3.220000000000000000e+02 3.230000000000000000e+02 3.240000000000000000e+02 3.250000000000000000e+02 3.260000000000000000e+02 3.270000000000000000e+02 3.280000000000000000e+02 3.290000000000000000e+02 3.300000000000000000e+02 3.310000000000000000e+02 3.320000000000000000e+02 3.330000000000000000e+02 3.340000000000000000e+02 3.350000000000000000e+02 3.360000000000000000e+02 3.370000000000000000e+02 3.380000000000000000e+02 3.390000000000000000e+02 3.400000000000000000e+02 3.410000000000000000e+02 3.420000000000000000e+02 3.430000000000000000e+02 3.440000000000000000e+02 3.450000000000000000e+02 3.460000000000000000e+02 3.470000000000000000e+02 3.480000000000000000e+02 3.490000000000000000e+02 3.500000000000000000e+02 3.510000000000000000e+02 3.520000000000000000e+02 3.530000000000000000e+02 3.540000000000000000e+02 3.550000000000000000e+02 3.560000000000000000e+02 3.570000000000000000e+02 3.580000000000000000e+02 3.590000000000000000e+02 3.600000000000000000e+02 3.610000000000000000e+02 3.620000000000000000e+02 3.630000000000000000e+02 3.640000000000000000e+02 3.650000000000000000e+02 3.660000000000000000e+02 3.670000000000000000e+02 3.680000000000000000e+02 3.690000000000000000e+02 3.700000000000000000e+02 3.710000000000000000e+02 3.720000000000000000e+02 3.730000000000000000e+02 3.740000000000000000e+02 3.750000000000000000e+02 3.760000000000000000e+02 3.770000000000000000e+02 3.780000000000000000e+02 3.790000000000000000e+02 3.800000000000000000e+02 3.810000000000000000e+02 3.820000000000000000e+02 3.830000000000000000e+02 3.840000000000000000e+02 3.850000000000000000e+02 3.860000000000000000e+02 3.870000000000000000e+02 3.880000000000000000e+02 3.890000000000000000e+02 3.900000000000000000e+02 3.910000000000000000e+02 3.920000000000000000e+02 3.930000000000000000e+02 3.940000000000000000e+02 3.950000000000000000e+02 3.960000000000000000e+02 3.970000000000000000e+02 3.980000000000000000e+02 3.990000000000000000e+02 4.000000000000000000e+02 4.010000000000000000e+02 4.020000000000000000e+02 4.030000000000000000e+02 4.040000000000000000e+02 4.050000000000000000e+02 4.060000000000000000e+02 4.070000000000000000e+02 4.080000000000000000e+02 4.090000000000000000e+02 4.100000000000000000e+02 4.110000000000000000e+02 4.120000000000000000e+02 4.130000000000000000e+02 4.140000000000000000e+02 4.150000000000000000e+02 4.160000000000000000e+02 4.170000000000000000e+02 4.180000000000000000e+02 4.190000000000000000e+02 4.200000000000000000e+02 4.210000000000000000e+02 4.220000000000000000e+02 4.230000000000000000e+02 4.240000000000000000e+02 4.250000000000000000e+02 4.260000000000000000e+02 4.270000000000000000e+02 4.280000000000000000e+02 4.290000000000000000e+02 4.300000000000000000e+02 4.310000000000000000e+02 4.320000000000000000e+02 4.330000000000000000e+02 4.340000000000000000e+02 4.350000000000000000e+02 4.360000000000000000e+02 4.370000000000000000e+02 4.380000000000000000e+02 4.390000000000000000e+02 4.400000000000000000e+02 4.410000000000000000e+02 4.420000000000000000e+02 4.430000000000000000e+02 4.440000000000000000e+02 4.450000000000000000e+02 4.460000000000000000e+02 4.470000000000000000e+02 4.480000000000000000e+02 4.490000000000000000e+02 4.500000000000000000e+02 4.510000000000000000e+02 4.520000000000000000e+02 4.530000000000000000e+02 4.540000000000000000e+02 4.550000000000000000e+02 4.560000000000000000e+02 4.570000000000000000e+02 4.580000000000000000e+02 4.590000000000000000e+02 4.600000000000000000e+02 4.610000000000000000e+02 4.620000000000000000e+02 4.630000000000000000e+02 4.640000000000000000e+02 4.650000000000000000e+02 4.660000000000000000e+02 4.670000000000000000e+02 4.680000000000000000e+02 4.690000000000000000e+02 4.700000000000000000e+02 4.710000000000000000e+02 4.720000000000000000e+02 4.730000000000000000e+02 4.740000000000000000e+02 4.750000000000000000e+02 4.760000000000000000e+02 4.770000000000000000e+02 4.780000000000000000e+02 4.790000000000000000e+02 4.800000000000000000e+02 4.810000000000000000e+02 4.820000000000000000e+02 4.830000000000000000e+02 4.840000000000000000e+02 4.850000000000000000e+02 4.860000000000000000e+02 4.870000000000000000e+02 4.880000000000000000e+02 4.890000000000000000e+02 4.900000000000000000e+02 4.910000000000000000e+02 4.920000000000000000e+02 4.930000000000000000e+02 4.940000000000000000e+02 4.950000000000000000e+02 4.960000000000000000e+02 4.970000000000000000e+02 4.980000000000000000e+02 4.990000000000000000e+02 5.000000000000000000e+02 5.010000000000000000e+02 5.020000000000000000e+02 5.030000000000000000e+02 5.040000000000000000e+02 5.050000000000000000e+02 5.060000000000000000e+02 5.070000000000000000e+02 5.080000000000000000e+02 5.090000000000000000e+02 5.100000000000000000e+02 5.110000000000000000e+02 5.120000000000000000e+02 5.130000000000000000e+02 5.140000000000000000e+02 5.150000000000000000e+02 5.160000000000000000e+02 5.170000000000000000e+02 5.180000000000000000e+02 5.190000000000000000e+02 5.200000000000000000e+02 5.210000000000000000e+02 5.220000000000000000e+02 5.230000000000000000e+02 5.240000000000000000e+02 5.250000000000000000e+02 5.260000000000000000e+02 5.270000000000000000e+02 5.280000000000000000e+02 5.290000000000000000e+02 5.300000000000000000e+02 5.310000000000000000e+02 5.320000000000000000e+02 5.330000000000000000e+02 5.340000000000000000e+02 5.350000000000000000e+02 5.360000000000000000e+02 5.370000000000000000e+02 5.380000000000000000e+02 5.390000000000000000e+02 5.400000000000000000e+02 5.410000000000000000e+02 5.420000000000000000e+02 5.430000000000000000e+02 5.440000000000000000e+02 5.450000000000000000e+02 5.460000000000000000e+02 5.470000000000000000e+02 5.480000000000000000e+02 5.490000000000000000e+02 5.500000000000000000e+02 5.510000000000000000e+02 5.520000000000000000e+02 5.530000000000000000e+02 5.540000000000000000e+02 5.550000000000000000e+02 5.560000000000000000e+02 5.570000000000000000e+02 5.580000000000000000e+02 5.590000000000000000e+02 5.600000000000000000e+02 5.610000000000000000e+02 5.620000000000000000e+02 5.630000000000000000e+02 5.640000000000000000e+02 5.650000000000000000e+02 5.660000000000000000e+02 5.670000000000000000e+02 5.680000000000000000e+02 5.690000000000000000e+02 5.700000000000000000e+02 5.710000000000000000e+02 5.720000000000000000e+02 5.730000000000000000e+02 5.740000000000000000e+02 5.750000000000000000e+02 5.760000000000000000e+02 5.770000000000000000e+02 5.780000000000000000e+02 5.790000000000000000e+02 5.800000000000000000e+02 5.810000000000000000e+02 5.820000000000000000e+02 5.830000000000000000e+02 5.840000000000000000e+02 5.850000000000000000e+02 5.860000000000000000e+02 5.870000000000000000e+02 5.880000000000000000e+02 5.890000000000000000e+02 5.900000000000000000e+02 5.910000000000000000e+02 5.920000000000000000e+02 5.930000000000000000e+02 5.940000000000000000e+02 5.950000000000000000e+02 5.960000000000000000e+02 5.970000000000000000e+02 5.980000000000000000e+02 5.990000000000000000e+02 6.000000000000000000e+02 6.010000000000000000e+02 6.020000000000000000e+02 6.030000000000000000e+02 6.040000000000000000e+02 6.050000000000000000e+02 6.060000000000000000e+02 6.070000000000000000e+02 6.080000000000000000e+02 6.090000000000000000e+02 6.100000000000000000e+02 6.110000000000000000e+02 6.120000000000000000e+02 6.130000000000000000e+02 6.140000000000000000e+02 6.150000000000000000e+02 6.160000000000000000e+02 6.170000000000000000e+02 6.180000000000000000e+02 6.190000000000000000e+02 6.200000000000000000e+02 6.210000000000000000e+02 6.220000000000000000e+02 6.230000000000000000e+02 6.240000000000000000e+02 6.250000000000000000e+02 6.260000000000000000e+02 6.270000000000000000e+02 6.280000000000000000e+02 6.290000000000000000e+02 6.300000000000000000e+02 6.310000000000000000e+02 6.320000000000000000e+02 6.330000000000000000e+02 6.340000000000000000e+02 6.350000000000000000e+02 6.360000000000000000e+02 6.370000000000000000e+02 6.380000000000000000e+02 6.390000000000000000e+02 6.400000000000000000e+02 6.410000000000000000e+02 6.420000000000000000e+02 6.430000000000000000e+02 6.440000000000000000e+02 6.450000000000000000e+02 6.460000000000000000e+02 6.470000000000000000e+02 6.480000000000000000e+02 6.490000000000000000e+02 6.500000000000000000e+02 6.510000000000000000e+02 6.520000000000000000e+02 6.530000000000000000e+02 6.540000000000000000e+02 6.550000000000000000e+02 6.560000000000000000e+02 6.570000000000000000e+02 6.580000000000000000e+02 6.590000000000000000e+02 6.600000000000000000e+02 6.610000000000000000e+02 6.620000000000000000e+02 6.630000000000000000e+02 6.640000000000000000e+02 6.650000000000000000e+02 6.660000000000000000e+02 6.670000000000000000e+02 6.680000000000000000e+02 6.690000000000000000e+02 6.700000000000000000e+02 6.710000000000000000e+02 6.720000000000000000e+02 6.730000000000000000e+02 6.740000000000000000e+02 6.750000000000000000e+02 6.760000000000000000e+02 6.770000000000000000e+02 6.780000000000000000e+02 6.790000000000000000e+02 6.800000000000000000e+02 6.810000000000000000e+02 6.820000000000000000e+02 6.830000000000000000e+02 6.840000000000000000e+02 6.850000000000000000e+02 6.860000000000000000e+02 6.870000000000000000e+02 6.880000000000000000e+02 6.890000000000000000e+02 6.900000000000000000e+02 6.910000000000000000e+02 6.920000000000000000e+02 6.930000000000000000e+02 6.940000000000000000e+02 6.950000000000000000e+02 6.960000000000000000e+02 6.970000000000000000e+02 6.980000000000000000e+02 6.990000000000000000e+02 7.000000000000000000e+02 7.010000000000000000e+02 7.020000000000000000e+02 7.030000000000000000e+02 7.040000000000000000e+02 7.050000000000000000e+02 7.060000000000000000e+02 7.070000000000000000e+02 7.080000000000000000e+02 7.090000000000000000e+02 7.100000000000000000e+02 7.110000000000000000e+02 7.120000000000000000e+02 7.130000000000000000e+02 7.140000000000000000e+02 7.150000000000000000e+02 7.160000000000000000e+02 7.170000000000000000e+02 7.180000000000000000e+02 7.190000000000000000e+02 7.200000000000000000e+02 7.210000000000000000e+02 7.220000000000000000e+02 7.230000000000000000e+02 7.240000000000000000e+02 7.250000000000000000e+02 7.260000000000000000e+02 7.270000000000000000e+02 7.280000000000000000e+02 7.290000000000000000e+02 7.300000000000000000e+02 7.310000000000000000e+02 7.320000000000000000e+02 7.330000000000000000e+02 7.340000000000000000e+02 7.350000000000000000e+02 7.360000000000000000e+02 7.370000000000000000e+02 7.380000000000000000e+02 7.390000000000000000e+02 7.400000000000000000e+02 7.410000000000000000e+02 7.420000000000000000e+02 7.430000000000000000e+02 7.440000000000000000e+02 7.450000000000000000e+02 7.460000000000000000e+02 7.470000000000000000e+02 7.480000000000000000e+02 7.490000000000000000e+02 7.500000000000000000e+02 7.510000000000000000e+02 7.520000000000000000e+02 7.530000000000000000e+02 7.540000000000000000e+02 7.550000000000000000e+02 7.560000000000000000e+02 7.570000000000000000e+02 7.580000000000000000e+02 7.590000000000000000e+02 7.600000000000000000e+02 7.610000000000000000e+02 7.620000000000000000e+02 7.630000000000000000e+02 7.640000000000000000e+02 7.650000000000000000e+02 7.660000000000000000e+02 7.670000000000000000e+02 7.680000000000000000e+02 7.690000000000000000e+02 7.700000000000000000e+02 7.710000000000000000e+02 7.720000000000000000e+02 7.730000000000000000e+02 7.740000000000000000e+02 7.750000000000000000e+02 7.760000000000000000e+02 7.770000000000000000e+02 7.780000000000000000e+02 7.790000000000000000e+02 7.800000000000000000e+02 7.810000000000000000e+02 7.820000000000000000e+02 7.830000000000000000e+02 7.840000000000000000e+02 7.850000000000000000e+02 7.860000000000000000e+02 7.870000000000000000e+02 7.880000000000000000e+02 7.890000000000000000e+02 7.900000000000000000e+02 7.910000000000000000e+02 7.920000000000000000e+02 7.930000000000000000e+02 7.940000000000000000e+02 7.950000000000000000e+02 7.960000000000000000e+02 7.970000000000000000e+02 7.980000000000000000e+02 7.990000000000000000e+02 8.000000000000000000e+02 8.010000000000000000e+02 8.020000000000000000e+02 8.030000000000000000e+02 8.040000000000000000e+02 8.050000000000000000e+02 8.060000000000000000e+02 8.070000000000000000e+02 8.080000000000000000e+02 8.090000000000000000e+02 8.100000000000000000e+02 8.110000000000000000e+02 8.120000000000000000e+02 8.130000000000000000e+02 8.140000000000000000e+02 8.150000000000000000e+02 8.160000000000000000e+02 8.170000000000000000e+02 8.180000000000000000e+02 8.190000000000000000e+02 8.200000000000000000e+02 8.210000000000000000e+02 8.220000000000000000e+02 8.230000000000000000e+02 8.240000000000000000e+02 8.250000000000000000e+02 8.260000000000000000e+02 8.270000000000000000e+02 8.280000000000000000e+02 8.290000000000000000e+02 8.300000000000000000e+02 8.310000000000000000e+02 8.320000000000000000e+02 8.330000000000000000e+02 8.340000000000000000e+02 8.350000000000000000e+02 8.360000000000000000e+02 8.370000000000000000e+02 8.380000000000000000e+02 8.390000000000000000e+02 8.400000000000000000e+02 8.410000000000000000e+02 8.420000000000000000e+02 8.430000000000000000e+02 8.440000000000000000e+02 8.450000000000000000e+02 8.460000000000000000e+02 8.470000000000000000e+02 8.480000000000000000e+02 8.490000000000000000e+02 8.500000000000000000e+02 8.510000000000000000e+02 8.520000000000000000e+02 8.530000000000000000e+02 8.540000000000000000e+02 8.550000000000000000e+02 8.560000000000000000e+02 8.570000000000000000e+02 8.580000000000000000e+02 8.590000000000000000e+02 8.600000000000000000e+02 8.610000000000000000e+02 8.620000000000000000e+02 8.630000000000000000e+02 8.640000000000000000e+02 8.650000000000000000e+02 8.660000000000000000e+02 8.670000000000000000e+02 8.680000000000000000e+02 8.690000000000000000e+02 8.700000000000000000e+02 8.710000000000000000e+02 8.720000000000000000e+02 8.730000000000000000e+02 8.740000000000000000e+02 8.750000000000000000e+02 8.760000000000000000e+02 8.770000000000000000e+02 8.780000000000000000e+02 8.790000000000000000e+02 8.800000000000000000e+02 8.810000000000000000e+02 8.820000000000000000e+02 8.830000000000000000e+02 8.840000000000000000e+02 8.850000000000000000e+02 8.860000000000000000e+02 8.870000000000000000e+02 8.880000000000000000e+02 8.890000000000000000e+02 8.900000000000000000e+02 8.910000000000000000e+02 8.920000000000000000e+02 8.930000000000000000e+02 8.940000000000000000e+02 8.950000000000000000e+02 8.960000000000000000e+02 8.970000000000000000e+02 8.980000000000000000e+02 8.990000000000000000e+02 9.000000000000000000e+02 9.010000000000000000e+02 9.020000000000000000e+02 9.030000000000000000e+02 9.040000000000000000e+02 9.050000000000000000e+02 9.060000000000000000e+02 9.070000000000000000e+02 9.080000000000000000e+02 9.090000000000000000e+02 9.100000000000000000e+02 9.110000000000000000e+02 9.120000000000000000e+02 9.130000000000000000e+02 9.140000000000000000e+02 9.150000000000000000e+02 9.160000000000000000e+02 9.170000000000000000e+02 9.180000000000000000e+02 9.190000000000000000e+02 9.200000000000000000e+02 9.210000000000000000e+02 9.220000000000000000e+02 9.230000000000000000e+02 9.240000000000000000e+02 9.250000000000000000e+02 9.260000000000000000e+02 9.270000000000000000e+02 9.280000000000000000e+02 9.290000000000000000e+02 9.300000000000000000e+02 9.310000000000000000e+02 9.320000000000000000e+02 9.330000000000000000e+02 9.340000000000000000e+02 9.350000000000000000e+02 9.360000000000000000e+02 9.370000000000000000e+02 9.380000000000000000e+02 9.390000000000000000e+02 9.400000000000000000e+02 9.410000000000000000e+02 9.420000000000000000e+02 9.430000000000000000e+02 9.440000000000000000e+02 9.450000000000000000e+02 9.460000000000000000e+02 9.470000000000000000e+02 9.480000000000000000e+02 9.490000000000000000e+02 9.500000000000000000e+02 9.510000000000000000e+02 9.520000000000000000e+02 9.530000000000000000e+02 9.540000000000000000e+02 9.550000000000000000e+02 9.560000000000000000e+02 9.570000000000000000e+02 9.580000000000000000e+02 9.590000000000000000e+02 9.600000000000000000e+02 9.610000000000000000e+02 9.620000000000000000e+02 9.630000000000000000e+02 9.640000000000000000e+02 9.650000000000000000e+02 9.660000000000000000e+02 9.670000000000000000e+02 9.680000000000000000e+02 9.690000000000000000e+02 9.700000000000000000e+02 9.710000000000000000e+02 9.720000000000000000e+02 9.730000000000000000e+02 9.740000000000000000e+02 9.750000000000000000e+02 9.760000000000000000e+02 9.770000000000000000e+02 9.780000000000000000e+02 9.790000000000000000e+02 9.800000000000000000e+02 9.810000000000000000e+02 9.820000000000000000e+02 9.830000000000000000e+02 9.840000000000000000e+02 9.850000000000000000e+02 9.860000000000000000e+02 9.870000000000000000e+02 9.880000000000000000e+02 9.890000000000000000e+02 9.900000000000000000e+02 9.910000000000000000e+02 9.920000000000000000e+02 9.930000000000000000e+02 9.940000000000000000e+02 9.950000000000000000e+02 9.960000000000000000e+02 9.970000000000000000e+02 9.980000000000000000e+02 9.990000000000000000e+02 1.000000000000000000e+03
1.000000000000000021e-02 1.000000000000000021e-02 1.000000000000000021e-02 1.000000000000000021e-02 1.000000000000000021e-02 1.000000000000000021e-02 1.000000000000000021e-02 1.000000000000000021e-02 1.000000000000000021e-02 1.000000000000000021e-02 1.000000000000000021e-02 1.000000000000000021e-02 1.000000000000000021e-02 1.000000000000000021e-02 1.000000000000000021e-02 1.000000000000000021e-02 1.000000000000000021e-02 1.000000000000000021e-02 1.000000000000000021e-02 1.000000000000000021e-02 1.000000000000000021e-02 1.000000000000000021e-02 1.000000000000000021e-02 1.000000000000000021e-02 1.000000000000000021e-02 1.000000000000000021e-02 1.000000000000000021e-02 1.000000000000000021e-02 1.000000000000000021e-02 1.000000000000000021e-02 1.000000000000000021e-02 1.000000000000000021e-02 1.000000000000000021e-02 1.000000000000000021e-02 1.000000000000000021e-02 1.000000000000000021e-02 1.000000000000000021e-02 1.000000000000000021e-02 1.000000000000000021e-02 1.000000000000000021e-02 1.000000000000000021e-02 1.000000000000000021e-02 1.000000000000000021e-02 1.000000000000000021e-02 1.000000000000000021e-02 1.000000000000000021e-02 1.000000000000000021e-02 1.000000000000000021e-02 1.000000000000000021e-02 1.000000000000000021e-02 1.000000000000000021e-02 1.000000000000000021e-02 1.000000000000000021e-02 1.000000000000000021e-02 1.000000000000000021e-02 1.000000000000000021e-02 1.000000000000000021e-02 1.000000000000000021e-02 1.000000000000000021e-02 1.000000000000000021e-02 1.000000000000000021e-02 1.000000000000000021e-02 1.000000000000000021e-02 1.000000000000000021e-02 1.000000000000000021e-02 1.000000000000000021e-02 1.000000000000000021e-02 1.000000000000000021e-02 1.000000000000000021e-02 1.000000000000000021e-02 1.000000000000000021e-02 1.000000000000000021e-02 1.000000000000000021e-02 1.000000000000000021e-02 1.000000000000000021e-02 1.000000000000000021e-02 1.000000000000000021e-02 1.000000000000000021e-02 1.000000000000000021e-02 1.000000000000000021e-02 1.000000000000000021e-02 1.000000000000000021e-02 1.000000000000000021e-02 1.000000000000000021e-02 1.000000000000000021e-02 1.000000000000000021e-02 1.000000000000000021e-02 1.000000000000000021e-02 1.000000000000000021e-02 1.000000000000000021e-02 1.000000000000000021e-02 1.000000000000000021e-02 1.000000000000000021e-02 1.000000000000000021e-02 1.000000000000000021e-02 1.000000000000000021e-02 1.000000000000000021e-02 1.000000000000000021e-02 1.000000000000000021e-02 1.000000000000000021e-02 1.000000000000000021e-02 1.000000000000000021e-02 1.000000000000000021e-02 1.000000000000000021e-02 1.000000000000000021e-02 1.000000000000000021e-02 1.000000000000000021e-02 1.000000000000000021e-02 1.000000000000000021e-02 1.000000000000000021e-02 1.000000000000000021e-02 1.000000000000000021e-02 1.000000000000000021e-02 1.000000000000000021e-02 1.000000000000000021e-02 1.000000000000000021e-02 1.000000000000000021e-02 1.000000000000000021e-02 1.000000000000000021e-02 1.000000000000000021e-02 1.000000000000000021e-02 1.000000000000000021e-02 1.000000000000000021e-02 1.000000000000000021e-02 1.000000000000000021e-02 1.000000000000000021e-02 1.000000000000000021e-02 1.000000000000000021e-02 1.000000000000000021e-02 1.000000000000000021e-02 1.000000000000000021e-02 1.000000000000000021e-02 1.000000000000000021e-02 1.000000000000000021e-02 1.000000000000000021e-02 1.000000000000000021e-02 1.000000000000000021e-02 1.000000000000000021e-02 1.000000000000000021e-02 1.000000000000000021e-02 1.000000000000000021e-02 1.000000000000000021e-02 1.000000000000000021e-02 1.000000000000000021e-02 1.000000000000000021e-02 1.000000000000000021e-02 1.000000000000000021e-02 1.000000000000000021e-02 1.000000000000000021e-02 1.000000000000000021e-02 1.000000000000000021e-02 1.000000000000000021e-02 1.000000000000000021e-02 1.000000000000000021e-02 1.000000000000000021e-02 1.000000000000000021e-02 1.000000000000000021e-02 1.000000000000000021e-02 1.000000000000000021e-02 1.000000000000000021e-02 1.000000000000000021e-02 1.000000000000000021e-02 1.000000000000000021e-02 1.000000000000000021e-02 1.000000000000000021e-02 1.000000000000000021e-02 1.000000000000000021e-02 1.000000000000000021e-02 1.000000000000000021e-02 1.000000000000000021e-02 1.000000000000000021e-02 1.000000000000000021e-02 1.000000000000000021e-02 1.000000000000000021e-02 1.000000000000000021e-02 1.000000000000000021e-02 1.000000000000000021e-02 1.000000000000000021e-02 1.000000000000000021e-02 1.000000000000000021e-02 1.000000000000000021e-02 1.000000000000000021e-02 1.000000000000000021e-02 1.000000000000000021e-02 1.000000000000000021e-02 1.000000000000000021e-02 1.000000000000000021e-02 1.000000000000000021e-02 1.000000000000000021e-02 1.000000000000000021e-02 1.000000000000000021e-02 1.000000000000000021e-02 1.000000000000000021e-02 1.000000000000000021e-02 1.000000000000000021e-02 1.000000000000000021e-02 1.000000000000000021e-02 1.000000000000000021e-02 1.000000000000000021e-02 1.000000000000000021e-02 1.000000000000000021e-02 1.000000000000000021e-02 1.000000000000000021e-02 1.000000000000000021e-02 1.000000000000000021e-02 1.000000000000000021e-02 1.000000000000000021e-02 1.000000000000000021e-02 1.000000000000000021e-02 1.000000000000000021e-02 1.000000000000000021e-02 1.000000000000000021e-02 1.000000000000000021e-02 1.000000000000000021e-02 1.000000000000000021e-02 1.000000000000000021e-02 1.000000000000000021e-02 1.000000000000000021e-02 1.000000000000000021e-02 1.000000000000000021e-02 1.000000000000000021e-02 1.000000000000000021e-02 1.000000000000000021e-02 1.000000000000000021e-02 1.000000000000000021e-02 1.000000000000000021e-02 1.000000000000000021e-02 1.000000000000000021e-02 1.000000000000000021e-02 1.000000000000000021e-02 1.000000000000000021e-02 1.000000000000000021e-02 1.000000000000000021e-02 1.000000000000000021e-02 1.000000000000000021e-02 1.000000000000000021e-02 1.000000000000000021e-02 1.000000000000000021e-02 1.000000000000000021e-02 1.000000000000000021e-02 1.000000000000000021e-02 1.000000000000000021e-02 1.000000000000000021e-02 1.000000000000000021e-02 1.000000000000000021e-02 1.000000000000000021e-02 1.000000000000000021e-02 1.000000000000000021e-02 1.000000000000000021e-02 1.000000000000000021e-02 1.000000000000000021e-02 1.000000000000000021e-02 1.000000000000000021e-02 1.000000000000000021e-02 1.000000000000000021e-02 1.000000000000000021e-02 1.000000000000000021e-02 1.000000000000000021e-02 1.000000000000000021e-02 1.000000000000000021e-02 1.000000000000000021e-02 1.000000000000000021e-02 1.000000000000000021e-02 1.000000000000000021e-02 1.000000000000000021e-02 1.000000000000000021e-02 1.000000000000000021e-02 1.000000000000000021e-02 1.000000000000000021e-02 1.000000000000000021e-02 1.000000000000000021e-02 1.000000000000000021e-02 1.000000000000000021e-02 1.000000000000000021e-02 1.000000000000000021e-02 1.000000000000000021e-02 1.000000000000000021e-02 1.000000000000000021e-02 1.000000000000000021e-02 1.000000000000000021e-02 1.000000000000000021e-02 1.000000000000000021e-02 1.000000000000000021e-02 1.000000000000000021e-02 1.000000000000000021e-02 1.000000000000000021e-02 1.000000000000000021e-02 1.000000000000000021e-02 1.000000000000000021e-02 1.000000000000000021e-02 1.000000000000000021e-02 1.000000000000000021e-02 1.000000000000000021e-02 1.000000000000000021e-02 1.000000000000000021e-02 1.000000000000000021e-02 1.000000000000000021e-02 1.000000000000000021e-02 1.000000000000000021e-02 1.000000000000000021e-02 1.000000000000000021e-02 1.000000000000000021e-02 1.000000000000000021e-02 1.000000000000000021e-02 1.000000000000000021e-02 1.000000000000000021e-02 1.000000000000000021e-02 1.000000000000000021e-02 1.000000000000000021e-02 1.000000000000000021e-02 1.000000000000000021e-02 1.000000000000000021e-02 1.000000000000000021e-02 1.000000000000000021e-02 1.000000000000000021e-02 1.000000000000000021e-02 1.000000000000000021e-02 1.000000000000000021e-02 1.000000000000000021e-02 1.000000000000000021e-02 1.000000000000000021e-02 1.000000000000000021e-02 1.000000000000000021e-02 1.000000000000000021e-02 1.000000000000000021e-02 1.000000000000000021e-02 1.000000000000000021e-02 1.000000000000000021e-02 1.000000000000000021e-02 1.000000000000000021e-02 1.000000000000000021e-02 1.000000000000000021e-02 1.000000000000000021e-02 1.000000000000000021e-02 1.000000000000000021e-02 1.000000000000000021e-02 1.000000000000000021e-02 1.000000000000000021e-02 1.000000000000000021e-02 1.000000000000000021e-02 1.000000000000000021e-02 1.000000000000000021e-02 1.000000000000000021e-02 1.000000000000000021e-02 1.000000000000000021e-02 1.000000000000000021e-02 1.000000000000000021e-02 1.000000000000000021e-02 1.000000000000000021e-02 1.000000000000000021e-02 1.000000000000000021e-02 1.000000000000000021e-02 1.000000000000000021e-02 1.000000000000000021e-02 1.000000000000000021e-02 1.000000000000000021e-02 1.000000000000000021e-02 1.000000000000000021e-02 1.000000000000000021e-02 1.000000000000000021e-02 1.000000000000000021e-02 1.000000000000000021e-02 1.000000000000000021e-02 1.000000000000000021e-02 1.000000000000000021e-02 1.000000000000000021e-02 1.000000000000000021e-02 1.000000000000000021e-02 1.000000000000000021e-02 1.000000000000000021e-02 1.000000000000000021e-02 1.000000000000000021e-02 1.000000000000000021e-02 1.000000000000000021e-02 1.000000000000000021e-02 1.000000000000000021e-02 1.000000000000000021e-02 1.000000000000000021e-02 1.000000000000000021e-02 1.000000000000000021e-02 1.000000000000000021e-02 1.000000000000000021e-02 1.000000000000000021e-02 1.000000000000000021e-02 1.000000000000000021e-02 1.000000000000000021e-02 1.000000000000000021e-02 1.000000000000000021e-02 1.000000000000000021e-02 1.000000000000000021e-02 1.000000000000000021e-02 1.000000000000000021e-02 1.000000000000000021e-02 1.000000000000000021e-02 1.000000000000000021e-02 1.000000000000000021e-02 1.000000000000000021e-02 1.000000000000000021e-02 1.000000000000000021e-02 1.000000000000000021e-02 1.000000000000000021e-02 1.000000000000000021e-02 1.000000000000000021e-02 1.000000000000000021e-02 1.000000000000000021e-02 1.000000000000000021e-02 1.000000000000000021e-02 1.000000000000000021e-02 1.000000000000000021e-02 1.000000000000000021e-02 1.000000000000000021e-02 1.000000000000000021e-02 1.000000000000000021e-02 1.000000000000000021e-02 1.000000000000000021e-02 1.000000000000000021e-02 1.000000000000000021e-02 1.000000000000000021e-02 1.000000000000000021e-02 1.000000000000000021e-02 1.000000000000000021e-02 1.000000000000000021e-02 1.000000000000000021e-02 1.000000000000000021e-02 1.000000000000000021e-02 1.000000000000000021e-02 1.000000000000000021e-02 1.000000000000000021e-02 1.000000000000000021e-02 1.000000000000000021e-02 1.000000000000000021e-02 1.000000000000000021e-02 1.000000000000000021e-02 1.000000000000000021e-02 1.000000000000000021e-02 1.000000000000000021e-02 1.000000000000000021e-02 1.000000000000000021e-02 1.000000000000000021e-02 1.000000000000000021e-02 1.000000000000000021e-02 1.000000000000000021e-02 1.000000000000000021e-02 1.000000000000000021e-02 1.000000000000000021e-02 1.000000000000000021e-02 1.000000000000000021e-02 1.000000000000000021e-02 1.000000000000000021e-02 1.000000000000000021e-02 1.000000000000000021e-02 1.000000000000000021e-02 1.000000000000000021e-02 1.000000000000000021e-02 1.000000000000000021e-02 1.000000000000000021e-02 1.000000000000000021e-02 1.000000000000000021e-02 1.000000000000000021e-02 1.000000000000000021e-02 1.000000000000000021e-02 1.000000000000000021e-02 1.000000000000000021e-02 1.000000000000000021e-02 1.000000000000000021e-02 1.000000000000000021e-02 1.000000000000000021e-02 1.000000000000000021e-02 1.000000000000000021e-02 1.000000000000000021e-02 1.000000000000000021e-02 1.000000000000000021e-02 1.000000000000000021e-02 1.000000000000000021e-02 1.000000000000000021e-02 1.000000000000000021e-02 1.000000000000000021e-02 1.000000000000000021e-02 1.000000000000000021e-02 1.000000000000000021e-02 1.000000000000000021e-02 1.000000000000000021e-02 1.000000000000000021e-02 1.000000000000000021e-02 1.000000000000000021e-02 1.000000000000000021e-02 1.000000000000000021e-02 1.000000000000000021e-02 1.000000000000000021e-02 1.000000000000000021e-02 1.000000000000000021e-02 1.000000000000000021e-02 1.000000000000000021e-02 1.000000000000000021e-02 1.000000000000000021e-02 1.000000000000000021e-02 1.000000000000000021e-02 1.000000000000000021e-02 1.000000000000000021e-02 1.000000000000000021e-02 1.000000000000000021e-02 1.000000000000000021e-02 1.000000000000000021e-02 1.000000000000000021e-02 1.000000000000000021e-02 1.000000000000000021e-02 1.000000000000000021e-02 1.000000000000000021e-02 1.000000000000000021e-02 1.000000000000000021e-02 1.000000000000000021e-02 1.000000000000000021e-02 1.000000000000000021e-02 1.000000000000000021e-02 1.000000000000000021e-02 1.000000000000000021e-02 1.000000000000000021e-02 1.000000000000000021e-02 1.000000000000000021e-02 1.000000000000000021e-02 1.000000000000000021e-02 1.000000000000000021e-02 1.000000000000000021e-02 1.000000000000000021e-02 1.000000000000000021e-02 1.000000000000000021e-02 1.000000000000000021e-02 1.000000000000000021e-02 1.000000000000000021e-02 1.000000000000000021e-02 1.000000000000000021e-02 1.000000000000000021e-02 1.000000000000000021e-02 1.000000000000000021e-02 1.000000000000000021e-02 1.000000000000000021e-02 1.000000000000000021e-02 1.000000000000000021e-02 1.000000000000000021e-02 1.000000000000000021e-02 1.000000000000000021e-02 1.000000000000000021e-02 1.000000000000000021e-02 1.000000000000000021e-02 1.000000000000000021e-02 1.000000000000000021e-02 1.000000000000000021e-02 1.000000000000000021e-02 1.000000000000000021e-02 1.000000000000000021e-02 1.000000000000000021e-02 1.000000000000000021e-02 1.000000000000000021e-02 1.000000000000000021e-02 1.000000000000000021e-02 1.000000000000000021e-02 1.000000000000000021e-02 1.000000000000000021e-02 1.000000000000000021e-02 1.000000000000000021e-02 1.000000000000000021e-02 1.000000000000000021e-02 1.000000000000000021e-02 1.000000000000000021e-02 1.000000000000000021e-02 1.000000000000000021e-02 1.000000000000000021e-02 1.000000000000000021e-02 1.000000000000000021e-02 1.000000000000000021e-02 1.000000000000000021e-02 1.000000000000000021e-02 1.000000000000000021e-02 1.000000000000000021e-02 1.000000000000000021e-02 1.000000000000000021e-02 1.000000000000000021e-02 1.000000000000000021e-02 1.000000000000000021e-02 1.000000000000000021e-02 1.000000000000000021e-02 1.000000000000000021e-02 1.000000000000000021e-02 1.000000000000000021e-02 1.000000000000000021e-02 1.000000000000000021e-02 1.000000000000000021e-02 1.000000000000000021e-02 1.000000000000000021e-02 1.000000000000000021e-02 1.000000000000000021e-02 1.000000000000000021e-02 1.000000000000000021e-02 1.000000000000000021e-02 1.000000000000000021e-02 1.000000000000000021e-02 1.000000000000000021e-02 1.000000000000000021e-02 1.000000000000000021e-02 1.000000000000000021e-02 1.000000000000000021e-02 1.000000000000000021e-02 1.000000000000000021e-02 1.000000000000000021e-02 1.000000000000000021e-02 1.000000000000000021e-02 1.000000000000000021e-02 1.000000000000000021e-02 1.000000000000000021e-02 1.000000000000000021e-02 1.000000000000000021e-02 1.000000000000000021e-02 1.000000000000000021e-02 1.000000000000000021e-02 1.000000000000000021e-02 1.000000000000000021e-02 1.000000000000000021e-02 1.000000000000000021e-02 1.000000000000000021e-02 1.000000000000000021e-02 1.000000000000000021e-02 1.000000000000000021e-02 1.000000000000000021e-02 1.000000000000000021e-02 1.000000000000000021e-02 1.000000000000000021e-02 1.000000000000000021e-02 1.000000000000000021e-02 1.000000000000000021e-02 1.000000000000000021e-02 1.000000000000000021e-02 1.000000000000000021e-02 1.000000000000000021e-02 1.000000000000000021e-02 1.000000000000000021e-02 1.000000000000000021e-02 1.000000000000000021e-02 1.000000000000000021e-02 1.000000000000000021e-02 1.000000000000000021e-02 1.000000000000000021e-02 1.000000000000000021e-02 1.000000000000000021e-02 1.000000000000000021e-02 1.000000000000000021e-02 1.000000000000000021e-02 1.000000000000000021e-02 1.000000000000000021e-02 1.000000000000000021e-02 1.000000000000000021e-02 1.000000000000000021e-02 1.000000000000000021e-02 1.000000000000000021e-02 1.000000000000000021e-02 1.000000000000000021e-02 1.000000000000000021e-02 1.000000000000000021e-02 1.000000000000000021e-02 1.000000000000000021e-02 1.000000000000000021e-02 1.000000000000000021e-02 1.000000000000000021e-02 1.000000000000000021e-02 1.000000000000000021e-02 1.000000000000000021e-02 1.000000000000000021e-02 1.000000000000000021e-02 1.000000000000000021e-02 1.000000000000000021e-02 1.000000000000000021e-02 1.000000000000000021e-02 1.000000000000000021e-02 1.000000000000000021e-02 1.000000000000000021e-02 1.000000000000000021e-02 1.000000000000000021e-02 1.000000000000000021e-02 1.000000000000000021e-02 1.000000000000000021e-02 1.000000000000000021e-02 1.000000000000000021e-02 1.000000000000000021e-02 1.000000000000000021e-02 1.000000000000000021e-02 1.000000000000000021e-02 1.000000000000000021e-02 1.000000000000000021e-02 1.000000000000000021e-02 1.000000000000000021e-02 1.000000000000000021e-02 1.000000000000000021e-02 1.000000000000000021e-02 1.000000000000000021e-02 1.000000000000000021e-02 1.000000000000000021e-02 1.000000000000000021e-02 1.000000000000000021e-02 1.000000000000000021e-02 1.000000000000000021e-02 1.000000000000000021e-02 1.000000000000000021e-02 1.000000000000000021e-02 1.000000000000000021e-02 1.000000000000000021e-02 1.000000000000000021e-02 1.000000000000000021e-02 1.000000000000000021e-02 1.000000000000000021e-02 1.000000000000000021e-02 1.000000000000000021e-02 1.000000000000000021e-02 1.000000000000000021e-02 1.000000000000000021e-02 1.000000000000000021e-02 1.000000000000000021e-02 1.000000000000000021e-02 1.000000000000000021e-02 1.000000000000000021e-02 1.000000000000000021e-02 1.000000000000000021e-02 1.000000000000000021e-02 1.000000000000000021e-02 1.000000000000000021e-02 1.000000000000000021e-02 1.000000000000000021e-02 1.000000000000000021e-02 1.000000000000000021e-02 1.000000000000000021e-02 1.000000000000000021e-02 1.000000000000000021e-02 1.000000000000000021e-02 1.000000000000000021e-02 1.000000000000000021e-02 1.000000000000000021e-02 1.000000000000000021e-02 1.000000000000000021e-02 1.000000000000000021e-02 1.000000000000000021e-02 1.000000000000000021e-02 1.000000000000000021e-02 1.000000000000000021e-02 1.000000000000000021e-02 1.000000000000000021e-02 1.000000000000000021e-02 1.000000000000000021e-02 1.000000000000000021e-02 1.000000000000000021e-02 1.000000000000000021e-02 1.000000000000000021e-02 1.000000000000000021e-02 1.000000000000000021e-02 1.000000000000000021e-02 1.000000000000000021e-02 1.000000000000000021e-02 1.000000000000000021e-02 1.000000000000000021e-02 1.000000000000000021e-02 1.000000000000000021e-02 1.000000000000000021e-02 1.000000000000000021e-02 1.000000000000000021e-02 1.000000000000000021e-02 1.000000000000000021e-02 1.000000000000000021e-02 1.000000000000000021e-02 1.000000000000000021e-02 1.000000000000000021e-02 1.000000000000000021e-02 1.000000000000000021e-02 1.000000000000000021e-02 1.000000000000000021e-02 1.000000000000000021e-02 1.000000000000000021e-02 1.000000000000000021e-02 1.000000000000000021e-02 1.000000000000000021e-02 1.000000000000000021e-02 1.000000000000000021e-02 1.000000000000000021e-02 1.000000000000000021e-02 1.000000000000000021e-02 1.000000000000000021e-02 1.000000000000000021e-02 1.000000000000000021e-02 1.000000000000000021e-02 1.000000000000000021e-02 1.000000000000000021e-02 1.000000000000000021e-02 1.000000000000000021e-02 1.000000000000000021e-02 1.000000000000000021e-02 1.000000000000000021e-02 1.000000000000000021e-02 1.000000000000000021e-02 1.000000000000000021e-02 1.000000000000000021e-02 1.000000000000000021e-02 1.000000000000000021e-02 1.000000000000000021e-02 1.000000000000000021e-02 1.000000000000000021e-02 1.000000000000000021e-02 1.000000000000000021e-02 1.000000000000000021e-02 1.000000000000000021e-02 1.000000000000000021e-02 1.000000000000000021e-02 1.000000000000000021e-02 1.000000000000000021e-02 1.000000000000000021e-02 1.000000000000000021e-02 1.000000000000000021e-02 1.000000000000000021e-02 1.000000000000000021e-02 1.000000000000000021e-02 1.000000000000000021e-02 1.000000000000000021e-02 1.000000000000000021e-02 1.000000000000000021e-02 1.000000000000000021e-02 1.000000000000000021e-02 1.000000000000000021e-02 1.000000000000000021e-02 1.000000000000000021e-02 1.000000000000000021e-02 1.000000000000000021e-02 1.000000000000000021e-02 1.000000000000000021e-02 1.000000000000000021e-02 1.000000000000000021e-02 1.000000000000000021e-02 1.000000000000000021e-02 1.000000000000000021e-02 1.000000000000000021e-02 1.000000000000000021e-02 1.000000000000000021e-02 1.000000000000000021e-02 1.000000000000000021e-02 1.000000000000000021e-02 1.000000000000000021e-02 1.000000000000000021e-02 1.000000000000000021e-02 1.000000000000000021e-02 1.000000000000000021e-02 1.000000000000000021e-02 1.000000000000000021e-02 1.000000000000000021e-02 1.000000000000000021e-02 1.000000000000000021e-02 1.000000000000000021e-02 1.000000000000000021e-02 1.000000000000000021e-02 1.000000000000000021e-02 1.000000000000000021e-02 1.000000000000000021e-02 1.000000000000000021e-02 1.000000000000000021e-02 1.000000000000000021e-02 1.000000000000000021e-02 1.000000000000000021e-02 1.000000000000000021e-02 1.000000000000000021e-02 1.000000000000000021e-02 1.000000000000000021e-02 1.000000000000000021e-02 1.000000000000000021e-02 1.000000000000000021e-02 1.000000000000000021e-02 1.000000000000000021e-02 1.000000000000000021e-02 1.000000000000000021e-02 1.000000000000000021e-02 1.000000000000000021e-02 1.000000000000000021e-02 1.000000000000000021e-02 1.000000000000000021e-02 1.000000000000000021e-02 1.000000000000000021e-02 1.000000000000000021e-02 1.000000000000000021e-02 1.000000000000000021e-02 1.000000000000000021e-02 1.000000000000000021e-02 1.000000000000000021e-02 1.000000000000000021e-02 1.000000000000000021e-02 1.000000000000000021e-02 1.000000000000000021e-02 1.000000000000000021e-02 1.000000000000000021e-02 1.000000000000000021e-02 1.000000000000000021e-02 1.000000000000000021e-02 1.000000000000000021e-02 1.000000000000000021e-02 1.000000000000000021e-02 1.000000000000000021e-02 1.000000000000000021e-02 1.000000000000000021e-02 1.000000000000000021e-02 1.000000000000000021e-02 1.000000000000000021e-02 1.000000000000000021e-02 1.000000000000000021e-02 1.000000000000000021e-02 1.000000000000000021e-02 1.000000000000000021e-02 1.000000000000000021e-02 1.000000000000000021e-02 1.000000000000000021e-02 1.000000000000000021e-02 1.000000000000000021e-02 1.000000000000000021e-02 1.000000000000000021e-02 1.000000000000000021e-02 1.000000000000000021e-02 1.000000000000000021e-02 1.000000000000000021e-02 1.000000000000000021e-02 1.000000000000000021e-02 1.000000000000000021e-02 1.000000000000000021e-02 1.000000000000000021e-02 1.000000000000000021e-02 1.000000000000000021e-02 1.000000000000000021e-02 1.000000000000000021e-02 1.000000000000000021e-02 1.000000000000000021e-02 1.000000000000000021e-02 1.000000000000000021e-02 1.000000000000000021e-02 1.000000000000000021e-02 1.000000000000000021e-02 1.000000000000000021e-02 1.000000000000000021e-02 1.000000000000000021e-02 1.000000000000000021e-02 1.000000000000000021e-02 1.000000000000000021e-02 1.000000000000000021e-02 1.000000000000000021e-02 1.000000000000000021e-02 1.000000000000000021e-02 1.000000000000000021e-02 1.000000000000000021e-02 1.000000000000000021e-02 1.000000000000000021e-02 1.000000000000000021e-02 1.000000000000000021e-02 1.000000000000000021e-02 1.000000000000000021e-02 1.000000000000000021e-02 1.000000000000000021e-02 1.000000000000000021e-02 1.000000000000000021e-02 1.000000000000000021e-02 1.000000000000000021e-02 1.000000000000000021e-02 1.000000000000000021e-02 1.000000000000000021e-02 1.000000000000000021e-02 1.000000000000000021e-02 1.000000000000000021e-02 1.000000000000000021e-02 1.000000000000000021e-02 1.000000000000000021e-02 1.000000000000000021e-02 1.000000000000000021e-02 1.000000000000000021e-02 1.000000000000000021e-02 1.000000000000000021e-02 1.000000000000000021e-02 1.000000000000000021e-02 1.000000000000000021e-02 1.000000000000000021e-02 1.000000000000000021e-02 1.000000000000000021e-02 1.000000000000000021e-02 1.000000000000000021e-02 1.000000000000000021e-02 1.000000000000000021e-02 1.000000000000000021e-02 1.000000000000000021e-02 1.000000000000000021e-02 1.000000000000000021e-02 1.000000000000000021e-02 1.000000000000000021e-02 1.000000000000000021e-02 1.000000000000000021e-02 1.000000000000000021e-02 1.000000000000000021e-02 1.000000000000000021e-02 1.000000000000000021e-02 1.000000000000000021e-02 1.000000000000000021e-02 1.000000000000000021e-02 1.000000000000000021e-02 1.000000000000000021e-02 1.000000000000000021e-02
-1.159217446155510487e+02 1.760667654453173441e+02 4.090106602292269145e+01 -9.200499396705110300e+00 -9.128160452195243124e+01 -1.391190470790785838e+01 -2.158828437213522591e+02 6.917730262973050825e-01 -8.802965655886423235e+01 -1.446392653168634546e+01 -2.057879551669360296e+01 6.735744400644886554e+00 -1.848515956134998195e+00 1.742745305152006665e+02 8.787885550775560262e+01 -4.023490484539483703e+01 -5.477653739618099848e+01 8.227889635342828001e+01 3.407965123270497543e+01 -2.633419611483051170e+01 -8.191649152714005311e+01 -7.668856123441912587e+01 -1.435590777844269539e+01 3.005151001403888600e+01 -2.024681587574891068e+02 -1.025763304569897372e+02 -2.708969740044241448e+01 2.094541113275243731e+02 7.350016953598768055e+01 7.964488302835447087e+01 8.338713887625563359e+01 1.235986004881493239e+00 -8.219598570939862725e+01 2.153773509923483971e+02 -2.542373115467551088e+02 6.103888971340560232e+01 -1.248553364519707713e+02 -3.600935062359102545e+01 4.184033064582926009e+00 1.316066379042761696e+02 -1.276757255874923374e+02 -1.420902351384092555e+01 8.038388354499008415e+01 1.802915358124643603e+02 7.414911067416387880e+01 -7.111727083519981818e+01 4.287951584858078746e+01 -2.945975075727084302e+01 -6.862186382176945187e+01 1.626617619642561294e+02 -7.338443507837745017e+01 -5.415898724171641021e+01 -1.446455211808331001e+02 5.898234728888390954e+00 -5.251925477798382502e+01 4.014797255945025256e+01 -9.215875842344100022e+01 -5.201571161557267686e+01 -1.053368390158850474e+02 -1.614543182345451555e+02 2.025489016384062069e+01 4.706088175145146835e+01 -1.278872882823819737e+02 1.336629129894475732e+01 -8.241125031099329590e+01 5.101862066183914379e+01 1.730273715009145405e+02 -1.498403963670002099e+02 -4.501408373970588883e+01 7.444615466289522310e+00 3.030648603662320362e+00 4.401412267002066869e+01 8.724549513806617540e+01 1.001801384630771397e+00 -9.101960267777533531e+00 -7.277196509603021468e+01 8.132245944029752138e+01 -3.409734573783120481e+01 2.729883716745067801e+01 1.080428290967524134e+02 9.169039873818886122e+01 -4.439763890077471586e+01 6.010568955192810847e+01 1.531802806845404632e+02 1.207161573903480303e+02 -4.212471809530114797e+00 1.810160939837546152e+02 -1.158402395796131970e+02 4.400532233003615623e+00 -4.356944645045328457e+01 2.149117192806505443e+02 -2.204891255061255961e+01 2.972107642047970177e+00 -7.977122460205802668e+01 -7.397596931242664375e+00 -6.636597431077017006e+01 7.039074174924419935e+01 -9.821921337145266762e+01 7.117245043285963391e+01 -4.958088074285288371e+01 -5.171989209863124159e+01 -9.521983710835218062e+01 5.519579086747653207e+01 -5.688938241293487152e+01 -1.551583041415152877e+02 -8.258912817596370814e+01 -1.087050277233370252e+02 -1.633626720159794274e+02 1.412613338556662086e+02 -2.862392192755457287e+01 3.326328212924379102e+01 9.316588355125396959e+01 -1.081696503439684705e+02 5.921683652038822032e+01 -4.501728989866010977e+01 -7.195591575092818459e+01 -9.354471175730621724e+01 2.112758302599709737e+02 -5.896304249333616099e+01 -5.139107903594286597e+01 -4.910499690210808410e+01 8.354823799717273403e+01 -4.300795578649477591e+01 1.434050406525934989e+02 -5.176138400796517658e+01 5.719816951444304465e+01 4.718496349068288964e+00 -8.436635312811128529e+01 7.154335417313990320e+01 2.881965505802360781e+02 -9.557067837448202852e+01 4.937283415331285852e+01 -7.917266559637268131e+01 4.699695784866479897e+01 1.363073628356391964e+02 -5.334120224748878769e+01 1.513282747077968793e+01 -2.795576285241136105e+01 -1.059087652885413178e+02 -1.791536653988725902e+01 4.411630198314022699e+00 -8.138775429294865305e+00 -1.555492022348568426e+01 1.229205843390559920e+02 1.354281534938490097e+02 1.937581231678628910e+02 -3.162381109109552995e+02 3.972725513259278074e+01 -1.635046269006560138e+01 -6.482462088794227384e+01 1.874534482706300480e+02 7.928480157487878444e+01 -2.647143820802044800e+00 -1.205897293010803963e+02 -1.136134676897606610e+01 1.040669882142881733e+02 -1.397896150173593242e+02 -1.753847979817053329e+02 1.116343279799161792e+01 4.415067465574715300e+01 -6.344754846916774937e+01 4.372000228921766052e+01 -1.114003454996785365e+02 -1.574483855375424923e+02 2.199067224973301293e+01 5.055089220667311167e+01 4.979637337991738022e+00 -8.693025059622775075e+01 -9.741786894256136975e+01 -8.781524033783905736e+01 -9.113212091575189788e+01 1.311854799472443034e+01 5.919940196150244560e+01 1.213113327879944165e+02 8.274829446670565858e+01 9.322083775846530784e+01 1.119021996258680787e+02 -7.794150476659005733e+01 -8.599892184692011199e+01 7.349717956346420067e+01 7.129083236765993092e+01 6.175195121362341411e+01 -9.802398741986408481e+00 -9.498490734251947742e+01 5.629725315859374035e+01 -1.866245035518743123e+02 7.005102903808135295e+01 -4.651443657208137239e+01 -1.006812312237794629e+02 7.746317250565952861e+01 -1.786284497044303166e+01 -8.058443865349579482e+01 -6.005743786974589682e+01 -9.535939913144922286e+00 2.535491161902525050e+02 8.022346322040014854e+01 5.731255003359287059e+01 -1.086648994818837934e+02 1.550329913322211439e+02 1.069596209474513060e+00 -9.458303148201193267e+01 1.629974648463479809e+02 -1.613336295753234708e+02 1.650906102694742827e+01 -3.410378094999837373e+01 -2.326012268647072858e+02 -1.412778008072845353e+02 -9.237027464264767218e+01 -3.093178465932555099e+01 -1.262702473770463882e+02 6.106469675757675475e+01 6.878562480219919451e+01 -2.916073623608144061e+01 -1.055284092972507324e+02 1.197374563014302424e+02 1.251985685649931810e+02 4.893755618004061603e+01 1.845789031509929146e+01 2.767329556759689240e+02 4.626853233456362346e+01 -1.264207924448932516e+02 -4.769246170360844417e+01 -1.789122527260850575e+02 3.376279437669808914e+01 1.624827999057083900e+02 -1.573061621166107500e+02 1.396023500549306107e+02 -9.640459124116311784e+01 -2.000681602455157204e+01 -7.537038904456833111e-01 5.601346634666927571e+01 -1.232259096161394574e+01 -2.413384251235348188e+01 -2.011536322201383342e+01 -1.342554422065599908e+02 4.924342050879022281e+01 -3.221198308717097092e+01 -1.380909119497280457e+01 -1.135371853186382829e+01 2.396156014129257983e+02 1.846948142506535646e+02 2.467052299275936207e+02 1.397815099834671173e+02 -9.181719596663815253e+01 7.978389851494941354e+01 2.237102893145740623e+01 5.053475108212456490e+01 -4.218958823017807447e+01 2.709624519640524909e+02 -2.469816528302078140e+01 -1.450474072272858734e+02 -1.588005560147575501e+01 -4.860491418479839609e+01 -8.214644013885545348e+01 4.579959453836018923e+01 -1.242957171218166934e+01 1.930341831411112992e+02 9.811804628977500897e+01 4.339803156833583841e+01 1.040757317036893141e+02 1.001975240691271978e+02 -2.440071761245302540e+01 1.482089146289050632e+02 2.808169646278713927e+01 9.504741121116120439e+01 5.055240053449553272e+01 7.370280396368189102e+00 -1.229012682850262905e+02 -1.229265213388314493e+02 -9.553396642448866771e+01 -1.654018727534636213e+01 9.200679183194286281e+01 -3.257411963083414008e+01 1.049825258576660474e+02 4.649039824961561607e+01 -7.720294245661231969e+01 -3.183092358584920234e+01 -6.221428634633636534e+01 1.863983647831850021e+01 -4.921605195571996916e+01 -1.189465579979335530e+02 1.290425947657591905e+02 1.287987167638483186e+02 -8.378611086079084203e+01 5.827557580374814528e+00 -4.808677511568595264e+01 -3.465953244037607561e+01 -1.204160461743288657e+01 -3.312454114077670653e+01 4.715014590346651602e+01 -1.491311834414462396e+02 -5.606189447642038459e+01 -1.612310136667282734e+02 1.847959473744772083e+02 -2.151220198008289586e+01 6.257988636589716691e+01 1.267614125438373129e+01 1.532114285764112935e+02 4.739783253615259895e+01 3.793758161401157025e+01 1.636886607967137479e+02 -5.225071814688166683e+01 -1.034632704090905548e+02 2.876552438155711044e+01 -1.675334862804625118e+02 -5.660332916509896961e+01 1.084159610820009618e+02 -1.354803337213152190e+02 -3.855183746634675401e+01 9.677298694525836709e+01 -1.001856839292776584e+02 -9.489311725388691343e+01 -8.760771183293053355e+01 -6.768319379454418083e+01 2.638563933858771975e+02 2.099890078344816118e+02 1.091615266089326042e+02 -1.082784431555841707e+02 7.932355750325649524e+01 -6.999961259135658054e+01 -3.296917128723485035e+01 1.757126041606167988e+01 -3.403214259998830471e+01 -9.927397905761230845e+01 -2.826803031326786453e+00 1.569258415458894618e+01 1.150797725747838030e+02 -1.359293265625631761e+02 4.425070073036071960e+01 6.742026060292072032e+01 3.656572229233594840e+01 -9.579706440750886998e+01 -1.569573844601979147e+02 2.042634441856599210e+02 -1.883837354972329337e+01 2.662231629271078859e+01 1.653351724590298772e+02 2.817986554160123092e+01 2.931803401195234571e+01 -4.702083788000769715e+01 9.354348010367844779e+01 -1.439841269422539085e+02 -3.253806437185349409e+01 -6.474375739789569373e+00 -5.640771351307515147e+01 6.460561270357966457e+00 2.252262824038052003e+01 -3.777217096092413584e+01 1.442326333097439139e+01 2.255176595536274249e+02 -2.888950346221006882e+01 -2.948264500010746403e+01 -1.072547649428405236e+02 -1.756820889381253803e+00 -8.520647803070339421e+01 6.778089487099228094e+00 1.182015680313097477e+02 -5.488957512486934576e+01 6.387311004153718663e+00 -5.731101988226313892e+01 3.528650899600659585e+00 9.199239966386033984e+01 -1.221929940061374253e+02 -1.020731335788740921e+02 -1.081324726680004034e+02 7.531825657834663446e+01 9.128442656288881096e+01 -9.737980833413867288e+01 6.598624450130303387e+01 2.720267936959259103e+01 4.079331222569871329e+01 -1.873307023056728227e+01 9.629075892882519838e+01 8.409399659875586508e+01 -8.150156075942958012e+01 1.253909376868122294e+01 8.531474575364215696e+01 7.683808959271205197e+01 -2.094045151824321138e+01 2.635765966075678790e+01 -1.397797139379377143e+02 5.112765868602658514e+01 -3.453565291372280655e+01 -3.439215015704144918e+01 1.825782510530387128e+02 5.002936180913429354e+01 1.267497806879154325e+02 2.012751610320982536e+02 -1.451723416127416328e+02 1.571180248641624644e+02 -6.677561532131525723e+01 -1.424381312471788021e+02 8.678582972977133636e+01 -1.413658849667081370e+02 -3.024980439929213460e+01 5.949260248928812445e+01 8.552978657126695694e+00 -1.771569657429205904e+02 8.875056686904925130e+01 2.656241316278878983e+01 7.284674337571588865e+01 3.821345795008343060e+01 9.995836548962778068e+00 -7.075376939702739776e+01 1.220286576084048562e+02 5.742847106313570293e+01 -6.549497082171417617e+01 -1.067139098851864816e+02 4.108867924292319174e+01 2.701107343958514662e+01 8.682363071707651159e+01 1.936184002489885927e+02 -2.598733156838492775e+01 -1.160863546363363383e+02 -8.936719942568227282e+01 -5.409918402242549007e+01 -4.682456297866287542e+01 -1.546778070951349378e+02 -2.369424063231972255e+01 1.364522137647115301e+02 7.858580042789303377e+01 -1.289830987648661562e+02 -1.578534648269779552e+02 -7.180702876606727614e+01 -8.053830294018122515e+01 1.546065419545452073e+02 -1.796376842387640238e+02 9.116557824048716441e+01 -4.857576479471680031e+00 -4.532579999747058963e+01 1.403946696211963463e+01 9.612062180078763163e+01 5.230866885025205448e+01 1.456515671916407939e+02 -1.676896504294005297e+02 -8.533203221561365126e+01 2.666777753908693427e+01 4.420078246337780570e+01 2.172732576017986048e+02 1.532583001714110651e+02 6.902235662388730475e+01 7.598433007320740273e+01 -3.617031383275729439e+01 1.600256617588581207e+02 -1.889193188533521948e+02 -6.677645612966813360e+01 -5.657769988473974365e+01 -5.457870878486369293e+01 -1.088674098254948603e+02 -1.577586957623632813e+01 -7.234230392129524034e+01 7.502711351182175292e+01 -9.672314110940613219e+00 -6.126597164553032826e+01 -6.571838483972143763e+01 1.898695959013872141e+02 6.211306815188538621e+01 -1.440655653378276391e+01 2.200674405649863274e+02 -1.141057462312587774e+02 -3.724196555012787968e+01 7.053716946506870045e+01 -1.297506072941594368e-01 1.570502062618285777e+01 -1.316951520029018354e+02 1.855983788757646380e+02 -5.165357646654765489e+01 -2.842721244916540968e+01 -1.155637061078005416e+02 1.325470465546608239e+02 1.010297669513917924e+02 -8.165565730149251067e+01 -3.950212157107623057e+01 4.097719801135852435e+01 -1.594229293159143310e+02 -1.117060335693822598e-01 -7.864076956950808039e+01 8.130316042623995543e+00 -1.138359229495672906e+02 -1.668646128192777098e+02 -7.437398623074594184e+01 1.559069564008770215e+02 5.958180072708887565e+01 -9.426752580536611958e+01 9.385541224226862766e+01 3.605293181985503281e+01 9.284088115760478388e+01 -4.429345347926180665e+01 -8.847042094103120746e+01 1.798319564561396078e+02 4.383631457035746593e+01 3.045435422561887151e+01 -7.678192427533817010e+01 -4.447565013763355779e+01 1.008379662744241578e+01 -7.511850778252977534e+00 -1.816278914798475626e+02 -3.634936292475720876e+01 6.770606339930448314e+01 1.173114708150306598e+02 1.635596048829844733e+02 -1.392187442464721769e+01 9.412990467244540582e+01 1.656102786946984793e+02 6.661753965591363169e+01 1.552539382253122255e+02 1.686071423718060558e+01 1.378150548498362014e+02 -8.809598077006477013e+01 5.602818092782695913e+01 3.081787940305951778e+01 7.959956048037693677e+01 -1.113825940787728115e+02 2.076018221205321481e+02 -1.351003983935254666e+02 9.252797682763915077e+01 -1.126559998414203392e+02 4.832479630250111313e+01 1.444836325168146374e+01 9.504734286300340784e+01 -7.719732732737440983e+01 -7.908581583697227302e+01 -1.171926884652513223e+01 9.328043374408149191e+01 -3.096595916565223661e+01 -1.708496889085370185e+01 -2.054838982040412176e+01 4.958861232307770095e+00 1.026809666133667207e+02 -6.546715874745197539e+01 -2.848636132779745811e+00 -2.024504110613455623e+02 1.271935374079389334e+02 -1.302369499830410575e+02 -7.707483096544002876e+01 -2.457478909607406692e+01 -1.125458120083030451e+02 -5.545738817048978575e+01 -6.106408857833221049e+01 -2.049163381096887804e+01 1.421420436980182274e+02 5.637705882908747412e+01 1.047566772565133846e+02 -1.419269141467695476e+02 -1.445318598146581053e+02 -2.987101171833343187e+02 1.064892994404294910e+02 1.087826323388046319e+02 4.405327322149528158e+01 -4.419629825876460671e+01 -3.885420007998837377e+01 -1.914852842732506986e+02 1.524510018644558045e+02 -1.120470669775313155e+02 1.115561742977574511e+02 -1.661026068536690445e+02 -1.491396363232268740e+01 -5.775832347396535482e+01 -1.243737638604476246e+02 -4.807468382776438887e+01 -1.298595033997473713e+01 -9.663369861766994973e+01 -1.079955124752447801e+02 -1.288161367869639840e+01 7.429309057124466165e+01 -1.300398029593673357e+02 -1.636347266763078068e+01 -7.695723782474858865e+01 -1.371152284076398757e+02 7.020683755618917665e+00 9.937461861927287998e+01 1.726764079385603168e+02 -1.991602332235662942e+01 -4.807130518134229646e+01 -1.295259798220322978e+02 -1.706654967489220098e+02 1.082697535912272571e+02 -7.593423078768014989e+01 8.250346182985123278e+01 9.821543217685460903e+00 3.056487899948283271e+01 7.710314822788524225e+01 -8.842367628609311225e+01 8.628542817009028454e+01 1.203385913418051132e+02 1.642966428592035584e+02 -1.217778568614558452e+02 1.085113818668732364e+02 -4.985032648705182368e+01 -9.479575282946836978e+01 2.239959740109076165e+02 5.146551437094550607e+01 8.714956357731036007e+01 2.228569277331096643e+01 -6.590216603177718468e+01 -3.648259237584805703e+01 -2.196496302686577735e+02 1.102852087904443863e+02 8.512761338697042390e+01 -7.904837367775871826e+01 -7.642127590727740483e+01 1.516206285587585683e+02 1.055337202756094541e+02 5.336707600188435663e+01 7.946545120914043991e+01 -8.286771024230386473e+00 1.077684524181930215e+02 -1.080758797771493533e+02 1.947004321138813339e+02 -4.122945019523658772e+01 -1.273715428678293620e+02 -3.929682707245351025e+01 7.492612029847251165e+01 1.538790781638085434e+02 1.355258973969127112e+01 1.815222831085565076e+02 5.453759532361372209e+01 3.508716403759228797e+01 -1.162671318838947343e+02 4.682760263048820804e+01 -1.306241639464167008e+02 4.978622787603332966e+01 4.040672787822138190e+01 -1.287797745398137579e+02 -8.880334005822960819e+01 4.158148676220895368e+01 9.114080874618716521e+00 -2.429020894769047345e+01 4.368498006749275220e+01 -2.234489289304058701e+01 -6.589515779581637389e+01 -2.723500337806395422e+01 -2.348474741824313483e+01 -4.160623860804206231e+01 1.962618849349950878e+01 -8.403356673630133855e+01 1.242417999177574472e+02 -7.767216677684324111e+01 -4.540806738741023807e+00 6.834938392015001796e+01 4.092056341136088626e+00 1.663424218760226481e+01 1.665391124175662441e+01 -1.223575827045274877e+02 -4.624946206873950416e+00 6.794768867070075657e+01 -2.417216924210705997e+02 -8.858633282587946667e+01 -1.177562664068620819e+02 4.572394357301023149e+01 1.005024324361745585e+02 -9.580256356769108095e+01 -1.753402900816282681e+02 -1.933116268769188082e+02 2.087381782568337130e+01 -1.513718518884433308e+02 -6.589771203153246049e+00 1.540659183826024616e+02 -7.451025382664602681e+00 3.877621808880468279e+01 -1.032101749280988230e+02 8.321745563615060348e+01 -1.235248210805393541e+02 -1.602509298920336178e+01 -3.158939181231789561e+01 5.990490353650056932e+01 -9.276815740571802138e+00 1.099466050042517082e+02 -1.269003338781420496e+02 -5.206245711277136934e+01 8.986044474323460918e+01 6.872815431466494829e+01 -8.558049988485059600e+01 -5.647443996206560968e+01 -5.121880018786539779e+01 -3.003123061687971358e+02 2.008125288617451361e+02 7.900090976942571785e+01 -2.450849177698206560e+01 -3.075602842981782103e+01 4.306046519281211715e+01 -8.729650357136659977e+01 1.032032906191732451e+02 6.261384931272313992e+01 8.505310642548533906e+01 -8.711847562713461457e+01 -2.757751767084732464e+01 3.456846513557169942e+01 1.799999226544056086e+01 -4.429969463596723500e+01 1.634091057960436331e+02 -1.791207387769538428e+01 3.659793448810935956e+01 -2.377637809713364163e+02 -8.765345562772252208e+01 -7.571703264998826910e+01 2.380308805583684162e+01 1.129535598149749944e+02 -2.395580040548393299e+02 -1.934378228618726041e+02 2.292991075970465431e+02 -1.093591156306935552e+01 9.938793831290904279e+01 6.492839964821250476e+01 -5.728979849289272153e+01 -1.354887174612025547e+02 -9.841939744568735193e+01 -5.199504798930911420e+01 -3.874198782296310384e+01 -4.048977109406168751e+01 1.675769425642009125e+01 3.836162787618102499e+01 1.724739394839481008e+02 1.273634767445436324e+02 7.118614278073992274e+00 -4.516353607922629187e+00 -1.642632456950242101e+02 1.237339562617412696e+02 1.647865249450197780e+02 -1.069086552887517314e+02 7.625848545574788773e+01 1.888751648113683013e+00 5.672940455784094382e+01 1.297706153806254292e+02 7.336496259412669474e+01 -1.385820948335025093e+02 1.672441121286689381e+01 -3.038905047511001811e+01 1.151575429124925520e+01 -2.401637475024016055e+01 4.693241464933098683e+01 -2.694399519709202195e+02 1.875176631491957266e+02 7.607359211637646723e+00 1.650159060033121818e+02 -1.096434420243641661e+01 1.099627578344187100e+02 7.417665848174065957e+01 -4.353501121950302633e+01 3.092653975064505900e+01 -7.537148417293853697e+01 -9.214751543316252480e+01 -7.471351345688584900e+01 -3.320468955782257581e+01 4.684439093698910028e+01 1.142255500861770656e+02 2.957108587080114503e+01 6.433074963169150351e+01 -1.086814240188309100e+02 -1.422247265465771591e+02 -1.398647199924045381e+01 4.815483877888325992e+01 -4.727569842460000871e+01 9.803434164362538183e+01 5.757651343512454645e+01 -2.870253661170784554e+01 3.108793030604472918e+01 6.366424241339029777e+01 -7.486334536993489053e+01 -1.387951487872293228e+02 1.475121829167410965e+02 8.116508379288319475e+00 5.207067832688165510e+01 -1.550123153644415481e+02 -5.546369887181803904e+01 -5.041645324105394899e-01 -6.821035378877067501e+01 4.448923016314456191e+00 5.847004249131083498e+01 1.937454511768331713e+02 4.066102341001288778e+01 -1.140244969809254094e+01 7.501969096914871216e+01 -4.731021618014980135e+01 -1.133348672771839745e+02 -1.437582346540711455e+02 9.761207402609921147e+00 2.612898799620305468e+01 2.472778412422666605e+01 -5.918992630626188856e+01 1.257816864520157196e+02 -8.416812557516851712e+01 1.336171230708546318e+02 9.091509001939577672e+01 -6.774458678512904442e+01 -8.815491557322705773e+01 8.768971878733670167e+01 2.138385798944195670e+01 -5.466193394016809748e+01 -5.612409241431517160e+01 1.423830711308858383e+02 5.969986309370931821e+01 8.323648033953797665e+01 2.725735703427545076e+01 -4.390687893238818162e+01 1.121092466259748761e+02 -5.690229404826883552e+01 5.321876301210696214e-01 7.990846959957717388e+01 1.038859659669550126e+02 2.665147254639508105e+02 -1.827366305730593581e+02 1.680029596492194059e+02 -7.060690115006313761e+01 -1.588788021135109396e+01 -2.610744357657449655e+01 -2.165551537638208401e+01 -5.768272571067478083e+01 9.704537752918965055e+01 1.924038778743580167e+02 -1.242155955502839078e+02 3.234235087347861537e+01 -1.327322220110621060e+02 7.343142366953244959e+01 -4.659341254158108114e+01 -8.473613663713594235e+01 -5.639467624198370288e+01 4.310577590974266116e+01 2.033439175891725270e+01 -8.574557515156969600e+01 -1.478947501390965158e+02 2.179058532678065774e+01 1.653256682653722009e+02 1.498676822478373616e+01 1.915074209087939039e+02 7.844419301496925456e+00 1.413291320957162043e+02 -3.634534843961024109e+01 9.525243538720565084e+01 -7.507187869713196449e+01 -1.186644210058793476e+02 5.196583743958992585e+01 -6.102043389348686020e+01 -8.256397277880695640e+01 7.673516894529954868e+01 6.753580008755450059e+00 -9.927346737986485437e+01 -1.584541425878175573e+02 1.557111392035614017e+02 -9.392335573941056737e+01 -2.442142446780463771e+00 1.265130539527067413e+02 6.119065407054140593e+01 -1.035020500004667241e+02 1.116971275499600935e+01 2.974334285097048109e+02 5.627402600442479041e+01 -1.664523948824667059e+02 -5.033963660108211258e+01 -6.498017476686700888e+01 1.018499994173139633e+01 1.135729545217380263e+02 -1.092502154529606457e+02 2.275163380626446852e+01 1.378821775030738763e+02 1.984607245396274067e+01 -2.232286887164623010e+02 5.114241676773919920e+01 7.977127236819994494e+01 -1.433157191999215385e+01 3.468865247572506405e+01 1.123745022449971626e-01 2.373030707491973246e+01 2.932125190506192425e+01 1.224116673625563294e+02 1.035860851797839075e+02 1.636218990591813949e+01 1.575536070161615214e+02 -6.768286319485635261e+01 2.607517047018222343e+02 6.873328044658900637e+01 1.497651401592895013e+02 -2.324332793289645593e+01 9.521221074945073326e+01 -5.193921590384381659e+01 -1.547796258212416660e+02 2.772482805724991195e+01 1.006274042257635557e+02 -9.269853713295833586e+01 -1.107687351048092239e+02 -7.037080570793668244e+01 3.867705188780050207e+01 -1.208682954687138249e+02 7.907192031417864087e+01 2.972694462184516340e+01 -1.032543459329054798e+02 2.009550281590184966e+02 -1.244649561962122242e+01 -1.076075440762036095e+02 -1.412308991611488729e+01 -2.161697078846979991e+01 -1.483663172845856479e+02 -4.237264488474492907e+01 6.505478704244058008e+01 1.393847143757806464e+02 3.067533345961599522e+01 2.834124701661014711e+01 4.738842093478313444e+01 -3.786949523177288057e+01 -1.540078300922711776e+02 1.673438669533351586e+01 3.283037649828693105e+01 1.407910469666601045e+02 -1.056222856017749301e+01 -8.057998742441051832e+01 7.747022558986628837e+01 1.075895129712960419e+00 3.389532368660911743e+01 1.474456598875841280e+02 -1.879281459734048667e+02 -9.824155174013435499e+01 1.319783335203338481e+02 -2.218351647021612507e+02 -1.891054882977841487e+02 9.352085592971057793e+01 1.583435391312870593e+02 6.513542982806566783e+01 -4.548791754412256694e+00 1.602188581354383814e+02 -2.256387477704389823e+02 1.101825728553731807e+02 4.358125445593462644e+01 1.306704386715007900e+02 -1.939178325799657614e+02 1.096496095712175105e+02 -2.913047414992377071e+01 -1.374838462507690906e+02 -5.481011697567465646e+00 -9.503298699348482614e+01 -1.685293385026315960e+01 -4.349863681754087885e+00 -1.266671898970322587e+02 -1.267995916293852332e+02 -6.435323941444032414e+01 -1.325875514797539267e+02 2.066904037006106876e+02 -1.654900744822755314e+02 -5.157156339481917229e+01 1.774025640272784301e+02 3.487694599664187223e+01 -3.043274768725123067e+02 -1.306234562136249338e+02 3.654725224177404641e+01 5.617242253037901634e+01 8.900024342399371236e+00 -1.590299307142925613e+02 3.669677928247487131e+01 7.643567835481343664e+00 -7.642300046066118568e+01 2.084034706005625139e+02 2.083408155064982452e+02 4.437228318065539412e+00 -2.143897687012795075e+02 1.295579519946577420e+02 3.166043149819591562e+01 3.807502488327629830e+00 7.883276390925144028e+01 -2.132965839838145143e+02 -1.419498635259535320e+02 1.450490698159591147e+02 1.127218469886827705e+02 5.445314617978479532e+01 1.473135640869933525e+02 -1.832878997126003924e+02 -2.098087491608820088e+01 -1.341405252143910047e+02 4.474778226396967540e+01 -1.067817374007689466e+02 8.947488510957239782e+01 -3.479136754725720948e+01 1.272833355670225330e+01 1.824126586313489042e+02 2.924792807388797300e+01 -2.709885217077476796e+02 -1.298845712185875811e+02 -8.571333258850414438e+01 1.625523711027768741e+02 1.288268705922813417e+01 -5.526399049316268730e+01 3.129276345308822727e+01 6.430930705725003804e+01 -4.072892500559569839e+01 1.105430299188675463e+02 -1.035610715219709732e+02 5.059714641210539554e+01 1.150709786416677218e+02 -3.637412250281381176e+01 -1.008820675293913496e+02 -1.165640957760973038e+02 1.231242191310873011e+02 -5.103349286224831616e+01 2.020801672908990554e+02 5.881295956404449043e+01 1.140886151999412590e+02 1.895126520492367490e+02 8.807462567306860279e+00 -1.277388740745307558e+02 -1.704655876639618270e+02 -1.174260208541364960e+02 4.363424476916129890e+01
-1.370720063387021170e+01 -4.807390286442232430e+00 1.040292156456994661e+02 -2.299761067474129561e+02 1.560756425342586908e+02 6.382396099176990845e+01 1.527747595999417740e+02 -1.296921090997113311e+02 -2.811013487658356347e+00 -2.419237639172060383e+01 -2.203982080156006020e+02 3.290302351294128158e+01 -1.841017696342289867e+01 1.227977912985060129e+02 -1.255435929268232655e+02 6.196487483127764762e+01 1.258582042509277414e+02 -4.612524555734805176e+01 -4.993312375801635028e+01 -2.722107228546523672e+01 6.193696511955315742e+01 6.342241701982074176e+01 3.253391105735570221e+01 -2.335294575781925346e+02 -5.189397465026290490e+01 9.183111102479220733e+01 9.936003510716936660e+00 -1.037186620047479479e+01 -6.682644625505464830e+01 -1.548739288479565701e+01 7.364559032888791990e+01 -1.460187303412632218e+02 -6.212470126749782651e+01 9.051890678890261555e+00 2.083170291804295005e+02 2.129061398980973081e+02 -3.214765520889606165e+01 5.612080076605555234e+01 -2.901358135782216019e-01 -1.402610125036623572e+02 9.639641047815459274e+01 1.077078828209833006e+02 1.089795091423501674e+02 1.175599929973417801e+01 6.217043880034996306e+01 4.833215067074242910e+01 3.905599313694747110e+01 2.941783795519927480e+01 1.107558897883864404e+02 9.010966419178929243e+01 6.590002003898322869e+01 1.636384141349479933e+02 2.485950140071924750e+02 1.963679521725341317e+02 -5.936518040243710459e+01 4.946847397022227710e+01 -6.458354755338356767e+01 5.667729988888076065e+01 -1.929026425358596271e+02 5.673726954146187751e+01 -2.056506214784711233e+02 -1.694022568876086723e+02 1.298817908645640706e+01 -9.255355525870623268e+00 1.702617794026361366e+02 -2.087574666642190664e+02 7.560776453802564845e+01 2.307321861927026418e+02 -7.313987045493655970e+00 -1.954563990834457741e+02 3.577889708534181779e+01 1.980792794032940662e+02 -6.135027857706668186e+01 -2.675455001979869962e+02 -1.029987966279367555e+02 8.821589792615702308e+00 -2.310814927660714488e+02 3.211066688032261141e+01 -1.802539393686205358e+02 -1.864518692127709016e+02 -5.731370449430750824e+01 1.532338761077252798e+02 6.988132206097401422e+01 1.064546472970170399e+01 -8.902343608987592916e+01 -4.282510438048993962e+01 6.409466402717988842e+01 -2.332436510948065234e+02 5.439648099971199713e+01 -7.546748774724964903e+01 -7.849506114257603429e+01 -1.777641714862336357e+02 6.548902826115221387e+01 9.331745121719167457e+01 -1.632644400242812424e+02 1.737285755800734535e+02 -4.015039705563786043e+01 -1.701175086679860726e+01 8.802002454897714756e+01 1.572076534445457980e+02 2.177179173250665301e+01 1.523382003361625436e+02 -1.854747628483770328e+01 -9.125866218193544910e+01 -1.974830920788598831e+01 1.017203757354694744e+02 4.651239369516253674e+01 1.011776810020909210e+02 9.765279959693522471e+01 -8.586755056122872531e+01 -1.757439000879907667e+02 1.272907256532182316e+02 5.613101023778772714e+01 1.666699857319989064e+01 3.163922648167713803e+01 -7.026823408115508585e+01 9.936233518394374187e+01 9.292084151351757271e+01 -1.410635103270611168e+01 -7.369733861919726792e+01 3.188474618385007986e+01 6.483253051858955729e+00 -6.371564164178449374e+01 1.754288319797576889e+02 -3.423968556995444601e+01 1.258747253084870863e+02 -7.259484248504058712e+01 3.973599474800556663e+01 -3.742435511504753265e+01 9.260676806418071294e+01 2.433078671281404581e+01 1.196775631351464710e+02 -1.200988712735207287e+02 7.699629304125760143e+01 1.279311793263614589e+02 -4.634231129978155650e+01 7.812425952814314734e+00 -1.304605129392747109e+01 1.209581937159724987e+02 3.596397120698293648e+00 1.748500507594357884e+02 -1.465613480652701242e+02 1.209732391191406435e+02 -9.474035513699631395e+01 9.923650206339802082e+01 -1.420988192961554262e+02 3.062202266587333455e+01 2.564516707184529309e+01 1.914299558236941756e+00 3.766328174796667838e+01 4.754831405374656583e+01 -1.293126208270020783e+01 1.113939169897087034e+01 1.121399839038697621e+02 1.320691358339658734e+02 -8.990899256079082136e+01 -5.630788865287529887e+01 4.919192938793329972e+01 1.618558673547155546e+00 -1.421316542666456542e+02 -5.714694627991290332e+01 -3.685339126270246624e+01 5.081478949819473456e+01 -6.811093505849427743e+01 2.383076109284242605e+01 1.665554248146667931e+02 -8.257084457887206952e+01 8.389554469077627630e+01 8.740129889108396810e+01 1.162907785941428784e+01 1.282789101882011664e+02 6.537033401903731544e+01 1.747131975188343347e+02 -3.587393536454995058e+01 1.169843497915145463e+02 5.775602085323708934e+01 -1.673823409472514001e+01 2.123739536811977189e+02 -1.444662732494217892e+02 5.085989419598090677e+01 -1.952415379233554802e+02 -8.765392699241563434e+01 4.269764327543948212e+01 -7.518717447200427273e+01 -1.623504803311003855e+02 2.076227587389127507e+02 -8.937128920192677128e+01 -4.947939564882542385e+01 -4.823214835395327071e+01 1.268733888459544090e+02 2.030161679740402292e+02 6.750056894558335330e+01 1.524487947383748860e+02 2.287448455212408760e+02 -1.718493423250111007e+00 1.698679574997308350e+02 7.391231718120830863e+01 1.985027172173249994e+02 -1.311083921117304669e+02 -1.240649437182224624e+01 6.589586680187011325e+00 1.980716867866180451e+02 -9.481594020044941828e+01 -6.299834910964015933e+01 -5.522584985501812582e+01 -1.396132208832817980e+02 4.854842244528023265e+00 -1.052570351849146846e+02 1.606203790422584632e+02 2.459844132052765886e+01 1.254178434170450984e+01 7.539908988646654109e+01 -5.170824481866583611e+00 1.218959290235777502e+02 -1.655952477777302931e+02 4.732092728237625323e+01 -1.781975399881827400e+02 1.224376778534743551e+02 1.000556615029289418e+02 -7.021831482638563671e+01 4.872717867138860726e+01 2.482973252490945129e+02 -3.173652216230262368e+01 4.344723607919949160e+01 -3.405931134070515043e+01 6.040223757905745572e+01 6.705515782898837074e+01 -6.526661114495363236e+00 1.063040188058319302e+02 1.058966631486295569e+02 -2.021446317963844308e+02 -1.597775246110550142e+02 -1.248868828948618983e+02 -9.879438271072217503e+00 -1.561974456777936666e+02 1.204577287993862171e+02 1.150734829254102465e+02 6.144871411954010654e+01 1.163084835588242072e+01 1.643977801033824448e+02 8.752816909671992107e+01 7.034200097438319688e+01 -1.059897208577973799e+02 1.587253033347878386e+02 -3.702685584781947092e+00 1.139234747985133112e+02 9.182490104138844700e+00 3.830092542928598931e+01 -7.892731169639657196e+01 -9.459882461740720316e+01 7.459156218513417969e+01 -3.966713853268211576e+00 1.524506433059588062e+02 -1.311939532087390603e+01 -2.988904645229953250e+00 4.777114398751256630e+01 2.360403319509474684e+01 1.473058458394675085e+02 1.519048212181880864e+01 3.731362453282080338e+01 -1.611360123679957326e+02 6.859753953353856559e+01 1.391823956614231577e+02 -1.846904201883574714e+01 -2.373407028151939073e+02 8.784534127861716968e+01 1.415452399896265661e+02 2.106142393919800071e+01 1.962656149093360796e+02 -4.224274531992616488e+00 4.454888957677193417e+01 -4.518987667767334671e+01 -1.438497306235358337e+02 5.802039967210465932e+01 -4.918905512550747972e+01 -8.405193197848825548e+01 4.268532590548655747e+01 -1.914267146180695818e+02 7.433442513248357386e+01 1.701305972101543205e+02 -1.047912673148446174e+02 1.789604597321775543e+02 -1.011085847780703943e+02 -6.211053592753537522e+00 -1.085745386405572788e+01 7.919153903877476353e+01 -4.812245910007270311e+01 -1.114891015523103590e+02 -9.147106934397004352e+01 1.506209636947980073e+02 6.105671942829306431e+01 -1.360038582530466726e+02 4.605907178203628938e+00 4.488043947451434690e+01 8.526024215030811604e+01 -4.164367304302476214e+01 6.195516940765448766e+01 -7.118558988977193280e+01 -1.676065199513743949e+02 -3.575028719308552638e+01 1.454858791373310964e+02 -1.169293276876640846e+02 -6.650454657300464589e+00 -1.681172137017350394e+02 -4.871985143974225885e+00 -1.504513487094785091e+02 3.388793833855994109e+01 6.196520142757440652e+01 -5.190146014618270698e+01 -8.497383263437333767e+01 5.795833157819177295e+00 7.667387350099397736e+01 -6.985037578524989499e+01 1.388485880885404811e+02 1.086726961186078029e+02 -1.315164712817090162e+02 -1.086249679511048498e+02 1.391447825976174784e+02 7.350650795051990372e+01 1.546537152135387316e+02 1.033319438937080150e+02 8.359676252081557379e+01 -6.202020289570369016e+01 -8.419195988566917777e+01 -7.933231176863536405e+01 2.104174312451943933e+02 3.135614317762607683e+01 -2.559411697758309145e+01 -7.052282318584542509e+01 -5.149552194578794939e+01 -1.348590310022112249e+02 -1.698822024019244381e+01 -1.796735025092350497e+02 1.280702259279503892e+02 4.716434809822722229e+01 -1.180491098452985881e+02 -4.953644508035596061e+01 1.226469649126200210e+02 -9.936363670155358818e+01 1.052869820079372261e+02 -1.212775310744388548e+02 -1.203801970049793546e+01 -9.778962886228966056e+01 9.182738026211305282e+01 -4.350464251337389499e+01 1.062588072403797490e+01 3.000378096037097109e+01 -1.296794918388239637e+02 1.280237085838684408e+01 4.944421861336949320e+01 -2.298151294824459612e+01 -7.036999291298506876e+01 2.072095254363723313e+02 8.846679960931885489e+01 4.826490003374544102e+01 -3.216411619616267359e+01 8.214174389666904119e+01 1.715013069153982030e+02 -9.448123570844899177e+01 2.143085798678336289e+02 -1.361911260331835081e+02 -1.882292278902272074e+02 1.554360177349127810e+02 -2.393668305400574638e+02 -1.053964053060443717e+00 -2.505905082839265106e+02 -1.564993652387068153e+02 7.340332878948572670e+01 -1.490441668335911345e+02 5.974805034396174364e+01 1.123824635056296444e+02 -1.641291804772708360e+02 -3.087055221546345507e+01 7.713180754055913724e+01 1.370409625661075381e+02 -1.903540392488874602e+02 8.945123167937084929e+01 -1.002020748942473887e+02 -1.012415777914129933e+01 -1.423539238630363002e+01 -8.143675728385430546e+01 -9.242271222600749070e+01 1.855481782540534255e+02 -2.214707463344906913e+01 1.347292271729491286e+00 1.332283140642945796e+02 -8.865250567982609198e+01 -3.522566463114515756e+01 -1.101499554538887793e+02 -5.001050145943921876e+01 5.331392362935200246e+00 6.083622736053464308e+01 -1.384056224406837998e+02 2.431288421290206259e+02 -5.530276226812437557e+01 1.259102526830806568e+02 -5.011672094893545193e+01 1.230113429294206355e+02 1.427575515910364743e+02 4.934829345349389484e+01 1.254563000216154762e+02 -4.440451936815569667e+01 1.438024915927647385e+02 -1.607070257905142796e+02 -6.719264310051391931e+01 -6.471728639974956820e+01 2.620250340955627166e+01 -1.668317113073517817e+02 7.458695889284024361e+01 -3.169259294650783687e+01 -8.495244004324730724e+01 9.213860682401443114e+01 -1.553258955183778198e+02 -9.375060381856009428e+01 -5.403542760256698330e+01 3.402003656742528648e+01 1.334807913270306869e+02 1.201875438852289193e+02 7.110476124869880721e+01 -1.693783447593023350e+00 1.797180434132829987e+02 1.259599439714081086e+02 -9.703837934019904310e+01 -8.038669170664273622e+01 5.716843143947200190e+01 1.029916146102664953e+01 1.007161602450169795e+02 1.712566899646178058e+02 7.253684988551016488e+01 2.502014223977589324e+01 -1.050035690333208862e+02 1.766055562417465978e+02 -1.168417550394337496e+02 -1.698510254453888706e+02 6.751681627126507124e+01 1.145217084817979298e+02 2.014694674376516659e+01 -1.426285524429843861e+02 3.056816234846917979e+01 4.359913443433370617e+01 -2.861442735739079812e-01 1.344338479785091351e+02 1.000746116131343086e+02 1.755819786077853806e+01 8.043963965422604190e+01 -1.099409261430289177e+02 -6.429489401079423239e+00 1.009192328578784696e+02 3.045923059677816624e+01 -6.675815717969450702e+01 2.032086737504379528e+02 2.371516763628586943e+02 -1.288575462656690718e+02 -2.830278626289510413e+01 -2.157277355132594323e+02 -7.405717377547992442e+01 1.607263918901919055e+02 3.531241230629608374e+00 -7.281492917335762627e+01 1.680527638901399143e+02 -6.415146798219599589e+01 -1.647057675779652754e+02 1.400359567167637067e+02 -6.896891181523379544e+01 3.528258472464584372e+01 8.857954496400023459e+01 1.411585772871365663e+01 -2.442240570911270083e+02 4.332399011728518445e+01 -6.247992071846350193e+00 9.231370038213137263e+01 -2.414866289732323068e+01 1.037534074376509068e+02 1.736444310960655457e+01 -8.694685035025874242e+01 -2.097818980370177044e+01 -1.795799500348838080e+02 1.178790701678915696e+02 2.588886485282309380e+01 -4.268158035109385651e+01 -5.311736664123724694e+01 -6.439703363650802714e+01 4.210086574293266182e+01 1.646814278663984226e+02 1.360162955948422052e+02 4.416841512876384002e+01 -2.027793976653224490e+02 -3.975613415362074221e+01 4.489003737607137623e+01 1.202869075621341892e+02 8.943908648284204332e+01 1.585768376340833896e+01 -1.906970631638256179e+02 1.350461547207843864e+02 -2.293531102348283639e+02 -2.109448675833372704e+02 -1.913197545798867028e+00 -7.562632370655114755e+01 -2.464225050988737920e+01 8.931852410155592281e+01 5.732271258195194719e+01 -1.140129613369286261e+02 -1.552059741308372622e+02 1.497310264239296274e+01 1.267855012977755678e+02 2.125736648592124212e+01 -5.812857740112229976e+01 -5.286605712940363588e+01 -1.213512663118591917e+01 1.654058622646569177e+02 2.294677894979090382e+01 -1.811330713132231836e+02 1.337829196063080985e+02 -6.965446268778579508e+01 -4.360107338870000682e+00 1.606751137900924391e+02 -5.460711466424921667e+01 -2.041864963251610021e+01 -1.146160987671354263e+02 -6.279392840991891767e+00 -2.490745620135201222e+01 1.374693967644843156e+02 1.253414431490399465e+02 7.051619640540702960e+01 6.821894915147701965e+01 -1.953248368499601639e+01 1.411500616291377241e+02 -1.176218992309405991e+02 -4.458425371993799402e+00 -9.501062652384877083e+01 1.640270700945770557e+02 7.612914797078283868e+01 5.397371654865718682e+01 8.666641921123474646e+00 -5.556744188661141237e+01 3.588054140654542579e+01 7.072454091019857891e+00 3.698929790764915904e+00 2.518449290622726622e+01 6.237251117008586476e+01 1.776339338272118482e+02 -4.047418205607678487e+01 -5.426210964275160364e+01 6.966971488935277534e+01 1.206957921761679984e+02 -1.335609379585755363e+01 9.586835451152464316e+01 1.084614636864797319e+02 2.198188814749609890e+02 -9.029774856688698037e+01 -1.280178481578938374e+02 -2.986239034779174162e+01 6.479117350927411678e+01 -1.058203854501919317e+01 1.120486817076065620e+02 3.881724697044096217e+01 -1.696226593975285937e+02 4.700278599127724988e+01 -9.329649377385854336e+01 -1.410987973284125019e+02 1.402451269804112997e+02 -7.923426559258216173e+01 6.162193260447673282e+01 1.159776917601093089e+02 -1.032804319993763755e+02 2.443626442406304022e+01 -7.520741749598684578e+01 4.192942852797796860e+01 -1.193440446754824933e+02 6.411894627152865667e+01 5.693303443379482331e+01 4.138957320527682171e+00 8.761632985215642577e+01 -1.593540535608991888e+02 7.956573933973669455e+01 -3.039854861708804279e+01 -1.746916277863334130e+02 9.765416497647723304e+01 2.532375858172854066e+01 -2.028930880110256680e+02 2.432085183355076481e+02 -5.407569212863514441e-01 1.087650479044849163e+02 -1.247140825062656546e+02 -2.008207143894832996e+02 -9.649031649720787129e+01 2.533675616507687689e+00 1.478043978112322350e+02 4.190096476642576562e+00 -9.881099333476167601e+01 5.218086861683806887e+01 1.417158563885381000e+02 6.722460902137753180e+01 -5.353596606795716895e+01 -6.114557087670241486e+01 8.739173718362624754e+01 3.183598700389304170e+01 -2.021625022099910325e+02 -2.144352135626900235e+01 1.748096728450011312e+02 1.022419716292363034e+02 -5.925178574276565513e+01 -1.156131250821896259e+02 -4.414640735866769461e+01 -4.971711078453427746e+01 -1.183547574856230540e+02 -1.916422292247619907e+01 -4.722451224269475034e+01 -1.174799855881801278e+02 -1.363249863411946308e+02 -2.781130469152263984e+01 -1.299203603022634184e+02 -1.382771986212671891e+02 -3.963634917783424072e+01 -5.726562467997536032e+01 -1.147420554614672312e+02 1.994769646855358758e+02 1.129460161872004953e+01 -3.015810578894651428e+01 -1.824051371391872678e+01 8.429813299040569063e+01 1.674532614437355704e+01 2.684249457707601394e+01 -2.286606386328172391e+01 -4.948075616260989307e+01 2.243030460045997998e+01 -1.557500946852041750e+02 -1.706164343433980264e+02 -9.697128087703637789e+01 -2.045138649771645305e+02 -9.606282307583055058e+01 9.200159528309997370e+01 6.577043854729262762e+01 -2.794592655786492941e+01 6.512715026033377796e+01 -1.677342712690095823e+02 -4.367394825396942082e+01 -1.244250245266933206e+02 -7.154371750869580637e+01 2.259832511999325106e+02 -2.199940427886859595e+02 2.199796663004208028e+02 2.682667911338070610e+01 -6.055665250066518723e+01 9.891536958895387954e+01 1.329815968178137666e+02 -5.561476996589487243e+01 -2.182799368684117098e+02 -1.597880428375686677e+02 1.095764257739958936e+02 8.976973925268860910e+01 -1.453268981081979518e+02 3.427844778603793685e+01 -4.247725273678723568e+01 -8.294497805865182727e+01 -3.045723890627083463e+01 -5.877767684888845423e+01 -9.266284206538098545e+01 -3.644443191079614053e+01 4.744351857879130385e+00 -3.510849026083521807e+01 -4.555644995702458067e-01 -1.543901824155070202e+01 9.862090153939720949e+01 1.361498382356804200e+02 1.412477982890846384e+01 1.797560301405544081e+01 -6.758667513388255088e+01 -2.100176662718039040e+02 3.628737838884092071e+01 -9.833501522548561979e+01 2.766358193865876913e+01 -8.836074654495643443e+00 1.042130605731591997e+00 7.733316256885974838e+01 1.305962109254032839e+02 -7.548048795706507974e+01 4.072135837187428109e+01 -2.065804836463605625e+02 1.034044428116610526e+01 7.576098318818019983e+00 -1.313091689281126548e+02 -3.616409412558405023e+01 -4.750142305050108860e+01 5.124616080442510935e+00 -1.095913181190222332e+02 2.900098622126164827e+01 -1.046599032930399602e+02 6.021159765065822000e+01 7.267500598164630787e+01 3.950010816527516511e+01 -3.110059190479507052e+01 1.151049898275237808e+02 6.540129313985180204e+01 8.569653496162642625e+01 -7.175183990069656659e+01 2.179799131737057749e+01 1.370215852982447302e+02 -6.260635489342024584e+01 -7.398140268377454198e+00 3.427407651252435983e+01 -1.374890068315458791e+02 1.047812424568509471e+02 9.592059582076613822e+01 -1.082405833409235214e+02 -8.818354003584171608e+01 -5.942178935896913572e+01 -4.868714768534983506e+01 -1.716258777229533905e+02 -1.455245185708957365e+02 -1.417654728742103600e+02 1.130775041240338652e+02 6.392109379061840713e+01 1.706587112540118767e+02 7.686259234827255149e+00 -9.179531406976059316e+01 2.000563190149870607e+01 1.480250005709216587e+01 -6.786437521628236880e+01 7.919001240220802629e+01 1.262532055879389077e+02 1.072328343697675201e+01 1.533985557609386206e+02 2.409338186093340184e+01 1.186407054112119681e+02 1.617019977464867608e+01 -2.220896680327499837e+02 2.334038314685049897e+02 -5.230333631142781314e+01 -1.594292381925127131e+02 -7.180103699277262308e+01 -4.593798163164089488e+01 4.392526489448181337e+01 2.719059198716431425e+01 4.857581347362071256e+01 -7.878390040464228150e+01 1.299779377170208363e+02 -9.159967280658693767e+01 -7.440143521068335097e+00 1.512761820393402843e+02 1.163920278559425157e+02 6.149551225774290231e+01 -1.877636076946203900e+02 2.697154095897590054e+01 1.488941335280855753e+02 2.485217664618324207e+01 1.033890139063426545e+02 1.127326823495214825e+02 -2.237182860445997221e+02 8.140970477754009949e+01 -6.110809375367266227e+01 -2.378446019962138678e+02 9.354019592270763894e+01 2.597539148306397294e+01 -1.283449073710515904e+02 -6.151662770284624315e+01 1.456484901386978663e+02 1.544958344517107207e+02 -7.926263391473470676e+01 -1.335226113003731712e+02 -8.710705562772703558e+01 -1.729737590004807828e+02 2.036600403959019090e+01 3.943689909202048938e+01 -1.756442157697110318e+01 -1.284734446580350209e+01 -9.283921854366336390e+01 -9.169048408381334525e+01 -2.551452893113336984e+01 1.383251468304004561e+02 1.406709252910201826e+02 8.368490492454088781e+01 1.000104616321073934e+02 -8.098330210684018482e+01 -1.856430540234397597e+02 -1.364062482181934399e+01 -2.384767683435805452e+01 -7.285155054162908073e+01 1.552214649367385624e+00 7.501783335357102089e+01 -5.433517543869939459e+01 2.522439724856706178e+01 8.125247899754171499e+01 7.193035530682053036e+01 1.134018078340929065e+02 -1.531276481948845856e+02 4.069212145245437284e+01 8.550038239036861398e+01 9.725051043651851046e+01 6.064913969717903086e+01 -1.059574397256057239e+02 1.405510082883828886e+02 1.307834744838327197e+02 9.833776566273770925e+01 1.041916219489997246e+02 -8.645604118934615201e+01 -1.527799294154248955e+01 -1.324234725787323264e+01 7.910975199566470906e+01 6.666837075685188552e+01 5.738664211261235693e+01 1.001737385516707945e+02 1.195034385110545259e+02 1.270546697189561485e+02 -6.668301275567016262e+01 8.269570803798349345e+01 6.698034277029948669e+01 -1.207453173412127398e+02 1.350580675273433542e+02 -1.031943033273818067e+01 -2.864348945142509351e+01 2.045108342675924291e+02 9.078177003170856096e+01 1.273765512871129886e+02 -1.481747052884739730e+02 -1.620104430388090293e+02 -1.579810735696752602e+02 -1.255238964431310791e+02 -4.549733250026357467e+01 1.129002967072365209e+02 -1.733221427792226734e+02 3.346856552662304551e+01 1.484328748769888477e+02 -6.101322025979674635e+01 -9.397698062784098738e+01 -3.610099803607101165e+01 1.398565937969622723e+02 2.339621923655107594e+02 -6.854347597811819526e+01 2.038893303199868967e+01 -2.854092656440538178e+01 7.052220296614525807e+01 6.209073121724122757e+01 -2.196364870385505128e+02 -9.133188358767905868e+01 1.417314327603826882e+02 1.440670592364007518e+02 9.743119732232058539e+01 -5.130025891905309265e+01 -7.816800561938180181e+01 -4.685013451287625230e+01 -1.819584757865655718e+02 7.340483683077788157e+01 -2.649732037606526092e+01 1.716132902022785345e+02 -2.878636048966172822e+01 -3.244250344458059203e+02 1.494801805502532943e+02 5.197423611882987160e+01 -1.217487139806497964e+02 -2.281298530660934532e+01 3.645714363202118591e+01 -2.143119749310629345e+02 -1.179830498549953006e+02 -1.130762363824895687e+02 -5.830506721059428799e+01 6.486695723940340486e+01 -1.701320727872112286e+02 1.114827378221746415e+02 -5.607744866816867102e+01 2.986450852103047726e+00 -1.377747982498848671e+02 -1.069158496957640665e+02 1.816388159185306108e+02 8.950598684403199456e+01 -4.363052392160128790e+01 3.843501526320736872e+01 -2.900212230843149541e+01 4.459278597757772644e+01 -1.080911325966496292e+02 1.020542572410607960e+02 5.222040670307461596e+01 -1.228987509141334442e+02 1.206812605168102550e+02 -5.082337695968383429e+01 1.032900814629888231e+02 -5.109158214651741048e+01 9.139900958689884192e+01 -1.586287820587401995e+02 1.475171342147291398e+02 2.562608525742960097e+01 1.040505568940366601e+02 1.348547977014790717e+02 -1.516559255797850767e+02 -8.883468658070476920e+01 -1.092524336314669142e+02 6.919487404698368493e+01 -1.772505434351727160e+02 1.566538898615658582e+02 1.473714894138929026e+02 5.483554211726106331e+01 -8.784486680402746117e+01 5.902853078900852069e+01 -1.109999893113438389e+02 -1.136544453248323627e+01 3.623016021022366573e+01 -1.901795942713347358e+02 -8.448562980690358870e+01 -1.401214476825581556e+01 1.058399634347559868e+02 -5.196793484104669147e+01 1.125037319807052683e+02 -6.664228554842667052e+01 -2.183434515244782972e+02 -1.109218948253268593e+02 -3.534207776357946784e+01 -6.236161762881098269e+01 3.119703378835543361e+01 5.317760007801818034e+01 6.594865644646125347e+00 2.613991174830630015e+01 -1.214861763850654910e+02 5.573483931760961241e+01 3.380436911105825004e+01 -7.484936037925695018e+01 9.573957410028487658e+00 5.831166318280404681e+01 -9.891824676973136832e+01 -5.707112711680795769e+01 -2.499612927976756538e+01 1.012185882280706153e+02 -1.775748120311831357e+01 4.345419840828244062e+00 -2.364217793748351824e+02 -9.858482136415159403e+01 1.025858648248173211e+02 -9.261901863139476632e+01 3.251305457997581527e+01 3.223325284786237432e+01 3.939332292770625799e+01 6.855965750487098376e+01 -1.840971001369061355e+02 1.493419918324231332e+02 8.445446717925666746e+01 -7.771639227308132725e+00 -8.384510570778535055e+01 1.161818336696253482e+02 6.442706529323811537e+01 -2.086203708625094464e+02 -5.229905831433411123e+01 -8.474046074389777061e+01 -5.383890255795508750e+01 -6.431593273130475552e+01 -1.028519330737992306e+02 -6.266849771399816404e+01 1.986910098504666280e+02 -1.772948151080232151e+02 6.798413343525554353e+01 2.878830678415092237e+01 -7.801122162223266798e+01 1.075959930176785306e+01 -4.088816698954513384e+01 3.545133493798493962e+00 -9.975752962906491916e+01 -2.050311165116559948e+02 1.908965286544154694e+01 4.352772927906486444e+01 -1.329031827133537114e+01 -9.427659013425591539e+00 -4.129839092487324592e+01 -1.972020882372284234e+02 -3.183980628758147446e+01 -6.787414542142059304e+01 1.453586480699072503e+01 -1.619907157325095071e+01 9.396349415610411882e+01 -6.543977864632182673e+01 -1.076861211760186592e+02 -3.716457605699584832e+01 -9.397712635130547554e+00 4.732248949255215820e+01 -2.301799262059403972e+01 -7.648214071354307464e+01 -1.647327229089329137e+01 2.086324925707164013e+01 4.933109437983752343e+01 -1.184350069532404888e+02 -1.444056197501020620e+02 2.392144048852808851e+02 -2.266838335775174187e+02 -7.891794795550093511e+01 -4.816364094517372507e+01 1.452906848529771651e+02 6.574011571955834654e+01 2.376634184931988329e+02 2.542182673810824838e+02 -6.472219192218186379e+01 1.345278853226703575e+02 -5.804265587211475008e+01 -4.238153880017389241e+01 -1.045928491047169331e+02 -8.295086942058773616e+01 -7.230899001020722494e+01 -9.242166512613921725e+01 -2.532381622047691963e+02 -2.814425850068848831e+02 1.399589468648009074e+02 -2.754614401157797232e+01 5.533121842552727543e+01 1.359079232019382175e+02
