# 
#                 ----------------------------------------------------
#                 Data from a 3D direct N-body simulation. 
# 
#                 rows are i-particle; 
#                 coumns are :mass, tag, x ,y, z, vx, vy, vz, ax, ay, az
# 
#                 NTHU, Computational Physics Lab
# 
#                 ----------------------------------------------------
#                 Time = 5.299999999999931
1.000000000000000000e+00 2.000000000000000000e+00 3.000000000000000000e+00 4.000000000000000000e+00 5.000000000000000000e+00 6.000000000000000000e+00 7.000000000000000000e+00 8.000000000000000000e+00 9.000000000000000000e+00 1.000000000000000000e+01 1.100000000000000000e+01 1.200000000000000000e+01 1.300000000000000000e+01 1.400000000000000000e+01 1.500000000000000000e+01 1.600000000000000000e+01 1.700000000000000000e+01 1.800000000000000000e+01 1.900000000000000000e+01 2.000000000000000000e+01 2.100000000000000000e+01 2.200000000000000000e+01 2.300000000000000000e+01 2.400000000000000000e+01 2.500000000000000000e+01 2.600000000000000000e+01 2.700000000000000000e+01 2.800000000000000000e+01 2.900000000000000000e+01 3.000000000000000000e+01 3.100000000000000000e+01 3.200000000000000000e+01 3.300000000000000000e+01 3.400000000000000000e+01 3.500000000000000000e+01 3.600000000000000000e+01 3.700000000000000000e+01 3.800000000000000000e+01 3.900000000000000000e+01 4.000000000000000000e+01 4.100000000000000000e+01 4.200000000000000000e+01 4.300000000000000000e+01 4.400000000000000000e+01 4.500000000000000000e+01 4.600000000000000000e+01 4.700000000000000000e+01 4.800000000000000000e+01 4.900000000000000000e+01 5.000000000000000000e+01 5.100000000000000000e+01 5.200000000000000000e+01 5.300000000000000000e+01 5.400000000000000000e+01 5.500000000000000000e+01 5.600000000000000000e+01 5.700000000000000000e+01 5.800000000000000000e+01 5.900000000000000000e+01 6.000000000000000000e+01 6.100000000000000000e+01 6.200000000000000000e+01 6.300000000000000000e+01 6.400000000000000000e+01 6.500000000000000000e+01 6.600000000000000000e+01 6.700000000000000000e+01 6.800000000000000000e+01 6.900000000000000000e+01 7.000000000000000000e+01 7.100000000000000000e+01 7.200000000000000000e+01 7.300000000000000000e+01 7.400000000000000000e+01 7.500000000000000000e+01 7.600000000000000000e+01 7.700000000000000000e+01 7.800000000000000000e+01 7.900000000000000000e+01 8.000000000000000000e+01 8.100000000000000000e+01 8.200000000000000000e+01 8.300000000000000000e+01 8.400000000000000000e+01 8.500000000000000000e+01 8.600000000000000000e+01 8.700000000000000000e+01 8.800000000000000000e+01 8.900000000000000000e+01 9.000000000000000000e+01 9.100000000000000000e+01 9.200000000000000000e+01 9.300000000000000000e+01 9.400000000000000000e+01 9.500000000000000000e+01 9.600000000000000000e+01 9.700000000000000000e+01 9.800000000000000000e+01 9.900000000000000000e+01 1.000000000000000000e+02 1.010000000000000000e+02 1.020000000000000000e+02 1.030000000000000000e+02 1.040000000000000000e+02 1.050000000000000000e+02 1.060000000000000000e+02 1.070000000000000000e+02 1.080000000000000000e+02 1.090000000000000000e+02 1.100000000000000000e+02 1.110000000000000000e+02 1.120000000000000000e+02 1.130000000000000000e+02 1.140000000000000000e+02 1.150000000000000000e+02 1.160000000000000000e+02 1.170000000000000000e+02 1.180000000000000000e+02 1.190000000000000000e+02 1.200000000000000000e+02 1.210000000000000000e+02 1.220000000000000000e+02 1.230000000000000000e+02 1.240000000000000000e+02 1.250000000000000000e+02 1.260000000000000000e+02 1.270000000000000000e+02 1.280000000000000000e+02 1.290000000000000000e+02 1.300000000000000000e+02 1.310000000000000000e+02 1.320000000000000000e+02 1.330000000000000000e+02 1.340000000000000000e+02 1.350000000000000000e+02 1.360000000000000000e+02 1.370000000000000000e+02 1.380000000000000000e+02 1.390000000000000000e+02 1.400000000000000000e+02 1.410000000000000000e+02 1.420000000000000000e+02 1.430000000000000000e+02 1.440000000000000000e+02 1.450000000000000000e+02 1.460000000000000000e+02 1.470000000000000000e+02 1.480000000000000000e+02 1.490000000000000000e+02 1.500000000000000000e+02 1.510000000000000000e+02 1.520000000000000000e+02 1.530000000000000000e+02 1.540000000000000000e+02 1.550000000000000000e+02 1.560000000000000000e+02 1.570000000000000000e+02 1.580000000000000000e+02 1.590000000000000000e+02 1.600000000000000000e+02 1.610000000000000000e+02 1.620000000000000000e+02 1.630000000000000000e+02 1.640000000000000000e+02 1.650000000000000000e+02 1.660000000000000000e+02 1.670000000000000000e+02 1.680000000000000000e+02 1.690000000000000000e+02 1.700000000000000000e+02 1.710000000000000000e+02 1.720000000000000000e+02 1.730000000000000000e+02 1.740000000000000000e+02 1.750000000000000000e+02 1.760000000000000000e+02 1.770000000000000000e+02 1.780000000000000000e+02 1.790000000000000000e+02 1.800000000000000000e+02 1.810000000000000000e+02 1.820000000000000000e+02 1.830000000000000000e+02 1.840000000000000000e+02 1.850000000000000000e+02 1.860000000000000000e+02 1.870000000000000000e+02 1.880000000000000000e+02 1.890000000000000000e+02 1.900000000000000000e+02 1.910000000000000000e+02 1.920000000000000000e+02 1.930000000000000000e+02 1.940000000000000000e+02 1.950000000000000000e+02 1.960000000000000000e+02 1.970000000000000000e+02 1.980000000000000000e+02 1.990000000000000000e+02 2.000000000000000000e+02 2.010000000000000000e+02 2.020000000000000000e+02 2.030000000000000000e+02 2.040000000000000000e+02 2.050000000000000000e+02 2.060000000000000000e+02 2.070000000000000000e+02 2.080000000000000000e+02 2.090000000000000000e+02 2.100000000000000000e+02 2.110000000000000000e+02 2.120000000000000000e+02 2.130000000000000000e+02 2.140000000000000000e+02 2.150000000000000000e+02 2.160000000000000000e+02 2.170000000000000000e+02 2.180000000000000000e+02 2.190000000000000000e+02 2.200000000000000000e+02 2.210000000000000000e+02 2.220000000000000000e+02 2.230000000000000000e+02 2.240000000000000000e+02 2.250000000000000000e+02 2.260000000000000000e+02 2.270000000000000000e+02 2.280000000000000000e+02 2.290000000000000000e+02 2.300000000000000000e+02 2.310000000000000000e+02 2.320000000000000000e+02 2.330000000000000000e+02 2.340000000000000000e+02 2.350000000000000000e+02 2.360000000000000000e+02 2.370000000000000000e+02 2.380000000000000000e+02 2.390000000000000000e+02 2.400000000000000000e+02 2.410000000000000000e+02 2.420000000000000000e+02 2.430000000000000000e+02 2.440000000000000000e+02 2.450000000000000000e+02 2.460000000000000000e+02 2.470000000000000000e+02 2.480000000000000000e+02 2.490000000000000000e+02 2.500000000000000000e+02 2.510000000000000000e+02 2.520000000000000000e+02 2.530000000000000000e+02 2.540000000000000000e+02 2.550000000000000000e+02 2.560000000000000000e+02 2.570000000000000000e+02 2.580000000000000000e+02 2.590000000000000000e+02 2.600000000000000000e+02 2.610000000000000000e+02 2.620000000000000000e+02 2.630000000000000000e+02 2.640000000000000000e+02 2.650000000000000000e+02 2.660000000000000000e+02 2.670000000000000000e+02 2.680000000000000000e+02 2.690000000000000000e+02 2.700000000000000000e+02 2.710000000000000000e+02 2.720000000000000000e+02 2.730000000000000000e+02 2.740000000000000000e+02 2.750000000000000000e+02 2.760000000000000000e+02 2.770000000000000000e+02 2.780000000000000000e+02 2.790000000000000000e+02 2.800000000000000000e+02 2.810000000000000000e+02 2.820000000000000000e+02 2.830000000000000000e+02 2.840000000000000000e+02 2.850000000000000000e+02 2.860000000000000000e+02 2.870000000000000000e+02 2.880000000000000000e+02 2.890000000000000000e+02 2.900000000000000000e+02 2.910000000000000000e+02 2.920000000000000000e+02 2.930000000000000000e+02 2.940000000000000000e+02 2.950000000000000000e+02 2.960000000000000000e+02 2.970000000000000000e+02 2.980000000000000000e+02 2.990000000000000000e+02 3.000000000000000000e+02 3.010000000000000000e+02 3.020000000000000000e+02 3.030000000000000000e+02 3.040000000000000000e+02 3.050000000000000000e+02 3.060000000000000000e+02 3.070000000000000000e+02 3.080000000000000000e+02 3.090000000000000000e+02 3.100000000000000000e+02 3.110000000000000000e+02 3.120000000000000000e+02 3.130000000000000000e+02 3.140000000000000000e+02 3.150000000000000000e+02 3.160000000000000000e+02 3.170000000000000000e+02 3.180000000000000000e+02 3.190000000000000000e+02 3.200000000000000000e+02 3.210000000000000000e+02 3.220000000000000000e+02 3.230000000000000000e+02 3.240000000000000000e+02 3.250000000000000000e+02 3.260000000000000000e+02 3.270000000000000000e+02 3.280000000000000000e+02 3.290000000000000000e+02 3.300000000000000000e+02 3.310000000000000000e+02 3.320000000000000000e+02 3.330000000000000000e+02 3.340000000000000000e+02 3.350000000000000000e+02 3.360000000000000000e+02 3.370000000000000000e+02 3.380000000000000000e+02 3.390000000000000000e+02 3.400000000000000000e+02 3.410000000000000000e+02 3.420000000000000000e+02 3.430000000000000000e+02 3.440000000000000000e+02 3.450000000000000000e+02 3.460000000000000000e+02 3.470000000000000000e+02 3.480000000000000000e+02 3.490000000000000000e+02 3.500000000000000000e+02 3.510000000000000000e+02 3.520000000000000000e+02 3.530000000000000000e+02 3.540000000000000000e+02 3.550000000000000000e+02 3.560000000000000000e+02 3.570000000000000000e+02 3.580000000000000000e+02 3.590000000000000000e+02 3.600000000000000000e+02 3.610000000000000000e+02 3.620000000000000000e+02 3.630000000000000000e+02 3.640000000000000000e+02 3.650000000000000000e+02 3.660000000000000000e+02 3.670000000000000000e+02 3.680000000000000000e+02 3.690000000000000000e+02 3.700000000000000000e+02 3.710000000000000000e+02 3.720000000000000000e+02 3.730000000000000000e+02 3.740000000000000000e+02 3.750000000000000000e+02 3.760000000000000000e+02 3.770000000000000000e+02 3.780000000000000000e+02 3.790000000000000000e+02 3.800000000000000000e+02 3.810000000000000000e+02 3.820000000000000000e+02 3.830000000000000000e+02 3.840000000000000000e+02 3.850000000000000000e+02 3.860000000000000000e+02 3.870000000000000000e+02 3.880000000000000000e+02 3.890000000000000000e+02 3.900000000000000000e+02 3.910000000000000000e+02 3.920000000000000000e+02 3.930000000000000000e+02 3.940000000000000000e+02 3.950000000000000000e+02 3.960000000000000000e+02 3.970000000000000000e+02 3.980000000000000000e+02 3.990000000000000000e+02 4.000000000000000000e+02 4.010000000000000000e+02 4.020000000000000000e+02 4.030000000000000000e+02 4.040000000000000000e+02 4.050000000000000000e+02 4.060000000000000000e+02 4.070000000000000000e+02 4.080000000000000000e+02 4.090000000000000000e+02 4.100000000000000000e+02 4.110000000000000000e+02 4.120000000000000000e+02 4.130000000000000000e+02 4.140000000000000000e+02 4.150000000000000000e+02 4.160000000000000000e+02 4.170000000000000000e+02 4.180000000000000000e+02 4.190000000000000000e+02 4.200000000000000000e+02 4.210000000000000000e+02 4.220000000000000000e+02 4.230000000000000000e+02 4.240000000000000000e+02 4.250000000000000000e+02 4.260000000000000000e+02 4.270000000000000000e+02 4.280000000000000000e+02 4.290000000000000000e+02 4.300000000000000000e+02 4.310000000000000000e+02 4.320000000000000000e+02 4.330000000000000000e+02 4.340000000000000000e+02 4.350000000000000000e+02 4.360000000000000000e+02 4.370000000000000000e+02 4.380000000000000000e+02 4.390000000000000000e+02 4.400000000000000000e+02 4.410000000000000000e+02 4.420000000000000000e+02 4.430000000000000000e+02 4.440000000000000000e+02 4.450000000000000000e+02 4.460000000000000000e+02 4.470000000000000000e+02 4.480000000000000000e+02 4.490000000000000000e+02 4.500000000000000000e+02 4.510000000000000000e+02 4.520000000000000000e+02 4.530000000000000000e+02 4.540000000000000000e+02 4.550000000000000000e+02 4.560000000000000000e+02 4.570000000000000000e+02 4.580000000000000000e+02 4.590000000000000000e+02 4.600000000000000000e+02 4.610000000000000000e+02 4.620000000000000000e+02 4.630000000000000000e+02 4.640000000000000000e+02 4.650000000000000000e+02 4.660000000000000000e+02 4.670000000000000000e+02 4.680000000000000000e+02 4.690000000000000000e+02 4.700000000000000000e+02 4.710000000000000000e+02 4.720000000000000000e+02 4.730000000000000000e+02 4.740000000000000000e+02 4.750000000000000000e+02 4.760000000000000000e+02 4.770000000000000000e+02 4.780000000000000000e+02 4.790000000000000000e+02 4.800000000000000000e+02 4.810000000000000000e+02 4.820000000000000000e+02 4.830000000000000000e+02 4.840000000000000000e+02 4.850000000000000000e+02 4.860000000000000000e+02 4.870000000000000000e+02 4.880000000000000000e+02 4.890000000000000000e+02 4.900000000000000000e+02 4.910000000000000000e+02 4.920000000000000000e+02 4.930000000000000000e+02 4.940000000000000000e+02 4.950000000000000000e+02 4.960000000000000000e+02 4.970000000000000000e+02 4.980000000000000000e+02 4.990000000000000000e+02 5.000000000000000000e+02 5.010000000000000000e+02 5.020000000000000000e+02 5.030000000000000000e+02 5.040000000000000000e+02 5.050000000000000000e+02 5.060000000000000000e+02 5.070000000000000000e+02 5.080000000000000000e+02 5.090000000000000000e+02 5.100000000000000000e+02 5.110000000000000000e+02 5.120000000000000000e+02 5.130000000000000000e+02 5.140000000000000000e+02 5.150000000000000000e+02 5.160000000000000000e+02 5.170000000000000000e+02 5.180000000000000000e+02 5.190000000000000000e+02 5.200000000000000000e+02 5.210000000000000000e+02 5.220000000000000000e+02 5.230000000000000000e+02 5.240000000000000000e+02 5.250000000000000000e+02 5.260000000000000000e+02 5.270000000000000000e+02 5.280000000000000000e+02 5.290000000000000000e+02 5.300000000000000000e+02 5.310000000000000000e+02 5.320000000000000000e+02 5.330000000000000000e+02 5.340000000000000000e+02 5.350000000000000000e+02 5.360000000000000000e+02 5.370000000000000000e+02 5.380000000000000000e+02 5.390000000000000000e+02 5.400000000000000000e+02 5.410000000000000000e+02 5.420000000000000000e+02 5.430000000000000000e+02 5.440000000000000000e+02 5.450000000000000000e+02 5.460000000000000000e+02 5.470000000000000000e+02 5.480000000000000000e+02 5.490000000000000000e+02 5.500000000000000000e+02 5.510000000000000000e+02 5.520000000000000000e+02 5.530000000000000000e+02 5.540000000000000000e+02 5.550000000000000000e+02 5.560000000000000000e+02 5.570000000000000000e+02 5.580000000000000000e+02 5.590000000000000000e+02 5.600000000000000000e+02 5.610000000000000000e+02 5.620000000000000000e+02 5.630000000000000000e+02 5.640000000000000000e+02 5.650000000000000000e+02 5.660000000000000000e+02 5.670000000000000000e+02 5.680000000000000000e+02 5.690000000000000000e+02 5.700000000000000000e+02 5.710000000000000000e+02 5.720000000000000000e+02 5.730000000000000000e+02 5.740000000000000000e+02 5.750000000000000000e+02 5.760000000000000000e+02 5.770000000000000000e+02 5.780000000000000000e+02 5.790000000000000000e+02 5.800000000000000000e+02 5.810000000000000000e+02 5.820000000000000000e+02 5.830000000000000000e+02 5.840000000000000000e+02 5.850000000000000000e+02 5.860000000000000000e+02 5.870000000000000000e+02 5.880000000000000000e+02 5.890000000000000000e+02 5.900000000000000000e+02 5.910000000000000000e+02 5.920000000000000000e+02 5.930000000000000000e+02 5.940000000000000000e+02 5.950000000000000000e+02 5.960000000000000000e+02 5.970000000000000000e+02 5.980000000000000000e+02 5.990000000000000000e+02 6.000000000000000000e+02 6.010000000000000000e+02 6.020000000000000000e+02 6.030000000000000000e+02 6.040000000000000000e+02 6.050000000000000000e+02 6.060000000000000000e+02 6.070000000000000000e+02 6.080000000000000000e+02 6.090000000000000000e+02 6.100000000000000000e+02 6.110000000000000000e+02 6.120000000000000000e+02 6.130000000000000000e+02 6.140000000000000000e+02 6.150000000000000000e+02 6.160000000000000000e+02 6.170000000000000000e+02 6.180000000000000000e+02 6.190000000000000000e+02 6.200000000000000000e+02 6.210000000000000000e+02 6.220000000000000000e+02 6.230000000000000000e+02 6.240000000000000000e+02 6.250000000000000000e+02 6.260000000000000000e+02 6.270000000000000000e+02 6.280000000000000000e+02 6.290000000000000000e+02 6.300000000000000000e+02 6.310000000000000000e+02 6.320000000000000000e+02 6.330000000000000000e+02 6.340000000000000000e+02 6.350000000000000000e+02 6.360000000000000000e+02 6.370000000000000000e+02 6.380000000000000000e+02 6.390000000000000000e+02 6.400000000000000000e+02 6.410000000000000000e+02 6.420000000000000000e+02 6.430000000000000000e+02 6.440000000000000000e+02 6.450000000000000000e+02 6.460000000000000000e+02 6.470000000000000000e+02 6.480000000000000000e+02 6.490000000000000000e+02 6.500000000000000000e+02 6.510000000000000000e+02 6.520000000000000000e+02 6.530000000000000000e+02 6.540000000000000000e+02 6.550000000000000000e+02 6.560000000000000000e+02 6.570000000000000000e+02 6.580000000000000000e+02 6.590000000000000000e+02 6.600000000000000000e+02 6.610000000000000000e+02 6.620000000000000000e+02 6.630000000000000000e+02 6.640000000000000000e+02 6.650000000000000000e+02 6.660000000000000000e+02 6.670000000000000000e+02 6.680000000000000000e+02 6.690000000000000000e+02 6.700000000000000000e+02 6.710000000000000000e+02 6.720000000000000000e+02 6.730000000000000000e+02 6.740000000000000000e+02 6.750000000000000000e+02 6.760000000000000000e+02 6.770000000000000000e+02 6.780000000000000000e+02 6.790000000000000000e+02 6.800000000000000000e+02 6.810000000000000000e+02 6.820000000000000000e+02 6.830000000000000000e+02 6.840000000000000000e+02 6.850000000000000000e+02 6.860000000000000000e+02 6.870000000000000000e+02 6.880000000000000000e+02 6.890000000000000000e+02 6.900000000000000000e+02 6.910000000000000000e+02 6.920000000000000000e+02 6.930000000000000000e+02 6.940000000000000000e+02 6.950000000000000000e+02 6.960000000000000000e+02 6.970000000000000000e+02 6.980000000000000000e+02 6.990000000000000000e+02 7.000000000000000000e+02 7.010000000000000000e+02 7.020000000000000000e+02 7.030000000000000000e+02 7.040000000000000000e+02 7.050000000000000000e+02 7.060000000000000000e+02 7.070000000000000000e+02 7.080000000000000000e+02 7.090000000000000000e+02 7.100000000000000000e+02 7.110000000000000000e+02 7.120000000000000000e+02 7.130000000000000000e+02 7.140000000000000000e+02 7.150000000000000000e+02 7.160000000000000000e+02 7.170000000000000000e+02 7.180000000000000000e+02 7.190000000000000000e+02 7.200000000000000000e+02 7.210000000000000000e+02 7.220000000000000000e+02 7.230000000000000000e+02 7.240000000000000000e+02 7.250000000000000000e+02 7.260000000000000000e+02 7.270000000000000000e+02 7.280000000000000000e+02 7.290000000000000000e+02 7.300000000000000000e+02 7.310000000000000000e+02 7.320000000000000000e+02 7.330000000000000000e+02 7.340000000000000000e+02 7.350000000000000000e+02 7.360000000000000000e+02 7.370000000000000000e+02 7.380000000000000000e+02 7.390000000000000000e+02 7.400000000000000000e+02 7.410000000000000000e+02 7.420000000000000000e+02 7.430000000000000000e+02 7.440000000000000000e+02 7.450000000000000000e+02 7.460000000000000000e+02 7.470000000000000000e+02 7.480000000000000000e+02 7.490000000000000000e+02 7.500000000000000000e+02 7.510000000000000000e+02 7.520000000000000000e+02 7.530000000000000000e+02 7.540000000000000000e+02 7.550000000000000000e+02 7.560000000000000000e+02 7.570000000000000000e+02 7.580000000000000000e+02 7.590000000000000000e+02 7.600000000000000000e+02 7.610000000000000000e+02 7.620000000000000000e+02 7.630000000000000000e+02 7.640000000000000000e+02 7.650000000000000000e+02 7.660000000000000000e+02 7.670000000000000000e+02 7.680000000000000000e+02 7.690000000000000000e+02 7.700000000000000000e+02 7.710000000000000000e+02 7.720000000000000000e+02 7.730000000000000000e+02 7.740000000000000000e+02 7.750000000000000000e+02 7.760000000000000000e+02 7.770000000000000000e+02 7.780000000000000000e+02 7.790000000000000000e+02 7.800000000000000000e+02 7.810000000000000000e+02 7.820000000000000000e+02 7.830000000000000000e+02 7.840000000000000000e+02 7.850000000000000000e+02 7.860000000000000000e+02 7.870000000000000000e+02 7.880000000000000000e+02 7.890000000000000000e+02 7.900000000000000000e+02 7.910000000000000000e+02 7.920000000000000000e+02 7.930000000000000000e+02 7.940000000000000000e+02 7.950000000000000000e+02 7.960000000000000000e+02 7.970000000000000000e+02 7.980000000000000000e+02 7.990000000000000000e+02 8.000000000000000000e+02 8.010000000000000000e+02 8.020000000000000000e+02 8.030000000000000000e+02 8.040000000000000000e+02 8.050000000000000000e+02 8.060000000000000000e+02 8.070000000000000000e+02 8.080000000000000000e+02 8.090000000000000000e+02 8.100000000000000000e+02 8.110000000000000000e+02 8.120000000000000000e+02 8.130000000000000000e+02 8.140000000000000000e+02 8.150000000000000000e+02 8.160000000000000000e+02 8.170000000000000000e+02 8.180000000000000000e+02 8.190000000000000000e+02 8.200000000000000000e+02 8.210000000000000000e+02 8.220000000000000000e+02 8.230000000000000000e+02 8.240000000000000000e+02 8.250000000000000000e+02 8.260000000000000000e+02 8.270000000000000000e+02 8.280000000000000000e+02 8.290000000000000000e+02 8.300000000000000000e+02 8.310000000000000000e+02 8.320000000000000000e+02 8.330000000000000000e+02 8.340000000000000000e+02 8.350000000000000000e+02 8.360000000000000000e+02 8.370000000000000000e+02 8.380000000000000000e+02 8.390000000000000000e+02 8.400000000000000000e+02 8.410000000000000000e+02 8.420000000000000000e+02 8.430000000000000000e+02 8.440000000000000000e+02 8.450000000000000000e+02 8.460000000000000000e+02 8.470000000000000000e+02 8.480000000000000000e+02 8.490000000000000000e+02 8.500000000000000000e+02 8.510000000000000000e+02 8.520000000000000000e+02 8.530000000000000000e+02 8.540000000000000000e+02 8.550000000000000000e+02 8.560000000000000000e+02 8.570000000000000000e+02 8.580000000000000000e+02 8.590000000000000000e+02 8.600000000000000000e+02 8.610000000000000000e+02 8.620000000000000000e+02 8.630000000000000000e+02 8.640000000000000000e+02 8.650000000000000000e+02 8.660000000000000000e+02 8.670000000000000000e+02 8.680000000000000000e+02 8.690000000000000000e+02 8.700000000000000000e+02 8.710000000000000000e+02 8.720000000000000000e+02 8.730000000000000000e+02 8.740000000000000000e+02 8.750000000000000000e+02 8.760000000000000000e+02 8.770000000000000000e+02 8.780000000000000000e+02 8.790000000000000000e+02 8.800000000000000000e+02 8.810000000000000000e+02 8.820000000000000000e+02 8.830000000000000000e+02 8.840000000000000000e+02 8.850000000000000000e+02 8.860000000000000000e+02 8.870000000000000000e+02 8.880000000000000000e+02 8.890000000000000000e+02 8.900000000000000000e+02 8.910000000000000000e+02 8.920000000000000000e+02 8.930000000000000000e+02 8.940000000000000000e+02 8.950000000000000000e+02 8.960000000000000000e+02 8.970000000000000000e+02 8.980000000000000000e+02 8.990000000000000000e+02 9.000000000000000000e+02 9.010000000000000000e+02 9.020000000000000000e+02 9.030000000000000000e+02 9.040000000000000000e+02 9.050000000000000000e+02 9.060000000000000000e+02 9.070000000000000000e+02 9.080000000000000000e+02 9.090000000000000000e+02 9.100000000000000000e+02 9.110000000000000000e+02 9.120000000000000000e+02 9.130000000000000000e+02 9.140000000000000000e+02 9.150000000000000000e+02 9.160000000000000000e+02 9.170000000000000000e+02 9.180000000000000000e+02 9.190000000000000000e+02 9.200000000000000000e+02 9.210000000000000000e+02 9.220000000000000000e+02 9.230000000000000000e+02 9.240000000000000000e+02 9.250000000000000000e+02 9.260000000000000000e+02 9.270000000000000000e+02 9.280000000000000000e+02 9.290000000000000000e+02 9.300000000000000000e+02 9.310000000000000000e+02 9.320000000000000000e+02 9.330000000000000000e+02 9.340000000000000000e+02 9.350000000000000000e+02 9.360000000000000000e+02 9.370000000000000000e+02 9.380000000000000000e+02 9.390000000000000000e+02 9.400000000000000000e+02 9.410000000000000000e+02 9.420000000000000000e+02 9.430000000000000000e+02 9.440000000000000000e+02 9.450000000000000000e+02 9.460000000000000000e+02 9.470000000000000000e+02 9.480000000000000000e+02 9.490000000000000000e+02 9.500000000000000000e+02 9.510000000000000000e+02 9.520000000000000000e+02 9.530000000000000000e+02 9.540000000000000000e+02 9.550000000000000000e+02 9.560000000000000000e+02 9.570000000000000000e+02 9.580000000000000000e+02 9.590000000000000000e+02 9.600000000000000000e+02 9.610000000000000000e+02 9.620000000000000000e+02 9.630000000000000000e+02 9.640000000000000000e+02 9.650000000000000000e+02 9.660000000000000000e+02 9.670000000000000000e+02 9.680000000000000000e+02 9.690000000000000000e+02 9.700000000000000000e+02 9.710000000000000000e+02 9.720000000000000000e+02 9.730000000000000000e+02 9.740000000000000000e+02 9.750000000000000000e+02 9.760000000000000000e+02 9.770000000000000000e+02 9.780000000000000000e+02 9.790000000000000000e+02 9.800000000000000000e+02 9.810000000000000000e+02 9.820000000000000000e+02 9.830000000000000000e+02 9.840000000000000000e+02 9.850000000000000000e+02 9.860000000000000000e+02 9.870000000000000000e+02 9.880000000000000000e+02 9.890000000000000000e+02 9.900000000000000000e+02 9.910000000000000000e+02 9.920000000000000000e+02 9.930000000000000000e+02 9.940000000000000000e+02 9.950000000000000000e+02 9.960000000000000000e+02 9.970000000000000000e+02 9.980000000000000000e+02 9.990000000000000000e+02 1.000000000000000000e+03
1.000000000000000021e-02 1.000000000000000021e-02 1.000000000000000021e-02 1.000000000000000021e-02 1.000000000000000021e-02 1.000000000000000021e-02 1.000000000000000021e-02 1.000000000000000021e-02 1.000000000000000021e-02 1.000000000000000021e-02 1.000000000000000021e-02 1.000000000000000021e-02 1.000000000000000021e-02 1.000000000000000021e-02 1.000000000000000021e-02 1.000000000000000021e-02 1.000000000000000021e-02 1.000000000000000021e-02 1.000000000000000021e-02 1.000000000000000021e-02 1.000000000000000021e-02 1.000000000000000021e-02 1.000000000000000021e-02 1.000000000000000021e-02 1.000000000000000021e-02 1.000000000000000021e-02 1.000000000000000021e-02 1.000000000000000021e-02 1.000000000000000021e-02 1.000000000000000021e-02 1.000000000000000021e-02 1.000000000000000021e-02 1.000000000000000021e-02 1.000000000000000021e-02 1.000000000000000021e-02 1.000000000000000021e-02 1.000000000000000021e-02 1.000000000000000021e-02 1.000000000000000021e-02 1.000000000000000021e-02 1.000000000000000021e-02 1.000000000000000021e-02 1.000000000000000021e-02 1.000000000000000021e-02 1.000000000000000021e-02 1.000000000000000021e-02 1.000000000000000021e-02 1.000000000000000021e-02 1.000000000000000021e-02 1.000000000000000021e-02 1.000000000000000021e-02 1.000000000000000021e-02 1.000000000000000021e-02 1.000000000000000021e-02 1.000000000000000021e-02 1.000000000000000021e-02 1.000000000000000021e-02 1.000000000000000021e-02 1.000000000000000021e-02 1.000000000000000021e-02 1.000000000000000021e-02 1.000000000000000021e-02 1.000000000000000021e-02 1.000000000000000021e-02 1.000000000000000021e-02 1.000000000000000021e-02 1.000000000000000021e-02 1.000000000000000021e-02 1.000000000000000021e-02 1.000000000000000021e-02 1.000000000000000021e-02 1.000000000000000021e-02 1.000000000000000021e-02 1.000000000000000021e-02 1.000000000000000021e-02 1.000000000000000021e-02 1.000000000000000021e-02 1.000000000000000021e-02 1.000000000000000021e-02 1.000000000000000021e-02 1.000000000000000021e-02 1.000000000000000021e-02 1.000000000000000021e-02 1.000000000000000021e-02 1.000000000000000021e-02 1.000000000000000021e-02 1.000000000000000021e-02 1.000000000000000021e-02 1.000000000000000021e-02 1.000000000000000021e-02 1.000000000000000021e-02 1.000000000000000021e-02 1.000000000000000021e-02 1.000000000000000021e-02 1.000000000000000021e-02 1.000000000000000021e-02 1.000000000000000021e-02 1.000000000000000021e-02 1.000000000000000021e-02 1.000000000000000021e-02 1.000000000000000021e-02 1.000000000000000021e-02 1.000000000000000021e-02 1.000000000000000021e-02 1.000000000000000021e-02 1.000000000000000021e-02 1.000000000000000021e-02 1.000000000000000021e-02 1.000000000000000021e-02 1.000000000000000021e-02 1.000000000000000021e-02 1.000000000000000021e-02 1.000000000000000021e-02 1.000000000000000021e-02 1.000000000000000021e-02 1.000000000000000021e-02 1.000000000000000021e-02 1.000000000000000021e-02 1.000000000000000021e-02 1.000000000000000021e-02 1.000000000000000021e-02 1.000000000000000021e-02 1.000000000000000021e-02 1.000000000000000021e-02 1.000000000000000021e-02 1.000000000000000021e-02 1.000000000000000021e-02 1.000000000000000021e-02 1.000000000000000021e-02 1.000000000000000021e-02 1.000000000000000021e-02 1.000000000000000021e-02 1.000000000000000021e-02 1.000000000000000021e-02 1.000000000000000021e-02 1.000000000000000021e-02 1.000000000000000021e-02 1.000000000000000021e-02 1.000000000000000021e-02 1.000000000000000021e-02 1.000000000000000021e-02 1.000000000000000021e-02 1.000000000000000021e-02 1.000000000000000021e-02 1.000000000000000021e-02 1.000000000000000021e-02 1.000000000000000021e-02 1.000000000000000021e-02 1.000000000000000021e-02 1.000000000000000021e-02 1.000000000000000021e-02 1.000000000000000021e-02 1.000000000000000021e-02 1.000000000000000021e-02 1.000000000000000021e-02 1.000000000000000021e-02 1.000000000000000021e-02 1.000000000000000021e-02 1.000000000000000021e-02 1.000000000000000021e-02 1.000000000000000021e-02 1.000000000000000021e-02 1.000000000000000021e-02 1.000000000000000021e-02 1.000000000000000021e-02 1.000000000000000021e-02 1.000000000000000021e-02 1.000000000000000021e-02 1.000000000000000021e-02 1.000000000000000021e-02 1.000000000000000021e-02 1.000000000000000021e-02 1.000000000000000021e-02 1.000000000000000021e-02 1.000000000000000021e-02 1.000000000000000021e-02 1.000000000000000021e-02 1.000000000000000021e-02 1.000000000000000021e-02 1.000000000000000021e-02 1.000000000000000021e-02 1.000000000000000021e-02 1.000000000000000021e-02 1.000000000000000021e-02 1.000000000000000021e-02 1.000000000000000021e-02 1.000000000000000021e-02 1.000000000000000021e-02 1.000000000000000021e-02 1.000000000000000021e-02 1.000000000000000021e-02 1.000000000000000021e-02 1.000000000000000021e-02 1.000000000000000021e-02 1.000000000000000021e-02 1.000000000000000021e-02 1.000000000000000021e-02 1.000000000000000021e-02 1.000000000000000021e-02 1.000000000000000021e-02 1.000000000000000021e-02 1.000000000000000021e-02 1.000000000000000021e-02 1.000000000000000021e-02 1.000000000000000021e-02 1.000000000000000021e-02 1.000000000000000021e-02 1.000000000000000021e-02 1.000000000000000021e-02 1.000000000000000021e-02 1.000000000000000021e-02 1.000000000000000021e-02 1.000000000000000021e-02 1.000000000000000021e-02 1.000000000000000021e-02 1.000000000000000021e-02 1.000000000000000021e-02 1.000000000000000021e-02 1.000000000000000021e-02 1.000000000000000021e-02 1.000000000000000021e-02 1.000000000000000021e-02 1.000000000000000021e-02 1.000000000000000021e-02 1.000000000000000021e-02 1.000000000000000021e-02 1.000000000000000021e-02 1.000000000000000021e-02 1.000000000000000021e-02 1.000000000000000021e-02 1.000000000000000021e-02 1.000000000000000021e-02 1.000000000000000021e-02 1.000000000000000021e-02 1.000000000000000021e-02 1.000000000000000021e-02 1.000000000000000021e-02 1.000000000000000021e-02 1.000000000000000021e-02 1.000000000000000021e-02 1.000000000000000021e-02 1.000000000000000021e-02 1.000000000000000021e-02 1.000000000000000021e-02 1.000000000000000021e-02 1.000000000000000021e-02 1.000000000000000021e-02 1.000000000000000021e-02 1.000000000000000021e-02 1.000000000000000021e-02 1.000000000000000021e-02 1.000000000000000021e-02 1.000000000000000021e-02 1.000000000000000021e-02 1.000000000000000021e-02 1.000000000000000021e-02 1.000000000000000021e-02 1.000000000000000021e-02 1.000000000000000021e-02 1.000000000000000021e-02 1.000000000000000021e-02 1.000000000000000021e-02 1.000000000000000021e-02 1.000000000000000021e-02 1.000000000000000021e-02 1.000000000000000021e-02 1.000000000000000021e-02 1.000000000000000021e-02 1.000000000000000021e-02 1.000000000000000021e-02 1.000000000000000021e-02 1.000000000000000021e-02 1.000000000000000021e-02 1.000000000000000021e-02 1.000000000000000021e-02 1.000000000000000021e-02 1.000000000000000021e-02 1.000000000000000021e-02 1.000000000000000021e-02 1.000000000000000021e-02 1.000000000000000021e-02 1.000000000000000021e-02 1.000000000000000021e-02 1.000000000000000021e-02 1.000000000000000021e-02 1.000000000000000021e-02 1.000000000000000021e-02 1.000000000000000021e-02 1.000000000000000021e-02 1.000000000000000021e-02 1.000000000000000021e-02 1.000000000000000021e-02 1.000000000000000021e-02 1.000000000000000021e-02 1.000000000000000021e-02 1.000000000000000021e-02 1.000000000000000021e-02 1.000000000000000021e-02 1.000000000000000021e-02 1.000000000000000021e-02 1.000000000000000021e-02 1.000000000000000021e-02 1.000000000000000021e-02 1.000000000000000021e-02 1.000000000000000021e-02 1.000000000000000021e-02 1.000000000000000021e-02 1.000000000000000021e-02 1.000000000000000021e-02 1.000000000000000021e-02 1.000000000000000021e-02 1.000000000000000021e-02 1.000000000000000021e-02 1.000000000000000021e-02 1.000000000000000021e-02 1.000000000000000021e-02 1.000000000000000021e-02 1.000000000000000021e-02 1.000000000000000021e-02 1.000000000000000021e-02 1.000000000000000021e-02 1.000000000000000021e-02 1.000000000000000021e-02 1.000000000000000021e-02 1.000000000000000021e-02 1.000000000000000021e-02 1.000000000000000021e-02 1.000000000000000021e-02 1.000000000000000021e-02 1.000000000000000021e-02 1.000000000000000021e-02 1.000000000000000021e-02 1.000000000000000021e-02 1.000000000000000021e-02 1.000000000000000021e-02 1.000000000000000021e-02 1.000000000000000021e-02 1.000000000000000021e-02 1.000000000000000021e-02 1.000000000000000021e-02 1.000000000000000021e-02 1.000000000000000021e-02 1.000000000000000021e-02 1.000000000000000021e-02 1.000000000000000021e-02 1.000000000000000021e-02 1.000000000000000021e-02 1.000000000000000021e-02 1.000000000000000021e-02 1.000000000000000021e-02 1.000000000000000021e-02 1.000000000000000021e-02 1.000000000000000021e-02 1.000000000000000021e-02 1.000000000000000021e-02 1.000000000000000021e-02 1.000000000000000021e-02 1.000000000000000021e-02 1.000000000000000021e-02 1.000000000000000021e-02 1.000000000000000021e-02 1.000000000000000021e-02 1.000000000000000021e-02 1.000000000000000021e-02 1.000000000000000021e-02 1.000000000000000021e-02 1.000000000000000021e-02 1.000000000000000021e-02 1.000000000000000021e-02 1.000000000000000021e-02 1.000000000000000021e-02 1.000000000000000021e-02 1.000000000000000021e-02 1.000000000000000021e-02 1.000000000000000021e-02 1.000000000000000021e-02 1.000000000000000021e-02 1.000000000000000021e-02 1.000000000000000021e-02 1.000000000000000021e-02 1.000000000000000021e-02 1.000000000000000021e-02 1.000000000000000021e-02 1.000000000000000021e-02 1.000000000000000021e-02 1.000000000000000021e-02 1.000000000000000021e-02 1.000000000000000021e-02 1.000000000000000021e-02 1.000000000000000021e-02 1.000000000000000021e-02 1.000000000000000021e-02 1.000000000000000021e-02 1.000000000000000021e-02 1.000000000000000021e-02 1.000000000000000021e-02 1.000000000000000021e-02 1.000000000000000021e-02 1.000000000000000021e-02 1.000000000000000021e-02 1.000000000000000021e-02 1.000000000000000021e-02 1.000000000000000021e-02 1.000000000000000021e-02 1.000000000000000021e-02 1.000000000000000021e-02 1.000000000000000021e-02 1.000000000000000021e-02 1.000000000000000021e-02 1.000000000000000021e-02 1.000000000000000021e-02 1.000000000000000021e-02 1.000000000000000021e-02 1.000000000000000021e-02 1.000000000000000021e-02 1.000000000000000021e-02 1.000000000000000021e-02 1.000000000000000021e-02 1.000000000000000021e-02 1.000000000000000021e-02 1.000000000000000021e-02 1.000000000000000021e-02 1.000000000000000021e-02 1.000000000000000021e-02 1.000000000000000021e-02 1.000000000000000021e-02 1.000000000000000021e-02 1.000000000000000021e-02 1.000000000000000021e-02 1.000000000000000021e-02 1.000000000000000021e-02 1.000000000000000021e-02 1.000000000000000021e-02 1.000000000000000021e-02 1.000000000000000021e-02 1.000000000000000021e-02 1.000000000000000021e-02 1.000000000000000021e-02 1.000000000000000021e-02 1.000000000000000021e-02 1.000000000000000021e-02 1.000000000000000021e-02 1.000000000000000021e-02 1.000000000000000021e-02 1.000000000000000021e-02 1.000000000000000021e-02 1.000000000000000021e-02 1.000000000000000021e-02 1.000000000000000021e-02 1.000000000000000021e-02 1.000000000000000021e-02 1.000000000000000021e-02 1.000000000000000021e-02 1.000000000000000021e-02 1.000000000000000021e-02 1.000000000000000021e-02 1.000000000000000021e-02 1.000000000000000021e-02 1.000000000000000021e-02 1.000000000000000021e-02 1.000000000000000021e-02 1.000000000000000021e-02 1.000000000000000021e-02 1.000000000000000021e-02 1.000000000000000021e-02 1.000000000000000021e-02 1.000000000000000021e-02 1.000000000000000021e-02 1.000000000000000021e-02 1.000000000000000021e-02 1.000000000000000021e-02 1.000000000000000021e-02 1.000000000000000021e-02 1.000000000000000021e-02 1.000000000000000021e-02 1.000000000000000021e-02 1.000000000000000021e-02 1.000000000000000021e-02 1.000000000000000021e-02 1.000000000000000021e-02 1.000000000000000021e-02 1.000000000000000021e-02 1.000000000000000021e-02 1.000000000000000021e-02 1.000000000000000021e-02 1.000000000000000021e-02 1.000000000000000021e-02 1.000000000000000021e-02 1.000000000000000021e-02 1.000000000000000021e-02 1.000000000000000021e-02 1.000000000000000021e-02 1.000000000000000021e-02 1.000000000000000021e-02 1.000000000000000021e-02 1.000000000000000021e-02 1.000000000000000021e-02 1.000000000000000021e-02 1.000000000000000021e-02 1.000000000000000021e-02 1.000000000000000021e-02 1.000000000000000021e-02 1.000000000000000021e-02 1.000000000000000021e-02 1.000000000000000021e-02 1.000000000000000021e-02 1.000000000000000021e-02 1.000000000000000021e-02 1.000000000000000021e-02 1.000000000000000021e-02 1.000000000000000021e-02 1.000000000000000021e-02 1.000000000000000021e-02 1.000000000000000021e-02 1.000000000000000021e-02 1.000000000000000021e-02 1.000000000000000021e-02 1.000000000000000021e-02 1.000000000000000021e-02 1.000000000000000021e-02 1.000000000000000021e-02 1.000000000000000021e-02 1.000000000000000021e-02 1.000000000000000021e-02 1.000000000000000021e-02 1.000000000000000021e-02 1.000000000000000021e-02 1.000000000000000021e-02 1.000000000000000021e-02 1.000000000000000021e-02 1.000000000000000021e-02 1.000000000000000021e-02 1.000000000000000021e-02 1.000000000000000021e-02 1.000000000000000021e-02 1.000000000000000021e-02 1.000000000000000021e-02 1.000000000000000021e-02 1.000000000000000021e-02 1.000000000000000021e-02 1.000000000000000021e-02 1.000000000000000021e-02 1.000000000000000021e-02 1.000000000000000021e-02 1.000000000000000021e-02 1.000000000000000021e-02 1.000000000000000021e-02 1.000000000000000021e-02 1.000000000000000021e-02 1.000000000000000021e-02 1.000000000000000021e-02 1.000000000000000021e-02 1.000000000000000021e-02 1.000000000000000021e-02 1.000000000000000021e-02 1.000000000000000021e-02 1.000000000000000021e-02 1.000000000000000021e-02 1.000000000000000021e-02 1.000000000000000021e-02 1.000000000000000021e-02 1.000000000000000021e-02 1.000000000000000021e-02 1.000000000000000021e-02 1.000000000000000021e-02 1.000000000000000021e-02 1.000000000000000021e-02 1.000000000000000021e-02 1.000000000000000021e-02 1.000000000000000021e-02 1.000000000000000021e-02 1.000000000000000021e-02 1.000000000000000021e-02 1.000000000000000021e-02 1.000000000000000021e-02 1.000000000000000021e-02 1.000000000000000021e-02 1.000000000000000021e-02 1.000000000000000021e-02 1.000000000000000021e-02 1.000000000000000021e-02 1.000000000000000021e-02 1.000000000000000021e-02 1.000000000000000021e-02 1.000000000000000021e-02 1.000000000000000021e-02 1.000000000000000021e-02 1.000000000000000021e-02 1.000000000000000021e-02 1.000000000000000021e-02 1.000000000000000021e-02 1.000000000000000021e-02 1.000000000000000021e-02 1.000000000000000021e-02 1.000000000000000021e-02 1.000000000000000021e-02 1.000000000000000021e-02 1.000000000000000021e-02 1.000000000000000021e-02 1.000000000000000021e-02 1.000000000000000021e-02 1.000000000000000021e-02 1.000000000000000021e-02 1.000000000000000021e-02 1.000000000000000021e-02 1.000000000000000021e-02 1.000000000000000021e-02 1.000000000000000021e-02 1.000000000000000021e-02 1.000000000000000021e-02 1.000000000000000021e-02 1.000000000000000021e-02 1.000000000000000021e-02 1.000000000000000021e-02 1.000000000000000021e-02 1.000000000000000021e-02 1.000000000000000021e-02 1.000000000000000021e-02 1.000000000000000021e-02 1.000000000000000021e-02 1.000000000000000021e-02 1.000000000000000021e-02 1.000000000000000021e-02 1.000000000000000021e-02 1.000000000000000021e-02 1.000000000000000021e-02 1.000000000000000021e-02 1.000000000000000021e-02 1.000000000000000021e-02 1.000000000000000021e-02 1.000000000000000021e-02 1.000000000000000021e-02 1.000000000000000021e-02 1.000000000000000021e-02 1.000000000000000021e-02 1.000000000000000021e-02 1.000000000000000021e-02 1.000000000000000021e-02 1.000000000000000021e-02 1.000000000000000021e-02 1.000000000000000021e-02 1.000000000000000021e-02 1.000000000000000021e-02 1.000000000000000021e-02 1.000000000000000021e-02 1.000000000000000021e-02 1.000000000000000021e-02 1.000000000000000021e-02 1.000000000000000021e-02 1.000000000000000021e-02 1.000000000000000021e-02 1.000000000000000021e-02 1.000000000000000021e-02 1.000000000000000021e-02 1.000000000000000021e-02 1.000000000000000021e-02 1.000000000000000021e-02 1.000000000000000021e-02 1.000000000000000021e-02 1.000000000000000021e-02 1.000000000000000021e-02 1.000000000000000021e-02 1.000000000000000021e-02 1.000000000000000021e-02 1.000000000000000021e-02 1.000000000000000021e-02 1.000000000000000021e-02 1.000000000000000021e-02 1.000000000000000021e-02 1.000000000000000021e-02 1.000000000000000021e-02 1.000000000000000021e-02 1.000000000000000021e-02 1.000000000000000021e-02 1.000000000000000021e-02 1.000000000000000021e-02 1.000000000000000021e-02 1.000000000000000021e-02 1.000000000000000021e-02 1.000000000000000021e-02 1.000000000000000021e-02 1.000000000000000021e-02 1.000000000000000021e-02 1.000000000000000021e-02 1.000000000000000021e-02 1.000000000000000021e-02 1.000000000000000021e-02 1.000000000000000021e-02 1.000000000000000021e-02 1.000000000000000021e-02 1.000000000000000021e-02 1.000000000000000021e-02 1.000000000000000021e-02 1.000000000000000021e-02 1.000000000000000021e-02 1.000000000000000021e-02 1.000000000000000021e-02 1.000000000000000021e-02 1.000000000000000021e-02 1.000000000000000021e-02 1.000000000000000021e-02 1.000000000000000021e-02 1.000000000000000021e-02 1.000000000000000021e-02 1.000000000000000021e-02 1.000000000000000021e-02 1.000000000000000021e-02 1.000000000000000021e-02 1.000000000000000021e-02 1.000000000000000021e-02 1.000000000000000021e-02 1.000000000000000021e-02 1.000000000000000021e-02 1.000000000000000021e-02 1.000000000000000021e-02 1.000000000000000021e-02 1.000000000000000021e-02 1.000000000000000021e-02 1.000000000000000021e-02 1.000000000000000021e-02 1.000000000000000021e-02 1.000000000000000021e-02 1.000000000000000021e-02 1.000000000000000021e-02 1.000000000000000021e-02 1.000000000000000021e-02 1.000000000000000021e-02 1.000000000000000021e-02 1.000000000000000021e-02 1.000000000000000021e-02 1.000000000000000021e-02 1.000000000000000021e-02 1.000000000000000021e-02 1.000000000000000021e-02 1.000000000000000021e-02 1.000000000000000021e-02 1.000000000000000021e-02 1.000000000000000021e-02 1.000000000000000021e-02 1.000000000000000021e-02 1.000000000000000021e-02 1.000000000000000021e-02 1.000000000000000021e-02 1.000000000000000021e-02 1.000000000000000021e-02 1.000000000000000021e-02 1.000000000000000021e-02 1.000000000000000021e-02 1.000000000000000021e-02 1.000000000000000021e-02 1.000000000000000021e-02 1.000000000000000021e-02 1.000000000000000021e-02 1.000000000000000021e-02 1.000000000000000021e-02 1.000000000000000021e-02 1.000000000000000021e-02 1.000000000000000021e-02 1.000000000000000021e-02 1.000000000000000021e-02 1.000000000000000021e-02 1.000000000000000021e-02 1.000000000000000021e-02 1.000000000000000021e-02 1.000000000000000021e-02 1.000000000000000021e-02 1.000000000000000021e-02 1.000000000000000021e-02 1.000000000000000021e-02 1.000000000000000021e-02 1.000000000000000021e-02 1.000000000000000021e-02 1.000000000000000021e-02 1.000000000000000021e-02 1.000000000000000021e-02 1.000000000000000021e-02 1.000000000000000021e-02 1.000000000000000021e-02 1.000000000000000021e-02 1.000000000000000021e-02 1.000000000000000021e-02 1.000000000000000021e-02 1.000000000000000021e-02 1.000000000000000021e-02 1.000000000000000021e-02 1.000000000000000021e-02 1.000000000000000021e-02 1.000000000000000021e-02 1.000000000000000021e-02 1.000000000000000021e-02 1.000000000000000021e-02 1.000000000000000021e-02 1.000000000000000021e-02 1.000000000000000021e-02 1.000000000000000021e-02 1.000000000000000021e-02 1.000000000000000021e-02 1.000000000000000021e-02 1.000000000000000021e-02 1.000000000000000021e-02 1.000000000000000021e-02 1.000000000000000021e-02 1.000000000000000021e-02 1.000000000000000021e-02 1.000000000000000021e-02 1.000000000000000021e-02 1.000000000000000021e-02 1.000000000000000021e-02 1.000000000000000021e-02 1.000000000000000021e-02 1.000000000000000021e-02 1.000000000000000021e-02 1.000000000000000021e-02 1.000000000000000021e-02 1.000000000000000021e-02 1.000000000000000021e-02 1.000000000000000021e-02 1.000000000000000021e-02 1.000000000000000021e-02 1.000000000000000021e-02 1.000000000000000021e-02 1.000000000000000021e-02 1.000000000000000021e-02 1.000000000000000021e-02 1.000000000000000021e-02 1.000000000000000021e-02 1.000000000000000021e-02 1.000000000000000021e-02 1.000000000000000021e-02 1.000000000000000021e-02 1.000000000000000021e-02 1.000000000000000021e-02 1.000000000000000021e-02 1.000000000000000021e-02 1.000000000000000021e-02 1.000000000000000021e-02 1.000000000000000021e-02 1.000000000000000021e-02 1.000000000000000021e-02 1.000000000000000021e-02 1.000000000000000021e-02 1.000000000000000021e-02 1.000000000000000021e-02 1.000000000000000021e-02 1.000000000000000021e-02 1.000000000000000021e-02 1.000000000000000021e-02 1.000000000000000021e-02 1.000000000000000021e-02 1.000000000000000021e-02 1.000000000000000021e-02 1.000000000000000021e-02 1.000000000000000021e-02 1.000000000000000021e-02 1.000000000000000021e-02 1.000000000000000021e-02 1.000000000000000021e-02 1.000000000000000021e-02 1.000000000000000021e-02 1.000000000000000021e-02 1.000000000000000021e-02 1.000000000000000021e-02 1.000000000000000021e-02 1.000000000000000021e-02 1.000000000000000021e-02 1.000000000000000021e-02 1.000000000000000021e-02 1.000000000000000021e-02 1.000000000000000021e-02 1.000000000000000021e-02 1.000000000000000021e-02 1.000000000000000021e-02 1.000000000000000021e-02 1.000000000000000021e-02 1.000000000000000021e-02 1.000000000000000021e-02 1.000000000000000021e-02 1.000000000000000021e-02 1.000000000000000021e-02 1.000000000000000021e-02 1.000000000000000021e-02 1.000000000000000021e-02 1.000000000000000021e-02 1.000000000000000021e-02 1.000000000000000021e-02 1.000000000000000021e-02 1.000000000000000021e-02 1.000000000000000021e-02 1.000000000000000021e-02 1.000000000000000021e-02 1.000000000000000021e-02 1.000000000000000021e-02 1.000000000000000021e-02 1.000000000000000021e-02 1.000000000000000021e-02 1.000000000000000021e-02 1.000000000000000021e-02 1.000000000000000021e-02 1.000000000000000021e-02 1.000000000000000021e-02 1.000000000000000021e-02 1.000000000000000021e-02 1.000000000000000021e-02 1.000000000000000021e-02 1.000000000000000021e-02 1.000000000000000021e-02 1.000000000000000021e-02 1.000000000000000021e-02 1.000000000000000021e-02 1.000000000000000021e-02 1.000000000000000021e-02 1.000000000000000021e-02 1.000000000000000021e-02 1.000000000000000021e-02 1.000000000000000021e-02 1.000000000000000021e-02 1.000000000000000021e-02 1.000000000000000021e-02 1.000000000000000021e-02 1.000000000000000021e-02 1.000000000000000021e-02 1.000000000000000021e-02 1.000000000000000021e-02 1.000000000000000021e-02 1.000000000000000021e-02 1.000000000000000021e-02 1.000000000000000021e-02 1.000000000000000021e-02 1.000000000000000021e-02 1.000000000000000021e-02 1.000000000000000021e-02 1.000000000000000021e-02 1.000000000000000021e-02 1.000000000000000021e-02 1.000000000000000021e-02 1.000000000000000021e-02 1.000000000000000021e-02 1.000000000000000021e-02 1.000000000000000021e-02 1.000000000000000021e-02 1.000000000000000021e-02 1.000000000000000021e-02 1.000000000000000021e-02 1.000000000000000021e-02 1.000000000000000021e-02 1.000000000000000021e-02 1.000000000000000021e-02 1.000000000000000021e-02 1.000000000000000021e-02 1.000000000000000021e-02 1.000000000000000021e-02 1.000000000000000021e-02 1.000000000000000021e-02 1.000000000000000021e-02 1.000000000000000021e-02 1.000000000000000021e-02 1.000000000000000021e-02 1.000000000000000021e-02 1.000000000000000021e-02 1.000000000000000021e-02 1.000000000000000021e-02 1.000000000000000021e-02 1.000000000000000021e-02 1.000000000000000021e-02 1.000000000000000021e-02 1.000000000000000021e-02 1.000000000000000021e-02 1.000000000000000021e-02 1.000000000000000021e-02 1.000000000000000021e-02 1.000000000000000021e-02 1.000000000000000021e-02 1.000000000000000021e-02 1.000000000000000021e-02 1.000000000000000021e-02 1.000000000000000021e-02 1.000000000000000021e-02 1.000000000000000021e-02 1.000000000000000021e-02 1.000000000000000021e-02 1.000000000000000021e-02 1.000000000000000021e-02 1.000000000000000021e-02 1.000000000000000021e-02 1.000000000000000021e-02 1.000000000000000021e-02 1.000000000000000021e-02 1.000000000000000021e-02 1.000000000000000021e-02 1.000000000000000021e-02 1.000000000000000021e-02 1.000000000000000021e-02 1.000000000000000021e-02 1.000000000000000021e-02 1.000000000000000021e-02 1.000000000000000021e-02 1.000000000000000021e-02 1.000000000000000021e-02 1.000000000000000021e-02 1.000000000000000021e-02
-1.107663674606348962e+02 1.683930172417246069e+02 3.904541679189902226e+01 -8.774243350804576735e+00 -8.724584905959177661e+01 -1.329419211207177476e+01 -2.064261917012190395e+02 6.875638381342212835e-01 -8.411096366049844164e+01 -1.396812990674409427e+01 -1.969499389160164426e+01 6.479457440566284809e+00 -1.769040255643534287e+00 1.665929272829196748e+02 8.401872548900423965e+01 -3.851385829470824262e+01 -5.242950969368620662e+01 7.865366218586873970e+01 3.259121368856424539e+01 -2.519325341465678747e+01 -7.828536516471420725e+01 -7.327878841700086809e+01 -1.370440481192418147e+01 2.872793598288386008e+01 -1.935349496718629041e+02 -9.802786390242960124e+01 -2.590497633926273835e+01 2.001989633856538546e+02 7.026152492170203345e+01 7.618749062765962776e+01 7.972719549631531777e+01 1.175288483833453190e+00 -7.869481578885977058e+01 2.059856405497670266e+02 -2.431255551701395632e+02 5.842610920832174770e+01 -1.192866293111605955e+02 -3.443937182110512651e+01 4.006451594860479304e+00 1.258203161363946236e+02 -1.220325850944274464e+02 -1.354667355895395708e+01 7.680834834040643955e+01 1.723814194820693615e+02 7.084800859735759104e+01 -6.792648794318192529e+01 4.092183365947497720e+01 -2.818677287705303058e+01 -6.560045020451691755e+01 1.554907425936537777e+02 -7.005500899574934692e+01 -5.174303939637793803e+01 -1.383638174835925838e+02 5.728550252385704589e+00 -5.017931187196477794e+01 3.839935950581391921e+01 -8.811000921692011900e+01 -4.970890135320790648e+01 -1.007030779354744112e+02 -1.543687041855990572e+02 1.931189072390415618e+01 4.505414753086743929e+01 -1.222731983476983970e+02 1.276674602538206926e+01 -7.873789919060870091e+01 4.878148523124463054e+01 1.654884838112800480e+02 -1.432723050256273325e+02 -4.300793120911041001e+01 7.152092807270417296e+00 2.911752876298552284e+00 4.209295056770565679e+01 8.340601178800473292e+01 8.538638150242018332e-01 -8.749027425132661406e+00 -6.954304005941581579e+01 7.772188722324221999e+01 -3.253168732955459319e+01 2.611820687280210862e+01 1.033064739707621982e+02 8.761488823493046141e+01 -4.246734911297652815e+01 5.739760571220281093e+01 1.464280752574388771e+02 1.154184298666304613e+02 -3.988847268619137854e+00 1.730154586766043394e+02 -1.107606687277302910e+02 4.163214452032810264e+00 -4.165296209323723531e+01 2.054239255781060649e+02 -2.107898757454526972e+01 2.866862258411161157e+00 -7.626120094294324758e+01 -7.091654343057452792e+00 -6.340350410970286532e+01 6.731468520765463381e+01 -9.391083082607482879e+01 6.812340514620842669e+01 -4.743002231032231464e+01 -4.941969254639992926e+01 -9.103996644961706863e+01 5.272287308933277927e+01 -5.433560539403601553e+01 -1.483189199663185889e+02 -7.892578884204314704e+01 -1.039022306834442588e+02 -1.561631436393504657e+02 1.350158708767245344e+02 -2.729665985509668502e+01 3.181784963812477329e+01 8.905997904897888873e+01 -1.033579371506692439e+02 5.657698008728647210e+01 -4.302635874020156592e+01 -6.888490991718128953e+01 -8.949072178351899254e+01 2.018774095646493549e+02 -5.635723893877407420e+01 -4.916621200126275681e+01 -4.688018557160122413e+01 7.985601079572650463e+01 -4.113266966778627420e+01 1.370468916953062717e+02 -4.955371742649159472e+01 5.473428166886004220e+01 4.511932342490876380e+00 -8.057347365282207363e+01 6.834137813290865893e+01 2.755213405811225584e+02 -9.141897221514226146e+01 4.716718487844021723e+01 -7.573976115915961316e+01 4.493822722747377441e+01 1.303254885206106621e+02 -5.105725185793420451e+01 1.450365995400371943e+01 -2.675595281214624421e+01 -1.012796827403546303e+02 -1.720403585919375189e+01 4.259284865472950266e+00 -7.765971003396866301e+00 -1.485242071303511935e+01 1.174649268518012803e+02 1.295359748587162301e+02 1.852833930504509965e+02 -3.024247507868100797e+02 3.796973050885564049e+01 -1.566230802827031354e+01 -6.196419571258586956e+01 1.792460602127266895e+02 7.572545297495344130e+01 -2.578831153686474753e+00 -1.152640361607177368e+02 -1.082948412667796845e+01 9.950666266380315506e+01 -1.336067336211188490e+02 -1.676554795656014676e+02 1.067543359654564306e+01 4.218815645349685894e+01 -6.068476777523662946e+01 4.180541966346519445e+01 -1.064952075380575565e+02 -1.504986392096341490e+02 2.099068644935255179e+01 4.832295371157294994e+01 4.786708382677804074e+00 -8.304059847086161028e+01 -9.311753771552241687e+01 -8.388968747866381648e+01 -8.712551905588154000e+01 1.258316698449847060e+01 5.656697533719356841e+01 1.159834138415946541e+02 7.908047736952245543e+01 8.913198408863483735e+01 1.070235282791979614e+02 -7.449137811968792278e+01 -8.219327112745790487e+01 7.026018250565817880e+01 6.825614371837983185e+01 5.902868664185674419e+01 -9.357515326657017241e+00 -9.079550840458439609e+01 5.383258820965791358e+01 -1.785384521027942810e+02 6.699895298546557854e+01 -4.442737752876875845e+01 -9.622703684407167657e+01 7.406147368765167016e+01 -1.711519345395830882e+01 -7.699715511881400687e+01 -5.737549924017098846e+01 -9.146835992709586804e+00 2.424428493135870042e+02 7.681140974081907302e+01 5.480658826534114070e+01 -1.038449416007550212e+02 1.482425659050464617e+02 1.054565759720406781e+00 -9.039775666745727278e+01 1.558780110093305211e+02 -1.542360514817083015e+02 1.578887926709279199e+01 -3.256697731980550969e+01 -2.224138837356715896e+02 -1.349884485308662363e+02 -8.828217829540817263e+01 -2.968275266683400915e+01 -1.206649737619871559e+02 5.834679304812199518e+01 6.577461822582850459e+01 -2.791659987527074094e+01 -1.009502898691679462e+02 1.144606954981119884e+02 1.196266661319057505e+02 4.677479400594175019e+01 1.769519119666953344e+01 2.646178921405050914e+02 4.420803494611818252e+01 -1.209601948578640531e+02 -4.563428542389152653e+01 -1.709983847591333017e+02 3.228042224401445992e+01 1.552858346734156783e+02 -1.502716934630724097e+02 1.334572555995356709e+02 -9.216168975252332984e+01 -1.916572229194349219e+01 -7.854728485561520701e-01 5.357413156789263553e+01 -1.174615744844434140e+01 -2.311240446185238540e+01 -1.912598165190108546e+01 -1.284482438834535571e+02 4.704602131839837398e+01 -3.076760313328838592e+01 -1.313503470865326506e+01 -1.086558819803653542e+01 2.291006007163830702e+02 1.766507134073397367e+02 2.358741110275615540e+02 1.336432132662171455e+02 -8.778718037700815557e+01 7.623390726545179064e+01 2.142624892566198369e+01 4.823488004506167925e+01 -4.026492845336463944e+01 2.590366934650584199e+02 -2.363803925791623683e+01 -1.386810288132543576e+02 -1.516352854023199725e+01 -4.648875990265608493e+01 -7.850412458237734370e+01 4.377821819855645913e+01 -1.188149104303474068e+01 1.845409289182603629e+02 9.371674903520943190e+01 4.147493259448855696e+01 9.943845077128455046e+01 9.592795981671675065e+01 -2.332310176196258311e+01 1.416786561812440368e+02 2.689558274670083549e+01 9.090663109618900251e+01 4.836959651416965755e+01 7.032857790537015319e+00 -1.174723389597775167e+02 -1.175632136809270776e+02 -9.136307716585699268e+01 -1.580067334213783958e+01 8.797864965978082807e+01 -3.110169288498592977e+01 1.003602415725032984e+02 4.446780967083149250e+01 -7.380789295747479173e+01 -3.040387790228835740e+01 -5.946572602026165555e+01 1.782756741455802896e+01 -4.700706602743262152e+01 -1.137159822959102087e+02 1.233374696856332093e+02 1.231515836970905724e+02 -8.013834301143650407e+01 5.510226147537885311e+00 -4.599488321946180491e+01 -3.307791146976438057e+01 -1.151113463810136928e+01 -3.169597703780125286e+01 4.513269630640581909e+01 -1.426382379088317123e+02 -5.362834308017395557e+01 -1.541084540529487583e+02 1.766658814137578304e+02 -2.050657979490165062e+01 5.978023916154466377e+01 1.209132443499319010e+01 1.464541020363109567e+02 4.526162188914884865e+01 3.622329529661640635e+01 1.565180029937456823e+02 -4.994655703136784552e+01 -9.895454393929155401e+01 2.756001098464135524e+01 -1.601602558899424480e+02 -5.412419033210024111e+01 1.036861229082286400e+02 -1.293497931638520129e+02 -3.684460239800289827e+01 9.249641177673620973e+01 -9.571069771995060194e+01 -9.065434186856846566e+01 -8.371923707720297614e+01 -6.463840957549420807e+01 2.522759047690208263e+02 2.007349134018421353e+02 1.043040978912539600e+02 -1.034931878584841769e+02 7.579203325669320179e+01 -6.699422123118762329e+01 -3.170599976422765565e+01 1.681330641346294996e+01 -3.261935053723257028e+01 -9.487147471448756164e+01 -2.792935957113333867e+00 1.495105622022212266e+01 1.100511776917521445e+02 -1.299602260390950619e+02 4.239764072102396142e+01 6.447297771333742844e+01 3.491257791588058979e+01 -9.159647482703728372e+01 -1.501050743845004547e+02 1.952227637811777470e+02 -1.799532032469115350e+01 2.544858728104209433e+01 1.581426610754174646e+02 2.693265801146903371e+01 2.801244125160799925e+01 -4.497418298401300518e+01 8.945503819424335745e+01 -1.376383639527202263e+02 -3.109302915919292687e+01 -6.193478630417666331e+00 -5.389775654656401116e+01 6.297914242328968903e+00 2.147421331063014804e+01 -3.610995891807935010e+01 1.378799363148307933e+01 2.156024655723476542e+02 -2.763431881356349962e+01 -2.822808269668773207e+01 -1.025340731377055477e+02 -1.659655497212017883e+00 -8.143399125677399297e+01 6.445519853850929515e+00 1.130173917706136137e+02 -5.245945131884653279e+01 6.096242561388875991e+00 -5.476374235083489594e+01 3.351520936796442918e+00 8.791572233599467268e+01 -1.167952091380036990e+02 -9.760749996120145511e+01 -1.033967292488427319e+02 7.194715893155348851e+01 8.725309223824099547e+01 -9.300633805709297519e+01 6.312146450625267846e+01 2.603002300008402869e+01 3.899443519520091428e+01 -1.789064364121262329e+01 9.206720205875825513e+01 8.034293234095835601e+01 -7.787211339247252795e+01 1.192084776076131725e+01 8.151835137158805367e+01 7.341989809168488534e+01 -2.004828320655054341e+01 2.516861092000391054e+01 -1.336170364218056079e+02 4.889971728887984170e+01 -3.302633921903752423e+01 -3.291575018553304943e+01 1.745157136264044766e+02 4.779442953859022936e+01 1.211306025204924453e+02 1.924208727797945357e+02 -1.387400960392880052e+02 1.502185038667905417e+02 -6.389969527917287451e+01 -1.361693230101301424e+02 8.294650397095692540e+01 -1.350898963176986740e+02 -2.892759701849223219e+01 5.684069624571590396e+01 8.130850189050958576e+00 -1.694175554292515358e+02 8.488520286305289630e+01 2.541704100701585389e+01 6.961878246177467133e+01 3.656421447341558917e+01 9.543586132797850397e+00 -6.762623469868402992e+01 1.166036151538962855e+02 5.490255631543909942e+01 -6.259285160833447037e+01 -1.020085835613660805e+02 3.922831977355908606e+01 2.588798042691692913e+01 8.301637814037984242e+01 1.851502464014793929e+02 -2.481501572637544228e+01 -1.109828260113779805e+02 -8.535370662131660424e+01 -5.170591400548919836e+01 -4.469339628237425899e+01 -1.478314790043339144e+02 -2.267952471570129802e+01 1.304750807165850972e+02 7.509667564522008831e+01 -1.232855573250762120e+02 -1.509931177733045615e+02 -6.860555589292309264e+01 -7.691629397641430899e+01 1.478691877620825608e+02 -1.717285761587696697e+02 8.718977949163371477e+01 -4.641744293895809115e+00 -4.334709692494767097e+01 1.339731935484859271e+01 9.183789789808791681e+01 4.994705243446993137e+01 1.392249434106065848e+02 -1.603061330612887332e+02 -8.156627879330685005e+01 2.553782499061683353e+01 4.224062656958936657e+01 2.076462708266261643e+02 1.465201422415753996e+02 6.601197167069534544e+01 7.263139436798678616e+01 -3.440178238789542320e+01 1.529254054360618227e+02 -1.806489474205619103e+02 -6.386867677922263908e+01 -5.407455900144278615e+01 -5.216950841259495775e+01 -1.040251473495641648e+02 -1.509689795367525988e+01 -6.913539005029606699e+01 7.168981703617146195e+01 -9.221361011528918183e+00 -5.850533336843925269e+01 -6.272420140848904424e+01 1.814859383231191146e+02 5.943356097763986412e+01 -1.381333125558527897e+01 2.103762359436735494e+02 -1.091098113413512323e+02 -3.558520497478861699e+01 6.743617239576829547e+01 -1.332764458033132426e-01 1.505842699345998348e+01 -1.259666309675617271e+02 1.774265590788363625e+02 -4.932077456124594761e+01 -2.711722614277003984e+01 -1.104549010062116565e+02 1.266990415686566536e+02 9.651463872094051055e+01 -7.803078428734426097e+01 -3.783309235871382725e+01 3.920066360300247510e+01 -1.523642693109886466e+02 -1.636208995086951001e-01 -7.517235447881049026e+01 7.745949028893422295e+00 -1.087788670061495964e+02 -1.594996650830469491e+02 -7.110642748614989728e+01 1.490526164840358092e+02 5.690412104968991258e+01 -9.014105224780584535e+01 8.968360772244629686e+01 3.442321539898696869e+01 8.880758738118802853e+01 -4.234620190769911829e+01 -8.453938581371156147e+01 1.719288754121691056e+02 4.186829523197746283e+01 2.909983860762969243e+01 -7.336833221470207889e+01 -4.251988277850127673e+01 9.589651934151111945e+00 -7.198389789622718027e+00 -1.736445770716493371e+02 -3.476943892325412833e+01 6.470726058406300751e+01 1.121016464669527011e+02 1.563947538123681227e+02 -1.333102465782940982e+01 8.999161842546826051e+01 1.583581075526277573e+02 6.366668283796023076e+01 1.483085475300465532e+02 1.612276788978297759e+01 1.317638130323099688e+02 -8.422316916369439355e+01 5.352567432619573395e+01 2.941744746775599850e+01 7.607736272029083580e+01 -1.064867673301161233e+02 1.985158913008254729e+02 -1.290463066720461143e+02 8.848761078717625139e+01 -1.076194507428073450e+02 4.622873186400699552e+01 1.382335858982121835e+01 9.083021706146978147e+01 -7.375683244332668664e+01 -7.559165679744771182e+01 -1.116611752195821516e+01 8.915891402078061390e+01 -2.960521278742287521e+01 -1.631343046376862915e+01 -1.963770490691619841e+01 4.737252940377781663e+00 9.811876591387500923e+01 -6.253205465925933737e+01 -2.709668554446577726e+00 -1.935150620545350932e+02 1.216650752398664963e+02 -1.245019483420915094e+02 -7.365433918152815806e+01 -2.346530029059412570e+01 -1.076046734917792804e+02 -5.299264572577467192e+01 -5.839269820976749514e+01 -1.961557938642767596e+01 1.358225285711411914e+02 5.388782537165175768e+01 1.001046698913231552e+02 -1.356576983143927748e+02 -1.381298581288426703e+02 -2.856615238548827165e+02 1.018318624479745722e+02 1.039207389494865339e+02 4.215682420995674562e+01 -4.230188308510458484e+01 -3.708069282043944526e+01 -1.830616780292286023e+02 1.456521128393851257e+02 -1.070742783861027334e+02 1.066215722197999440e+02 -1.587095809524786318e+02 -1.426760779978651250e+01 -5.520294152523281639e+01 -1.188831652499931835e+02 -4.595700955319075831e+01 -1.247063382179547908e+01 -9.238064926819834000e+01 -1.031731087658928345e+02 -1.231950325559038184e+01 7.098265882122099413e+01 -1.242544194234700399e+02 -1.561554749880086845e+01 -7.353839630579818731e+01 -1.310325681194065908e+02 6.626043086466558485e+00 9.488091477570218046e+01 1.650618516674955742e+02 -1.901535892909707215e+01 -4.593081520904532056e+01 -1.238304580251946874e+02 -1.631819627352069517e+02 1.035247999192983457e+02 -7.256737894841081982e+01 7.882222349145547469e+01 9.380352068027601575e+00 2.917215090137158029e+01 7.368616231024870444e+01 -8.456096267124372901e+01 8.250131100401648609e+01 1.150433829635499166e+02 1.571431870128432990e+02 -1.163378443359484748e+02 1.037509257650337133e+02 -4.768220831577643537e+01 -9.062972714294065213e+01 2.141843820920135784e+02 4.915065217906470707e+01 8.331798658606835772e+01 2.122271999461649727e+01 -6.310449792334260621e+01 -3.487401840458836944e+01 -2.100043387334386864e+02 1.054460355650294474e+02 8.135508200634049558e+01 -7.556551750580665328e+01 -7.301100150286173118e+01 1.449376547298440983e+02 1.008875941075520899e+02 5.102606488808937968e+01 7.594420338828128081e+01 -7.867293903353587581e+00 1.030142567056318796e+02 -1.033713526156837617e+02 1.860626486615401234e+02 -3.941421799269723891e+01 -1.217840427563727417e+02 -3.761504730233185256e+01 7.162007177865262975e+01 1.470849516595213515e+02 1.287607579508858180e+01 1.735244873310071796e+02 5.210980932773582452e+01 3.356481018448389619e+01 -1.111251234593396759e+02 4.472595238019547281e+01 -1.248087301031058871e+02 4.761988938855347442e+01 3.855410820643977132e+01 -1.231449775628902046e+02 -8.489286883360830416e+01 3.977577023731792139e+01 8.711018241826627317e+00 -2.318765924851600957e+01 4.179407841187906314e+01 -2.136403454177714778e+01 -6.298508154872723708e+01 -2.613286897828676203e+01 -2.240637176923727836e+01 -3.975894968281513542e+01 1.874250030484473228e+01 -8.037017836346382182e+01 1.187477525758013712e+02 -7.418517629697943505e+01 -4.251819337178512015e+00 6.544503924196322941e+01 3.884232074995912498e+00 1.592425695017529463e+01 1.593472160866094534e+01 -1.169297187446350108e+02 -4.407352340580739991e+00 6.493888271035227433e+01 -2.310362011198523646e+02 -8.471756156680901029e+01 -1.125185420187011118e+02 4.371657868731593766e+01 9.605105861115910670e+01 -9.159225210735112910e+01 -1.675889940479526956e+02 -1.848265808808325517e+02 1.993081507196378865e+01 -1.446578626996140429e+02 -6.309153389389416056e+00 1.472620024074754497e+02 -7.079741694999322377e+00 3.703630922150441052e+01 -9.858414994025339695e+01 7.954308979138561142e+01 -1.180418329807400966e+02 -1.534573973644338452e+01 -3.015377542740776562e+01 5.728056816534235196e+01 -8.818719625473974588e+00 1.050737770522840293e+02 -1.213311531460834090e+02 -4.976826948940205853e+01 8.602031906286011065e+01 6.569953532518647421e+01 -8.176270801160829649e+01 -5.400813648380516696e+01 -4.899485027740588805e+01 -2.871293825084786135e+02 1.919798378740827047e+02 7.547136350490535506e+01 -2.339168587222023987e+01 -2.941002850719276296e+01 4.116335446411357424e+01 -8.337872762159265960e+01 9.860530718856590227e+01 5.988999954488417643e+01 8.119086735451986669e+01 -8.326593712725612306e+01 -2.627935316229099172e+01 3.299988633220011991e+01 1.720309150044210966e+01 -4.238215419692932073e+01 1.562666537155005244e+02 -1.710605483740004829e+01 3.501578518878159230e+01 -2.273461189806488676e+02 -8.375353606972045384e+01 -7.235100101512874460e+01 2.276589012346085283e+01 1.079669172590551511e+02 -2.291062969611555218e+02 -1.849341168018763710e+02 2.191577135785152279e+02 -1.044859100847503619e+01 9.497550861635610886e+01 6.198252807163343903e+01 -5.473207770063317668e+01 -1.295146362072242425e+02 -9.408077656870612770e+01 -4.968709505058095743e+01 -3.700374357094891309e+01 -3.871246785826736669e+01 1.597535947560620784e+01 3.674377960352217798e+01 1.649340991176458147e+02 1.218144318836345974e+02 6.872696704124289013e+00 -4.343630822725581098e+00 -1.569710948553098433e+02 1.182882605558481117e+02 1.575004884948592974e+02 -1.022536349920714827e+02 7.288870837700294203e+01 1.725364023137852643e+00 5.428303210843346704e+01 1.239896420511637700e+02 7.013550097487309642e+01 -1.325121165757884114e+02 1.595416343698922645e+01 -2.905432337538107035e+01 1.101655253760194419e+01 -2.288516904294747079e+01 4.484294453740362485e+01 -2.576993778807438957e+02 1.792158089810795047e+02 7.217459068902781105e+00 1.577228456352059425e+02 -1.043631868753980996e+01 1.050752921583279402e+02 7.089864919432193346e+01 -4.157119120569468862e+01 2.961738372763136695e+01 -7.209210603492932989e+01 -8.812154740665152985e+01 -7.138141175082679979e+01 -3.175150966902039684e+01 4.475952126624563476e+01 1.091633716735517794e+02 2.823010973034327620e+01 6.157036775613352830e+01 -1.039032139173256866e+02 -1.359490740993279587e+02 -1.336827696008218069e+01 4.600186084780174411e+01 -4.510754027299616808e+01 9.377215061706556298e+01 5.507072450981427636e+01 -2.742180914035585459e+01 2.970607383228822940e+01 6.088485814625910564e+01 -7.153425671065666336e+01 -1.326666462257659020e+02 1.409684171768810188e+02 7.754348668823197066e+00 4.976432519086510098e+01 -1.481994711528907942e+02 -5.302231806637394840e+01 -4.506702362620000346e-01 -6.529663867234351926e+01 4.239274623692717014e+00 5.591432604314691446e+01 1.852302661380042821e+02 3.887906682678508474e+01 -1.089361549761126469e+01 7.177872458188137728e+01 -4.520803708184646297e+01 -1.083435851574229787e+02 -1.374080427980683794e+02 9.318354426248449229e+00 2.497715550191404432e+01 2.368338326896536827e+01 -5.658995955843020909e+01 1.202269485846795902e+02 -8.044615366383912658e+01 1.277282385576868506e+02 8.690167063812045001e+01 -6.475654640176391297e+01 -8.435512743597456620e+01 8.385458850142545373e+01 2.037794084413860318e+01 -5.229776625553721914e+01 -5.364298055336426074e+01 1.362101820217284001e+02 5.711446199428892356e+01 7.962856860812215132e+01 2.606220162493756476e+01 -4.194004278172977251e+01 1.071310516004677851e+02 -5.441226393164982511e+01 5.453936962462426763e-01 7.636293276895727900e+01 9.934449484447274870e+01 2.549000072445989247e+02 -1.747873401606724997e+02 1.606112571717534649e+02 -6.745395199115048968e+01 -1.520091616477048291e+01 -2.503850552720350109e+01 -2.070239441850292295e+01 -5.508501505104842266e+01 9.285695782122847675e+01 1.839095755308729565e+02 -1.187246908915377617e+02 3.092159078269154548e+01 -1.268953309156947427e+02 7.020623819896411533e+01 -4.450918319586556748e+01 -8.106177427016879733e+01 -5.394918919254614309e+01 4.123863966449923169e+01 1.941405029463204102e+01 -8.193680251111860002e+01 -1.413628954235041419e+02 2.082001405997456445e+01 1.580427360228260909e+02 1.432881159405612514e+01 1.830701714861411347e+02 7.488106362163688523e+00 1.351188946107077697e+02 -3.473149777824527717e+01 9.110502638073479886e+01 -7.175701164903288998e+01 -1.134324695789535156e+02 4.967685032730421568e+01 -5.831020265891055487e+01 -7.894590385841003410e+01 7.329853590921931072e+01 6.490091784976685929e+00 -9.486282294564723827e+01 -1.515097618412491158e+02 1.488815390933532967e+02 -8.978421697528420964e+01 -2.367115338519125256e+00 1.209616622253422662e+02 5.846487504847279126e+01 -9.896501001260442365e+01 1.071498462250234951e+01 2.843444850385694167e+02 5.376436758967739848e+01 -1.590932188451803029e+02 -4.813944345321716156e+01 -6.207493043020254930e+01 9.716593061398423714e+00 1.085745040395221821e+02 -1.044715209332947694e+02 2.178201182331860153e+01 1.317854632980104554e+02 1.896555961407253932e+01 -2.134182734442583467e+02 4.882929838895500296e+01 7.626772091610443738e+01 -1.372280923531387842e+01 3.314303878963070105e+01 1.483505427092840223e-01 2.275404949612972771e+01 2.803070665817335083e+01 1.170587194091422418e+02 9.907434163059478749e+01 1.573580951349823742e+01 1.506243369289448708e+02 -6.470966833516429517e+01 2.493098210088915323e+02 6.573463304639976457e+01 1.432441491638340665e+02 -2.221117357513804080e+01 9.105377094956845951e+01 -4.954688829267593775e+01 -1.479918035655343829e+02 2.647366241178533386e+01 9.610916019950039413e+01 -8.857659348707274205e+01 -1.059108616734886539e+02 -6.728394848490404456e+01 3.700965388007428203e+01 -1.155073331698290389e+02 7.556388418985540056e+01 2.838193259942995184e+01 -9.871679202898324945e+01 1.920887375491136595e+02 -1.189632158584158894e+01 -1.029103568212532593e+02 -1.354128293443693032e+01 -2.066788693292234314e+01 -1.418276382112853469e+02 -4.048899262941129251e+01 6.220774294765562473e+01 1.332854128325768386e+02 2.935696642526001199e+01 2.706683945976263317e+01 4.530231449008869049e+01 -3.615630153725813045e+01 -1.472689846976332717e+02 1.604487388571567053e+01 3.134019708293357809e+01 1.346327785787868550e+02 -1.004055529613142461e+01 -7.701608454339414322e+01 7.405188619809361228e+01 1.003319198888842578e+00 3.227083055566465930e+01 1.408799498283652838e+02 -1.795845736954042309e+02 -9.393118241677552760e+01 1.261798752292836667e+02 -2.120700986141173416e+02 -1.807816880732290201e+02 8.945158291752470348e+01 1.513764778900196291e+02 6.231414362134378848e+01 -4.380252467058988408e+00 1.531133382307045849e+02 -2.157651349839899808e+02 1.053338054489458671e+02 4.165922387209558764e+01 1.249156870031275020e+02 -1.853844428077163116e+02 1.047384810913500672e+02 -2.778783683439790764e+01 -1.314234821069838119e+02 -5.234665330050648713e+00 -9.083087467516003244e+01 -1.601144797097774841e+01 -4.227936966759063608e+00 -1.210971932558931314e+02 -1.212209946520479065e+02 -6.150907543093587293e+01 -1.267286408911175215e+02 1.975743519853320720e+02 -1.583106182004004552e+02 -4.931796568606630871e+01 1.696035515543098029e+02 3.334995961972732204e+01 -2.909522214254427013e+02 -1.249337223963551224e+02 3.491356301787095617e+01 5.372081844148709706e+01 8.440192365226561577e+00 -1.519899587172859299e+02 3.507991244048231039e+01 7.350307032210721125e+00 -7.306361485743899209e+01 1.992676148724289646e+02 1.991435775340100633e+02 4.261661150449154611e+00 -2.049853175664813705e+02 1.238437025185880458e+02 3.024233072693914082e+01 3.705017542160992772e+00 7.531361680254106261e+01 -2.039408936268189336e+02 -1.356826487833712349e+02 1.386356087097419731e+02 1.077781897196282870e+02 5.202351253818996213e+01 1.407764635328664440e+02 -1.752269034997742665e+02 -2.009383776613652728e+01 -1.282028842746771033e+02 4.286566670525567702e+01 -1.020971404509882490e+02 8.556943683627746111e+01 -3.331125024628020270e+01 1.217205776970001097e+01 1.744072447514493547e+02 2.802280155377793136e+01 -2.590763126485371117e+02 -1.242120686494988746e+02 -8.192991423658882866e+01 1.554100835590099905e+02 1.232241180486550292e+01 -5.291668436762182637e+01 2.984875036614204546e+01 6.144373181268215234e+01 -3.889814562775671902e+01 1.056794691925369278e+02 -9.902030645742537729e+01 4.837345771914021242e+01 1.100191711600750750e+02 -3.486026023527632844e+01 -9.644999254540715583e+01 -1.114921841994583929e+02 1.177160516199901963e+02 -4.881834630784565832e+01 1.931971779262381119e+02 5.622862531870357117e+01 1.090595735199229779e+02 1.812902907706871076e+02 8.413864134964716968e+00 -1.221649209791790582e+02 -1.629263773815263221e+02 -1.122350037107996883e+02 4.175775796404276718e+01
-1.307009999644161979e+01 -4.630863473469924330e+00 9.942728241122672728e+01 -2.198892920189529434e+02 1.492172101223177094e+02 6.097880988319442963e+01 1.460685971649356816e+02 -1.240042960448410128e+02 -2.667415610472097853e+00 -2.311027557399187771e+01 -2.107222952923069954e+02 3.142164800413793913e+01 -1.759154510155766715e+01 1.174166392732165320e+02 -1.200791576730980097e+02 5.924584510044905983e+01 1.202900878961161624e+02 -4.411151207197063684e+01 -4.765415888262710808e+01 -2.594799080147669557e+01 5.924543260165159353e+01 6.057679180427956567e+01 3.112628438654705576e+01 -2.232238068155632789e+02 -4.953964705151174996e+01 8.785452393471463495e+01 9.510525384978887331e+00 -9.946639644990339590e+00 -6.386832581304977197e+01 -1.485315051720307089e+01 7.040288578985035883e+01 -1.395841944695367829e+02 -5.944377750970727448e+01 8.626090144671469062e+00 1.992235815779600614e+02 2.035539070205849725e+02 -3.081060045162802652e+01 5.364680685152840312e+01 -2.594164359712381462e-01 -1.340595951879575125e+02 9.213169238853114962e+01 1.029353468654013710e+02 1.041662560449870369e+02 1.121820998104746891e+01 5.940964172692071799e+01 4.619280845726738249e+01 3.732342760236983992e+01 2.816226196540782212e+01 1.058613255410904941e+02 8.611716742344823672e+01 6.296271689800416738e+01 1.564457678996649292e+02 2.377857262112337082e+02 1.877307656776285398e+02 -5.676027837717282409e+01 4.728982401859382634e+01 -6.170304312988263007e+01 5.414347149623296929e+01 -1.844566953456358647e+02 5.423315297325728324e+01 -1.965483475568726419e+02 -1.619446389440557255e+02 1.242704686731184438e+01 -8.877246641444671127e+00 1.627311741513292986e+02 -1.996100087050795082e+02 7.226138368427176317e+01 2.206116954153450820e+02 -7.058351730209452057e+00 -1.869445531976288351e+02 3.414100424098872111e+01 1.893090806652352285e+02 -5.865932108091548969e+01 -2.558537438982517642e+02 -9.846448173983372953e+01 8.509882558030376742e+00 -2.209047902591496495e+02 3.077000752212401480e+01 -1.723130712955215529e+02 -1.782038778145950744e+02 -5.486775754147022610e+01 1.464273698462030495e+02 6.674082552551818992e+01 1.019138257988073093e+01 -8.515527962479282564e+01 -4.093016737364889934e+01 6.124689384114512336e+01 -2.230321573717409933e+02 5.199179961286203167e+01 -7.206237455637403855e+01 -7.507980035680127173e+01 -1.699301375774575718e+02 6.254142048539871013e+01 8.914152913714778492e+01 -1.560427803029363645e+02 1.661011592185307677e+02 -3.835261334917814224e+01 -1.626619320559840887e+01 8.422549294371812323e+01 1.503138421376851568e+02 2.087590008195473601e+01 1.456416621506809008e+02 -1.777449070374171924e+01 -8.723469259469690940e+01 -1.886391651662621882e+01 9.721509631057114120e+01 4.447260715607249182e+01 9.674224741492601254e+01 9.334792179549475577e+01 -8.214906377435804075e+01 -1.680370259979594039e+02 1.216974825882271176e+02 5.365345163545147500e+01 1.601375750221750494e+01 3.024179597457084157e+01 -6.718396500030078755e+01 9.498993677687252557e+01 8.887423974039135999e+01 -1.354646317990382798e+01 -7.048157784823779082e+01 3.041315471902717960e+01 6.211424011177316906e+00 -6.086255614004145542e+01 1.677694994128799806e+02 -3.256493203892527788e+01 1.203378798142270654e+02 -6.938035751473395862e+01 3.799228982834594603e+01 -3.572846257301077344e+01 8.856317609477395081e+01 2.324383658432875777e+01 1.144217002282571656e+02 -1.148554165446847577e+02 7.361206943389298374e+01 1.222719195626614663e+02 -4.427261621778887957e+01 7.537135890858330356e+00 -1.258841975001138458e+01 1.156799075114985556e+02 3.552211537278124442e+00 1.670768057910684092e+02 -1.401039227658920368e+02 1.155989468437325769e+02 -9.048823395876712539e+01 9.491484182459427643e+01 -1.358374608569414477e+02 2.925696400440886435e+01 2.453084099710130772e+01 1.787718172390096560e+00 3.600257272729889735e+01 4.555261464181948838e+01 -1.230698959706064244e+01 1.074760981694895356e+01 1.071959853102409710e+02 1.262112325920456186e+02 -8.598314565468510295e+01 -5.376608314471148731e+01 4.697373143821496200e+01 1.519770673412835782e+00 -1.358927281528891342e+02 -5.468103847596826483e+01 -3.517000542303538424e+01 4.853910442598287744e+01 -6.505564967414309763e+01 2.275449332628455323e+01 1.592107455756510035e+02 -7.889874933811778135e+01 8.024458866411295332e+01 8.350625472047381948e+01 1.117075875065348711e+01 1.226301023213687529e+02 6.248266518623921684e+01 1.669982413828599306e+02 -3.436436918196979917e+01 1.117924151814762439e+02 5.523119788404552821e+01 -1.598196535967687382e+01 2.030253838300307621e+02 -1.380737823588118829e+02 4.863904699084533689e+01 -1.866660746903204711e+02 -8.378505403132811580e+01 4.084706210782434255e+01 -7.189682976487181065e+01 -1.551781550308837154e+02 1.985248004830845048e+02 -8.544684237274992711e+01 -4.731304611588483766e+01 -4.610894909072752057e+01 1.213094558009858162e+02 1.940910226433467187e+02 6.452883297623030501e+01 1.457526784762390832e+02 2.187286499643241768e+02 -1.610528390438867419e+00 1.623677397945682515e+02 7.065931939921978255e+01 1.897856174884499580e+02 -1.253871067651519127e+02 -1.182021059199374413e+01 6.324161781343182298e+00 1.893478363784595047e+02 -9.059675266929531290e+01 -6.029740787716567496e+01 -5.277846257725526868e+01 -1.335608547479669141e+02 4.651925747795406352e+00 -1.006179555184151297e+02 1.536469133404607987e+02 2.348778751316337932e+01 1.196565568160015047e+01 7.208173744505985781e+01 -4.912996933708544844e+00 1.166042166681481973e+02 -1.583630745424724751e+02 4.527114530563434158e+01 -1.702991940621439824e+02 1.170596542019981285e+02 9.575244615865767628e+01 -6.709561083718161001e+01 4.663190615595289046e+01 2.374001406327174948e+02 -3.036734346956757236e+01 4.152732619576913464e+01 -3.257382553610319320e+01 5.775947714767544028e+01 6.407850770021993014e+01 -6.256876614035178363e+00 1.015939713363204930e+02 1.011710669265454214e+02 -1.932531194080393675e+02 -1.527477709523065244e+02 -1.194365907610931146e+02 -9.413678086395973921e+00 -1.492942618253441367e+02 1.151689669703344521e+02 1.099814460535145599e+02 5.878802662994586115e+01 1.112507223966177072e+01 1.571533060590908804e+02 8.367733938146274397e+01 6.727120034430038231e+01 -1.012764396275212562e+02 1.518466693650093475e+02 -3.573770532184719961e+00 1.089555120317451156e+02 8.786861098326919972e+00 3.661349127851083551e+01 -7.542546637127291831e+01 -9.041506652074956207e+01 7.131778177723219869e+01 -3.830136654297630283e+00 1.456715070826626572e+02 -1.251947573067834973e+01 -2.841148784348889400e+00 4.567008807391779612e+01 2.254396916139822693e+01 1.408243411169891885e+02 1.459207982198625686e+01 3.568995816465761095e+01 -1.540119200481902055e+02 6.553925388414499764e+01 1.330315683024024338e+02 -1.755927564953328357e+01 -2.268703380471690423e+02 8.396494422136679248e+01 1.353388282690014535e+02 2.020514648022427195e+01 1.876878132474273286e+02 -4.164244424996520699e+00 4.255998082452793341e+01 -4.324848288602296975e+01 -1.374708219391307011e+02 5.551054737282004226e+01 -4.704202850636610123e+01 -8.027851013232555033e+01 4.082282710391319824e+01 -1.829720777871708037e+02 7.097879776285604692e+01 1.627226238043653552e+02 -1.001709279029195443e+02 1.711452978283454911e+02 -9.658877234740663198e+01 -5.911851782352638196e+00 -1.041147349741402905e+01 7.575742603273157272e+01 -4.605964405572610332e+01 -1.065436891800911781e+02 -8.751037086122325093e+01 1.440222866300242970e+02 5.838274780035095546e+01 -1.301290439300903472e+02 4.377196064463526604e+00 4.287385785062715371e+01 8.149595325304083815e+01 -3.980551712419459420e+01 5.918379275974378118e+01 -6.805496545527532248e+01 -1.601727554897655637e+02 -3.416448222504298116e+01 1.390563952058876680e+02 -1.118301710733805407e+02 -6.319616180028263308e+00 -1.606389932205279365e+02 -4.734395337425744366e+00 -1.438317135088417444e+02 3.244893206277452435e+01 5.932120062238718816e+01 -4.960780379722190503e+01 -8.119637717972568680e+01 5.553085587984461391e+00 7.330721329630888761e+01 -6.677106267636607129e+01 1.326921061798055064e+02 1.039469360510376106e+02 -1.257136027920481922e+02 -1.038485772469366850e+02 1.330028152219881008e+02 7.022178817968789133e+01 1.478458225686243850e+02 9.855339643860939702e+01 7.986285882449166706e+01 -5.929683641479640954e+01 -8.043279948267255008e+01 -7.579696004495882278e+01 2.011003925801885259e+02 3.004688920518019657e+01 -2.448405544699561887e+01 -6.734725635026286739e+01 -4.911987024761439358e+01 -1.289252027813962798e+02 -1.619603952027192051e+01 -1.717690977451869401e+02 1.224051326773636390e+02 4.503515778532214853e+01 -1.128032405040608666e+02 -4.737216530263091130e+01 1.172153619609986634e+02 -9.490534461689908596e+01 1.006531266721330553e+02 -1.159525131993200375e+02 -1.152097449514970684e+01 -9.347486268384619734e+01 8.781490313645882395e+01 -4.157309079949988018e+01 1.008385291245982884e+01 2.871019344949636931e+01 -1.239357216660971517e+02 1.223227865094800393e+01 4.730856840851370038e+01 -2.190112959063663212e+01 -6.726080436088599868e+01 1.981606379216805180e+02 8.457901302306873959e+01 4.609784387174322973e+01 -3.073298518845252758e+01 7.847885086146020228e+01 1.639493302879632211e+02 -9.025061703516307432e+01 2.048888730713466657e+02 -1.301930633129058208e+02 -1.798963996351983781e+02 1.485007452403704633e+02 -2.288336047912883942e+02 -9.538526292902782533e-01 -2.395535822020475791e+02 -1.495507919245987978e+02 7.018767554576248813e+01 -1.424249819210444343e+02 5.709475928166768455e+01 1.075041434074136788e+02 -1.568343619948816752e+02 -2.945695347833513367e+01 7.375098715577034625e+01 1.309773345264305817e+02 -1.820094884109614668e+02 8.555253273418173876e+01 -9.580530580281204323e+01 -9.647815384186417376e+00 -1.356801462962142324e+01 -7.782416036265884429e+01 -8.831615872068736905e+01 1.773781958572023996e+02 -2.121380838117940826e+01 1.310581900784133724e+00 1.273836703022754335e+02 -8.481682359777404656e+01 -3.368099070496564451e+01 -1.053521790858437726e+02 -4.779009980365125898e+01 5.057711015722228254e+00 5.812361742675777521e+01 -1.323107456607511665e+02 2.324353770271149529e+02 -5.284080780495465746e+01 1.202935137749955743e+02 -4.790030045945633930e+01 1.175425552298287215e+02 1.365431808684606381e+02 4.709896812983372172e+01 1.198696027112964373e+02 -4.244502273269091575e+01 1.374554705235665892e+02 -1.536760477703320191e+02 -6.423566686014355298e+01 -6.186105933299688786e+01 2.510093855908662874e+01 -1.594576575772254046e+02 7.128054212051613092e+01 -3.030214353843946284e+01 -8.120457530978748650e+01 8.804153595440781999e+01 -1.484847183058322173e+02 -8.964113778769564078e+01 -5.171363730698747219e+01 3.250683516224417247e+01 1.275731537924861527e+02 1.148361670818757290e+02 6.792130869714772246e+01 -1.560507657505403767e+00 1.718599159186687757e+02 1.204093801376228043e+02 -9.282337565671851110e+01 -7.678677884438650381e+01 5.434480315075401791e+01 9.796395393936982998e+00 9.628060146794508967e+01 1.638101925868531339e+02 6.936403296890499348e+01 2.398821133716363718e+01 -1.004245018264324187e+02 1.687945595548931692e+02 -1.116840563471720316e+02 -1.623711960886894587e+02 6.456366826084955335e+01 1.095161729992651374e+02 1.928976869411185291e+01 -1.363676644736013088e+02 2.919235855925890277e+01 4.165566484949791004e+01 -3.301736252990111198e-01 1.285499430402669248e+02 9.588627661452323991e+01 1.679565992195604451e+01 7.690398089604759946e+01 -1.050151076446981051e+02 -6.216158206724745838e+00 9.650927185041987855e+01 2.913491911997988382e+01 -6.381598006902549969e+01 1.943257333959015511e+02 2.267531271828156889e+02 -1.231252127277631558e+02 -2.709253092527712425e+01 -2.061833040255794742e+02 -7.079948889235431864e+01 1.535847440663947054e+02 3.324006600659123123e+00 -6.961529643497109987e+01 1.606085748728276599e+02 -6.128719946041792355e+01 -1.574726049541302757e+02 1.338833731901120814e+02 -6.588620998973938470e+01 3.380403870028263213e+01 8.464147493046307602e+01 1.351188337489431390e+01 -2.335045330635920493e+02 4.146162857566771009e+01 -6.027165944899443240e+00 8.829784190401495891e+01 -2.309255153846187625e+01 9.911004076401231089e+01 1.663980190350948618e+01 -8.302787944390183839e+01 -2.006879592580810012e+01 -1.717076649189558566e+02 1.126724655133202617e+02 2.476682652933238415e+01 -4.078444383161478015e+01 -5.076246877738814334e+01 -6.162395009962219916e+01 4.028382752027509639e+01 1.574489247865223263e+02 1.300193423589886947e+02 4.218874228409178784e+01 -1.938653913897216228e+02 -3.801005009680525148e+01 4.293107487083680240e+01 1.149621532066533689e+02 8.544766339990444237e+01 1.513474457593771838e+01 -1.822685681416511443e+02 1.290338163331402086e+02 -2.192274927674445451e+02 -2.016485719520852058e+02 -1.802053017718890260e+00 -7.228082979755356519e+01 -2.361193573037983384e+01 8.536337328709107908e+01 5.478967644525417313e+01 -1.089518673006083418e+02 -1.483939491186283419e+02 1.429380013066872124e+01 1.211887915529087962e+02 2.027135358074102101e+01 -5.556282516083931711e+01 -5.058824850247888349e+01 -1.150962576093277434e+01 1.581115379721948671e+02 2.191836662371126110e+01 -1.732367563779965280e+02 1.279794931622009244e+02 -6.664213181601817837e+01 -4.164409915756876579e+00 1.536018417604063018e+02 -5.216296477901434514e+01 -1.953708888901337559e+01 -1.095720517489330916e+02 -5.990239954960049573e+00 -2.379336726739792951e+01 1.313637839917489032e+02 1.197783622645412720e+02 6.741037111527232639e+01 6.526325745511921639e+01 -1.866310532747079876e+01 1.348568106311297470e+02 -1.124721552644659823e+02 -4.248858435762000063e+00 -9.082196840133212845e+01 1.567210783867717794e+02 7.275427238313950795e+01 5.155339933157115695e+01 8.246704618296256228e+00 -5.315304694008241171e+01 3.429433526267875720e+01 6.723645747368776071e+00 3.613076889371356959e+00 2.404795517902864077e+01 5.961955360389962522e+01 1.698083773472224891e+02 -3.873858628785643532e+01 -5.184545184022202591e+01 6.660999805101262439e+01 1.153607509125882871e+02 -1.277714489140643650e+01 9.168817051200849733e+01 1.037748461032108338e+02 2.101936300431790414e+02 -8.630693980153588996e+01 -1.223455904259133007e+02 -2.856058959635811689e+01 6.197561637968518511e+01 -1.011866409094235664e+01 1.071063287769514716e+02 3.713144122014382020e+01 -1.621463888084747680e+02 4.492308514908382477e+01 -8.918647086676675428e+01 -1.348766479985134197e+02 1.340761021778505153e+02 -7.578726195432884083e+01 5.896242671839980432e+01 1.108135662050905381e+02 -9.867508020988366013e+01 2.340182109770974250e+01 -7.188435998329366328e+01 4.012182930699910344e+01 -1.141745867403660526e+02 6.134331919035351888e+01 5.445728292276633198e+01 3.887837177736615857e+00 8.370947347944920125e+01 -1.522746496820319919e+02 7.604978994790091917e+01 -2.914780144823938457e+01 -1.670119200372664636e+02 9.340959395021411638e+01 2.425129878945664785e+01 -1.939049517450902158e+02 2.325710977929249168e+02 -5.276518350569884275e-01 1.039655593568759286e+02 -1.192190790609237041e+02 -1.919787846014170611e+02 -9.224962944056933623e+01 2.456484127868694411e+00 1.412567985789412148e+02 3.947403752555032064e+00 -9.447800253210142785e+01 4.981217046084401545e+01 1.354765611772816669e+02 6.423563659317174768e+01 -5.114569819431321207e+01 -5.846576841437141780e+01 8.353953892001052850e+01 3.038869383754939690e+01 -1.933230602328102066e+02 -2.049528938886012952e+01 1.670983128820269599e+02 9.768929303006348164e+01 -5.667126414228594911e+01 -1.105246473049129179e+02 -4.218924793984628252e+01 -4.753071840052227515e+01 -1.131408130826344518e+02 -1.825730721095935394e+01 -4.513906548867418422e+01 -1.123165196631449732e+02 -1.303874947687682209e+02 -2.662955569297834302e+01 -1.242291144659265285e+02 -1.322699901307019559e+02 -3.789293884930945211e+01 -5.471085754591209138e+01 -1.097389117138353924e+02 1.906622060048574667e+02 1.078289142045891325e+01 -2.881418033706635740e+01 -1.741810338954434201e+01 8.057434903787972758e+01 1.602013055797979035e+01 2.565473933595359313e+01 -2.178939678854709783e+01 -4.736955040584474119e+01 2.142390607054043627e+01 -1.488923109782433585e+02 -1.630516227487237018e+02 -9.260859881505778901e+01 -1.954699939789846894e+02 -9.179122811929477166e+01 8.787248166111140790e+01 6.287205740990813752e+01 -2.669029700193289045e+01 6.224153903397039045e+01 -1.603572077917992544e+02 -4.182808151609821579e+01 -1.189472667640205827e+02 -6.836908770704849303e+01 2.160665653980972536e+02 -2.102616916287479398e+02 2.102407082165042027e+02 2.559303531549528188e+01 -5.783565778798752177e+01 9.447293825843972570e+01 1.270903817789708796e+02 -5.314727009432678528e+01 -2.086774916160444775e+02 -1.527121899726621734e+02 1.047512638463762187e+02 8.579140334643398091e+01 -1.388672593016293604e+02 3.272667856803572306e+01 -4.063289752922360520e+01 -7.927740663487621475e+01 -2.911428443518982689e+01 -5.615446805680171138e+01 -8.853199854461378493e+01 -3.486872278951049253e+01 4.598377521676934698e+00 -3.348872605759513732e+01 -3.986597481458662440e-01 -1.469688568817291774e+01 9.419971925609161190e+01 1.301736352271976216e+02 1.348581496493428133e+01 1.719994388990689060e+01 -6.464817624968345910e+01 -2.007891426055866191e+02 3.467358142402372323e+01 -9.395578291516677893e+01 2.645866733930470716e+01 -8.365596987343231206e+00 1.053178269409704271e+00 7.405071481190957172e+01 1.248396576381216363e+02 -7.217809789518429398e+01 3.892082724462388654e+01 -1.975354620999406734e+02 9.908196382323954055e+00 7.153059856978260633e+00 -1.255256581258171877e+02 -3.454138203723783107e+01 -4.540304719517183685e+01 4.885819537294636028e+00 -1.047310073851150776e+02 2.771115335228469689e+01 -1.000182978886135317e+02 5.746352126275971983e+01 6.949865167565897650e+01 3.777903848917880936e+01 -2.972101759157981249e+01 1.100586368012005209e+02 6.255272292152229596e+01 8.192849882814209650e+01 -6.861009459742211902e+01 2.077555659867780236e+01 1.309576699999794585e+02 -5.987727358990619564e+01 -7.079534531146698839e+00 3.275357802586170664e+01 -1.314638034472824870e+02 1.001402751783309384e+02 9.169530522524844685e+01 -1.035323907891852429e+02 -8.429156681199449963e+01 -5.682860393704295632e+01 -4.664347314471072536e+01 -1.640043975849286539e+02 -1.390851758695933711e+02 -1.355514247982808911e+02 1.081066343113970021e+02 6.115795670099947046e+01 1.631848783661640425e+02 7.363288569261923655e+00 -8.768676419936377897e+01 1.916264749092266939e+01 1.414466316531600754e+01 -6.495458925423830010e+01 7.571303461708754412e+01 1.207020185200180009e+02 1.020809697231702629e+01 1.465846858602229474e+02 2.300524558854974089e+01 1.134056746113498235e+02 1.542287980183990470e+01 -2.123350134454948943e+02 2.231464605127229959e+02 -5.000224560390785200e+01 -1.523460088774366170e+02 -6.864230969591332610e+01 -4.383232841881453368e+01 4.206577712272712688e+01 2.601589499734685873e+01 4.649084655002734223e+01 -7.529569208982908890e+01 1.243058434388295552e+02 -8.759993101398224269e+01 -7.118331953250074839e+00 1.445920261472407162e+02 1.112349006898766106e+02 5.884411700863706329e+01 -1.795293387057355687e+02 2.578539704712381209e+01 1.423143264188933017e+02 2.374502222104834814e+01 9.884171993582411631e+01 1.077551061060071760e+02 -2.139708571799901620e+02 7.782580016655181510e+01 -5.841464380448768878e+01 -2.274070713297272164e+02 8.942710075261598490e+01 2.481370208124640797e+01 -1.226747726657138884e+02 -5.879180645357556756e+01 1.391617189087869235e+02 1.477152348003592692e+02 -7.582423121470353067e+01 -1.276499948636322301e+02 -8.325202694017882266e+01 -1.653239337689717274e+02 1.948327253898129641e+01 3.773851015047628010e+01 -1.685713618177264905e+01 -1.229338418059136906e+01 -8.880825892652212872e+01 -8.758999123465619618e+01 -2.441481747492161958e+01 1.322473091624363235e+02 1.344022198290226697e+02 7.996844477518658323e+01 9.562601917363308246e+01 -7.732102193175201421e+01 -1.775145115395314406e+02 -1.299090733078484483e+01 -2.273031247771697494e+01 -6.967130401801934170e+01 1.466789542354603793e+00 7.167278267038655315e+01 -5.191158085759293073e+01 2.418470360678553277e+01 7.766730771835123903e+01 6.875776668108670719e+01 1.084140889201568996e+02 -1.463212887075800950e+02 3.888082912503835331e+01 8.171613419484863527e+01 9.294294836257752479e+01 5.793402190304303190e+01 -1.012596867762416508e+02 1.343093443177351958e+02 1.250222702281848939e+02 9.400246203903903108e+01 9.958609092035462140e+01 -8.260772763544683528e+01 -1.458472485001797558e+01 -1.268403649053695048e+01 7.557849915872753854e+01 6.372394196784376419e+01 5.490619378813729412e+01 9.570933078333015942e+01 1.142508244105248281e+02 1.215207091474909902e+02 -6.364683093874862152e+01 7.905470039801906523e+01 6.399317898498225787e+01 -1.154053594439917845e+02 1.290848261348403128e+02 -9.843986753428215053e+00 -2.739018728093467203e+01 1.955230061867119105e+02 8.682080783862386397e+01 1.217965116926188358e+02 -1.416768178405362448e+02 -1.549023024328233191e+02 -1.509453295867745055e+02 -1.199726030354771495e+02 -4.349592553790013483e+01 1.078699677948812763e+02 -1.657244633515236387e+02 3.196453791044953974e+01 1.418958069865015545e+02 -5.834792467443153186e+01 -8.983047446204261632e+01 -3.454121026521284676e+01 1.336689406851640172e+02 2.236488575253865179e+02 -6.559921699216447166e+01 1.950509438942794560e+01 -2.726171574860467928e+01 6.743402463432327920e+01 5.933330225243133782e+01 -2.100012624164678243e+02 -8.733425586877329749e+01 1.355339551754570095e+02 1.377371036960301751e+02 9.315317835738061092e+01 -4.909178201182204759e+01 -7.471220480517975204e+01 -4.475342384466237888e+01 -1.740364424487039514e+02 7.015078027117039028e+01 -2.530622015033326733e+01 1.640681583409522375e+02 -2.754476260688940670e+01 -3.102600351229836519e+02 1.429024887124771794e+02 4.959957073019916152e+01 -1.163738654103156449e+02 -2.185631037642131247e+01 3.483885962350198895e+01 -2.049210907894017453e+02 -1.127706683578297060e+02 -1.081691158120860905e+02 -5.568785568456794977e+01 6.198437010687671034e+01 -1.626932558377801286e+02 1.065303058363416540e+02 -5.361953686792647034e+01 2.876902387390890325e+00 -1.317169025846800992e+02 -1.023013679659006243e+02 1.736340984314729212e+02 8.557437204553571064e+01 -4.170694671607137138e+01 3.670634483489156707e+01 -2.770870337673505190e+01 4.271867166542297412e+01 -1.033390778510137267e+02 9.766049177189850639e+01 4.989450690882974726e+01 -1.174717039374706786e+02 1.153550733191364372e+02 -4.854562129750229360e+01 9.872260488087212593e+01 -4.882157850833617374e+01 8.734220804838707863e+01 -1.516096672074412481e+02 1.410443534441596398e+02 2.448190804054125636e+01 9.948902337874939406e+01 1.289231022964610816e+02 -1.449812141102837586e+02 -8.492668902685181820e+01 -1.044422433553729235e+02 6.612647861544937200e+01 -1.694396694834745460e+02 1.498228484314509217e+02 1.408155418664685214e+02 5.240048316651532190e+01 -8.397027673976319306e+01 5.643818406431469725e+01 -1.061495105556084155e+02 -1.082869635045016921e+01 3.460672918551340160e+01 -1.817807157555132562e+02 -8.071909099549623079e+01 -1.339187097126675496e+01 1.011313919049233050e+02 -4.968665849798805567e+01 1.075905915591975912e+02 -6.367302847312524960e+01 -2.086566751399515454e+02 -1.060114094467954544e+02 -3.372116529219096748e+01 -5.958628589878426141e+01 2.979703538559845555e+01 5.088588609646367900e+01 6.284026300319734304e+00 2.508564276978340857e+01 -1.161938228321334918e+02 5.333728111346803757e+01 3.232419818286147972e+01 -7.150424014237221115e+01 9.181092449704802760e+00 5.582167050339245407e+01 -9.454483898965297328e+01 -5.458668240983314490e+01 -2.393555198807417383e+01 9.672881000198290735e+01 -1.697966556149075856e+01 4.157512280490924361e+00 -2.261107440748351962e+02 -9.422212104175886793e+01 9.809296160818057331e+01 -8.846169038353967551e+01 3.107605923531988168e+01 3.080398221824260219e+01 3.761382620488280537e+01 6.553711841323058707e+01 -1.759977916959464608e+02 1.427956435988370743e+02 8.083283090208571764e+01 -7.460984567823594205e+00 -8.015367189893935063e+01 1.110050432715492406e+02 6.159880705660934552e+01 -1.994962098842208036e+02 -4.998234101133579799e+01 -8.104752912061934467e+01 -5.142273926564244135e+01 -6.144341929320651730e+01 -9.826507027804750294e+01 -5.989503173870961206e+01 1.900053787433193122e+02 -1.694445300120246145e+02 6.497081260737887476e+01 2.752821355778581491e+01 -7.459976650406704834e+01 1.030652571259627592e+01 -3.911844266163976869e+01 3.404199273474200371e+00 -9.540009564450997459e+01 -1.960510834492658603e+02 1.825390670371338331e+01 4.159014662610665880e+01 -1.270104880898746735e+01 -8.937613290927927778e+00 -3.948020238955958661e+01 -1.884953782345944262e+02 -3.041585411138645867e+01 -6.487519796542160577e+01 1.385586106087868430e+01 -1.549583047792358848e+01 8.988970420021283303e+01 -6.256912724329055919e+01 -1.029318110514597748e+02 -3.546877569456577817e+01 -8.938619781612381132e+00 4.515596803065381692e+01 -2.197425055774935387e+01 -7.322375268765684098e+01 -1.576056198150596543e+01 1.991522489290219156e+01 4.716040707398408927e+01 -1.131886182429151972e+02 -1.380382659341605631e+02 2.287098658386481134e+02 -2.167380042556960120e+02 -7.541161489850975386e+01 -4.601284978840063644e+01 1.388815707220462059e+02 6.283985153497316389e+01 2.272970742525444621e+02 2.430610322769975937e+02 -6.191257217334004537e+01 1.285744557124313303e+02 -5.559160516155671417e+01 -4.053401628316736804e+01 -9.995177010447511634e+01 -7.929670940190609940e+01 -6.908932255265517597e+01 -8.839654413053575865e+01 -2.421189076154715849e+02 -2.690242866713232388e+02 1.337784647815286121e+02 -2.635270960115974503e+01 5.290597740870415322e+01 1.299952069309799754e+02
