# 
#                 ----------------------------------------------------
#                 Data from a 3D direct N-body simulation. 
# 
#                 rows are i-particle; 
#                 coumns are :mass, tag, x ,y, z, vx, vy, vz, ax, ay, az
# 
#                 NTHU, Computational Physics Lab
# 
#                 ----------------------------------------------------
#                 Time = 2.5999999999999885
1.000000000000000000e+00 2.000000000000000000e+00 3.000000000000000000e+00 4.000000000000000000e+00 5.000000000000000000e+00 6.000000000000000000e+00 7.000000000000000000e+00 8.000000000000000000e+00 9.000000000000000000e+00 1.000000000000000000e+01 1.100000000000000000e+01 1.200000000000000000e+01 1.300000000000000000e+01 1.400000000000000000e+01 1.500000000000000000e+01 1.600000000000000000e+01 1.700000000000000000e+01 1.800000000000000000e+01 1.900000000000000000e+01 2.000000000000000000e+01 2.100000000000000000e+01 2.200000000000000000e+01 2.300000000000000000e+01 2.400000000000000000e+01 2.500000000000000000e+01 2.600000000000000000e+01 2.700000000000000000e+01 2.800000000000000000e+01 2.900000000000000000e+01 3.000000000000000000e+01 3.100000000000000000e+01 3.200000000000000000e+01 3.300000000000000000e+01 3.400000000000000000e+01 3.500000000000000000e+01 3.600000000000000000e+01 3.700000000000000000e+01 3.800000000000000000e+01 3.900000000000000000e+01 4.000000000000000000e+01 4.100000000000000000e+01 4.200000000000000000e+01 4.300000000000000000e+01 4.400000000000000000e+01 4.500000000000000000e+01 4.600000000000000000e+01 4.700000000000000000e+01 4.800000000000000000e+01 4.900000000000000000e+01 5.000000000000000000e+01 5.100000000000000000e+01 5.200000000000000000e+01 5.300000000000000000e+01 5.400000000000000000e+01 5.500000000000000000e+01 5.600000000000000000e+01 5.700000000000000000e+01 5.800000000000000000e+01 5.900000000000000000e+01 6.000000000000000000e+01 6.100000000000000000e+01 6.200000000000000000e+01 6.300000000000000000e+01 6.400000000000000000e+01 6.500000000000000000e+01 6.600000000000000000e+01 6.700000000000000000e+01 6.800000000000000000e+01 6.900000000000000000e+01 7.000000000000000000e+01 7.100000000000000000e+01 7.200000000000000000e+01 7.300000000000000000e+01 7.400000000000000000e+01 7.500000000000000000e+01 7.600000000000000000e+01 7.700000000000000000e+01 7.800000000000000000e+01 7.900000000000000000e+01 8.000000000000000000e+01 8.100000000000000000e+01 8.200000000000000000e+01 8.300000000000000000e+01 8.400000000000000000e+01 8.500000000000000000e+01 8.600000000000000000e+01 8.700000000000000000e+01 8.800000000000000000e+01 8.900000000000000000e+01 9.000000000000000000e+01 9.100000000000000000e+01 9.200000000000000000e+01 9.300000000000000000e+01 9.400000000000000000e+01 9.500000000000000000e+01 9.600000000000000000e+01 9.700000000000000000e+01 9.800000000000000000e+01 9.900000000000000000e+01 1.000000000000000000e+02 1.010000000000000000e+02 1.020000000000000000e+02 1.030000000000000000e+02 1.040000000000000000e+02 1.050000000000000000e+02 1.060000000000000000e+02 1.070000000000000000e+02 1.080000000000000000e+02 1.090000000000000000e+02 1.100000000000000000e+02 1.110000000000000000e+02 1.120000000000000000e+02 1.130000000000000000e+02 1.140000000000000000e+02 1.150000000000000000e+02 1.160000000000000000e+02 1.170000000000000000e+02 1.180000000000000000e+02 1.190000000000000000e+02 1.200000000000000000e+02 1.210000000000000000e+02 1.220000000000000000e+02 1.230000000000000000e+02 1.240000000000000000e+02 1.250000000000000000e+02 1.260000000000000000e+02 1.270000000000000000e+02 1.280000000000000000e+02 1.290000000000000000e+02 1.300000000000000000e+02 1.310000000000000000e+02 1.320000000000000000e+02 1.330000000000000000e+02 1.340000000000000000e+02 1.350000000000000000e+02 1.360000000000000000e+02 1.370000000000000000e+02 1.380000000000000000e+02 1.390000000000000000e+02 1.400000000000000000e+02 1.410000000000000000e+02 1.420000000000000000e+02 1.430000000000000000e+02 1.440000000000000000e+02 1.450000000000000000e+02 1.460000000000000000e+02 1.470000000000000000e+02 1.480000000000000000e+02 1.490000000000000000e+02 1.500000000000000000e+02 1.510000000000000000e+02 1.520000000000000000e+02 1.530000000000000000e+02 1.540000000000000000e+02 1.550000000000000000e+02 1.560000000000000000e+02 1.570000000000000000e+02 1.580000000000000000e+02 1.590000000000000000e+02 1.600000000000000000e+02 1.610000000000000000e+02 1.620000000000000000e+02 1.630000000000000000e+02 1.640000000000000000e+02 1.650000000000000000e+02 1.660000000000000000e+02 1.670000000000000000e+02 1.680000000000000000e+02 1.690000000000000000e+02 1.700000000000000000e+02 1.710000000000000000e+02 1.720000000000000000e+02 1.730000000000000000e+02 1.740000000000000000e+02 1.750000000000000000e+02 1.760000000000000000e+02 1.770000000000000000e+02 1.780000000000000000e+02 1.790000000000000000e+02 1.800000000000000000e+02 1.810000000000000000e+02 1.820000000000000000e+02 1.830000000000000000e+02 1.840000000000000000e+02 1.850000000000000000e+02 1.860000000000000000e+02 1.870000000000000000e+02 1.880000000000000000e+02 1.890000000000000000e+02 1.900000000000000000e+02 1.910000000000000000e+02 1.920000000000000000e+02 1.930000000000000000e+02 1.940000000000000000e+02 1.950000000000000000e+02 1.960000000000000000e+02 1.970000000000000000e+02 1.980000000000000000e+02 1.990000000000000000e+02 2.000000000000000000e+02 2.010000000000000000e+02 2.020000000000000000e+02 2.030000000000000000e+02 2.040000000000000000e+02 2.050000000000000000e+02 2.060000000000000000e+02 2.070000000000000000e+02 2.080000000000000000e+02 2.090000000000000000e+02 2.100000000000000000e+02 2.110000000000000000e+02 2.120000000000000000e+02 2.130000000000000000e+02 2.140000000000000000e+02 2.150000000000000000e+02 2.160000000000000000e+02 2.170000000000000000e+02 2.180000000000000000e+02 2.190000000000000000e+02 2.200000000000000000e+02 2.210000000000000000e+02 2.220000000000000000e+02 2.230000000000000000e+02 2.240000000000000000e+02 2.250000000000000000e+02 2.260000000000000000e+02 2.270000000000000000e+02 2.280000000000000000e+02 2.290000000000000000e+02 2.300000000000000000e+02 2.310000000000000000e+02 2.320000000000000000e+02 2.330000000000000000e+02 2.340000000000000000e+02 2.350000000000000000e+02 2.360000000000000000e+02 2.370000000000000000e+02 2.380000000000000000e+02 2.390000000000000000e+02 2.400000000000000000e+02 2.410000000000000000e+02 2.420000000000000000e+02 2.430000000000000000e+02 2.440000000000000000e+02 2.450000000000000000e+02 2.460000000000000000e+02 2.470000000000000000e+02 2.480000000000000000e+02 2.490000000000000000e+02 2.500000000000000000e+02 2.510000000000000000e+02 2.520000000000000000e+02 2.530000000000000000e+02 2.540000000000000000e+02 2.550000000000000000e+02 2.560000000000000000e+02 2.570000000000000000e+02 2.580000000000000000e+02 2.590000000000000000e+02 2.600000000000000000e+02 2.610000000000000000e+02 2.620000000000000000e+02 2.630000000000000000e+02 2.640000000000000000e+02 2.650000000000000000e+02 2.660000000000000000e+02 2.670000000000000000e+02 2.680000000000000000e+02 2.690000000000000000e+02 2.700000000000000000e+02 2.710000000000000000e+02 2.720000000000000000e+02 2.730000000000000000e+02 2.740000000000000000e+02 2.750000000000000000e+02 2.760000000000000000e+02 2.770000000000000000e+02 2.780000000000000000e+02 2.790000000000000000e+02 2.800000000000000000e+02 2.810000000000000000e+02 2.820000000000000000e+02 2.830000000000000000e+02 2.840000000000000000e+02 2.850000000000000000e+02 2.860000000000000000e+02 2.870000000000000000e+02 2.880000000000000000e+02 2.890000000000000000e+02 2.900000000000000000e+02 2.910000000000000000e+02 2.920000000000000000e+02 2.930000000000000000e+02 2.940000000000000000e+02 2.950000000000000000e+02 2.960000000000000000e+02 2.970000000000000000e+02 2.980000000000000000e+02 2.990000000000000000e+02 3.000000000000000000e+02 3.010000000000000000e+02 3.020000000000000000e+02 3.030000000000000000e+02 3.040000000000000000e+02 3.050000000000000000e+02 3.060000000000000000e+02 3.070000000000000000e+02 3.080000000000000000e+02 3.090000000000000000e+02 3.100000000000000000e+02 3.110000000000000000e+02 3.120000000000000000e+02 3.130000000000000000e+02 3.140000000000000000e+02 3.150000000000000000e+02 3.160000000000000000e+02 3.170000000000000000e+02 3.180000000000000000e+02 3.190000000000000000e+02 3.200000000000000000e+02 3.210000000000000000e+02 3.220000000000000000e+02 3.230000000000000000e+02 3.240000000000000000e+02 3.250000000000000000e+02 3.260000000000000000e+02 3.270000000000000000e+02 3.280000000000000000e+02 3.290000000000000000e+02 3.300000000000000000e+02 3.310000000000000000e+02 3.320000000000000000e+02 3.330000000000000000e+02 3.340000000000000000e+02 3.350000000000000000e+02 3.360000000000000000e+02 3.370000000000000000e+02 3.380000000000000000e+02 3.390000000000000000e+02 3.400000000000000000e+02 3.410000000000000000e+02 3.420000000000000000e+02 3.430000000000000000e+02 3.440000000000000000e+02 3.450000000000000000e+02 3.460000000000000000e+02 3.470000000000000000e+02 3.480000000000000000e+02 3.490000000000000000e+02 3.500000000000000000e+02 3.510000000000000000e+02 3.520000000000000000e+02 3.530000000000000000e+02 3.540000000000000000e+02 3.550000000000000000e+02 3.560000000000000000e+02 3.570000000000000000e+02 3.580000000000000000e+02 3.590000000000000000e+02 3.600000000000000000e+02 3.610000000000000000e+02 3.620000000000000000e+02 3.630000000000000000e+02 3.640000000000000000e+02 3.650000000000000000e+02 3.660000000000000000e+02 3.670000000000000000e+02 3.680000000000000000e+02 3.690000000000000000e+02 3.700000000000000000e+02 3.710000000000000000e+02 3.720000000000000000e+02 3.730000000000000000e+02 3.740000000000000000e+02 3.750000000000000000e+02 3.760000000000000000e+02 3.770000000000000000e+02 3.780000000000000000e+02 3.790000000000000000e+02 3.800000000000000000e+02 3.810000000000000000e+02 3.820000000000000000e+02 3.830000000000000000e+02 3.840000000000000000e+02 3.850000000000000000e+02 3.860000000000000000e+02 3.870000000000000000e+02 3.880000000000000000e+02 3.890000000000000000e+02 3.900000000000000000e+02 3.910000000000000000e+02 3.920000000000000000e+02 3.930000000000000000e+02 3.940000000000000000e+02 3.950000000000000000e+02 3.960000000000000000e+02 3.970000000000000000e+02 3.980000000000000000e+02 3.990000000000000000e+02 4.000000000000000000e+02 4.010000000000000000e+02 4.020000000000000000e+02 4.030000000000000000e+02 4.040000000000000000e+02 4.050000000000000000e+02 4.060000000000000000e+02 4.070000000000000000e+02 4.080000000000000000e+02 4.090000000000000000e+02 4.100000000000000000e+02 4.110000000000000000e+02 4.120000000000000000e+02 4.130000000000000000e+02 4.140000000000000000e+02 4.150000000000000000e+02 4.160000000000000000e+02 4.170000000000000000e+02 4.180000000000000000e+02 4.190000000000000000e+02 4.200000000000000000e+02 4.210000000000000000e+02 4.220000000000000000e+02 4.230000000000000000e+02 4.240000000000000000e+02 4.250000000000000000e+02 4.260000000000000000e+02 4.270000000000000000e+02 4.280000000000000000e+02 4.290000000000000000e+02 4.300000000000000000e+02 4.310000000000000000e+02 4.320000000000000000e+02 4.330000000000000000e+02 4.340000000000000000e+02 4.350000000000000000e+02 4.360000000000000000e+02 4.370000000000000000e+02 4.380000000000000000e+02 4.390000000000000000e+02 4.400000000000000000e+02 4.410000000000000000e+02 4.420000000000000000e+02 4.430000000000000000e+02 4.440000000000000000e+02 4.450000000000000000e+02 4.460000000000000000e+02 4.470000000000000000e+02 4.480000000000000000e+02 4.490000000000000000e+02 4.500000000000000000e+02 4.510000000000000000e+02 4.520000000000000000e+02 4.530000000000000000e+02 4.540000000000000000e+02 4.550000000000000000e+02 4.560000000000000000e+02 4.570000000000000000e+02 4.580000000000000000e+02 4.590000000000000000e+02 4.600000000000000000e+02 4.610000000000000000e+02 4.620000000000000000e+02 4.630000000000000000e+02 4.640000000000000000e+02 4.650000000000000000e+02 4.660000000000000000e+02 4.670000000000000000e+02 4.680000000000000000e+02 4.690000000000000000e+02 4.700000000000000000e+02 4.710000000000000000e+02 4.720000000000000000e+02 4.730000000000000000e+02 4.740000000000000000e+02 4.750000000000000000e+02 4.760000000000000000e+02 4.770000000000000000e+02 4.780000000000000000e+02 4.790000000000000000e+02 4.800000000000000000e+02 4.810000000000000000e+02 4.820000000000000000e+02 4.830000000000000000e+02 4.840000000000000000e+02 4.850000000000000000e+02 4.860000000000000000e+02 4.870000000000000000e+02 4.880000000000000000e+02 4.890000000000000000e+02 4.900000000000000000e+02 4.910000000000000000e+02 4.920000000000000000e+02 4.930000000000000000e+02 4.940000000000000000e+02 4.950000000000000000e+02 4.960000000000000000e+02 4.970000000000000000e+02 4.980000000000000000e+02 4.990000000000000000e+02 5.000000000000000000e+02 5.010000000000000000e+02 5.020000000000000000e+02 5.030000000000000000e+02 5.040000000000000000e+02 5.050000000000000000e+02 5.060000000000000000e+02 5.070000000000000000e+02 5.080000000000000000e+02 5.090000000000000000e+02 5.100000000000000000e+02 5.110000000000000000e+02 5.120000000000000000e+02 5.130000000000000000e+02 5.140000000000000000e+02 5.150000000000000000e+02 5.160000000000000000e+02 5.170000000000000000e+02 5.180000000000000000e+02 5.190000000000000000e+02 5.200000000000000000e+02 5.210000000000000000e+02 5.220000000000000000e+02 5.230000000000000000e+02 5.240000000000000000e+02 5.250000000000000000e+02 5.260000000000000000e+02 5.270000000000000000e+02 5.280000000000000000e+02 5.290000000000000000e+02 5.300000000000000000e+02 5.310000000000000000e+02 5.320000000000000000e+02 5.330000000000000000e+02 5.340000000000000000e+02 5.350000000000000000e+02 5.360000000000000000e+02 5.370000000000000000e+02 5.380000000000000000e+02 5.390000000000000000e+02 5.400000000000000000e+02 5.410000000000000000e+02 5.420000000000000000e+02 5.430000000000000000e+02 5.440000000000000000e+02 5.450000000000000000e+02 5.460000000000000000e+02 5.470000000000000000e+02 5.480000000000000000e+02 5.490000000000000000e+02 5.500000000000000000e+02 5.510000000000000000e+02 5.520000000000000000e+02 5.530000000000000000e+02 5.540000000000000000e+02 5.550000000000000000e+02 5.560000000000000000e+02 5.570000000000000000e+02 5.580000000000000000e+02 5.590000000000000000e+02 5.600000000000000000e+02 5.610000000000000000e+02 5.620000000000000000e+02 5.630000000000000000e+02 5.640000000000000000e+02 5.650000000000000000e+02 5.660000000000000000e+02 5.670000000000000000e+02 5.680000000000000000e+02 5.690000000000000000e+02 5.700000000000000000e+02 5.710000000000000000e+02 5.720000000000000000e+02 5.730000000000000000e+02 5.740000000000000000e+02 5.750000000000000000e+02 5.760000000000000000e+02 5.770000000000000000e+02 5.780000000000000000e+02 5.790000000000000000e+02 5.800000000000000000e+02 5.810000000000000000e+02 5.820000000000000000e+02 5.830000000000000000e+02 5.840000000000000000e+02 5.850000000000000000e+02 5.860000000000000000e+02 5.870000000000000000e+02 5.880000000000000000e+02 5.890000000000000000e+02 5.900000000000000000e+02 5.910000000000000000e+02 5.920000000000000000e+02 5.930000000000000000e+02 5.940000000000000000e+02 5.950000000000000000e+02 5.960000000000000000e+02 5.970000000000000000e+02 5.980000000000000000e+02 5.990000000000000000e+02 6.000000000000000000e+02 6.010000000000000000e+02 6.020000000000000000e+02 6.030000000000000000e+02 6.040000000000000000e+02 6.050000000000000000e+02 6.060000000000000000e+02 6.070000000000000000e+02 6.080000000000000000e+02 6.090000000000000000e+02 6.100000000000000000e+02 6.110000000000000000e+02 6.120000000000000000e+02 6.130000000000000000e+02 6.140000000000000000e+02 6.150000000000000000e+02 6.160000000000000000e+02 6.170000000000000000e+02 6.180000000000000000e+02 6.190000000000000000e+02 6.200000000000000000e+02 6.210000000000000000e+02 6.220000000000000000e+02 6.230000000000000000e+02 6.240000000000000000e+02 6.250000000000000000e+02 6.260000000000000000e+02 6.270000000000000000e+02 6.280000000000000000e+02 6.290000000000000000e+02 6.300000000000000000e+02 6.310000000000000000e+02 6.320000000000000000e+02 6.330000000000000000e+02 6.340000000000000000e+02 6.350000000000000000e+02 6.360000000000000000e+02 6.370000000000000000e+02 6.380000000000000000e+02 6.390000000000000000e+02 6.400000000000000000e+02 6.410000000000000000e+02 6.420000000000000000e+02 6.430000000000000000e+02 6.440000000000000000e+02 6.450000000000000000e+02 6.460000000000000000e+02 6.470000000000000000e+02 6.480000000000000000e+02 6.490000000000000000e+02 6.500000000000000000e+02 6.510000000000000000e+02 6.520000000000000000e+02 6.530000000000000000e+02 6.540000000000000000e+02 6.550000000000000000e+02 6.560000000000000000e+02 6.570000000000000000e+02 6.580000000000000000e+02 6.590000000000000000e+02 6.600000000000000000e+02 6.610000000000000000e+02 6.620000000000000000e+02 6.630000000000000000e+02 6.640000000000000000e+02 6.650000000000000000e+02 6.660000000000000000e+02 6.670000000000000000e+02 6.680000000000000000e+02 6.690000000000000000e+02 6.700000000000000000e+02 6.710000000000000000e+02 6.720000000000000000e+02 6.730000000000000000e+02 6.740000000000000000e+02 6.750000000000000000e+02 6.760000000000000000e+02 6.770000000000000000e+02 6.780000000000000000e+02 6.790000000000000000e+02 6.800000000000000000e+02 6.810000000000000000e+02 6.820000000000000000e+02 6.830000000000000000e+02 6.840000000000000000e+02 6.850000000000000000e+02 6.860000000000000000e+02 6.870000000000000000e+02 6.880000000000000000e+02 6.890000000000000000e+02 6.900000000000000000e+02 6.910000000000000000e+02 6.920000000000000000e+02 6.930000000000000000e+02 6.940000000000000000e+02 6.950000000000000000e+02 6.960000000000000000e+02 6.970000000000000000e+02 6.980000000000000000e+02 6.990000000000000000e+02 7.000000000000000000e+02 7.010000000000000000e+02 7.020000000000000000e+02 7.030000000000000000e+02 7.040000000000000000e+02 7.050000000000000000e+02 7.060000000000000000e+02 7.070000000000000000e+02 7.080000000000000000e+02 7.090000000000000000e+02 7.100000000000000000e+02 7.110000000000000000e+02 7.120000000000000000e+02 7.130000000000000000e+02 7.140000000000000000e+02 7.150000000000000000e+02 7.160000000000000000e+02 7.170000000000000000e+02 7.180000000000000000e+02 7.190000000000000000e+02 7.200000000000000000e+02 7.210000000000000000e+02 7.220000000000000000e+02 7.230000000000000000e+02 7.240000000000000000e+02 7.250000000000000000e+02 7.260000000000000000e+02 7.270000000000000000e+02 7.280000000000000000e+02 7.290000000000000000e+02 7.300000000000000000e+02 7.310000000000000000e+02 7.320000000000000000e+02 7.330000000000000000e+02 7.340000000000000000e+02 7.350000000000000000e+02 7.360000000000000000e+02 7.370000000000000000e+02 7.380000000000000000e+02 7.390000000000000000e+02 7.400000000000000000e+02 7.410000000000000000e+02 7.420000000000000000e+02 7.430000000000000000e+02 7.440000000000000000e+02 7.450000000000000000e+02 7.460000000000000000e+02 7.470000000000000000e+02 7.480000000000000000e+02 7.490000000000000000e+02 7.500000000000000000e+02 7.510000000000000000e+02 7.520000000000000000e+02 7.530000000000000000e+02 7.540000000000000000e+02 7.550000000000000000e+02 7.560000000000000000e+02 7.570000000000000000e+02 7.580000000000000000e+02 7.590000000000000000e+02 7.600000000000000000e+02 7.610000000000000000e+02 7.620000000000000000e+02 7.630000000000000000e+02 7.640000000000000000e+02 7.650000000000000000e+02 7.660000000000000000e+02 7.670000000000000000e+02 7.680000000000000000e+02 7.690000000000000000e+02 7.700000000000000000e+02 7.710000000000000000e+02 7.720000000000000000e+02 7.730000000000000000e+02 7.740000000000000000e+02 7.750000000000000000e+02 7.760000000000000000e+02 7.770000000000000000e+02 7.780000000000000000e+02 7.790000000000000000e+02 7.800000000000000000e+02 7.810000000000000000e+02 7.820000000000000000e+02 7.830000000000000000e+02 7.840000000000000000e+02 7.850000000000000000e+02 7.860000000000000000e+02 7.870000000000000000e+02 7.880000000000000000e+02 7.890000000000000000e+02 7.900000000000000000e+02 7.910000000000000000e+02 7.920000000000000000e+02 7.930000000000000000e+02 7.940000000000000000e+02 7.950000000000000000e+02 7.960000000000000000e+02 7.970000000000000000e+02 7.980000000000000000e+02 7.990000000000000000e+02 8.000000000000000000e+02 8.010000000000000000e+02 8.020000000000000000e+02 8.030000000000000000e+02 8.040000000000000000e+02 8.050000000000000000e+02 8.060000000000000000e+02 8.070000000000000000e+02 8.080000000000000000e+02 8.090000000000000000e+02 8.100000000000000000e+02 8.110000000000000000e+02 8.120000000000000000e+02 8.130000000000000000e+02 8.140000000000000000e+02 8.150000000000000000e+02 8.160000000000000000e+02 8.170000000000000000e+02 8.180000000000000000e+02 8.190000000000000000e+02 8.200000000000000000e+02 8.210000000000000000e+02 8.220000000000000000e+02 8.230000000000000000e+02 8.240000000000000000e+02 8.250000000000000000e+02 8.260000000000000000e+02 8.270000000000000000e+02 8.280000000000000000e+02 8.290000000000000000e+02 8.300000000000000000e+02 8.310000000000000000e+02 8.320000000000000000e+02 8.330000000000000000e+02 8.340000000000000000e+02 8.350000000000000000e+02 8.360000000000000000e+02 8.370000000000000000e+02 8.380000000000000000e+02 8.390000000000000000e+02 8.400000000000000000e+02 8.410000000000000000e+02 8.420000000000000000e+02 8.430000000000000000e+02 8.440000000000000000e+02 8.450000000000000000e+02 8.460000000000000000e+02 8.470000000000000000e+02 8.480000000000000000e+02 8.490000000000000000e+02 8.500000000000000000e+02 8.510000000000000000e+02 8.520000000000000000e+02 8.530000000000000000e+02 8.540000000000000000e+02 8.550000000000000000e+02 8.560000000000000000e+02 8.570000000000000000e+02 8.580000000000000000e+02 8.590000000000000000e+02 8.600000000000000000e+02 8.610000000000000000e+02 8.620000000000000000e+02 8.630000000000000000e+02 8.640000000000000000e+02 8.650000000000000000e+02 8.660000000000000000e+02 8.670000000000000000e+02 8.680000000000000000e+02 8.690000000000000000e+02 8.700000000000000000e+02 8.710000000000000000e+02 8.720000000000000000e+02 8.730000000000000000e+02 8.740000000000000000e+02 8.750000000000000000e+02 8.760000000000000000e+02 8.770000000000000000e+02 8.780000000000000000e+02 8.790000000000000000e+02 8.800000000000000000e+02 8.810000000000000000e+02 8.820000000000000000e+02 8.830000000000000000e+02 8.840000000000000000e+02 8.850000000000000000e+02 8.860000000000000000e+02 8.870000000000000000e+02 8.880000000000000000e+02 8.890000000000000000e+02 8.900000000000000000e+02 8.910000000000000000e+02 8.920000000000000000e+02 8.930000000000000000e+02 8.940000000000000000e+02 8.950000000000000000e+02 8.960000000000000000e+02 8.970000000000000000e+02 8.980000000000000000e+02 8.990000000000000000e+02 9.000000000000000000e+02 9.010000000000000000e+02 9.020000000000000000e+02 9.030000000000000000e+02 9.040000000000000000e+02 9.050000000000000000e+02 9.060000000000000000e+02 9.070000000000000000e+02 9.080000000000000000e+02 9.090000000000000000e+02 9.100000000000000000e+02 9.110000000000000000e+02 9.120000000000000000e+02 9.130000000000000000e+02 9.140000000000000000e+02 9.150000000000000000e+02 9.160000000000000000e+02 9.170000000000000000e+02 9.180000000000000000e+02 9.190000000000000000e+02 9.200000000000000000e+02 9.210000000000000000e+02 9.220000000000000000e+02 9.230000000000000000e+02 9.240000000000000000e+02 9.250000000000000000e+02 9.260000000000000000e+02 9.270000000000000000e+02 9.280000000000000000e+02 9.290000000000000000e+02 9.300000000000000000e+02 9.310000000000000000e+02 9.320000000000000000e+02 9.330000000000000000e+02 9.340000000000000000e+02 9.350000000000000000e+02 9.360000000000000000e+02 9.370000000000000000e+02 9.380000000000000000e+02 9.390000000000000000e+02 9.400000000000000000e+02 9.410000000000000000e+02 9.420000000000000000e+02 9.430000000000000000e+02 9.440000000000000000e+02 9.450000000000000000e+02 9.460000000000000000e+02 9.470000000000000000e+02 9.480000000000000000e+02 9.490000000000000000e+02 9.500000000000000000e+02 9.510000000000000000e+02 9.520000000000000000e+02 9.530000000000000000e+02 9.540000000000000000e+02 9.550000000000000000e+02 9.560000000000000000e+02 9.570000000000000000e+02 9.580000000000000000e+02 9.590000000000000000e+02 9.600000000000000000e+02 9.610000000000000000e+02 9.620000000000000000e+02 9.630000000000000000e+02 9.640000000000000000e+02 9.650000000000000000e+02 9.660000000000000000e+02 9.670000000000000000e+02 9.680000000000000000e+02 9.690000000000000000e+02 9.700000000000000000e+02 9.710000000000000000e+02 9.720000000000000000e+02 9.730000000000000000e+02 9.740000000000000000e+02 9.750000000000000000e+02 9.760000000000000000e+02 9.770000000000000000e+02 9.780000000000000000e+02 9.790000000000000000e+02 9.800000000000000000e+02 9.810000000000000000e+02 9.820000000000000000e+02 9.830000000000000000e+02 9.840000000000000000e+02 9.850000000000000000e+02 9.860000000000000000e+02 9.870000000000000000e+02 9.880000000000000000e+02 9.890000000000000000e+02 9.900000000000000000e+02 9.910000000000000000e+02 9.920000000000000000e+02 9.930000000000000000e+02 9.940000000000000000e+02 9.950000000000000000e+02 9.960000000000000000e+02 9.970000000000000000e+02 9.980000000000000000e+02 9.990000000000000000e+02 1.000000000000000000e+03
1.000000000000000021e-02 1.000000000000000021e-02 1.000000000000000021e-02 1.000000000000000021e-02 1.000000000000000021e-02 1.000000000000000021e-02 1.000000000000000021e-02 1.000000000000000021e-02 1.000000000000000021e-02 1.000000000000000021e-02 1.000000000000000021e-02 1.000000000000000021e-02 1.000000000000000021e-02 1.000000000000000021e-02 1.000000000000000021e-02 1.000000000000000021e-02 1.000000000000000021e-02 1.000000000000000021e-02 1.000000000000000021e-02 1.000000000000000021e-02 1.000000000000000021e-02 1.000000000000000021e-02 1.000000000000000021e-02 1.000000000000000021e-02 1.000000000000000021e-02 1.000000000000000021e-02 1.000000000000000021e-02 1.000000000000000021e-02 1.000000000000000021e-02 1.000000000000000021e-02 1.000000000000000021e-02 1.000000000000000021e-02 1.000000000000000021e-02 1.000000000000000021e-02 1.000000000000000021e-02 1.000000000000000021e-02 1.000000000000000021e-02 1.000000000000000021e-02 1.000000000000000021e-02 1.000000000000000021e-02 1.000000000000000021e-02 1.000000000000000021e-02 1.000000000000000021e-02 1.000000000000000021e-02 1.000000000000000021e-02 1.000000000000000021e-02 1.000000000000000021e-02 1.000000000000000021e-02 1.000000000000000021e-02 1.000000000000000021e-02 1.000000000000000021e-02 1.000000000000000021e-02 1.000000000000000021e-02 1.000000000000000021e-02 1.000000000000000021e-02 1.000000000000000021e-02 1.000000000000000021e-02 1.000000000000000021e-02 1.000000000000000021e-02 1.000000000000000021e-02 1.000000000000000021e-02 1.000000000000000021e-02 1.000000000000000021e-02 1.000000000000000021e-02 1.000000000000000021e-02 1.000000000000000021e-02 1.000000000000000021e-02 1.000000000000000021e-02 1.000000000000000021e-02 1.000000000000000021e-02 1.000000000000000021e-02 1.000000000000000021e-02 1.000000000000000021e-02 1.000000000000000021e-02 1.000000000000000021e-02 1.000000000000000021e-02 1.000000000000000021e-02 1.000000000000000021e-02 1.000000000000000021e-02 1.000000000000000021e-02 1.000000000000000021e-02 1.000000000000000021e-02 1.000000000000000021e-02 1.000000000000000021e-02 1.000000000000000021e-02 1.000000000000000021e-02 1.000000000000000021e-02 1.000000000000000021e-02 1.000000000000000021e-02 1.000000000000000021e-02 1.000000000000000021e-02 1.000000000000000021e-02 1.000000000000000021e-02 1.000000000000000021e-02 1.000000000000000021e-02 1.000000000000000021e-02 1.000000000000000021e-02 1.000000000000000021e-02 1.000000000000000021e-02 1.000000000000000021e-02 1.000000000000000021e-02 1.000000000000000021e-02 1.000000000000000021e-02 1.000000000000000021e-02 1.000000000000000021e-02 1.000000000000000021e-02 1.000000000000000021e-02 1.000000000000000021e-02 1.000000000000000021e-02 1.000000000000000021e-02 1.000000000000000021e-02 1.000000000000000021e-02 1.000000000000000021e-02 1.000000000000000021e-02 1.000000000000000021e-02 1.000000000000000021e-02 1.000000000000000021e-02 1.000000000000000021e-02 1.000000000000000021e-02 1.000000000000000021e-02 1.000000000000000021e-02 1.000000000000000021e-02 1.000000000000000021e-02 1.000000000000000021e-02 1.000000000000000021e-02 1.000000000000000021e-02 1.000000000000000021e-02 1.000000000000000021e-02 1.000000000000000021e-02 1.000000000000000021e-02 1.000000000000000021e-02 1.000000000000000021e-02 1.000000000000000021e-02 1.000000000000000021e-02 1.000000000000000021e-02 1.000000000000000021e-02 1.000000000000000021e-02 1.000000000000000021e-02 1.000000000000000021e-02 1.000000000000000021e-02 1.000000000000000021e-02 1.000000000000000021e-02 1.000000000000000021e-02 1.000000000000000021e-02 1.000000000000000021e-02 1.000000000000000021e-02 1.000000000000000021e-02 1.000000000000000021e-02 1.000000000000000021e-02 1.000000000000000021e-02 1.000000000000000021e-02 1.000000000000000021e-02 1.000000000000000021e-02 1.000000000000000021e-02 1.000000000000000021e-02 1.000000000000000021e-02 1.000000000000000021e-02 1.000000000000000021e-02 1.000000000000000021e-02 1.000000000000000021e-02 1.000000000000000021e-02 1.000000000000000021e-02 1.000000000000000021e-02 1.000000000000000021e-02 1.000000000000000021e-02 1.000000000000000021e-02 1.000000000000000021e-02 1.000000000000000021e-02 1.000000000000000021e-02 1.000000000000000021e-02 1.000000000000000021e-02 1.000000000000000021e-02 1.000000000000000021e-02 1.000000000000000021e-02 1.000000000000000021e-02 1.000000000000000021e-02 1.000000000000000021e-02 1.000000000000000021e-02 1.000000000000000021e-02 1.000000000000000021e-02 1.000000000000000021e-02 1.000000000000000021e-02 1.000000000000000021e-02 1.000000000000000021e-02 1.000000000000000021e-02 1.000000000000000021e-02 1.000000000000000021e-02 1.000000000000000021e-02 1.000000000000000021e-02 1.000000000000000021e-02 1.000000000000000021e-02 1.000000000000000021e-02 1.000000000000000021e-02 1.000000000000000021e-02 1.000000000000000021e-02 1.000000000000000021e-02 1.000000000000000021e-02 1.000000000000000021e-02 1.000000000000000021e-02 1.000000000000000021e-02 1.000000000000000021e-02 1.000000000000000021e-02 1.000000000000000021e-02 1.000000000000000021e-02 1.000000000000000021e-02 1.000000000000000021e-02 1.000000000000000021e-02 1.000000000000000021e-02 1.000000000000000021e-02 1.000000000000000021e-02 1.000000000000000021e-02 1.000000000000000021e-02 1.000000000000000021e-02 1.000000000000000021e-02 1.000000000000000021e-02 1.000000000000000021e-02 1.000000000000000021e-02 1.000000000000000021e-02 1.000000000000000021e-02 1.000000000000000021e-02 1.000000000000000021e-02 1.000000000000000021e-02 1.000000000000000021e-02 1.000000000000000021e-02 1.000000000000000021e-02 1.000000000000000021e-02 1.000000000000000021e-02 1.000000000000000021e-02 1.000000000000000021e-02 1.000000000000000021e-02 1.000000000000000021e-02 1.000000000000000021e-02 1.000000000000000021e-02 1.000000000000000021e-02 1.000000000000000021e-02 1.000000000000000021e-02 1.000000000000000021e-02 1.000000000000000021e-02 1.000000000000000021e-02 1.000000000000000021e-02 1.000000000000000021e-02 1.000000000000000021e-02 1.000000000000000021e-02 1.000000000000000021e-02 1.000000000000000021e-02 1.000000000000000021e-02 1.000000000000000021e-02 1.000000000000000021e-02 1.000000000000000021e-02 1.000000000000000021e-02 1.000000000000000021e-02 1.000000000000000021e-02 1.000000000000000021e-02 1.000000000000000021e-02 1.000000000000000021e-02 1.000000000000000021e-02 1.000000000000000021e-02 1.000000000000000021e-02 1.000000000000000021e-02 1.000000000000000021e-02 1.000000000000000021e-02 1.000000000000000021e-02 1.000000000000000021e-02 1.000000000000000021e-02 1.000000000000000021e-02 1.000000000000000021e-02 1.000000000000000021e-02 1.000000000000000021e-02 1.000000000000000021e-02 1.000000000000000021e-02 1.000000000000000021e-02 1.000000000000000021e-02 1.000000000000000021e-02 1.000000000000000021e-02 1.000000000000000021e-02 1.000000000000000021e-02 1.000000000000000021e-02 1.000000000000000021e-02 1.000000000000000021e-02 1.000000000000000021e-02 1.000000000000000021e-02 1.000000000000000021e-02 1.000000000000000021e-02 1.000000000000000021e-02 1.000000000000000021e-02 1.000000000000000021e-02 1.000000000000000021e-02 1.000000000000000021e-02 1.000000000000000021e-02 1.000000000000000021e-02 1.000000000000000021e-02 1.000000000000000021e-02 1.000000000000000021e-02 1.000000000000000021e-02 1.000000000000000021e-02 1.000000000000000021e-02 1.000000000000000021e-02 1.000000000000000021e-02 1.000000000000000021e-02 1.000000000000000021e-02 1.000000000000000021e-02 1.000000000000000021e-02 1.000000000000000021e-02 1.000000000000000021e-02 1.000000000000000021e-02 1.000000000000000021e-02 1.000000000000000021e-02 1.000000000000000021e-02 1.000000000000000021e-02 1.000000000000000021e-02 1.000000000000000021e-02 1.000000000000000021e-02 1.000000000000000021e-02 1.000000000000000021e-02 1.000000000000000021e-02 1.000000000000000021e-02 1.000000000000000021e-02 1.000000000000000021e-02 1.000000000000000021e-02 1.000000000000000021e-02 1.000000000000000021e-02 1.000000000000000021e-02 1.000000000000000021e-02 1.000000000000000021e-02 1.000000000000000021e-02 1.000000000000000021e-02 1.000000000000000021e-02 1.000000000000000021e-02 1.000000000000000021e-02 1.000000000000000021e-02 1.000000000000000021e-02 1.000000000000000021e-02 1.000000000000000021e-02 1.000000000000000021e-02 1.000000000000000021e-02 1.000000000000000021e-02 1.000000000000000021e-02 1.000000000000000021e-02 1.000000000000000021e-02 1.000000000000000021e-02 1.000000000000000021e-02 1.000000000000000021e-02 1.000000000000000021e-02 1.000000000000000021e-02 1.000000000000000021e-02 1.000000000000000021e-02 1.000000000000000021e-02 1.000000000000000021e-02 1.000000000000000021e-02 1.000000000000000021e-02 1.000000000000000021e-02 1.000000000000000021e-02 1.000000000000000021e-02 1.000000000000000021e-02 1.000000000000000021e-02 1.000000000000000021e-02 1.000000000000000021e-02 1.000000000000000021e-02 1.000000000000000021e-02 1.000000000000000021e-02 1.000000000000000021e-02 1.000000000000000021e-02 1.000000000000000021e-02 1.000000000000000021e-02 1.000000000000000021e-02 1.000000000000000021e-02 1.000000000000000021e-02 1.000000000000000021e-02 1.000000000000000021e-02 1.000000000000000021e-02 1.000000000000000021e-02 1.000000000000000021e-02 1.000000000000000021e-02 1.000000000000000021e-02 1.000000000000000021e-02 1.000000000000000021e-02 1.000000000000000021e-02 1.000000000000000021e-02 1.000000000000000021e-02 1.000000000000000021e-02 1.000000000000000021e-02 1.000000000000000021e-02 1.000000000000000021e-02 1.000000000000000021e-02 1.000000000000000021e-02 1.000000000000000021e-02 1.000000000000000021e-02 1.000000000000000021e-02 1.000000000000000021e-02 1.000000000000000021e-02 1.000000000000000021e-02 1.000000000000000021e-02 1.000000000000000021e-02 1.000000000000000021e-02 1.000000000000000021e-02 1.000000000000000021e-02 1.000000000000000021e-02 1.000000000000000021e-02 1.000000000000000021e-02 1.000000000000000021e-02 1.000000000000000021e-02 1.000000000000000021e-02 1.000000000000000021e-02 1.000000000000000021e-02 1.000000000000000021e-02 1.000000000000000021e-02 1.000000000000000021e-02 1.000000000000000021e-02 1.000000000000000021e-02 1.000000000000000021e-02 1.000000000000000021e-02 1.000000000000000021e-02 1.000000000000000021e-02 1.000000000000000021e-02 1.000000000000000021e-02 1.000000000000000021e-02 1.000000000000000021e-02 1.000000000000000021e-02 1.000000000000000021e-02 1.000000000000000021e-02 1.000000000000000021e-02 1.000000000000000021e-02 1.000000000000000021e-02 1.000000000000000021e-02 1.000000000000000021e-02 1.000000000000000021e-02 1.000000000000000021e-02 1.000000000000000021e-02 1.000000000000000021e-02 1.000000000000000021e-02 1.000000000000000021e-02 1.000000000000000021e-02 1.000000000000000021e-02 1.000000000000000021e-02 1.000000000000000021e-02 1.000000000000000021e-02 1.000000000000000021e-02 1.000000000000000021e-02 1.000000000000000021e-02 1.000000000000000021e-02 1.000000000000000021e-02 1.000000000000000021e-02 1.000000000000000021e-02 1.000000000000000021e-02 1.000000000000000021e-02 1.000000000000000021e-02 1.000000000000000021e-02 1.000000000000000021e-02 1.000000000000000021e-02 1.000000000000000021e-02 1.000000000000000021e-02 1.000000000000000021e-02 1.000000000000000021e-02 1.000000000000000021e-02 1.000000000000000021e-02 1.000000000000000021e-02 1.000000000000000021e-02 1.000000000000000021e-02 1.000000000000000021e-02 1.000000000000000021e-02 1.000000000000000021e-02 1.000000000000000021e-02 1.000000000000000021e-02 1.000000000000000021e-02 1.000000000000000021e-02 1.000000000000000021e-02 1.000000000000000021e-02 1.000000000000000021e-02 1.000000000000000021e-02 1.000000000000000021e-02 1.000000000000000021e-02 1.000000000000000021e-02 1.000000000000000021e-02 1.000000000000000021e-02 1.000000000000000021e-02 1.000000000000000021e-02 1.000000000000000021e-02 1.000000000000000021e-02 1.000000000000000021e-02 1.000000000000000021e-02 1.000000000000000021e-02 1.000000000000000021e-02 1.000000000000000021e-02 1.000000000000000021e-02 1.000000000000000021e-02 1.000000000000000021e-02 1.000000000000000021e-02 1.000000000000000021e-02 1.000000000000000021e-02 1.000000000000000021e-02 1.000000000000000021e-02 1.000000000000000021e-02 1.000000000000000021e-02 1.000000000000000021e-02 1.000000000000000021e-02 1.000000000000000021e-02 1.000000000000000021e-02 1.000000000000000021e-02 1.000000000000000021e-02 1.000000000000000021e-02 1.000000000000000021e-02 1.000000000000000021e-02 1.000000000000000021e-02 1.000000000000000021e-02 1.000000000000000021e-02 1.000000000000000021e-02 1.000000000000000021e-02 1.000000000000000021e-02 1.000000000000000021e-02 1.000000000000000021e-02 1.000000000000000021e-02 1.000000000000000021e-02 1.000000000000000021e-02 1.000000000000000021e-02 1.000000000000000021e-02 1.000000000000000021e-02 1.000000000000000021e-02 1.000000000000000021e-02 1.000000000000000021e-02 1.000000000000000021e-02 1.000000000000000021e-02 1.000000000000000021e-02 1.000000000000000021e-02 1.000000000000000021e-02 1.000000000000000021e-02 1.000000000000000021e-02 1.000000000000000021e-02 1.000000000000000021e-02 1.000000000000000021e-02 1.000000000000000021e-02 1.000000000000000021e-02 1.000000000000000021e-02 1.000000000000000021e-02 1.000000000000000021e-02 1.000000000000000021e-02 1.000000000000000021e-02 1.000000000000000021e-02 1.000000000000000021e-02 1.000000000000000021e-02 1.000000000000000021e-02 1.000000000000000021e-02 1.000000000000000021e-02 1.000000000000000021e-02 1.000000000000000021e-02 1.000000000000000021e-02 1.000000000000000021e-02 1.000000000000000021e-02 1.000000000000000021e-02 1.000000000000000021e-02 1.000000000000000021e-02 1.000000000000000021e-02 1.000000000000000021e-02 1.000000000000000021e-02 1.000000000000000021e-02 1.000000000000000021e-02 1.000000000000000021e-02 1.000000000000000021e-02 1.000000000000000021e-02 1.000000000000000021e-02 1.000000000000000021e-02 1.000000000000000021e-02 1.000000000000000021e-02 1.000000000000000021e-02 1.000000000000000021e-02 1.000000000000000021e-02 1.000000000000000021e-02 1.000000000000000021e-02 1.000000000000000021e-02 1.000000000000000021e-02 1.000000000000000021e-02 1.000000000000000021e-02 1.000000000000000021e-02 1.000000000000000021e-02 1.000000000000000021e-02 1.000000000000000021e-02 1.000000000000000021e-02 1.000000000000000021e-02 1.000000000000000021e-02 1.000000000000000021e-02 1.000000000000000021e-02 1.000000000000000021e-02 1.000000000000000021e-02 1.000000000000000021e-02 1.000000000000000021e-02 1.000000000000000021e-02 1.000000000000000021e-02 1.000000000000000021e-02 1.000000000000000021e-02 1.000000000000000021e-02 1.000000000000000021e-02 1.000000000000000021e-02 1.000000000000000021e-02 1.000000000000000021e-02 1.000000000000000021e-02 1.000000000000000021e-02 1.000000000000000021e-02 1.000000000000000021e-02 1.000000000000000021e-02 1.000000000000000021e-02 1.000000000000000021e-02 1.000000000000000021e-02 1.000000000000000021e-02 1.000000000000000021e-02 1.000000000000000021e-02 1.000000000000000021e-02 1.000000000000000021e-02 1.000000000000000021e-02 1.000000000000000021e-02 1.000000000000000021e-02 1.000000000000000021e-02 1.000000000000000021e-02 1.000000000000000021e-02 1.000000000000000021e-02 1.000000000000000021e-02 1.000000000000000021e-02 1.000000000000000021e-02 1.000000000000000021e-02 1.000000000000000021e-02 1.000000000000000021e-02 1.000000000000000021e-02 1.000000000000000021e-02 1.000000000000000021e-02 1.000000000000000021e-02 1.000000000000000021e-02 1.000000000000000021e-02 1.000000000000000021e-02 1.000000000000000021e-02 1.000000000000000021e-02 1.000000000000000021e-02 1.000000000000000021e-02 1.000000000000000021e-02 1.000000000000000021e-02 1.000000000000000021e-02 1.000000000000000021e-02 1.000000000000000021e-02 1.000000000000000021e-02 1.000000000000000021e-02 1.000000000000000021e-02 1.000000000000000021e-02 1.000000000000000021e-02 1.000000000000000021e-02 1.000000000000000021e-02 1.000000000000000021e-02 1.000000000000000021e-02 1.000000000000000021e-02 1.000000000000000021e-02 1.000000000000000021e-02 1.000000000000000021e-02 1.000000000000000021e-02 1.000000000000000021e-02 1.000000000000000021e-02 1.000000000000000021e-02 1.000000000000000021e-02 1.000000000000000021e-02 1.000000000000000021e-02 1.000000000000000021e-02 1.000000000000000021e-02 1.000000000000000021e-02 1.000000000000000021e-02 1.000000000000000021e-02 1.000000000000000021e-02 1.000000000000000021e-02 1.000000000000000021e-02 1.000000000000000021e-02 1.000000000000000021e-02 1.000000000000000021e-02 1.000000000000000021e-02 1.000000000000000021e-02 1.000000000000000021e-02 1.000000000000000021e-02 1.000000000000000021e-02 1.000000000000000021e-02 1.000000000000000021e-02 1.000000000000000021e-02 1.000000000000000021e-02 1.000000000000000021e-02 1.000000000000000021e-02 1.000000000000000021e-02 1.000000000000000021e-02 1.000000000000000021e-02 1.000000000000000021e-02 1.000000000000000021e-02 1.000000000000000021e-02 1.000000000000000021e-02 1.000000000000000021e-02 1.000000000000000021e-02 1.000000000000000021e-02 1.000000000000000021e-02 1.000000000000000021e-02 1.000000000000000021e-02 1.000000000000000021e-02 1.000000000000000021e-02 1.000000000000000021e-02 1.000000000000000021e-02 1.000000000000000021e-02 1.000000000000000021e-02 1.000000000000000021e-02 1.000000000000000021e-02 1.000000000000000021e-02 1.000000000000000021e-02 1.000000000000000021e-02 1.000000000000000021e-02 1.000000000000000021e-02 1.000000000000000021e-02 1.000000000000000021e-02 1.000000000000000021e-02 1.000000000000000021e-02 1.000000000000000021e-02 1.000000000000000021e-02 1.000000000000000021e-02 1.000000000000000021e-02 1.000000000000000021e-02 1.000000000000000021e-02 1.000000000000000021e-02 1.000000000000000021e-02 1.000000000000000021e-02 1.000000000000000021e-02 1.000000000000000021e-02 1.000000000000000021e-02 1.000000000000000021e-02 1.000000000000000021e-02 1.000000000000000021e-02 1.000000000000000021e-02 1.000000000000000021e-02 1.000000000000000021e-02 1.000000000000000021e-02 1.000000000000000021e-02 1.000000000000000021e-02 1.000000000000000021e-02 1.000000000000000021e-02 1.000000000000000021e-02 1.000000000000000021e-02 1.000000000000000021e-02 1.000000000000000021e-02 1.000000000000000021e-02 1.000000000000000021e-02 1.000000000000000021e-02 1.000000000000000021e-02 1.000000000000000021e-02 1.000000000000000021e-02 1.000000000000000021e-02 1.000000000000000021e-02 1.000000000000000021e-02 1.000000000000000021e-02 1.000000000000000021e-02 1.000000000000000021e-02 1.000000000000000021e-02 1.000000000000000021e-02 1.000000000000000021e-02 1.000000000000000021e-02 1.000000000000000021e-02 1.000000000000000021e-02 1.000000000000000021e-02 1.000000000000000021e-02 1.000000000000000021e-02 1.000000000000000021e-02 1.000000000000000021e-02 1.000000000000000021e-02 1.000000000000000021e-02 1.000000000000000021e-02 1.000000000000000021e-02 1.000000000000000021e-02 1.000000000000000021e-02 1.000000000000000021e-02 1.000000000000000021e-02 1.000000000000000021e-02 1.000000000000000021e-02 1.000000000000000021e-02 1.000000000000000021e-02 1.000000000000000021e-02 1.000000000000000021e-02 1.000000000000000021e-02 1.000000000000000021e-02 1.000000000000000021e-02 1.000000000000000021e-02 1.000000000000000021e-02 1.000000000000000021e-02 1.000000000000000021e-02 1.000000000000000021e-02 1.000000000000000021e-02 1.000000000000000021e-02 1.000000000000000021e-02 1.000000000000000021e-02 1.000000000000000021e-02 1.000000000000000021e-02 1.000000000000000021e-02 1.000000000000000021e-02 1.000000000000000021e-02 1.000000000000000021e-02 1.000000000000000021e-02 1.000000000000000021e-02 1.000000000000000021e-02 1.000000000000000021e-02 1.000000000000000021e-02 1.000000000000000021e-02 1.000000000000000021e-02 1.000000000000000021e-02 1.000000000000000021e-02 1.000000000000000021e-02 1.000000000000000021e-02 1.000000000000000021e-02 1.000000000000000021e-02 1.000000000000000021e-02 1.000000000000000021e-02 1.000000000000000021e-02 1.000000000000000021e-02 1.000000000000000021e-02 1.000000000000000021e-02 1.000000000000000021e-02 1.000000000000000021e-02 1.000000000000000021e-02 1.000000000000000021e-02 1.000000000000000021e-02 1.000000000000000021e-02 1.000000000000000021e-02 1.000000000000000021e-02 1.000000000000000021e-02 1.000000000000000021e-02 1.000000000000000021e-02 1.000000000000000021e-02 1.000000000000000021e-02 1.000000000000000021e-02 1.000000000000000021e-02 1.000000000000000021e-02 1.000000000000000021e-02 1.000000000000000021e-02 1.000000000000000021e-02 1.000000000000000021e-02 1.000000000000000021e-02 1.000000000000000021e-02 1.000000000000000021e-02 1.000000000000000021e-02 1.000000000000000021e-02 1.000000000000000021e-02 1.000000000000000021e-02 1.000000000000000021e-02 1.000000000000000021e-02 1.000000000000000021e-02 1.000000000000000021e-02 1.000000000000000021e-02 1.000000000000000021e-02 1.000000000000000021e-02 1.000000000000000021e-02 1.000000000000000021e-02 1.000000000000000021e-02 1.000000000000000021e-02 1.000000000000000021e-02 1.000000000000000021e-02 1.000000000000000021e-02 1.000000000000000021e-02 1.000000000000000021e-02 1.000000000000000021e-02 1.000000000000000021e-02 1.000000000000000021e-02 1.000000000000000021e-02 1.000000000000000021e-02 1.000000000000000021e-02 1.000000000000000021e-02 1.000000000000000021e-02 1.000000000000000021e-02 1.000000000000000021e-02 1.000000000000000021e-02 1.000000000000000021e-02 1.000000000000000021e-02 1.000000000000000021e-02 1.000000000000000021e-02 1.000000000000000021e-02 1.000000000000000021e-02 1.000000000000000021e-02 1.000000000000000021e-02 1.000000000000000021e-02 1.000000000000000021e-02 1.000000000000000021e-02 1.000000000000000021e-02 1.000000000000000021e-02 1.000000000000000021e-02 1.000000000000000021e-02 1.000000000000000021e-02 1.000000000000000021e-02 1.000000000000000021e-02 1.000000000000000021e-02 1.000000000000000021e-02 1.000000000000000021e-02 1.000000000000000021e-02 1.000000000000000021e-02 1.000000000000000021e-02 1.000000000000000021e-02 1.000000000000000021e-02 1.000000000000000021e-02 1.000000000000000021e-02 1.000000000000000021e-02 1.000000000000000021e-02 1.000000000000000021e-02 1.000000000000000021e-02 1.000000000000000021e-02 1.000000000000000021e-02 1.000000000000000021e-02 1.000000000000000021e-02 1.000000000000000021e-02 1.000000000000000021e-02 1.000000000000000021e-02 1.000000000000000021e-02 1.000000000000000021e-02 1.000000000000000021e-02 1.000000000000000021e-02 1.000000000000000021e-02 1.000000000000000021e-02 1.000000000000000021e-02 1.000000000000000021e-02 1.000000000000000021e-02 1.000000000000000021e-02 1.000000000000000021e-02 1.000000000000000021e-02 1.000000000000000021e-02 1.000000000000000021e-02 1.000000000000000021e-02 1.000000000000000021e-02 1.000000000000000021e-02 1.000000000000000021e-02 1.000000000000000021e-02 1.000000000000000021e-02 1.000000000000000021e-02 1.000000000000000021e-02 1.000000000000000021e-02 1.000000000000000021e-02 1.000000000000000021e-02 1.000000000000000021e-02 1.000000000000000021e-02 1.000000000000000021e-02 1.000000000000000021e-02 1.000000000000000021e-02 1.000000000000000021e-02 1.000000000000000021e-02 1.000000000000000021e-02 1.000000000000000021e-02 1.000000000000000021e-02 1.000000000000000021e-02 1.000000000000000021e-02 1.000000000000000021e-02 1.000000000000000021e-02 1.000000000000000021e-02 1.000000000000000021e-02 1.000000000000000021e-02 1.000000000000000021e-02 1.000000000000000021e-02 1.000000000000000021e-02 1.000000000000000021e-02 1.000000000000000021e-02 1.000000000000000021e-02 1.000000000000000021e-02 1.000000000000000021e-02 1.000000000000000021e-02 1.000000000000000021e-02 1.000000000000000021e-02 1.000000000000000021e-02 1.000000000000000021e-02 1.000000000000000021e-02 1.000000000000000021e-02 1.000000000000000021e-02 1.000000000000000021e-02 1.000000000000000021e-02 1.000000000000000021e-02 1.000000000000000021e-02 1.000000000000000021e-02 1.000000000000000021e-02 1.000000000000000021e-02 1.000000000000000021e-02 1.000000000000000021e-02 1.000000000000000021e-02 1.000000000000000021e-02 1.000000000000000021e-02 1.000000000000000021e-02 1.000000000000000021e-02 1.000000000000000021e-02 1.000000000000000021e-02 1.000000000000000021e-02 1.000000000000000021e-02 1.000000000000000021e-02 1.000000000000000021e-02 1.000000000000000021e-02 1.000000000000000021e-02 1.000000000000000021e-02 1.000000000000000021e-02 1.000000000000000021e-02 1.000000000000000021e-02 1.000000000000000021e-02 1.000000000000000021e-02 1.000000000000000021e-02 1.000000000000000021e-02 1.000000000000000021e-02 1.000000000000000021e-02 1.000000000000000021e-02 1.000000000000000021e-02 1.000000000000000021e-02 1.000000000000000021e-02 1.000000000000000021e-02 1.000000000000000021e-02 1.000000000000000021e-02 1.000000000000000021e-02 1.000000000000000021e-02
-1.071975680057730642e+02 1.630807228249543641e+02 3.776086363123480538e+01 -8.479171302394405529e+00 -8.445208916072753880e+01 -1.286657887502295239e+01 -1.998795132172784577e+02 6.846873522342399321e-01 -8.139820457258377928e+01 -1.362491445111098720e+01 -1.908316519120335997e+01 6.302033862884946380e+00 -1.713935520235600363e+00 1.612751738803522983e+02 8.134653052078870417e+01 -3.732254715287353974e+01 -5.080472922907527789e+01 7.614415025565989481e+01 3.156090367763357918e+01 -2.440339671541915578e+01 -7.577172097774118242e+01 -7.091832054597735180e+01 -1.325330835676628816e+01 2.781163596852879749e+01 -1.873507361398254147e+02 -9.487930659517128618e+01 -2.508488851741154591e+01 1.937918490160382134e+02 6.801956296770637778e+01 7.379399837541515694e+01 7.719372075879748252e+01 1.133288188815076536e+00 -7.627126352358479267e+01 1.994839517993880804e+02 -2.354329605370296861e+02 5.661732550852862289e+01 -1.154316934972281246e+02 -3.335249591714826778e+01 3.883545566854360587e+00 1.218146236868832801e+02 -1.181260461160184860e+02 -1.308810823324102657e+01 7.433324298986642020e+01 1.669054396566077401e+02 6.856277839590636347e+01 -6.571753194227753170e+01 3.956686139291811344e+01 -2.730562946558833204e+01 -6.350887865605266569e+01 1.505263939088542600e+02 -6.775011629045442874e+01 -5.007036453575906165e+01 -1.340150275971444671e+02 5.611098028080838240e+00 -4.855958280921202430e+01 3.718885717820624848e+01 -8.530720672503181845e+01 -4.811187133993468734e+01 -9.749527789722131388e+01 -1.494638032970443362e+02 1.865901578298566221e+01 4.366499460195689863e+01 -1.183868868662715386e+02 1.235171113836429591e+01 -7.619497645524999996e+01 4.723280475607710827e+01 1.602695271232698531e+02 -1.387253424056826248e+02 -4.161945458731954517e+01 6.949705367206740370e+00 2.829544585472031581e+00 4.076299360857191090e+01 8.074808584571923120e+01 7.514360257437776580e-01 -8.504695126385879433e+00 -6.730765569851094199e+01 7.522926817613996775e+01 -3.144818875451901974e+01 2.530083757512803544e+01 1.000276260477187265e+02 8.479347884132972979e+01 -4.113113211607565489e+01 5.552285464355583855e+01 1.417537712468699169e+02 1.117509151241339822e+02 -3.833997922244065659e+00 1.674768932282985929e+02 -1.072441833474689759e+02 3.999013639735347958e+00 -4.032640403320469602e+01 1.988557627028268655e+02 -2.040753480295111544e+01 2.794016641386629196e+00 -7.383122223533807471e+01 -6.879857684248110061e+00 -6.135281775114562919e+01 6.518536265679338726e+01 -9.092840161114500575e+01 6.601259518841762031e+01 -4.594102687100392757e+01 -4.782743916569145881e+01 -8.814645534663732462e+01 5.101105558729356915e+01 -5.256783967852198458e+01 -1.435842901809804744e+02 -7.638973626980649101e+01 -1.005775734450313621e+02 -1.511790887727385382e+02 1.306922836886962216e+02 -2.637799771389955339e+01 3.081713677590441591e+01 8.621782182794309790e+01 -1.000272262468070181e+02 5.474959487275891945e+01 -4.164809381433682489e+01 -6.675898599396961686e+01 -8.668429048320732022e+01 1.953711439334249746e+02 -5.455338301476638918e+01 -4.762584031671692486e+01 -4.534004340097479258e+01 7.730003710959302055e+01 -3.983449353711727525e+01 1.326452915859346149e+02 -4.802558444817795902e+01 5.302866432057599866e+01 4.368927490458405671e+00 -7.794789324719721435e+01 6.612460250007185891e+01 2.667464347962643387e+02 -8.854501226778042167e+01 4.564048393069118958e+01 -7.336338599271664407e+01 4.351310792169851283e+01 1.261844196391203070e+02 -4.947623259733151002e+01 1.406819216223847846e+01 -2.592527024560344984e+01 -9.807508862751269874e+01 -1.671058429031632286e+01 4.153855377703814966e+00 -7.507882360150911261e+00 -1.436612555348948739e+01 1.136882549883902271e+02 1.254570578053218952e+02 1.794165455422023854e+02 -2.928618926596569736e+02 3.675298721683206082e+01 -1.518672607314728396e+01 -5.998420957615713434e+01 1.735636093780535703e+02 7.326159716108465147e+01 -2.531755799710236232e+00 -1.115773292523047786e+02 -1.046122000482242065e+01 9.634975748056626799e+01 -1.293266376149505277e+02 -1.623046482104656150e+02 1.033768564101251108e+01 4.082986740856175345e+01 -5.877222735071369897e+01 4.048006202307053059e+01 -1.030995212301946822e+02 -1.456876857063566604e+02 2.029850343361368203e+01 4.678072733650257931e+01 4.653228615603048901e+00 -8.034796237875436020e+01 -9.014073347286179683e+01 -8.117250961208149818e+01 -8.435194831120453784e+01 1.221256121811951623e+01 5.474462621433426079e+01 1.122951264612451325e+02 7.654142666724921185e+01 8.630159366072884097e+01 1.036463431124025476e+02 -7.210293813256147644e+01 -7.955879818232671141e+01 6.801951298812400637e+01 6.615531230656210937e+01 5.714361621151044801e+01 -9.049289350181473068e+00 -8.789539805110604220e+01 5.212642560697175043e+01 -1.729405994339923041e+02 6.488612983404483714e+01 -4.298248469063717181e+01 -9.314370853834152797e+01 7.170652616541306656e+01 -1.659767869690425357e+01 -7.451398320761214222e+01 -5.551894979367746430e+01 -8.877497661773146476e+00 2.347542281305283325e+02 7.444932843833552738e+01 5.307197244736489949e+01 -1.005083043997337597e+02 1.435417781949620064e+02 1.044262106469127982e+00 -8.750034014440178964e+01 1.509494267979710003e+02 -1.493227688377766640e+02 1.529026334844123625e+01 -3.150326139583855323e+01 -2.153613607960056981e+02 -1.306348212730593161e+02 -8.545231214602958403e+01 -2.881808012177734923e+01 -1.167846581787011786e+02 5.646572023953107333e+01 6.369029225676305828e+01 -2.705476171181317113e+01 -9.778097341664891928e+01 1.108078140482098632e+02 1.157694956045248063e+02 4.527759989598318668e+01 1.716699922135732237e+01 2.562306687233169100e+02 4.278182970147598496e+01 -1.171801198687177248e+02 -4.420942556670199508e+01 -1.655200339732779184e+02 3.125437332952131797e+01 1.503037799530787311e+02 -1.454020996504426932e+02 1.292033412737577862e+02 -8.922468191439993745e+01 -1.858350822211165365e+01 -8.072857615407987852e-01 5.188548696521679204e+01 -1.134727274281970821e+01 -2.240525427780010048e+01 -1.844129413978457777e+01 -1.244281166122923565e+02 4.552500923751978235e+01 -2.976769924967038250e+01 -1.266844919086365273e+01 -1.052726082939872398e+01 2.218212455441112070e+02 1.710818875579698215e+02 2.283759870462901347e+02 1.293940282171167837e+02 -8.499740847294687285e+01 7.377660378883463466e+01 2.077216106418567065e+01 4.664277475999012523e+01 -3.893265179166409240e+01 2.507806933539036720e+02 -2.290413179657674192e+01 -1.342740430147664767e+02 -1.466749168643874590e+01 -4.502377314116879603e+01 -7.598305290087012054e+01 4.237905938537350892e+01 -1.150197489970838660e+01 1.786615065578792212e+02 9.066998343523503934e+01 4.014393989540963759e+01 9.622831416431171192e+01 9.297229736455875582e+01 -2.257709466408414301e+01 1.371581693802445727e+02 2.607461051138168528e+01 8.804005790617749483e+01 4.685865431141635185e+01 6.799477352652638196e+00 -1.137144794827996179e+02 -1.138504180835890622e+02 -8.847561583834388443e+01 -1.528900799186682846e+01 8.519024260780308566e+01 -3.008248727609321094e+01 9.716060959158726007e+01 4.306769661508886315e+01 -7.145786840070249468e+01 -2.941604536254881097e+01 -5.756292793756060888e+01 1.726555471143709752e+01 -4.547789403229293015e+01 -1.100951139934353478e+02 1.193880660114032963e+02 1.192423628579670805e+02 -7.761325142092161400e+01 5.290634692124393190e+00 -4.454698186101632729e+01 -3.198301785892912719e+01 -1.114399636771329583e+01 -3.070692554711610356e+01 4.373613872515417711e+01 -1.381437602594868110e+02 -5.194362001929516026e+01 -1.491778949639492282e+02 1.710385837870632315e+02 -1.981047144231812140e+01 5.784262614901414423e+01 1.168657882447370433e+01 1.417763625106482834e+02 4.378300691518189325e+01 3.503682300195873012e+01 1.515538646205560553e+02 -4.835142733532456560e+01 -9.583375218112124116e+01 2.672539929133182923e+01 -1.550559488431836144e+02 -5.240798598693376675e+01 1.004120477537251048e+02 -1.251061194162349608e+02 -3.566287233632611731e+01 8.953596629806605733e+01 -9.261305163429388188e+01 -8.772016648695883134e+01 -8.102765841540171721e+01 -6.253080241512458315e+01 2.442589714572333719e+02 1.943285482068664578e+02 1.009415142072384270e+02 -1.001804933747474138e+02 7.334752883346091323e+01 -6.491366431340702547e+01 -3.083112019769307821e+01 1.628878626741575175e+01 -3.164138054689174240e+01 -9.182381054729012249e+01 -2.769383778347617842e+00 1.443777522805104496e+01 1.065702434006144159e+02 -1.258279949112040299e+02 4.111476355523990378e+01 6.243291496531443840e+01 3.376803647824238652e+01 -8.868864623492162025e+01 -1.453613576559133378e+02 1.889642032721068858e+02 -1.741161333777921882e+01 2.463616991259596745e+01 1.531634610122671631e+02 2.606959897557092631e+01 2.710866743854663596e+01 -4.355754446135997426e+01 8.662494458843539746e+01 -1.332457094987101982e+02 -3.009263429192962391e+01 -5.999012845087147383e+00 -5.216042820803729541e+01 6.185267510216902132e+00 2.074849403439407425e+01 -3.495919232823975875e+01 1.334826513222810895e+01 2.087384026325616162e+02 -2.676537557925096422e+01 -2.735954213567103110e+01 -9.926600944811703187e+01 -1.592322281443288245e+00 -7.882246176230864876e+01 6.215518010044570829e+00 1.094288038680126931e+02 -5.077709784867344922e+01 5.894832718184900955e+00 -5.300030262840929396e+01 3.228981129079509405e+00 8.509367104459414577e+01 -1.130587457189179048e+02 -9.451608658001754293e+01 -1.001182740225956991e+02 6.961341708212337664e+01 8.446244533756818385e+01 -8.997900317664704062e+01 6.113825788460775357e+01 2.521838240741478998e+01 3.774899577307192544e+01 -1.730745577409814118e+01 8.914367470733992604e+01 7.774639810885345526e+01 -7.535978487732498365e+01 1.149284134024313708e+01 7.889031840460852152e+01 7.105387387972339752e+01 -1.943053628112821585e+01 2.434516462225526112e+01 -1.293510202283949582e+02 4.735747675125764999e+01 -3.198154089864681993e+01 -3.189377670736736903e+01 1.689343665100782914e+02 4.624746206347487032e+01 1.172409809649248160e+02 1.862913817884973753e+02 -1.342873841792394956e+02 1.454426620118603637e+02 -6.190906900586131911e+01 -1.318297345037072148e+02 8.028881001027075115e+01 -1.307451444784425689e+02 -2.801204032486865714e+01 5.500477804820856420e+01 7.838743887291051315e+00 -1.640598545762739775e+02 8.220965105654475735e+01 2.462418251141720660e+01 6.738429141665903899e+01 3.542262959945377787e+01 9.230410133638409675e+00 -6.546133966828297446e+01 1.128482427009686262e+02 5.315424233471458848e+01 -6.058396592239637357e+01 -9.875139539585210002e+01 3.794059673876049033e+01 2.511054615798135004e+01 8.038096962283096047e+01 1.792880442444176197e+02 -2.400329445001796813e+01 -1.074500494018197259e+02 -8.257553873026948565e+01 -5.004927191753430549e+01 -4.321819970079430107e+01 -1.430922169585404049e+02 -2.197702548994256233e+01 1.263369943739973991e+02 7.268145494445840882e+01 -1.193415064580102012e+02 -1.462441984233762469e+02 -6.638951906117142698e+01 -7.440896755642957316e+01 1.432052367357145499e+02 -1.662533786661374791e+02 8.443749863339505168e+01 -4.492410232811944404e+00 -4.197744034114237621e+01 1.295296534710780101e+01 8.887318948410876374e+01 4.831230971811733355e+01 1.347760809479405282e+02 -1.551950863632894198e+02 -7.895948474271611417e+01 2.475570754394694006e+01 4.088372661780370976e+01 2.009819423187812788e+02 1.418556137734974811e+02 6.392824130018020412e+01 7.031041052545307934e+01 -3.317853829908217733e+01 1.480102921634103268e+02 -1.749238122430868714e+02 -6.185603984839564617e+01 -5.234194025205038514e+01 -5.050163912230821239e+01 -1.006736434550143571e+02 -1.462672952945728966e+01 -6.691541911097310447e+01 6.937950360040463238e+01 -8.909263892206418234e+00 -5.659454275688300839e+01 -6.065141329763342526e+01 1.756822910777526374e+02 5.757832528994502752e+01 -1.340249654963456649e+01 2.036675741524791192e+02 -1.056513815163070262e+02 -3.443842940860704260e+01 6.528954383583690912e+01 -1.358439586875027361e-01 1.461080263163978898e+01 -1.220013496442585250e+02 1.717697459910371549e+02 -4.770603141786796186e+01 -2.621036771695163381e+01 -1.069184446466543648e+02 1.226514862081656361e+02 9.338925223071770176e+01 -7.552148186095433857e+01 -3.667780028800630987e+01 3.797074255974366963e+01 -1.474780485837025026e+02 -1.993102192332731615e-01 -7.277135776204744388e+01 7.479858326027200910e+00 -1.052779514859237509e+02 -1.544014292189670527e+02 -6.884360628711344532e+01 1.443077344280968930e+02 5.505086594433948477e+01 -8.728464158381696336e+01 8.679561345993968757e+01 3.329527443267912901e+01 8.601554119896094619e+01 -4.099842497698204369e+01 -8.181836074189857300e+01 1.664579186150398016e+02 4.050590668857837073e+01 2.816220423454121757e+01 -7.100529319352442315e+01 -4.116601785932047619e+01 9.247625991818456015e+00 -6.981456732145048250e+00 -1.681182411135742711e+02 -3.367591712946965998e+01 6.263149962885458422e+01 1.084952634188708771e+02 1.514349611969885530e+02 -1.292202862333416036e+01 8.712697382689738390e+01 1.533380852649053168e+02 6.162400698631505236e+01 1.435006002166459496e+02 1.561191714881698900e+01 1.275748793838367732e+02 -8.154234712109600025e+01 5.179366738967170392e+01 2.844796319400420970e+01 7.363894819283351012e+01 -1.030975991444239668e+02 1.922259429318757498e+02 -1.248556319723395660e+02 8.569067874352097647e+01 -1.041330613877979516e+02 4.477804857743014111e+01 1.339071673056957756e+01 8.791100201129084724e+01 -7.137537299016727843e+01 -7.317274535688886772e+01 -1.078326338702283316e+01 8.630589115436815462e+01 -2.866331013781343628e+01 -1.577933611674029457e+01 -1.900720844218774630e+01 4.583690928239673390e+00 9.496077340877872075e+01 -6.050033683143597329e+01 -2.613506373225486179e+00 -1.873296252911398767e+02 1.178381447051416728e+02 -1.205318954005508516e+02 -7.128806851445607151e+01 -2.269736803243273116e+01 -1.041842593387973182e+02 -5.128655340877583768e+01 -5.654359846071531592e+01 -1.900919252972251527e+01 1.314479693988095619e+02 5.216474037670893438e+01 9.688438739853425830e+01 -1.313180233215700810e+02 -1.336982100944607907e+02 -2.766280752432916756e+02 9.860766423340012921e+01 1.005546280481329546e+02 4.084397451242503507e+01 -4.099059983870019153e+01 -3.585304490397750499e+01 -1.772302833519565866e+02 1.409456429466917200e+02 -1.036320501386464485e+02 1.032063817176309897e+02 -1.535920346857088532e+02 -1.382016408653141326e+01 -5.343404993551883564e+01 -1.150822162623536400e+02 -4.449108566112425933e+01 -1.211400586214936581e+01 -8.943666640391219858e+01 -9.983481749198503508e+01 -1.193036138335423679e+01 6.869112279188036041e+01 -1.202496783604115791e+02 -1.509783572647161876e+01 -7.117195331371833333e+01 -1.268219007295976724e+02 6.352959363112636204e+00 9.177010514954444886e+01 1.597908120914427741e+02 -1.839187109920638363e+01 -4.444908962818769282e+01 -1.198878210975912850e+02 -1.580015437744212932e+02 1.002401113849436030e+02 -7.023681774246375653e+01 7.627404096158059588e+01 9.075032489229613475e+00 2.820796164503692083e+01 7.132104175145191505e+01 -8.188705131752956845e+01 7.988188625555261524e+01 1.113777634573484079e+02 1.521912629228596927e+02 -1.125724529665497613e+02 1.004555613609645235e+02 -4.618143448323472455e+01 -8.774596521855409037e+01 2.073919392387800258e+02 4.754807528201088473e+01 8.066579986419554871e+01 2.048695995648008861e+01 -6.116780380028914976e+01 -3.376048711707695560e+01 -2.033272262281669782e+02 1.020959936584330308e+02 7.874374703617930038e+01 -7.315454383942194738e+01 -7.065045073314200863e+01 1.403112478286132898e+02 9.767143311429450137e+01 4.940570976402387515e+01 7.350676149001688486e+01 -7.576957354938004485e+00 9.972352355721515949e+01 -1.001148614031142330e+02 1.800830560413725152e+02 -3.815772588089867412e+01 -1.179159744186186742e+02 -3.645081374522003870e+01 6.933152889326949264e+01 1.423817298955186459e+02 1.240765655286435631e+01 1.679878740036653824e+02 5.042918594723697367e+01 3.251099308554652367e+01 -1.075656301828598771e+02 4.327125756095511377e+01 -1.207829877139019601e+02 4.612028020918933890e+01 3.727195296411224490e+01 -1.192442937448724507e+02 -8.218560076877938059e+01 3.852626124989031098e+01 8.432029174912027969e+00 -2.242442703363641598e+01 4.048529371797146581e+01 -2.068522243081035583e+01 -6.097061436674363222e+01 -2.536961211534329408e+01 -2.165993762259213895e+01 -3.848036074543810514e+01 1.813090926595831220e+01 -7.783424736485510209e+01 1.149446863187730941e+02 -7.177140258397332673e+01 -4.051753442852279008e+00 6.343446375170923091e+01 3.740315922893617362e+00 1.543271636848875161e+01 1.543677637787872214e+01 -1.131723755901738429e+02 -4.256740052858603462e+00 6.285585792220351919e+01 -2.236389395435330982e+02 -8.203941813468762234e+01 -1.088927563288131921e+02 4.232656434918573751e+01 9.296996471127749828e+01 -8.867785024386915893e+01 -1.622229941296130846e+02 -1.789527719655152111e+02 1.927809294133786366e+01 -1.400102121107431969e+02 -6.114836823827738854e+00 1.425519892985902004e+02 -6.822771408501990820e+00 3.583307020479308846e+01 -9.538215046346857662e+01 7.699964650956103185e+01 -1.142461262675686413e+02 -1.487545546911963079e+01 -2.916001428832196041e+01 5.546402917791053255e+01 -8.501614056100558869e+00 1.017006782185127065e+02 -1.174758080310415096e+02 -4.818014578112244095e+01 8.336201706636610709e+01 6.360309729986104088e+01 -7.911998553127509126e+01 -5.230085132009870108e+01 -4.745546318427910393e+01 -2.780029570598862279e+02 1.858653046115140910e+02 7.302863081092881714e+01 -2.261843020078826427e+01 -2.847822217355750141e+01 3.984904227855930259e+01 -8.066666184452077459e+01 9.542231381430683257e+01 5.800440770223706011e+01 7.851725898019800809e+01 -8.059917973694568616e+01 -2.538173172033352998e+01 3.191404696246272721e+01 1.665140565101980030e+01 -4.105481428183770731e+01 1.513223989505859493e+02 -1.654824000492709146e+01 3.392059422664762280e+01 -2.201342813023862277e+02 -8.105405003903274519e+01 -7.002105104528797597e+01 2.204782335228590640e+01 1.045149529406223934e+02 -2.218708720494472573e+02 -1.790471969548853224e+02 2.121370929959734610e+02 -1.011132177744517691e+01 9.192111222665243986e+01 5.994351127994023898e+01 -5.296174946905929914e+01 -1.253793323279714969e+02 -9.107757497417401282e+01 -4.808957403867496083e+01 -3.580040378112647659e+01 -3.748208442214909297e+01 1.543383637980132406e+01 3.562407697011727947e+01 1.597146140146587356e+02 1.179729621060058946e+02 6.701944660207707294e+00 -4.224165090969385972e+00 -1.519233010463248661e+02 1.145186122160792053e+02 1.524569196946409306e+02 -9.903116150080363411e+01 7.055592524922246866e+01 1.612580785360029800e+00 5.258959930223284118e+01 1.199879013811611941e+02 6.789974684643094349e+01 -1.283103792934368528e+02 1.542092786168675289e+01 -2.813030919050122947e+01 1.066994936652481663e+01 -2.210228550749794962e+01 4.339666783035708164e+01 -2.495714824218313481e+02 1.734688682356695324e+02 6.947334867838385719e+00 1.526742976984293705e+02 -1.007086293713352276e+01 1.016920319886855424e+02 6.862949092941990159e+01 -4.021192178731877931e+01 2.871117528640752781e+01 -6.982141666390985790e+01 -8.533472685087210152e+01 -6.907477190101272413e+01 -3.074467603820032835e+01 4.331601640367564698e+01 1.056588242450123545e+02 2.730196404912099339e+01 5.965948034025421975e+01 -1.005953528747590440e+02 -1.316046588890957878e+02 -1.294050954770681194e+01 4.451143338178385989e+01 -4.360661584586431161e+01 9.082159459715973071e+01 5.333614959450130044e+01 -2.653523385526540679e+01 2.874948751909725075e+01 5.896071079427280637e+01 -6.922971540855714068e+01 -1.284241707969510458e+02 1.364382499995792273e+02 7.503650765721590510e+00 4.816795862096877556e+01 -1.434833087348606000e+02 -5.133238155239448020e+01 -4.137334318844342884e-01 -6.327947433095219765e+01 4.094242651050953086e+00 5.414505398689124149e+01 1.793354220357967392e+02 3.764560035705557084e+01 -1.054138154704570951e+01 6.953511821699218842e+01 -4.375281994246050488e+01 -1.048882559345109513e+02 -1.330121937018916753e+02 9.011695110060955471e+00 2.417975643148890441e+01 2.296029750047711104e+01 -5.479018456044179430e+01 1.163817203739986041e+02 -7.786975210138257353e+01 1.236517197245381681e+02 8.412343783363245109e+01 -6.268867798451453410e+01 -8.172466188054697511e+01 8.119931387634146347e+01 1.968150335680203256e+01 -5.066110594701835623e+01 -5.192541985035541785e+01 1.319370042233982474e+02 5.532506521483525574e+01 7.713087045946365095e+01 2.523481359689829517e+01 -4.057865524483298714e+01 1.036849857403022668e+02 -5.268860921382918150e+01 5.543966932190186325e-01 7.390863290825593879e+01 9.620073379299256544e+01 2.468593867174024865e+02 -1.692842721760081304e+02 1.554943088056735121e+02 -6.527140986254019595e+01 -1.472548284725052348e+01 -2.429853315980231088e+01 -2.004272333727401900e+01 -5.328676560869799772e+01 8.995740570451968665e+01 1.780292357251163651e+02 -1.149235934837826534e+02 2.993801079515221630e+01 -1.228546313922247606e+02 6.797381133578218737e+01 -4.306651393709826436e+01 -7.851816664658382194e+01 -5.225609557097648405e+01 3.994616185626823324e+01 1.877682806012937888e+01 -7.930024592938461581e+01 -1.368411605003905436e+02 2.014828696654201323e+01 1.530009569327065719e+02 1.387311399098286735e+01 1.772292553811967935e+02 7.241540718301247459e+00 1.308198431110383524e+02 -3.361428610313099341e+01 8.823415247869984057e+01 -6.946229979841042734e+01 -1.098105887092472699e+02 4.809234418010920109e+01 -5.643394388186497679e+01 -7.644123994908915165e+01 7.091962238306224720e+01 6.307696618675974420e+00 -9.180944888442900265e+01 -1.467025207379242033e+02 1.441537183344572668e+02 -8.691894709119854667e+01 -2.315288574878431316e+00 1.171186778591016093e+02 5.657794672521127666e+01 -9.582430667317521511e+01 1.040025165255451078e+01 2.752831648613988023e+02 5.202695180534885111e+01 -1.539986356519036690e+02 -4.661651645284354117e+01 -6.006375990036335821e+01 9.392506873410114920e+00 1.051143746452857073e+02 -1.011633502822063662e+02 2.111084534087051168e+01 1.275649607674579755e+02 1.835625635608576900e+01 -2.066267997553992473e+02 4.722797206273801152e+01 7.384240017266154155e+01 -1.330131355040240670e+01 3.207316300645367591e+01 1.733254561461475274e-01 2.207802672385856013e+01 2.713728716449626432e+01 1.133532271643648386e+02 9.595117225771434732e+01 1.530224139144788964e+01 1.458275749472358029e+02 -6.265138039158121330e+01 2.413887019323596803e+02 6.365862854306309515e+01 1.387262633334481166e+02 -2.149664970172597478e+01 8.817518182497120449e+01 -4.789082150981451491e+01 -1.432927823348225047e+02 2.560760569438155443e+01 9.298137024157159658e+01 -8.572312891863627726e+01 -1.025477899120325134e+02 -6.514712988424001594e+01 3.585530602663397559e+01 -1.117964810326065361e+02 7.313545042737293045e+01 2.745100382110300430e+01 -9.557563851258625220e+01 1.859508740854862481e+02 -1.151543265478089140e+01 -9.965859223974115366e+01 -1.313859390242925151e+01 -2.001101055656010175e+01 -1.373009847366953124e+02 -3.918497784962264063e+01 6.023683282522919313e+01 1.290631554129957124e+02 2.844442800719838971e+01 2.618460342879857450e+01 4.385814679881591616e+01 -3.497050881988045745e+01 -1.426041040035597973e+02 1.556848688419702498e+01 3.030853581097655791e+01 1.303696023160089794e+02 -9.679393407064274868e+00 -7.454889274272683508e+01 7.168574873014259197e+01 9.531105171065699100e-01 3.114621587779752332e+01 1.363383521395528533e+02 -1.738086399081950901e+02 -9.094740784252741150e+01 1.221658166156084633e+02 -2.053099850696328872e+02 -1.750193005602026517e+02 8.663455444915700809e+01 1.465534225533704671e+02 6.036103141996289878e+01 -4.263625237874095752e+00 1.481945183674929183e+02 -2.089299750801833682e+02 1.019772925060321427e+02 4.032872239486866306e+01 1.209320267403981717e+02 -1.794768845125482812e+02 1.013387406136219084e+02 -2.685841921670514409e+01 -1.272283751925927788e+02 -5.064349784148892475e+00 -8.792208451248779966e+01 -1.542893478640709404e+01 -4.143556904560840692e+00 -1.172412542064846832e+02 -1.173591559667587489e+02 -5.954024204487840422e+01 -1.226727149428760413e+02 1.912634471832821532e+02 -1.533404311293392936e+02 -4.775797471182169573e+01 1.642044379639002614e+02 3.229289637926660106e+01 -2.816926404703907565e+02 -1.209949534062152026e+02 3.378278384183155936e+01 5.202371751352565354e+01 8.122009989656184814e+00 -1.471163156892106656e+02 3.396061939897941784e+01 7.147307392657168634e+00 -7.073811149775292506e+01 1.929431148633750297e+02 1.927765993134987923e+02 4.140096872218149926e+00 -1.984749777508380930e+02 1.198879042539829385e+02 2.926068924048983888e+01 3.634082907253022743e+00 7.287747486938157238e+01 -1.974641062164694461e+02 -1.313441124655234660e+02 1.341958652724544550e+02 1.043557796343318245e+02 5.034165193929317184e+01 1.362510167577272284e+02 -1.696465467618057801e+02 -1.947983160038120687e+01 -1.240925055294348738e+02 4.156247687432782811e+01 -9.885415843796693025e+01 8.286588396670786949e+01 -3.228652818854129691e+01 1.178702500850766732e+01 1.688653758671133005e+02 2.717467617768357968e+01 -2.508294736648021228e+02 -1.202851944233106281e+02 -7.931084708178885023e+01 1.504657246114146005e+02 1.193455699667272718e+01 -5.129169135574992566e+01 2.884911147004048004e+01 5.945999881516963370e+01 -3.763083945032417432e+01 1.023126342842845560e+02 -9.587699024082100152e+01 4.683403369313902687e+01 1.065218879520397337e+02 -3.381207549041371152e+01 -9.338182898119407582e+01 -1.079811471925077342e+02 1.139721212539883908e+02 -4.728490893563022013e+01 1.870477563115658768e+02 5.443969218058792592e+01 1.055782005470237124e+02 1.755979987083354956e+02 8.141378549713190083e+00 -1.183060179846381601e+02 -1.577072170096159596e+02 -1.086414750585125262e+02 4.045858116048351860e+01
-1.262910685751442230e+01 -4.508661054729897089e+00 9.624158154716418778e+01 -2.129063623106763146e+02 1.444693734173449400e+02 5.900931453233189927e+01 1.414260102038209936e+02 -1.200668316688194892e+02 -2.568033017201815760e+00 -2.236115010117303825e+01 -2.040239011604730592e+02 3.039619808259389089e+01 -1.702490857584110984e+01 1.136913929333966280e+02 -1.162963491037728971e+02 5.736366401955499583e+01 1.164354772567002385e+02 -4.271755809179263963e+01 -4.607662469846402331e+01 -2.506679362290675073e+01 5.738216153081319959e+01 5.860699443458338465e+01 3.015189505325259844e+01 -2.160893908184361862e+02 -4.790982403060481687e+01 8.510175348952923002e+01 9.215989551779969702e+00 -9.652284894545656968e+00 -6.182052335558545053e+01 -1.441389290757397390e+01 6.815809226878880622e+01 -1.351297281392213847e+02 -5.758779056136171448e+01 8.331307274959829812e+00 1.929282438131392894e+02 1.970795595014107846e+02 -2.988500265108600829e+01 5.193417484168239895e+01 -2.382404140671880721e-01 -1.297664864170455985e+02 8.917938309283232456e+01 9.963143758095826286e+01 1.008341836447762034e+02 1.084590531831734062e+01 5.749841817585826220e+01 4.471174985740329788e+01 3.612425284395428804e+01 2.729317373374956190e+01 1.024730049864921710e+02 8.335322264668781145e+01 6.092947363466679889e+01 1.514664283724496556e+02 2.303025152440348222e+02 1.817514664194902139e+02 -5.495704035058724912e+01 4.578160966576769653e+01 -5.970898061250834843e+01 5.238938954035022988e+01 -1.786097954070193339e+02 5.249961636687972089e+01 -1.902471510287045362e+02 -1.567820753492710253e+02 1.203860692325683779e+01 -8.615488938360696736e+00 1.575180066319684897e+02 -1.932775658048554135e+02 6.994475842233181595e+01 2.136054434319062807e+02 -6.881515094782003850e+00 -1.810517657631727673e+02 3.300730405262845579e+01 1.832378320897302046e+02 -5.679640324717784239e+01 -2.477595499269191635e+02 -9.532567788636440298e+01 8.294116226480149123e+00 -2.138596303010915562e+02 2.984201269701109993e+01 -1.668159287440943785e+02 -1.724940001923554860e+02 -5.317449011712737672e+01 1.417155793443731113e+02 6.456686531434588971e+01 9.877012073964666072e+00 -8.247741715246378646e+01 -3.961836923657985920e+01 5.927545831968246404e+01 -2.159629522037432707e+02 5.032679436170185028e+01 -6.970536736737258821e+01 -7.271549147139114666e+01 -1.645069842707427767e+02 6.050124393784466292e+01 8.625084289442753516e+01 -1.510434981065227760e+02 1.608211157002052687e+02 -3.710805331816375485e+01 -1.575008208359206385e+01 8.159860227489330953e+01 1.455415001839585329e+02 2.025553835025500149e+01 1.410058642767927779e+02 -1.723942788001780002e+01 -8.444902817858454114e+01 -1.825172134108142785e+01 9.409622113791731124e+01 4.306061841356016373e+01 9.367170778317218094e+01 9.036773455703146851e+01 -7.957481973250989427e+01 -1.627017999351632227e+02 1.178255353314708174e+02 5.193801897490191521e+01 1.556160796832001481e+01 2.927440111585068649e+01 -6.504894660409821938e+01 9.196312912902985204e+01 8.607287193715298201e+01 -1.315895190294468620e+01 -6.825554118020956196e+01 2.939452949679900584e+01 6.023225604878682304e+00 -5.888743333293227522e+01 1.624671559312656086e+02 -3.140545141096165693e+01 1.165049544246009532e+02 -6.715504208704047073e+01 3.678505307816362802e+01 -3.455465663759085260e+01 8.576383738214991581e+01 2.249142003635441256e+01 1.107836020672017980e+02 -1.112257529150431452e+02 7.126923264839645356e+01 1.183542301032874633e+02 -4.283993634902213898e+01 7.346455702688487577e+00 -1.227143736076070368e+01 1.120259601640332221e+02 3.520627527193862072e+00 1.616957166362286671e+02 -1.356338054898590428e+02 1.118786061408044645e+02 -8.754462134217857283e+01 9.192311897233651052e+01 -1.315028889963984966e+02 2.831194086225886508e+01 2.375926516721750303e+01 1.701059322111710070e+00 3.485292662308827971e+01 4.417023452612078671e+01 -1.187489951958849765e+01 1.047611349117768498e+01 1.037734639135273653e+02 1.221561858635342901e+02 -8.326537428533289642e+01 -5.200655619508338390e+01 4.543817469894815275e+01 1.451353640987577354e+00 -1.315739481177531616e+02 -5.297401619837754083e+01 -3.400472589660629552e+01 4.696383195294684754e+01 -6.294060395852382328e+01 2.200939968616956577e+01 1.541263603183484179e+02 -7.635670432143305675e+01 7.771719060401309775e+01 8.080998053518700885e+01 1.085352479343409726e+01 1.187197036520226590e+02 6.048343088394612721e+01 1.616574112242105912e+02 -3.331930981306408768e+01 1.081983102454360193e+02 5.348335993423628310e+01 -1.545849686483238727e+01 1.965536685743263661e+02 -1.336485277821109605e+02 4.710158563910231067e+01 -1.807294989227851261e+02 -8.110683310356608899e+01 3.956585164688944900e+01 -6.961910727230119278e+01 -1.502128995151428512e+02 1.922264408460623599e+02 -8.273009441272705544e+01 -4.581367340908408181e+01 -4.463922069347455590e+01 1.174578172548631727e+02 1.879124956806628006e+02 6.247161568113678953e+01 1.411174366634352566e+02 2.117948497699198640e+02 -1.535807193449924446e+00 1.571755889961404193e+02 6.840735276622353922e+01 1.837510361103146010e+02 -1.214264539356652648e+02 -1.141428279513881705e+01 6.140407346254050935e+00 1.833085478426201007e+02 -8.767605694407703254e+01 -5.842759129434851673e+01 -5.108411031185159601e+01 -1.293709119625898438e+02 4.511524447558141304e+00 -9.740658405608756709e+01 1.488195077358878393e+02 2.271887756069872566e+01 1.156692166075585249e+01 6.978526048672924276e+01 -4.734744653114639767e+00 1.129409948389777441e+02 -1.533564183964797394e+02 4.385211870336786433e+01 -1.648313656400480056e+02 1.133366843236579911e+02 9.277335826547444242e+01 -6.493394801214782319e+01 4.518140266107056391e+01 2.298562978592588593e+02 -2.941951411127633875e+01 4.019824808851570452e+01 -3.154530508449357029e+01 5.593006222797019689e+01 6.201792929931753662e+01 -6.070088154702267147e+00 9.833367828174716863e+01 9.789996846024317279e+01 -1.870977770750067180e+02 -1.478813850400121623e+02 -1.156636268496654623e+02 -9.091133121921618709e+00 -1.445154361351437160e+02 1.115077489235107180e+02 1.064564601036501017e+02 5.694620729700345407e+01 1.077487398099236948e+01 1.521380887073789268e+02 8.101132592858103010e+01 6.514534265865520979e+01 -9.801361912057740255e+01 1.470849009698433747e+02 -3.484671277379760568e+00 1.055164778030086836e+02 8.512838639158609055e+00 3.544557526245543499e+01 -7.300118113841364220e+01 -8.751896936835090912e+01 6.905144859982095795e+01 -3.735628434896773431e+00 1.409787061746295649e+02 -1.210421962891004810e+01 -2.738894394627894080e+00 4.421615559005797991e+01 2.181011023367240398e+01 1.363376292303233015e+02 1.417772635478511667e+01 3.456581011084688271e+01 -1.490803266562455178e+02 6.342211637902610732e+01 1.287736089047738233e+02 -1.693042909149893305e+01 -2.196219430463241906e+02 8.127897429435182630e+01 1.310426729727568329e+02 1.961238506831082518e+01 1.817496486066841612e+02 -4.122654096568021842e+00 4.118303614094578080e+01 -4.190455526959937771e+01 -1.330549162913287944e+02 5.377310391807508694e+01 -4.555587052743532439e+01 -7.766658509161304380e+01 3.953344373017528568e+01 -1.771190470885095749e+02 6.865620502228523492e+01 1.575945837852621878e+02 -9.697256071251899812e+01 1.657351559922908564e+02 -9.346023905427357192e+01 -5.704924686970161751e+00 -1.010272142932920403e+01 7.338010933674365788e+01 -4.463170521312742522e+01 -1.031204648992763708e+02 -8.476856063814061315e+01 1.394544598035552667e+02 5.653176269492681172e+01 -1.260619610863270736e+02 4.218817121009858617e+00 4.148556867375062041e+01 7.889011537491302306e+01 -3.853289084845185641e+01 5.726532958057509148e+01 -6.588776527417118700e+01 -1.550267711551167622e+02 -3.306680812140834291e+01 1.346054241566993142e+02 -1.083005185224276801e+02 -6.090291063174128716e+00 -1.554622344504871023e+02 -4.639138993003393274e+00 -1.392493086112194192e+02 3.145278467548590484e+01 5.749108011316398148e+01 -4.802016978260841285e+01 -7.858159590293546160e+01 5.385072138228080618e+00 7.097687135838557992e+01 -6.463958132480186691e+01 1.284303039109975089e+02 1.006753910541940371e+02 -1.216964112622824814e+02 -1.005422445973884606e+02 1.287509460620667312e+02 6.794813099993379524e+01 1.431330090468542267e+02 9.524613291962810990e+01 7.727829131294538456e+01 -5.741188365640173430e+01 -7.783057828715151061e+01 -7.334985427328635410e+01 1.946506079864847152e+02 2.914052423421411220e+01 -2.371557759411743049e+01 -6.514903427881496611e+01 -4.747549181175222799e+01 -1.248174017569336200e+02 -1.564774748085989842e+01 -1.662969831513114514e+02 1.184833282501458456e+02 4.356151818813956567e+01 -1.091718033066552920e+02 -4.587403539365747207e+01 1.134554189602869059e+02 -9.181915930374043455e+01 9.744547191683030007e+01 -1.122662699517954508e+02 -1.116313888532758369e+01 -9.048851978312940503e+01 8.503723767819707291e+01 -4.023621274608781562e+01 9.708591398232753633e+00 2.781437743427515130e+01 -1.199595628190531187e+02 1.183762957635686064e+01 4.583009044269777377e+01 -2.115344886186019480e+01 -6.510884131183071588e+01 1.918964474285355095e+02 8.188795840724986874e+01 4.459766281100154828e+01 -2.974242972677433983e+01 7.594318620699296218e+01 1.587212371759053440e+02 -8.732206948871397856e+01 1.983680921596252631e+02 -1.260411017037696695e+02 -1.741278668368691456e+02 1.436998436434827511e+02 -2.215417443955186343e+02 -8.849589722658569579e-01 -2.319128570430498542e+02 -1.447407305512178652e+02 6.796178869089968089e+01 -1.378427180386923112e+02 5.525807860332554355e+01 1.041270472626117964e+02 -1.517845589382594937e+02 -2.847846335269920814e+01 7.141061842428823070e+01 1.267798247619854521e+02 -1.762329196161252582e+02 8.285352781517333653e+01 -9.276175429564702313e+01 -9.317866780740484245e+00 -1.310546083779265025e+01 -7.532332478269621845e+01 -8.547363516575337883e+01 1.717225578802561188e+02 -2.056780873130941245e+01 1.285105044559071041e+00 1.233376840796715612e+02 -8.216140672367436082e+01 -3.261162540319266157e+01 -1.020310281425971652e+02 -4.625312861070889170e+01 4.868310887750842753e+00 5.624588270610309593e+01 -1.280915589416762828e+02 2.250324939563833766e+02 -5.113648160614180682e+01 1.164054668230124463e+02 -4.636610182070947417e+01 1.137566692396486019e+02 1.322412305652928808e+02 4.554206064118380937e+01 1.160023046532487996e+02 -4.108870661166366745e+01 1.330618218708474956e+02 -1.488089192987435183e+02 -6.218874625858311589e+01 -5.988387633086939843e+01 2.433843451784458267e+01 -1.543529327471151191e+02 6.899178679341342502e+01 -2.933939133509814212e+01 -7.861022174941550134e+01 8.520526755384513251e+01 -1.437487516012761262e+02 -8.679643035945417751e+01 -5.010646507091914259e+01 3.145937038358934146e+01 1.234837616911368912e+02 1.111316280941681214e+02 6.571766414363987963e+01 -1.468901779241765126e+00 1.664202777634548625e+02 1.165670623427041761e+02 -8.990551541930157953e+01 -7.429488768356794992e+01 5.239023765141661926e+01 9.448275664096101423e+00 9.321013007340383183e+01 1.586552422406180938e+02 6.716771021330927738e+01 2.327407431392438752e+01 -9.725475082655573544e+01 1.633875516126739171e+02 -1.081135936013873646e+02 -1.571932020041347755e+02 6.251937712454686391e+01 1.060510824412460522e+02 1.869647507264341613e+01 -1.320336937851775474e+02 2.823994400224302481e+01 4.031027489506956840e+01 -3.606583758061757128e-01 1.244769044361184172e+02 9.298649654678487764e+01 1.626776039971906229e+01 7.445638286751746193e+01 -1.016053014610656078e+02 -6.068467199119948141e+00 9.345665186146452186e+01 2.821779388914664111e+01 -6.177923219503351504e+01 1.881764320249656350e+02 2.195544509426673017e+02 -1.191570572488925563e+02 -2.625478979842365135e+01 -1.995761126983268809e+02 -6.854431361163416625e+01 1.486414377223865415e+02 3.180621728247701618e+00 -6.740034330173004662e+01 1.554553765685857059e+02 -5.930457269659802932e+01 -1.524656276764825122e+02 1.296242111309379936e+02 -6.375214849441292841e+01 3.278040814158752170e+01 8.191554345588261299e+01 1.309408165150822256e+01 -2.260837845698184765e+02 4.017238347645497498e+01 -5.873622573150795390e+00 8.551792146312840259e+01 -2.236143221429014361e+01 9.589586186571901294e+01 1.613817043283512120e+01 -8.031491603432507986e+01 -1.943924397239452517e+01 -1.662580634939193658e+02 1.090684427353680945e+02 2.399057822040271049e+01 -3.947120427143238430e+01 -4.913113449579729775e+01 -5.970430696816978156e+01 3.902609949351075613e+01 1.524422753812457643e+02 1.258680764908870771e+02 4.081852312452478060e+01 -1.876945931835847432e+02 -3.680138067829767579e+01 4.157501651044118063e+01 1.112759437777223184e+02 8.268464605427170966e+01 1.463438331910776746e+01 -1.764338816226860729e+02 1.248719649092748227e+02 -2.122179947023732609e+02 -1.952132230076098267e+02 -1.725186447826733138e+00 -6.996518841491879925e+01 -2.289874668863736673e+01 8.262547188035026124e+01 5.303632317954605924e+01 -1.054484896921597255e+02 -1.436783107481867319e+02 1.382345534617913074e+01 1.173145896796831238e+02 1.958883807689876377e+01 -5.378701910051041324e+01 -4.901141594114233158e+01 -1.107690272239692852e+01 1.530619877166113838e+02 2.120635292302447539e+01 -1.677701669940258853e+02 1.239620259987607511e+02 -6.455678390990253490e+01 -4.029076073434528560e+00 1.487054557945170643e+02 -5.047109011727989270e+01 -1.892693561871666930e+01 -1.060804897413888028e+02 -5.790028230159800060e+00 -2.302222898572345144e+01 1.271373397820404278e+02 1.159276627491135230e+02 6.526023266096079567e+01 6.321739707257464147e+01 -1.806140128909312992e+01 1.305003548504495825e+02 -1.089073599018852292e+02 -4.103812504971982911e+00 -8.792241714725702195e+01 1.516637221649555443e+02 7.041795007323203492e+01 4.987790867744931944e+01 7.956055366978636023e+00 -5.148287026105668929e+01 3.319634839460162112e+01 6.482012989301447092e+00 3.553538931936226497e+00 2.326120057626217630e+01 5.771376578064550955e+01 1.643911596613109509e+02 -3.753724782562547801e+01 -5.017259510742039907e+01 6.449196730067124861e+01 1.116675813306041363e+02 -1.237635595999165972e+01 8.879394366468895328e+01 1.005299502353437049e+02 2.035304380562544111e+02 -8.354433598292348506e+01 -1.184191972384613649e+02 -2.765939849674202833e+01 6.002656576195759897e+01 -9.798003799696926919e+00 1.036858502871536558e+02 3.596418486040752782e+01 -1.569709390226716437e+02 4.348346228421006998e+01 -8.634148442003106538e+01 -1.305693308067793339e+02 1.298056817053877694e+02 -7.340106483516190394e+01 5.712137536765271761e+01 1.072389164157202543e+02 -9.548728369925353832e+01 2.268561489527609254e+01 -6.958429571768854771e+01 3.887064459479996970e+01 -1.105960399490018915e+02 5.942193261621784472e+01 5.274360293297911539e+01 3.713916271431120020e+00 8.100518902963544576e+01 -1.473740519109255729e+02 7.361559741380402500e+01 -2.828201452876817967e+01 -1.616955868117075568e+02 9.047140648591089018e+01 2.350898481738763834e+01 -1.876827746026670241e+02 2.252070425099462625e+02 -5.184423813596611419e-01 1.006431203512481289e+02 -1.154150686512761155e+02 -1.858578539456746341e+02 -8.931408343660066862e+01 2.403106551744755404e+00 1.367243373979273429e+02 3.779125950855798166e+00 -9.147855323865830712e+01 4.817229032659712118e+01 1.311573490479296993e+02 6.216648470993393261e+01 -4.949103499192545286e+01 -5.661081800028330946e+01 8.087323504037073008e+01 2.938677088704234208e+01 -1.872037766610314407e+02 -1.983893735843281192e+01 1.617601249948736779e+02 9.453776756613069665e+01 -5.488477553145374799e+01 -1.070022819789451489e+02 -4.083446251784349812e+01 -4.601725049393731126e+01 -1.095314480007225342e+02 -1.762963138792169104e+01 -4.369540559968471172e+01 -1.087421056270509609e+02 -1.262769311579324949e+02 -2.581154702372617038e+01 -1.202893228900737199e+02 -1.281115579913230818e+02 -3.668601118053902610e+01 -5.294235353803347977e+01 -1.062753774603520327e+02 1.845602899702331570e+02 1.042848726638717061e+01 -2.788402694737755638e+01 -1.684892211746998925e+01 7.799660755801504308e+01 1.551868175727239141e+01 2.483259212735859123e+01 -2.104401923642276628e+01 -4.590824677451142577e+01 2.072751632652816056e+01 -1.441451135163739536e+02 -1.578150340125575326e+02 -8.958843539889633689e+01 -1.892095472888321694e+02 -8.883440841027466206e+01 8.501401018598723169e+01 6.086582499204472185e+01 -2.582134194186769349e+01 6.024409319815207908e+01 -1.552501139853864913e+02 -4.055018784246723129e+01 -1.151554075255504870e+02 -6.617169153347549582e+01 2.092016199026130323e+02 -2.035243987317946903e+02 2.034989122592800754e+02 2.473928514626030406e+01 -5.595218186306705377e+01 9.139777238763612388e+01 1.230124173142928612e+02 -5.143915500911597860e+01 -2.020300859938238318e+02 -1.478138711310856195e+02 1.014111109331319227e+02 8.303764018222710774e+01 -1.343955721726512138e+02 3.165246525859926763e+01 -3.935619332567419804e+01 -7.673873782935744714e+01 -2.818479390891683778e+01 -5.433859985397941728e+01 -8.567244418000962014e+01 -3.377789104093035633e+01 4.497842667488025192e+00 -3.236748570170531281e+01 -3.592160051505858265e-01 -1.418304141366822790e+01 9.113911364161631923e+01 1.260367299711328428e+02 1.304348996933399363e+01 1.666300159300328332e+01 -6.261406217447717637e+01 -1.944004826441343994e+02 3.355650147148234197e+01 -9.092440139300299506e+01 2.562458872944705490e+01 -8.039951826960184178e+00 1.060686221814843622e+00 7.177839832647609342e+01 1.208544278680547137e+02 -6.989196537021155109e+01 3.767446895664019735e+01 -1.912737510187096177e+02 9.609015344120097168e+00 6.859123998814204093e+00 -1.215219045573345511e+02 -3.341792622274594748e+01 -4.395055497536109357e+01 4.720456782623923431e+00 -1.013665643944740538e+02 2.681795010493149789e+01 -9.680538536486000112e+01 5.556120842916453029e+01 6.729985378607811697e+01 3.658805703078058258e+01 -2.876610023582968623e+01 1.065653413015176056e+02 6.058069208054525490e+01 7.932012299396077992e+01 -6.643517399356480269e+01 2.006775618068604672e+01 1.267597764231698960e+02 -5.798790800120770683e+01 -6.859013924446500710e+00 3.170102428426000074e+01 -1.272927572750873253e+02 9.692755207768642833e+01 8.877066402457339223e+01 -1.002729118233232697e+02 -8.159725136208420793e+01 -5.503364140482187850e+01 -4.522877662993401771e+01 -1.587283659958999635e+02 -1.346278383118856539e+02 -1.312498372806621774e+02 1.046653483745123339e+02 5.924511019302291004e+01 1.580109224454481591e+02 7.139954921054491699e+00 -8.484281964292286204e+01 1.857919993975181328e+01 1.368930371396647949e+01 -6.294033309990814473e+01 7.330617276107305713e+01 1.168592003376474509e+02 9.851327101375652262e+00 1.418678753052381580e+02 2.225194718103833935e+01 1.097816349373714502e+02 1.490553510063210751e+01 -2.055822034939472758e+02 2.160456084401224928e+02 -4.840947003094763801e+01 -1.474427584248520304e+02 -6.645576150394549586e+01 -4.237462997552881916e+01 4.077850150621227954e+01 2.520286042696797324e+01 4.504712373160232630e+01 -7.288092492575542281e+01 1.203794290159584222e+02 -8.483128089710126574e+01 -6.895571600268791457e+00 1.399649744957074518e+02 1.076648591869684992e+02 5.700873299885233081e+01 -1.738290105620639281e+02 2.496468771127425157e+01 1.377596017054721926e+02 2.297864674859019729e+01 9.569400566550540077e+01 1.043093363503031554e+02 -2.072229996636268083e+02 7.534475181541189670e+01 -5.655021248573441994e+01 -2.201814806367568451e+02 8.657986438805797036e+01 2.400955445623110762e+01 -1.187498372183985964e+02 -5.690555246448556659e+01 1.346714065788023049e+02 1.430211968055107548e+02 -7.344413289363885156e+01 -1.235846126160551961e+02 -8.058332364894084776e+01 -1.600283973778809923e+02 1.887221455013468940e+01 3.656279062950774517e+01 -1.636759045200492579e+01 -1.190996039879293633e+01 -8.601779472487208977e+01 -8.475155967717519445e+01 -2.365339528670512692e+01 1.280397645656128418e+02 1.300625545405418393e+02 7.739575938248665921e+01 9.259095100117522747e+01 -7.478581482418175597e+01 -1.718873249631899114e+02 -1.254108496101603620e+01 -2.195679617539617112e+01 -6.746999159198156804e+01 1.407491794959885967e+00 6.935725375162228090e+01 -5.023393110028798247e+01 2.346488207613110433e+01 7.518538678312908985e+01 6.656152916618883353e+01 1.049615701928487255e+02 -1.416098269286715663e+02 3.762694614481375055e+01 7.909616986914505787e+01 8.996117041351922694e+01 5.605442173296330566e+01 -9.800765272202836798e+01 1.299885781938034199e+02 1.210342565083977036e+02 9.100131867994765855e+01 9.639793676979913073e+01 -7.994377033287537415e+01 -1.410473507895770062e+01 -1.229750496489910638e+01 7.313403865284907113e+01 6.168566922981877809e+01 5.318903548442077778e+01 9.261870014750394375e+01 1.106146654310172295e+02 1.176898179366437063e+02 -6.154514920485839014e+01 7.653426539036080101e+01 6.192505541628492693e+01 -1.117090581405199003e+02 1.249499168585107185e+02 -9.514889422521642715e+00 -2.652257746697416252e+01 1.893009777491342902e+02 8.407901891002946115e+01 1.179335622960604155e+02 -1.371786854496867818e+02 -1.499816168610167892e+02 -1.460748127969523864e+02 -1.161297153031568854e+02 -4.211010657860532547e+01 1.043877212965012404e+02 -1.604647861925205916e+02 3.092336750159136116e+01 1.373704130871488758e+02 -5.650298342263949536e+01 -8.695995641253291808e+01 -3.346133497075111052e+01 1.293855065201202592e+02 2.165091493902505988e+02 -6.356096088083722861e+01 1.889329999342221100e+01 -2.637621271688845326e+01 6.529622014157321530e+01 5.742439101292709580e+01 -2.033310221183532178e+02 -8.456682878708313922e+01 1.312437928421443019e+02 1.333551485554947647e+02 9.019169816353456781e+01 -4.756295839656287683e+01 -7.231987854340978572e+01 -4.330200536120086241e+01 -1.685521941811431930e+02 6.789809212011913075e+01 -2.448167517842572494e+01 1.588449095802639590e+02 -2.668520541309432303e+01 -3.004537199990804766e+02 1.383489185920370517e+02 4.795577664716267918e+01 -1.126530715682407759e+02 -2.119442302032608083e+01 3.371868718279518617e+01 -1.984200396763918945e+02 -1.091623404350087725e+02 -1.047721101307284783e+02 -5.387621038438931009e+01 5.998889288650502039e+01 -1.575435702728819649e+02 1.031020855940236771e+02 -5.191805868594795470e+01 2.800987653252700049e+00 -1.275232668051951919e+02 -9.910718613200495497e+01 1.680928586476921396e+02 8.285266755873823286e+01 -4.037548820116970205e+01 3.550954228461762341e+01 -2.681330569020738963e+01 4.142131953048197346e+01 -1.000492811295208355e+02 9.461840161478588129e+01 4.828580100812276754e+01 -1.137146806259040517e+02 1.116678760253288658e+02 -4.696880928638665864e+01 9.556085227207563548e+01 -4.725065619224735514e+01 8.453378102394246696e+01 -1.467505389381614975e+02 1.365635649443253499e+02 2.368986095921436430e+01 9.633126081399694840e+01 1.248170647680913135e+02 -1.403605841901446638e+02 -8.222132236792472781e+01 -1.011123018364675801e+02 6.400237270713869009e+01 -1.640325263684624417e+02 1.450937249588695863e+02 1.362772539483419791e+02 5.071513818357509251e+01 -8.128807818198191626e+01 5.464508978098025693e+01 -1.027918876424196242e+02 -1.045710233266317779e+01 3.348285214584416281e+01 -1.759663387286830698e+02 -7.811183424586582191e+01 -1.296258257578980277e+01 9.787188055107925777e+01 -4.810739725477557016e+01 1.041894790180588188e+02 -6.161750654068544009e+01 -2.019507509484386958e+02 -1.026120013657229748e+02 -3.259907713216127689e+01 -5.766498404165597691e+01 2.882814440070754003e+01 4.929785295713550397e+01 6.068833453923561549e+00 2.435577659014391116e+01 -1.125302423510473062e+02 5.167746012015005874e+01 3.129949654970780770e+01 -6.918871214771846212e+01 8.909190675889888666e+00 5.409807165247212168e+01 -9.151714175950478136e+01 -5.286677099694698256e+01 -2.320139868898101199e+01 9.362071567429954655e+01 -1.644119968759491712e+01 4.027429838202908563e+00 -2.189725189008637471e+02 -9.120210342984996998e+01 9.498286943009389915e+01 -8.558361574939640093e+01 3.008134920782115174e+01 2.981461724795036972e+01 3.638194554209019316e+01 6.344477104274319856e+01 -1.703908107773112306e+02 1.382639451344864199e+02 7.832582245176571689e+01 -7.245921913712391138e+00 -7.759815808366154499e+01 1.074212478823344696e+02 5.964096387102800634e+01 -1.931797143362153690e+02 -4.837857564619298500e+01 -7.849095806343514425e+01 -4.975028081844041594e+01 -5.945493203831747309e+01 -9.508979103816204770e+01 -5.797494548590190533e+01 1.839924690912026222e+02 -1.640100164210793139e+02 6.288482372802527465e+01 2.665585911580124900e+01 -7.223814665878619223e+01 9.992857112423363830e+00 -3.789329306009386755e+01 3.306652262042209411e+00 -9.238366724925653273e+01 -1.898345547518795513e+02 1.767520074870770941e+01 4.024879119193849419e+01 -1.229305141219694697e+01 -8.598356733306443900e+00 -3.822147494244398302e+01 -1.824679651360612525e+02 -2.943014517051927470e+01 -6.279916629967956254e+01 1.338510217048151141e+01 -1.500893922394619473e+01 8.706964584245459093e+01 -6.058176874833635139e+01 -9.964052380964395184e+01 -3.429485574705583417e+01 -8.620812356971063295e+00 4.365625922218088562e+01 -2.125174103930493175e+01 -7.096799263899129073e+01 -1.526715149221546675e+01 1.925893955741961605e+01 4.565773467940272212e+01 -1.095566874059920934e+02 -1.336304213128462095e+02 2.214377422300803460e+02 -2.098527972995340747e+02 -7.298429625921735919e+01 -4.452396875916571872e+01 1.344448118260737317e+02 6.083210657096684315e+01 2.201206522917797201e+02 2.353370415044792878e+02 -5.996753269679631870e+01 1.244531006670865452e+02 -5.389487804253213454e+01 -3.925507682179859614e+01 -9.673898355871615706e+01 -7.676702602662398078e+01 -6.686046345956343373e+01 -8.560996393846319563e+01 -2.344210875262344871e+02 -2.604272974336439006e+02 1.294996064583968405e+02 -2.552653836588114800e+01 5.122709169968327103e+01 1.259021110143695097e+02
