# 
#                 ----------------------------------------------------
#                 Data from a 3D direct N-body simulation. 
# 
#                 rows are i-particle; 
#                 coumns are :mass, tag, x ,y, z, vx, vy, vz, ax, ay, az
# 
#                 NTHU, Computational Physics Lab
# 
#                 ----------------------------------------------------
#                 Time = 3.699999999999965
1.000000000000000000e+00 2.000000000000000000e+00 3.000000000000000000e+00 4.000000000000000000e+00 5.000000000000000000e+00 6.000000000000000000e+00 7.000000000000000000e+00 8.000000000000000000e+00 9.000000000000000000e+00 1.000000000000000000e+01 1.100000000000000000e+01 1.200000000000000000e+01 1.300000000000000000e+01 1.400000000000000000e+01 1.500000000000000000e+01 1.600000000000000000e+01 1.700000000000000000e+01 1.800000000000000000e+01 1.900000000000000000e+01 2.000000000000000000e+01 2.100000000000000000e+01 2.200000000000000000e+01 2.300000000000000000e+01 2.400000000000000000e+01 2.500000000000000000e+01 2.600000000000000000e+01 2.700000000000000000e+01 2.800000000000000000e+01 2.900000000000000000e+01 3.000000000000000000e+01 3.100000000000000000e+01 3.200000000000000000e+01 3.300000000000000000e+01 3.400000000000000000e+01 3.500000000000000000e+01 3.600000000000000000e+01 3.700000000000000000e+01 3.800000000000000000e+01 3.900000000000000000e+01 4.000000000000000000e+01 4.100000000000000000e+01 4.200000000000000000e+01 4.300000000000000000e+01 4.400000000000000000e+01 4.500000000000000000e+01 4.600000000000000000e+01 4.700000000000000000e+01 4.800000000000000000e+01 4.900000000000000000e+01 5.000000000000000000e+01 5.100000000000000000e+01 5.200000000000000000e+01 5.300000000000000000e+01 5.400000000000000000e+01 5.500000000000000000e+01 5.600000000000000000e+01 5.700000000000000000e+01 5.800000000000000000e+01 5.900000000000000000e+01 6.000000000000000000e+01 6.100000000000000000e+01 6.200000000000000000e+01 6.300000000000000000e+01 6.400000000000000000e+01 6.500000000000000000e+01 6.600000000000000000e+01 6.700000000000000000e+01 6.800000000000000000e+01 6.900000000000000000e+01 7.000000000000000000e+01 7.100000000000000000e+01 7.200000000000000000e+01 7.300000000000000000e+01 7.400000000000000000e+01 7.500000000000000000e+01 7.600000000000000000e+01 7.700000000000000000e+01 7.800000000000000000e+01 7.900000000000000000e+01 8.000000000000000000e+01 8.100000000000000000e+01 8.200000000000000000e+01 8.300000000000000000e+01 8.400000000000000000e+01 8.500000000000000000e+01 8.600000000000000000e+01 8.700000000000000000e+01 8.800000000000000000e+01 8.900000000000000000e+01 9.000000000000000000e+01 9.100000000000000000e+01 9.200000000000000000e+01 9.300000000000000000e+01 9.400000000000000000e+01 9.500000000000000000e+01 9.600000000000000000e+01 9.700000000000000000e+01 9.800000000000000000e+01 9.900000000000000000e+01 1.000000000000000000e+02 1.010000000000000000e+02 1.020000000000000000e+02 1.030000000000000000e+02 1.040000000000000000e+02 1.050000000000000000e+02 1.060000000000000000e+02 1.070000000000000000e+02 1.080000000000000000e+02 1.090000000000000000e+02 1.100000000000000000e+02 1.110000000000000000e+02 1.120000000000000000e+02 1.130000000000000000e+02 1.140000000000000000e+02 1.150000000000000000e+02 1.160000000000000000e+02 1.170000000000000000e+02 1.180000000000000000e+02 1.190000000000000000e+02 1.200000000000000000e+02 1.210000000000000000e+02 1.220000000000000000e+02 1.230000000000000000e+02 1.240000000000000000e+02 1.250000000000000000e+02 1.260000000000000000e+02 1.270000000000000000e+02 1.280000000000000000e+02 1.290000000000000000e+02 1.300000000000000000e+02 1.310000000000000000e+02 1.320000000000000000e+02 1.330000000000000000e+02 1.340000000000000000e+02 1.350000000000000000e+02 1.360000000000000000e+02 1.370000000000000000e+02 1.380000000000000000e+02 1.390000000000000000e+02 1.400000000000000000e+02 1.410000000000000000e+02 1.420000000000000000e+02 1.430000000000000000e+02 1.440000000000000000e+02 1.450000000000000000e+02 1.460000000000000000e+02 1.470000000000000000e+02 1.480000000000000000e+02 1.490000000000000000e+02 1.500000000000000000e+02 1.510000000000000000e+02 1.520000000000000000e+02 1.530000000000000000e+02 1.540000000000000000e+02 1.550000000000000000e+02 1.560000000000000000e+02 1.570000000000000000e+02 1.580000000000000000e+02 1.590000000000000000e+02 1.600000000000000000e+02 1.610000000000000000e+02 1.620000000000000000e+02 1.630000000000000000e+02 1.640000000000000000e+02 1.650000000000000000e+02 1.660000000000000000e+02 1.670000000000000000e+02 1.680000000000000000e+02 1.690000000000000000e+02 1.700000000000000000e+02 1.710000000000000000e+02 1.720000000000000000e+02 1.730000000000000000e+02 1.740000000000000000e+02 1.750000000000000000e+02 1.760000000000000000e+02 1.770000000000000000e+02 1.780000000000000000e+02 1.790000000000000000e+02 1.800000000000000000e+02 1.810000000000000000e+02 1.820000000000000000e+02 1.830000000000000000e+02 1.840000000000000000e+02 1.850000000000000000e+02 1.860000000000000000e+02 1.870000000000000000e+02 1.880000000000000000e+02 1.890000000000000000e+02 1.900000000000000000e+02 1.910000000000000000e+02 1.920000000000000000e+02 1.930000000000000000e+02 1.940000000000000000e+02 1.950000000000000000e+02 1.960000000000000000e+02 1.970000000000000000e+02 1.980000000000000000e+02 1.990000000000000000e+02 2.000000000000000000e+02 2.010000000000000000e+02 2.020000000000000000e+02 2.030000000000000000e+02 2.040000000000000000e+02 2.050000000000000000e+02 2.060000000000000000e+02 2.070000000000000000e+02 2.080000000000000000e+02 2.090000000000000000e+02 2.100000000000000000e+02 2.110000000000000000e+02 2.120000000000000000e+02 2.130000000000000000e+02 2.140000000000000000e+02 2.150000000000000000e+02 2.160000000000000000e+02 2.170000000000000000e+02 2.180000000000000000e+02 2.190000000000000000e+02 2.200000000000000000e+02 2.210000000000000000e+02 2.220000000000000000e+02 2.230000000000000000e+02 2.240000000000000000e+02 2.250000000000000000e+02 2.260000000000000000e+02 2.270000000000000000e+02 2.280000000000000000e+02 2.290000000000000000e+02 2.300000000000000000e+02 2.310000000000000000e+02 2.320000000000000000e+02 2.330000000000000000e+02 2.340000000000000000e+02 2.350000000000000000e+02 2.360000000000000000e+02 2.370000000000000000e+02 2.380000000000000000e+02 2.390000000000000000e+02 2.400000000000000000e+02 2.410000000000000000e+02 2.420000000000000000e+02 2.430000000000000000e+02 2.440000000000000000e+02 2.450000000000000000e+02 2.460000000000000000e+02 2.470000000000000000e+02 2.480000000000000000e+02 2.490000000000000000e+02 2.500000000000000000e+02 2.510000000000000000e+02 2.520000000000000000e+02 2.530000000000000000e+02 2.540000000000000000e+02 2.550000000000000000e+02 2.560000000000000000e+02 2.570000000000000000e+02 2.580000000000000000e+02 2.590000000000000000e+02 2.600000000000000000e+02 2.610000000000000000e+02 2.620000000000000000e+02 2.630000000000000000e+02 2.640000000000000000e+02 2.650000000000000000e+02 2.660000000000000000e+02 2.670000000000000000e+02 2.680000000000000000e+02 2.690000000000000000e+02 2.700000000000000000e+02 2.710000000000000000e+02 2.720000000000000000e+02 2.730000000000000000e+02 2.740000000000000000e+02 2.750000000000000000e+02 2.760000000000000000e+02 2.770000000000000000e+02 2.780000000000000000e+02 2.790000000000000000e+02 2.800000000000000000e+02 2.810000000000000000e+02 2.820000000000000000e+02 2.830000000000000000e+02 2.840000000000000000e+02 2.850000000000000000e+02 2.860000000000000000e+02 2.870000000000000000e+02 2.880000000000000000e+02 2.890000000000000000e+02 2.900000000000000000e+02 2.910000000000000000e+02 2.920000000000000000e+02 2.930000000000000000e+02 2.940000000000000000e+02 2.950000000000000000e+02 2.960000000000000000e+02 2.970000000000000000e+02 2.980000000000000000e+02 2.990000000000000000e+02 3.000000000000000000e+02 3.010000000000000000e+02 3.020000000000000000e+02 3.030000000000000000e+02 3.040000000000000000e+02 3.050000000000000000e+02 3.060000000000000000e+02 3.070000000000000000e+02 3.080000000000000000e+02 3.090000000000000000e+02 3.100000000000000000e+02 3.110000000000000000e+02 3.120000000000000000e+02 3.130000000000000000e+02 3.140000000000000000e+02 3.150000000000000000e+02 3.160000000000000000e+02 3.170000000000000000e+02 3.180000000000000000e+02 3.190000000000000000e+02 3.200000000000000000e+02 3.210000000000000000e+02 3.220000000000000000e+02 3.230000000000000000e+02 3.240000000000000000e+02 3.250000000000000000e+02 3.260000000000000000e+02 3.270000000000000000e+02 3.280000000000000000e+02 3.290000000000000000e+02 3.300000000000000000e+02 3.310000000000000000e+02 3.320000000000000000e+02 3.330000000000000000e+02 3.340000000000000000e+02 3.350000000000000000e+02 3.360000000000000000e+02 3.370000000000000000e+02 3.380000000000000000e+02 3.390000000000000000e+02 3.400000000000000000e+02 3.410000000000000000e+02 3.420000000000000000e+02 3.430000000000000000e+02 3.440000000000000000e+02 3.450000000000000000e+02 3.460000000000000000e+02 3.470000000000000000e+02 3.480000000000000000e+02 3.490000000000000000e+02 3.500000000000000000e+02 3.510000000000000000e+02 3.520000000000000000e+02 3.530000000000000000e+02 3.540000000000000000e+02 3.550000000000000000e+02 3.560000000000000000e+02 3.570000000000000000e+02 3.580000000000000000e+02 3.590000000000000000e+02 3.600000000000000000e+02 3.610000000000000000e+02 3.620000000000000000e+02 3.630000000000000000e+02 3.640000000000000000e+02 3.650000000000000000e+02 3.660000000000000000e+02 3.670000000000000000e+02 3.680000000000000000e+02 3.690000000000000000e+02 3.700000000000000000e+02 3.710000000000000000e+02 3.720000000000000000e+02 3.730000000000000000e+02 3.740000000000000000e+02 3.750000000000000000e+02 3.760000000000000000e+02 3.770000000000000000e+02 3.780000000000000000e+02 3.790000000000000000e+02 3.800000000000000000e+02 3.810000000000000000e+02 3.820000000000000000e+02 3.830000000000000000e+02 3.840000000000000000e+02 3.850000000000000000e+02 3.860000000000000000e+02 3.870000000000000000e+02 3.880000000000000000e+02 3.890000000000000000e+02 3.900000000000000000e+02 3.910000000000000000e+02 3.920000000000000000e+02 3.930000000000000000e+02 3.940000000000000000e+02 3.950000000000000000e+02 3.960000000000000000e+02 3.970000000000000000e+02 3.980000000000000000e+02 3.990000000000000000e+02 4.000000000000000000e+02 4.010000000000000000e+02 4.020000000000000000e+02 4.030000000000000000e+02 4.040000000000000000e+02 4.050000000000000000e+02 4.060000000000000000e+02 4.070000000000000000e+02 4.080000000000000000e+02 4.090000000000000000e+02 4.100000000000000000e+02 4.110000000000000000e+02 4.120000000000000000e+02 4.130000000000000000e+02 4.140000000000000000e+02 4.150000000000000000e+02 4.160000000000000000e+02 4.170000000000000000e+02 4.180000000000000000e+02 4.190000000000000000e+02 4.200000000000000000e+02 4.210000000000000000e+02 4.220000000000000000e+02 4.230000000000000000e+02 4.240000000000000000e+02 4.250000000000000000e+02 4.260000000000000000e+02 4.270000000000000000e+02 4.280000000000000000e+02 4.290000000000000000e+02 4.300000000000000000e+02 4.310000000000000000e+02 4.320000000000000000e+02 4.330000000000000000e+02 4.340000000000000000e+02 4.350000000000000000e+02 4.360000000000000000e+02 4.370000000000000000e+02 4.380000000000000000e+02 4.390000000000000000e+02 4.400000000000000000e+02 4.410000000000000000e+02 4.420000000000000000e+02 4.430000000000000000e+02 4.440000000000000000e+02 4.450000000000000000e+02 4.460000000000000000e+02 4.470000000000000000e+02 4.480000000000000000e+02 4.490000000000000000e+02 4.500000000000000000e+02 4.510000000000000000e+02 4.520000000000000000e+02 4.530000000000000000e+02 4.540000000000000000e+02 4.550000000000000000e+02 4.560000000000000000e+02 4.570000000000000000e+02 4.580000000000000000e+02 4.590000000000000000e+02 4.600000000000000000e+02 4.610000000000000000e+02 4.620000000000000000e+02 4.630000000000000000e+02 4.640000000000000000e+02 4.650000000000000000e+02 4.660000000000000000e+02 4.670000000000000000e+02 4.680000000000000000e+02 4.690000000000000000e+02 4.700000000000000000e+02 4.710000000000000000e+02 4.720000000000000000e+02 4.730000000000000000e+02 4.740000000000000000e+02 4.750000000000000000e+02 4.760000000000000000e+02 4.770000000000000000e+02 4.780000000000000000e+02 4.790000000000000000e+02 4.800000000000000000e+02 4.810000000000000000e+02 4.820000000000000000e+02 4.830000000000000000e+02 4.840000000000000000e+02 4.850000000000000000e+02 4.860000000000000000e+02 4.870000000000000000e+02 4.880000000000000000e+02 4.890000000000000000e+02 4.900000000000000000e+02 4.910000000000000000e+02 4.920000000000000000e+02 4.930000000000000000e+02 4.940000000000000000e+02 4.950000000000000000e+02 4.960000000000000000e+02 4.970000000000000000e+02 4.980000000000000000e+02 4.990000000000000000e+02 5.000000000000000000e+02 5.010000000000000000e+02 5.020000000000000000e+02 5.030000000000000000e+02 5.040000000000000000e+02 5.050000000000000000e+02 5.060000000000000000e+02 5.070000000000000000e+02 5.080000000000000000e+02 5.090000000000000000e+02 5.100000000000000000e+02 5.110000000000000000e+02 5.120000000000000000e+02 5.130000000000000000e+02 5.140000000000000000e+02 5.150000000000000000e+02 5.160000000000000000e+02 5.170000000000000000e+02 5.180000000000000000e+02 5.190000000000000000e+02 5.200000000000000000e+02 5.210000000000000000e+02 5.220000000000000000e+02 5.230000000000000000e+02 5.240000000000000000e+02 5.250000000000000000e+02 5.260000000000000000e+02 5.270000000000000000e+02 5.280000000000000000e+02 5.290000000000000000e+02 5.300000000000000000e+02 5.310000000000000000e+02 5.320000000000000000e+02 5.330000000000000000e+02 5.340000000000000000e+02 5.350000000000000000e+02 5.360000000000000000e+02 5.370000000000000000e+02 5.380000000000000000e+02 5.390000000000000000e+02 5.400000000000000000e+02 5.410000000000000000e+02 5.420000000000000000e+02 5.430000000000000000e+02 5.440000000000000000e+02 5.450000000000000000e+02 5.460000000000000000e+02 5.470000000000000000e+02 5.480000000000000000e+02 5.490000000000000000e+02 5.500000000000000000e+02 5.510000000000000000e+02 5.520000000000000000e+02 5.530000000000000000e+02 5.540000000000000000e+02 5.550000000000000000e+02 5.560000000000000000e+02 5.570000000000000000e+02 5.580000000000000000e+02 5.590000000000000000e+02 5.600000000000000000e+02 5.610000000000000000e+02 5.620000000000000000e+02 5.630000000000000000e+02 5.640000000000000000e+02 5.650000000000000000e+02 5.660000000000000000e+02 5.670000000000000000e+02 5.680000000000000000e+02 5.690000000000000000e+02 5.700000000000000000e+02 5.710000000000000000e+02 5.720000000000000000e+02 5.730000000000000000e+02 5.740000000000000000e+02 5.750000000000000000e+02 5.760000000000000000e+02 5.770000000000000000e+02 5.780000000000000000e+02 5.790000000000000000e+02 5.800000000000000000e+02 5.810000000000000000e+02 5.820000000000000000e+02 5.830000000000000000e+02 5.840000000000000000e+02 5.850000000000000000e+02 5.860000000000000000e+02 5.870000000000000000e+02 5.880000000000000000e+02 5.890000000000000000e+02 5.900000000000000000e+02 5.910000000000000000e+02 5.920000000000000000e+02 5.930000000000000000e+02 5.940000000000000000e+02 5.950000000000000000e+02 5.960000000000000000e+02 5.970000000000000000e+02 5.980000000000000000e+02 5.990000000000000000e+02 6.000000000000000000e+02 6.010000000000000000e+02 6.020000000000000000e+02 6.030000000000000000e+02 6.040000000000000000e+02 6.050000000000000000e+02 6.060000000000000000e+02 6.070000000000000000e+02 6.080000000000000000e+02 6.090000000000000000e+02 6.100000000000000000e+02 6.110000000000000000e+02 6.120000000000000000e+02 6.130000000000000000e+02 6.140000000000000000e+02 6.150000000000000000e+02 6.160000000000000000e+02 6.170000000000000000e+02 6.180000000000000000e+02 6.190000000000000000e+02 6.200000000000000000e+02 6.210000000000000000e+02 6.220000000000000000e+02 6.230000000000000000e+02 6.240000000000000000e+02 6.250000000000000000e+02 6.260000000000000000e+02 6.270000000000000000e+02 6.280000000000000000e+02 6.290000000000000000e+02 6.300000000000000000e+02 6.310000000000000000e+02 6.320000000000000000e+02 6.330000000000000000e+02 6.340000000000000000e+02 6.350000000000000000e+02 6.360000000000000000e+02 6.370000000000000000e+02 6.380000000000000000e+02 6.390000000000000000e+02 6.400000000000000000e+02 6.410000000000000000e+02 6.420000000000000000e+02 6.430000000000000000e+02 6.440000000000000000e+02 6.450000000000000000e+02 6.460000000000000000e+02 6.470000000000000000e+02 6.480000000000000000e+02 6.490000000000000000e+02 6.500000000000000000e+02 6.510000000000000000e+02 6.520000000000000000e+02 6.530000000000000000e+02 6.540000000000000000e+02 6.550000000000000000e+02 6.560000000000000000e+02 6.570000000000000000e+02 6.580000000000000000e+02 6.590000000000000000e+02 6.600000000000000000e+02 6.610000000000000000e+02 6.620000000000000000e+02 6.630000000000000000e+02 6.640000000000000000e+02 6.650000000000000000e+02 6.660000000000000000e+02 6.670000000000000000e+02 6.680000000000000000e+02 6.690000000000000000e+02 6.700000000000000000e+02 6.710000000000000000e+02 6.720000000000000000e+02 6.730000000000000000e+02 6.740000000000000000e+02 6.750000000000000000e+02 6.760000000000000000e+02 6.770000000000000000e+02 6.780000000000000000e+02 6.790000000000000000e+02 6.800000000000000000e+02 6.810000000000000000e+02 6.820000000000000000e+02 6.830000000000000000e+02 6.840000000000000000e+02 6.850000000000000000e+02 6.860000000000000000e+02 6.870000000000000000e+02 6.880000000000000000e+02 6.890000000000000000e+02 6.900000000000000000e+02 6.910000000000000000e+02 6.920000000000000000e+02 6.930000000000000000e+02 6.940000000000000000e+02 6.950000000000000000e+02 6.960000000000000000e+02 6.970000000000000000e+02 6.980000000000000000e+02 6.990000000000000000e+02 7.000000000000000000e+02 7.010000000000000000e+02 7.020000000000000000e+02 7.030000000000000000e+02 7.040000000000000000e+02 7.050000000000000000e+02 7.060000000000000000e+02 7.070000000000000000e+02 7.080000000000000000e+02 7.090000000000000000e+02 7.100000000000000000e+02 7.110000000000000000e+02 7.120000000000000000e+02 7.130000000000000000e+02 7.140000000000000000e+02 7.150000000000000000e+02 7.160000000000000000e+02 7.170000000000000000e+02 7.180000000000000000e+02 7.190000000000000000e+02 7.200000000000000000e+02 7.210000000000000000e+02 7.220000000000000000e+02 7.230000000000000000e+02 7.240000000000000000e+02 7.250000000000000000e+02 7.260000000000000000e+02 7.270000000000000000e+02 7.280000000000000000e+02 7.290000000000000000e+02 7.300000000000000000e+02 7.310000000000000000e+02 7.320000000000000000e+02 7.330000000000000000e+02 7.340000000000000000e+02 7.350000000000000000e+02 7.360000000000000000e+02 7.370000000000000000e+02 7.380000000000000000e+02 7.390000000000000000e+02 7.400000000000000000e+02 7.410000000000000000e+02 7.420000000000000000e+02 7.430000000000000000e+02 7.440000000000000000e+02 7.450000000000000000e+02 7.460000000000000000e+02 7.470000000000000000e+02 7.480000000000000000e+02 7.490000000000000000e+02 7.500000000000000000e+02 7.510000000000000000e+02 7.520000000000000000e+02 7.530000000000000000e+02 7.540000000000000000e+02 7.550000000000000000e+02 7.560000000000000000e+02 7.570000000000000000e+02 7.580000000000000000e+02 7.590000000000000000e+02 7.600000000000000000e+02 7.610000000000000000e+02 7.620000000000000000e+02 7.630000000000000000e+02 7.640000000000000000e+02 7.650000000000000000e+02 7.660000000000000000e+02 7.670000000000000000e+02 7.680000000000000000e+02 7.690000000000000000e+02 7.700000000000000000e+02 7.710000000000000000e+02 7.720000000000000000e+02 7.730000000000000000e+02 7.740000000000000000e+02 7.750000000000000000e+02 7.760000000000000000e+02 7.770000000000000000e+02 7.780000000000000000e+02 7.790000000000000000e+02 7.800000000000000000e+02 7.810000000000000000e+02 7.820000000000000000e+02 7.830000000000000000e+02 7.840000000000000000e+02 7.850000000000000000e+02 7.860000000000000000e+02 7.870000000000000000e+02 7.880000000000000000e+02 7.890000000000000000e+02 7.900000000000000000e+02 7.910000000000000000e+02 7.920000000000000000e+02 7.930000000000000000e+02 7.940000000000000000e+02 7.950000000000000000e+02 7.960000000000000000e+02 7.970000000000000000e+02 7.980000000000000000e+02 7.990000000000000000e+02 8.000000000000000000e+02 8.010000000000000000e+02 8.020000000000000000e+02 8.030000000000000000e+02 8.040000000000000000e+02 8.050000000000000000e+02 8.060000000000000000e+02 8.070000000000000000e+02 8.080000000000000000e+02 8.090000000000000000e+02 8.100000000000000000e+02 8.110000000000000000e+02 8.120000000000000000e+02 8.130000000000000000e+02 8.140000000000000000e+02 8.150000000000000000e+02 8.160000000000000000e+02 8.170000000000000000e+02 8.180000000000000000e+02 8.190000000000000000e+02 8.200000000000000000e+02 8.210000000000000000e+02 8.220000000000000000e+02 8.230000000000000000e+02 8.240000000000000000e+02 8.250000000000000000e+02 8.260000000000000000e+02 8.270000000000000000e+02 8.280000000000000000e+02 8.290000000000000000e+02 8.300000000000000000e+02 8.310000000000000000e+02 8.320000000000000000e+02 8.330000000000000000e+02 8.340000000000000000e+02 8.350000000000000000e+02 8.360000000000000000e+02 8.370000000000000000e+02 8.380000000000000000e+02 8.390000000000000000e+02 8.400000000000000000e+02 8.410000000000000000e+02 8.420000000000000000e+02 8.430000000000000000e+02 8.440000000000000000e+02 8.450000000000000000e+02 8.460000000000000000e+02 8.470000000000000000e+02 8.480000000000000000e+02 8.490000000000000000e+02 8.500000000000000000e+02 8.510000000000000000e+02 8.520000000000000000e+02 8.530000000000000000e+02 8.540000000000000000e+02 8.550000000000000000e+02 8.560000000000000000e+02 8.570000000000000000e+02 8.580000000000000000e+02 8.590000000000000000e+02 8.600000000000000000e+02 8.610000000000000000e+02 8.620000000000000000e+02 8.630000000000000000e+02 8.640000000000000000e+02 8.650000000000000000e+02 8.660000000000000000e+02 8.670000000000000000e+02 8.680000000000000000e+02 8.690000000000000000e+02 8.700000000000000000e+02 8.710000000000000000e+02 8.720000000000000000e+02 8.730000000000000000e+02 8.740000000000000000e+02 8.750000000000000000e+02 8.760000000000000000e+02 8.770000000000000000e+02 8.780000000000000000e+02 8.790000000000000000e+02 8.800000000000000000e+02 8.810000000000000000e+02 8.820000000000000000e+02 8.830000000000000000e+02 8.840000000000000000e+02 8.850000000000000000e+02 8.860000000000000000e+02 8.870000000000000000e+02 8.880000000000000000e+02 8.890000000000000000e+02 8.900000000000000000e+02 8.910000000000000000e+02 8.920000000000000000e+02 8.930000000000000000e+02 8.940000000000000000e+02 8.950000000000000000e+02 8.960000000000000000e+02 8.970000000000000000e+02 8.980000000000000000e+02 8.990000000000000000e+02 9.000000000000000000e+02 9.010000000000000000e+02 9.020000000000000000e+02 9.030000000000000000e+02 9.040000000000000000e+02 9.050000000000000000e+02 9.060000000000000000e+02 9.070000000000000000e+02 9.080000000000000000e+02 9.090000000000000000e+02 9.100000000000000000e+02 9.110000000000000000e+02 9.120000000000000000e+02 9.130000000000000000e+02 9.140000000000000000e+02 9.150000000000000000e+02 9.160000000000000000e+02 9.170000000000000000e+02 9.180000000000000000e+02 9.190000000000000000e+02 9.200000000000000000e+02 9.210000000000000000e+02 9.220000000000000000e+02 9.230000000000000000e+02 9.240000000000000000e+02 9.250000000000000000e+02 9.260000000000000000e+02 9.270000000000000000e+02 9.280000000000000000e+02 9.290000000000000000e+02 9.300000000000000000e+02 9.310000000000000000e+02 9.320000000000000000e+02 9.330000000000000000e+02 9.340000000000000000e+02 9.350000000000000000e+02 9.360000000000000000e+02 9.370000000000000000e+02 9.380000000000000000e+02 9.390000000000000000e+02 9.400000000000000000e+02 9.410000000000000000e+02 9.420000000000000000e+02 9.430000000000000000e+02 9.440000000000000000e+02 9.450000000000000000e+02 9.460000000000000000e+02 9.470000000000000000e+02 9.480000000000000000e+02 9.490000000000000000e+02 9.500000000000000000e+02 9.510000000000000000e+02 9.520000000000000000e+02 9.530000000000000000e+02 9.540000000000000000e+02 9.550000000000000000e+02 9.560000000000000000e+02 9.570000000000000000e+02 9.580000000000000000e+02 9.590000000000000000e+02 9.600000000000000000e+02 9.610000000000000000e+02 9.620000000000000000e+02 9.630000000000000000e+02 9.640000000000000000e+02 9.650000000000000000e+02 9.660000000000000000e+02 9.670000000000000000e+02 9.680000000000000000e+02 9.690000000000000000e+02 9.700000000000000000e+02 9.710000000000000000e+02 9.720000000000000000e+02 9.730000000000000000e+02 9.740000000000000000e+02 9.750000000000000000e+02 9.760000000000000000e+02 9.770000000000000000e+02 9.780000000000000000e+02 9.790000000000000000e+02 9.800000000000000000e+02 9.810000000000000000e+02 9.820000000000000000e+02 9.830000000000000000e+02 9.840000000000000000e+02 9.850000000000000000e+02 9.860000000000000000e+02 9.870000000000000000e+02 9.880000000000000000e+02 9.890000000000000000e+02 9.900000000000000000e+02 9.910000000000000000e+02 9.920000000000000000e+02 9.930000000000000000e+02 9.940000000000000000e+02 9.950000000000000000e+02 9.960000000000000000e+02 9.970000000000000000e+02 9.980000000000000000e+02 9.990000000000000000e+02 1.000000000000000000e+03
1.000000000000000021e-02 1.000000000000000021e-02 1.000000000000000021e-02 1.000000000000000021e-02 1.000000000000000021e-02 1.000000000000000021e-02 1.000000000000000021e-02 1.000000000000000021e-02 1.000000000000000021e-02 1.000000000000000021e-02 1.000000000000000021e-02 1.000000000000000021e-02 1.000000000000000021e-02 1.000000000000000021e-02 1.000000000000000021e-02 1.000000000000000021e-02 1.000000000000000021e-02 1.000000000000000021e-02 1.000000000000000021e-02 1.000000000000000021e-02 1.000000000000000021e-02 1.000000000000000021e-02 1.000000000000000021e-02 1.000000000000000021e-02 1.000000000000000021e-02 1.000000000000000021e-02 1.000000000000000021e-02 1.000000000000000021e-02 1.000000000000000021e-02 1.000000000000000021e-02 1.000000000000000021e-02 1.000000000000000021e-02 1.000000000000000021e-02 1.000000000000000021e-02 1.000000000000000021e-02 1.000000000000000021e-02 1.000000000000000021e-02 1.000000000000000021e-02 1.000000000000000021e-02 1.000000000000000021e-02 1.000000000000000021e-02 1.000000000000000021e-02 1.000000000000000021e-02 1.000000000000000021e-02 1.000000000000000021e-02 1.000000000000000021e-02 1.000000000000000021e-02 1.000000000000000021e-02 1.000000000000000021e-02 1.000000000000000021e-02 1.000000000000000021e-02 1.000000000000000021e-02 1.000000000000000021e-02 1.000000000000000021e-02 1.000000000000000021e-02 1.000000000000000021e-02 1.000000000000000021e-02 1.000000000000000021e-02 1.000000000000000021e-02 1.000000000000000021e-02 1.000000000000000021e-02 1.000000000000000021e-02 1.000000000000000021e-02 1.000000000000000021e-02 1.000000000000000021e-02 1.000000000000000021e-02 1.000000000000000021e-02 1.000000000000000021e-02 1.000000000000000021e-02 1.000000000000000021e-02 1.000000000000000021e-02 1.000000000000000021e-02 1.000000000000000021e-02 1.000000000000000021e-02 1.000000000000000021e-02 1.000000000000000021e-02 1.000000000000000021e-02 1.000000000000000021e-02 1.000000000000000021e-02 1.000000000000000021e-02 1.000000000000000021e-02 1.000000000000000021e-02 1.000000000000000021e-02 1.000000000000000021e-02 1.000000000000000021e-02 1.000000000000000021e-02 1.000000000000000021e-02 1.000000000000000021e-02 1.000000000000000021e-02 1.000000000000000021e-02 1.000000000000000021e-02 1.000000000000000021e-02 1.000000000000000021e-02 1.000000000000000021e-02 1.000000000000000021e-02 1.000000000000000021e-02 1.000000000000000021e-02 1.000000000000000021e-02 1.000000000000000021e-02 1.000000000000000021e-02 1.000000000000000021e-02 1.000000000000000021e-02 1.000000000000000021e-02 1.000000000000000021e-02 1.000000000000000021e-02 1.000000000000000021e-02 1.000000000000000021e-02 1.000000000000000021e-02 1.000000000000000021e-02 1.000000000000000021e-02 1.000000000000000021e-02 1.000000000000000021e-02 1.000000000000000021e-02 1.000000000000000021e-02 1.000000000000000021e-02 1.000000000000000021e-02 1.000000000000000021e-02 1.000000000000000021e-02 1.000000000000000021e-02 1.000000000000000021e-02 1.000000000000000021e-02 1.000000000000000021e-02 1.000000000000000021e-02 1.000000000000000021e-02 1.000000000000000021e-02 1.000000000000000021e-02 1.000000000000000021e-02 1.000000000000000021e-02 1.000000000000000021e-02 1.000000000000000021e-02 1.000000000000000021e-02 1.000000000000000021e-02 1.000000000000000021e-02 1.000000000000000021e-02 1.000000000000000021e-02 1.000000000000000021e-02 1.000000000000000021e-02 1.000000000000000021e-02 1.000000000000000021e-02 1.000000000000000021e-02 1.000000000000000021e-02 1.000000000000000021e-02 1.000000000000000021e-02 1.000000000000000021e-02 1.000000000000000021e-02 1.000000000000000021e-02 1.000000000000000021e-02 1.000000000000000021e-02 1.000000000000000021e-02 1.000000000000000021e-02 1.000000000000000021e-02 1.000000000000000021e-02 1.000000000000000021e-02 1.000000000000000021e-02 1.000000000000000021e-02 1.000000000000000021e-02 1.000000000000000021e-02 1.000000000000000021e-02 1.000000000000000021e-02 1.000000000000000021e-02 1.000000000000000021e-02 1.000000000000000021e-02 1.000000000000000021e-02 1.000000000000000021e-02 1.000000000000000021e-02 1.000000000000000021e-02 1.000000000000000021e-02 1.000000000000000021e-02 1.000000000000000021e-02 1.000000000000000021e-02 1.000000000000000021e-02 1.000000000000000021e-02 1.000000000000000021e-02 1.000000000000000021e-02 1.000000000000000021e-02 1.000000000000000021e-02 1.000000000000000021e-02 1.000000000000000021e-02 1.000000000000000021e-02 1.000000000000000021e-02 1.000000000000000021e-02 1.000000000000000021e-02 1.000000000000000021e-02 1.000000000000000021e-02 1.000000000000000021e-02 1.000000000000000021e-02 1.000000000000000021e-02 1.000000000000000021e-02 1.000000000000000021e-02 1.000000000000000021e-02 1.000000000000000021e-02 1.000000000000000021e-02 1.000000000000000021e-02 1.000000000000000021e-02 1.000000000000000021e-02 1.000000000000000021e-02 1.000000000000000021e-02 1.000000000000000021e-02 1.000000000000000021e-02 1.000000000000000021e-02 1.000000000000000021e-02 1.000000000000000021e-02 1.000000000000000021e-02 1.000000000000000021e-02 1.000000000000000021e-02 1.000000000000000021e-02 1.000000000000000021e-02 1.000000000000000021e-02 1.000000000000000021e-02 1.000000000000000021e-02 1.000000000000000021e-02 1.000000000000000021e-02 1.000000000000000021e-02 1.000000000000000021e-02 1.000000000000000021e-02 1.000000000000000021e-02 1.000000000000000021e-02 1.000000000000000021e-02 1.000000000000000021e-02 1.000000000000000021e-02 1.000000000000000021e-02 1.000000000000000021e-02 1.000000000000000021e-02 1.000000000000000021e-02 1.000000000000000021e-02 1.000000000000000021e-02 1.000000000000000021e-02 1.000000000000000021e-02 1.000000000000000021e-02 1.000000000000000021e-02 1.000000000000000021e-02 1.000000000000000021e-02 1.000000000000000021e-02 1.000000000000000021e-02 1.000000000000000021e-02 1.000000000000000021e-02 1.000000000000000021e-02 1.000000000000000021e-02 1.000000000000000021e-02 1.000000000000000021e-02 1.000000000000000021e-02 1.000000000000000021e-02 1.000000000000000021e-02 1.000000000000000021e-02 1.000000000000000021e-02 1.000000000000000021e-02 1.000000000000000021e-02 1.000000000000000021e-02 1.000000000000000021e-02 1.000000000000000021e-02 1.000000000000000021e-02 1.000000000000000021e-02 1.000000000000000021e-02 1.000000000000000021e-02 1.000000000000000021e-02 1.000000000000000021e-02 1.000000000000000021e-02 1.000000000000000021e-02 1.000000000000000021e-02 1.000000000000000021e-02 1.000000000000000021e-02 1.000000000000000021e-02 1.000000000000000021e-02 1.000000000000000021e-02 1.000000000000000021e-02 1.000000000000000021e-02 1.000000000000000021e-02 1.000000000000000021e-02 1.000000000000000021e-02 1.000000000000000021e-02 1.000000000000000021e-02 1.000000000000000021e-02 1.000000000000000021e-02 1.000000000000000021e-02 1.000000000000000021e-02 1.000000000000000021e-02 1.000000000000000021e-02 1.000000000000000021e-02 1.000000000000000021e-02 1.000000000000000021e-02 1.000000000000000021e-02 1.000000000000000021e-02 1.000000000000000021e-02 1.000000000000000021e-02 1.000000000000000021e-02 1.000000000000000021e-02 1.000000000000000021e-02 1.000000000000000021e-02 1.000000000000000021e-02 1.000000000000000021e-02 1.000000000000000021e-02 1.000000000000000021e-02 1.000000000000000021e-02 1.000000000000000021e-02 1.000000000000000021e-02 1.000000000000000021e-02 1.000000000000000021e-02 1.000000000000000021e-02 1.000000000000000021e-02 1.000000000000000021e-02 1.000000000000000021e-02 1.000000000000000021e-02 1.000000000000000021e-02 1.000000000000000021e-02 1.000000000000000021e-02 1.000000000000000021e-02 1.000000000000000021e-02 1.000000000000000021e-02 1.000000000000000021e-02 1.000000000000000021e-02 1.000000000000000021e-02 1.000000000000000021e-02 1.000000000000000021e-02 1.000000000000000021e-02 1.000000000000000021e-02 1.000000000000000021e-02 1.000000000000000021e-02 1.000000000000000021e-02 1.000000000000000021e-02 1.000000000000000021e-02 1.000000000000000021e-02 1.000000000000000021e-02 1.000000000000000021e-02 1.000000000000000021e-02 1.000000000000000021e-02 1.000000000000000021e-02 1.000000000000000021e-02 1.000000000000000021e-02 1.000000000000000021e-02 1.000000000000000021e-02 1.000000000000000021e-02 1.000000000000000021e-02 1.000000000000000021e-02 1.000000000000000021e-02 1.000000000000000021e-02 1.000000000000000021e-02 1.000000000000000021e-02 1.000000000000000021e-02 1.000000000000000021e-02 1.000000000000000021e-02 1.000000000000000021e-02 1.000000000000000021e-02 1.000000000000000021e-02 1.000000000000000021e-02 1.000000000000000021e-02 1.000000000000000021e-02 1.000000000000000021e-02 1.000000000000000021e-02 1.000000000000000021e-02 1.000000000000000021e-02 1.000000000000000021e-02 1.000000000000000021e-02 1.000000000000000021e-02 1.000000000000000021e-02 1.000000000000000021e-02 1.000000000000000021e-02 1.000000000000000021e-02 1.000000000000000021e-02 1.000000000000000021e-02 1.000000000000000021e-02 1.000000000000000021e-02 1.000000000000000021e-02 1.000000000000000021e-02 1.000000000000000021e-02 1.000000000000000021e-02 1.000000000000000021e-02 1.000000000000000021e-02 1.000000000000000021e-02 1.000000000000000021e-02 1.000000000000000021e-02 1.000000000000000021e-02 1.000000000000000021e-02 1.000000000000000021e-02 1.000000000000000021e-02 1.000000000000000021e-02 1.000000000000000021e-02 1.000000000000000021e-02 1.000000000000000021e-02 1.000000000000000021e-02 1.000000000000000021e-02 1.000000000000000021e-02 1.000000000000000021e-02 1.000000000000000021e-02 1.000000000000000021e-02 1.000000000000000021e-02 1.000000000000000021e-02 1.000000000000000021e-02 1.000000000000000021e-02 1.000000000000000021e-02 1.000000000000000021e-02 1.000000000000000021e-02 1.000000000000000021e-02 1.000000000000000021e-02 1.000000000000000021e-02 1.000000000000000021e-02 1.000000000000000021e-02 1.000000000000000021e-02 1.000000000000000021e-02 1.000000000000000021e-02 1.000000000000000021e-02 1.000000000000000021e-02 1.000000000000000021e-02 1.000000000000000021e-02 1.000000000000000021e-02 1.000000000000000021e-02 1.000000000000000021e-02 1.000000000000000021e-02 1.000000000000000021e-02 1.000000000000000021e-02 1.000000000000000021e-02 1.000000000000000021e-02 1.000000000000000021e-02 1.000000000000000021e-02 1.000000000000000021e-02 1.000000000000000021e-02 1.000000000000000021e-02 1.000000000000000021e-02 1.000000000000000021e-02 1.000000000000000021e-02 1.000000000000000021e-02 1.000000000000000021e-02 1.000000000000000021e-02 1.000000000000000021e-02 1.000000000000000021e-02 1.000000000000000021e-02 1.000000000000000021e-02 1.000000000000000021e-02 1.000000000000000021e-02 1.000000000000000021e-02 1.000000000000000021e-02 1.000000000000000021e-02 1.000000000000000021e-02 1.000000000000000021e-02 1.000000000000000021e-02 1.000000000000000021e-02 1.000000000000000021e-02 1.000000000000000021e-02 1.000000000000000021e-02 1.000000000000000021e-02 1.000000000000000021e-02 1.000000000000000021e-02 1.000000000000000021e-02 1.000000000000000021e-02 1.000000000000000021e-02 1.000000000000000021e-02 1.000000000000000021e-02 1.000000000000000021e-02 1.000000000000000021e-02 1.000000000000000021e-02 1.000000000000000021e-02 1.000000000000000021e-02 1.000000000000000021e-02 1.000000000000000021e-02 1.000000000000000021e-02 1.000000000000000021e-02 1.000000000000000021e-02 1.000000000000000021e-02 1.000000000000000021e-02 1.000000000000000021e-02 1.000000000000000021e-02 1.000000000000000021e-02 1.000000000000000021e-02 1.000000000000000021e-02 1.000000000000000021e-02 1.000000000000000021e-02 1.000000000000000021e-02 1.000000000000000021e-02 1.000000000000000021e-02 1.000000000000000021e-02 1.000000000000000021e-02 1.000000000000000021e-02 1.000000000000000021e-02 1.000000000000000021e-02 1.000000000000000021e-02 1.000000000000000021e-02 1.000000000000000021e-02 1.000000000000000021e-02 1.000000000000000021e-02 1.000000000000000021e-02 1.000000000000000021e-02 1.000000000000000021e-02 1.000000000000000021e-02 1.000000000000000021e-02 1.000000000000000021e-02 1.000000000000000021e-02 1.000000000000000021e-02 1.000000000000000021e-02 1.000000000000000021e-02 1.000000000000000021e-02 1.000000000000000021e-02 1.000000000000000021e-02 1.000000000000000021e-02 1.000000000000000021e-02 1.000000000000000021e-02 1.000000000000000021e-02 1.000000000000000021e-02 1.000000000000000021e-02 1.000000000000000021e-02 1.000000000000000021e-02 1.000000000000000021e-02 1.000000000000000021e-02 1.000000000000000021e-02 1.000000000000000021e-02 1.000000000000000021e-02 1.000000000000000021e-02 1.000000000000000021e-02 1.000000000000000021e-02 1.000000000000000021e-02 1.000000000000000021e-02 1.000000000000000021e-02 1.000000000000000021e-02 1.000000000000000021e-02 1.000000000000000021e-02 1.000000000000000021e-02 1.000000000000000021e-02 1.000000000000000021e-02 1.000000000000000021e-02 1.000000000000000021e-02 1.000000000000000021e-02 1.000000000000000021e-02 1.000000000000000021e-02 1.000000000000000021e-02 1.000000000000000021e-02 1.000000000000000021e-02 1.000000000000000021e-02 1.000000000000000021e-02 1.000000000000000021e-02 1.000000000000000021e-02 1.000000000000000021e-02 1.000000000000000021e-02 1.000000000000000021e-02 1.000000000000000021e-02 1.000000000000000021e-02 1.000000000000000021e-02 1.000000000000000021e-02 1.000000000000000021e-02 1.000000000000000021e-02 1.000000000000000021e-02 1.000000000000000021e-02 1.000000000000000021e-02 1.000000000000000021e-02 1.000000000000000021e-02 1.000000000000000021e-02 1.000000000000000021e-02 1.000000000000000021e-02 1.000000000000000021e-02 1.000000000000000021e-02 1.000000000000000021e-02 1.000000000000000021e-02 1.000000000000000021e-02 1.000000000000000021e-02 1.000000000000000021e-02 1.000000000000000021e-02 1.000000000000000021e-02 1.000000000000000021e-02 1.000000000000000021e-02 1.000000000000000021e-02 1.000000000000000021e-02 1.000000000000000021e-02 1.000000000000000021e-02 1.000000000000000021e-02 1.000000000000000021e-02 1.000000000000000021e-02 1.000000000000000021e-02 1.000000000000000021e-02 1.000000000000000021e-02 1.000000000000000021e-02 1.000000000000000021e-02 1.000000000000000021e-02 1.000000000000000021e-02 1.000000000000000021e-02 1.000000000000000021e-02 1.000000000000000021e-02 1.000000000000000021e-02 1.000000000000000021e-02 1.000000000000000021e-02 1.000000000000000021e-02 1.000000000000000021e-02 1.000000000000000021e-02 1.000000000000000021e-02 1.000000000000000021e-02 1.000000000000000021e-02 1.000000000000000021e-02 1.000000000000000021e-02 1.000000000000000021e-02 1.000000000000000021e-02 1.000000000000000021e-02 1.000000000000000021e-02 1.000000000000000021e-02 1.000000000000000021e-02 1.000000000000000021e-02 1.000000000000000021e-02 1.000000000000000021e-02 1.000000000000000021e-02 1.000000000000000021e-02 1.000000000000000021e-02 1.000000000000000021e-02 1.000000000000000021e-02 1.000000000000000021e-02 1.000000000000000021e-02 1.000000000000000021e-02 1.000000000000000021e-02 1.000000000000000021e-02 1.000000000000000021e-02 1.000000000000000021e-02 1.000000000000000021e-02 1.000000000000000021e-02 1.000000000000000021e-02 1.000000000000000021e-02 1.000000000000000021e-02 1.000000000000000021e-02 1.000000000000000021e-02 1.000000000000000021e-02 1.000000000000000021e-02 1.000000000000000021e-02 1.000000000000000021e-02 1.000000000000000021e-02 1.000000000000000021e-02 1.000000000000000021e-02 1.000000000000000021e-02 1.000000000000000021e-02 1.000000000000000021e-02 1.000000000000000021e-02 1.000000000000000021e-02 1.000000000000000021e-02 1.000000000000000021e-02 1.000000000000000021e-02 1.000000000000000021e-02 1.000000000000000021e-02 1.000000000000000021e-02 1.000000000000000021e-02 1.000000000000000021e-02 1.000000000000000021e-02 1.000000000000000021e-02 1.000000000000000021e-02 1.000000000000000021e-02 1.000000000000000021e-02 1.000000000000000021e-02 1.000000000000000021e-02 1.000000000000000021e-02 1.000000000000000021e-02 1.000000000000000021e-02 1.000000000000000021e-02 1.000000000000000021e-02 1.000000000000000021e-02 1.000000000000000021e-02 1.000000000000000021e-02 1.000000000000000021e-02 1.000000000000000021e-02 1.000000000000000021e-02 1.000000000000000021e-02 1.000000000000000021e-02 1.000000000000000021e-02 1.000000000000000021e-02 1.000000000000000021e-02 1.000000000000000021e-02 1.000000000000000021e-02 1.000000000000000021e-02 1.000000000000000021e-02 1.000000000000000021e-02 1.000000000000000021e-02 1.000000000000000021e-02 1.000000000000000021e-02 1.000000000000000021e-02 1.000000000000000021e-02 1.000000000000000021e-02 1.000000000000000021e-02 1.000000000000000021e-02 1.000000000000000021e-02 1.000000000000000021e-02 1.000000000000000021e-02 1.000000000000000021e-02 1.000000000000000021e-02 1.000000000000000021e-02 1.000000000000000021e-02 1.000000000000000021e-02 1.000000000000000021e-02 1.000000000000000021e-02 1.000000000000000021e-02 1.000000000000000021e-02 1.000000000000000021e-02 1.000000000000000021e-02 1.000000000000000021e-02 1.000000000000000021e-02 1.000000000000000021e-02 1.000000000000000021e-02 1.000000000000000021e-02 1.000000000000000021e-02 1.000000000000000021e-02 1.000000000000000021e-02 1.000000000000000021e-02 1.000000000000000021e-02 1.000000000000000021e-02 1.000000000000000021e-02 1.000000000000000021e-02 1.000000000000000021e-02 1.000000000000000021e-02 1.000000000000000021e-02 1.000000000000000021e-02 1.000000000000000021e-02 1.000000000000000021e-02 1.000000000000000021e-02 1.000000000000000021e-02 1.000000000000000021e-02 1.000000000000000021e-02 1.000000000000000021e-02 1.000000000000000021e-02 1.000000000000000021e-02 1.000000000000000021e-02 1.000000000000000021e-02 1.000000000000000021e-02 1.000000000000000021e-02 1.000000000000000021e-02 1.000000000000000021e-02 1.000000000000000021e-02 1.000000000000000021e-02 1.000000000000000021e-02 1.000000000000000021e-02 1.000000000000000021e-02 1.000000000000000021e-02 1.000000000000000021e-02 1.000000000000000021e-02 1.000000000000000021e-02 1.000000000000000021e-02 1.000000000000000021e-02 1.000000000000000021e-02 1.000000000000000021e-02 1.000000000000000021e-02 1.000000000000000021e-02 1.000000000000000021e-02 1.000000000000000021e-02 1.000000000000000021e-02 1.000000000000000021e-02 1.000000000000000021e-02 1.000000000000000021e-02 1.000000000000000021e-02 1.000000000000000021e-02 1.000000000000000021e-02 1.000000000000000021e-02 1.000000000000000021e-02 1.000000000000000021e-02 1.000000000000000021e-02 1.000000000000000021e-02 1.000000000000000021e-02 1.000000000000000021e-02 1.000000000000000021e-02 1.000000000000000021e-02 1.000000000000000021e-02 1.000000000000000021e-02 1.000000000000000021e-02 1.000000000000000021e-02 1.000000000000000021e-02 1.000000000000000021e-02 1.000000000000000021e-02 1.000000000000000021e-02 1.000000000000000021e-02 1.000000000000000021e-02 1.000000000000000021e-02 1.000000000000000021e-02 1.000000000000000021e-02 1.000000000000000021e-02 1.000000000000000021e-02 1.000000000000000021e-02 1.000000000000000021e-02 1.000000000000000021e-02 1.000000000000000021e-02 1.000000000000000021e-02 1.000000000000000021e-02 1.000000000000000021e-02 1.000000000000000021e-02 1.000000000000000021e-02 1.000000000000000021e-02 1.000000000000000021e-02 1.000000000000000021e-02 1.000000000000000021e-02 1.000000000000000021e-02 1.000000000000000021e-02 1.000000000000000021e-02 1.000000000000000021e-02 1.000000000000000021e-02 1.000000000000000021e-02 1.000000000000000021e-02 1.000000000000000021e-02 1.000000000000000021e-02 1.000000000000000021e-02 1.000000000000000021e-02 1.000000000000000021e-02 1.000000000000000021e-02 1.000000000000000021e-02 1.000000000000000021e-02 1.000000000000000021e-02 1.000000000000000021e-02 1.000000000000000021e-02 1.000000000000000021e-02 1.000000000000000021e-02 1.000000000000000021e-02 1.000000000000000021e-02 1.000000000000000021e-02 1.000000000000000021e-02 1.000000000000000021e-02 1.000000000000000021e-02 1.000000000000000021e-02 1.000000000000000021e-02 1.000000000000000021e-02 1.000000000000000021e-02 1.000000000000000021e-02 1.000000000000000021e-02 1.000000000000000021e-02 1.000000000000000021e-02 1.000000000000000021e-02 1.000000000000000021e-02 1.000000000000000021e-02 1.000000000000000021e-02 1.000000000000000021e-02 1.000000000000000021e-02 1.000000000000000021e-02 1.000000000000000021e-02 1.000000000000000021e-02 1.000000000000000021e-02 1.000000000000000021e-02 1.000000000000000021e-02 1.000000000000000021e-02 1.000000000000000021e-02 1.000000000000000021e-02 1.000000000000000021e-02 1.000000000000000021e-02 1.000000000000000021e-02 1.000000000000000021e-02 1.000000000000000021e-02 1.000000000000000021e-02 1.000000000000000021e-02 1.000000000000000021e-02 1.000000000000000021e-02 1.000000000000000021e-02 1.000000000000000021e-02 1.000000000000000021e-02 1.000000000000000021e-02 1.000000000000000021e-02 1.000000000000000021e-02 1.000000000000000021e-02 1.000000000000000021e-02 1.000000000000000021e-02 1.000000000000000021e-02 1.000000000000000021e-02 1.000000000000000021e-02 1.000000000000000021e-02 1.000000000000000021e-02 1.000000000000000021e-02 1.000000000000000021e-02 1.000000000000000021e-02 1.000000000000000021e-02 1.000000000000000021e-02 1.000000000000000021e-02 1.000000000000000021e-02 1.000000000000000021e-02 1.000000000000000021e-02 1.000000000000000021e-02 1.000000000000000021e-02 1.000000000000000021e-02 1.000000000000000021e-02 1.000000000000000021e-02 1.000000000000000021e-02 1.000000000000000021e-02 1.000000000000000021e-02 1.000000000000000021e-02 1.000000000000000021e-02 1.000000000000000021e-02 1.000000000000000021e-02 1.000000000000000021e-02 1.000000000000000021e-02 1.000000000000000021e-02 1.000000000000000021e-02 1.000000000000000021e-02 1.000000000000000021e-02 1.000000000000000021e-02 1.000000000000000021e-02 1.000000000000000021e-02 1.000000000000000021e-02 1.000000000000000021e-02 1.000000000000000021e-02 1.000000000000000021e-02 1.000000000000000021e-02 1.000000000000000021e-02 1.000000000000000021e-02 1.000000000000000021e-02 1.000000000000000021e-02 1.000000000000000021e-02 1.000000000000000021e-02 1.000000000000000021e-02 1.000000000000000021e-02 1.000000000000000021e-02 1.000000000000000021e-02 1.000000000000000021e-02 1.000000000000000021e-02 1.000000000000000021e-02 1.000000000000000021e-02 1.000000000000000021e-02 1.000000000000000021e-02 1.000000000000000021e-02 1.000000000000000021e-02 1.000000000000000021e-02 1.000000000000000021e-02 1.000000000000000021e-02 1.000000000000000021e-02 1.000000000000000021e-02 1.000000000000000021e-02 1.000000000000000021e-02 1.000000000000000021e-02 1.000000000000000021e-02 1.000000000000000021e-02 1.000000000000000021e-02 1.000000000000000021e-02 1.000000000000000021e-02 1.000000000000000021e-02 1.000000000000000021e-02 1.000000000000000021e-02 1.000000000000000021e-02 1.000000000000000021e-02 1.000000000000000021e-02 1.000000000000000021e-02 1.000000000000000021e-02 1.000000000000000021e-02 1.000000000000000021e-02 1.000000000000000021e-02 1.000000000000000021e-02 1.000000000000000021e-02 1.000000000000000021e-02 1.000000000000000021e-02 1.000000000000000021e-02 1.000000000000000021e-02 1.000000000000000021e-02 1.000000000000000021e-02 1.000000000000000021e-02 1.000000000000000021e-02 1.000000000000000021e-02 1.000000000000000021e-02 1.000000000000000021e-02 1.000000000000000021e-02 1.000000000000000021e-02 1.000000000000000021e-02 1.000000000000000021e-02 1.000000000000000021e-02 1.000000000000000021e-02 1.000000000000000021e-02 1.000000000000000021e-02 1.000000000000000021e-02 1.000000000000000021e-02 1.000000000000000021e-02 1.000000000000000021e-02 1.000000000000000021e-02 1.000000000000000021e-02 1.000000000000000021e-02 1.000000000000000021e-02 1.000000000000000021e-02 1.000000000000000021e-02 1.000000000000000021e-02 1.000000000000000021e-02 1.000000000000000021e-02 1.000000000000000021e-02 1.000000000000000021e-02 1.000000000000000021e-02 1.000000000000000021e-02 1.000000000000000021e-02 1.000000000000000021e-02 1.000000000000000021e-02 1.000000000000000021e-02 1.000000000000000021e-02 1.000000000000000021e-02 1.000000000000000021e-02 1.000000000000000021e-02 1.000000000000000021e-02 1.000000000000000021e-02 1.000000000000000021e-02 1.000000000000000021e-02 1.000000000000000021e-02 1.000000000000000021e-02 1.000000000000000021e-02 1.000000000000000021e-02 1.000000000000000021e-02 1.000000000000000021e-02 1.000000000000000021e-02 1.000000000000000021e-02 1.000000000000000021e-02 1.000000000000000021e-02 1.000000000000000021e-02 1.000000000000000021e-02 1.000000000000000021e-02 1.000000000000000021e-02 1.000000000000000021e-02 1.000000000000000021e-02 1.000000000000000021e-02 1.000000000000000021e-02 1.000000000000000021e-02 1.000000000000000021e-02 1.000000000000000021e-02 1.000000000000000021e-02 1.000000000000000021e-02 1.000000000000000021e-02 1.000000000000000021e-02 1.000000000000000021e-02
-1.086514916036361171e+02 1.652449599407160576e+02 3.828418700575125655e+01 -8.599382923965286807e+00 -8.559026447538698790e+01 -1.304078816872148749e+01 -2.025466543520112168e+02 6.858553628406242053e-01 -8.250338394677439169e+01 -1.376474006178047205e+01 -1.933242523209391805e+01 6.374316934885209562e+00 -1.736394162068514158e+00 1.634416371799185868e+02 8.243518164288869343e+01 -3.780787732682596669e+01 -5.146666809578263724e+01 7.716651662352074936e+01 3.198064448202922350e+01 -2.472518740441758922e+01 -7.679577633089660083e+01 -7.187997777256677523e+01 -1.343709414375414823e+01 2.818494127177052277e+01 -1.898701979782730689e+02 -9.616201287432352274e+01 -2.541898769086507315e+01 1.964021243802677361e+02 6.893293666222352556e+01 7.476911598814380966e+01 7.822584288249382212e+01 1.150397247623225816e+00 -7.725860207980174721e+01 2.021327606847165157e+02 -2.385669641017857998e+02 5.735423074958119827e+01 -1.170021896159251469e+02 -3.379529386470538554e+01 3.933614784140115006e+00 1.234465495090624927e+02 -1.197175731878977274e+02 -1.327493273366434323e+01 7.534159191512307530e+01 1.691363681548542957e+02 6.949378283449989624e+01 -6.661747212738933399e+01 4.011885142866653808e+01 -2.766459828778214813e+01 -6.436098220382022816e+01 1.525488853892968280e+02 -6.868913690653702986e+01 -5.075183449572683259e+01 -1.357867483568190607e+02 5.658946700722293777e+00 -4.921944852972566053e+01 3.768201696528031874e+01 -8.644907089608938122e+01 -4.876251397002305055e+01 -9.880213997415894767e+01 -1.514620421467376730e+02 1.892500488448381546e+01 4.423093294807416243e+01 -1.199701612019262598e+02 1.252079581620775528e+01 -7.723096488355604095e+01 4.786373777479156644e+01 1.623957405749789586e+02 -1.405777903566941802e+02 -4.218508958117561747e+01 7.032146328183891626e+00 2.863026135824894958e+00 4.130481914065804716e+01 8.183092622831408391e+01 7.931668441814775372e-01 -8.604237317575295307e+00 -6.821836529183097753e+01 7.624477089691659160e+01 -3.188957110826603625e+01 2.563384088177470943e+01 1.013634357425364811e+02 8.594293182651780683e+01 -4.167550268748427555e+01 5.628663423210715422e+01 1.436580864221390925e+02 1.132450732501819743e+02 -3.897088048908483149e+00 1.697333111760673887e+02 -1.086768110482355922e+02 4.065900404752994746e+00 -4.086682891985751809e+01 2.015316489822934329e+02 -2.068108614228851394e+01 2.823692721356992230e+00 -7.482120970415743955e+01 -6.966144213977556454e+00 -6.218825631155841194e+01 6.605283803611560245e+01 -9.214343473918140148e+01 6.687254783534950775e+01 -4.654764841466882075e+01 -4.847611505903083184e+01 -8.932526789793578814e+01 5.170844183722297771e+01 -5.328801640394152628e+01 -1.455131795576344302e+02 -7.742293200114045248e+01 -1.019320267155493553e+02 -1.532096055317171590e+02 1.324537250445489747e+02 -2.675224562443095166e+01 3.122483757424655337e+01 8.737569725787550112e+01 -1.013841335520206002e+02 5.549406441978650406e+01 -4.220960171315039133e+01 -6.762508695339460019e+01 -8.782763311106472770e+01 1.980218103832794725e+02 -5.528827059687210976e+01 -4.825340739061623196e+01 -4.596749711705667352e+01 7.834134079070803125e+01 -4.036336992417945879e+01 1.344385159421928506e+02 -4.864813123423903107e+01 5.372352984122659336e+01 4.427188624434003295e+00 -7.901754744635609029e+01 6.702773587664282218e+01 2.703213717128241456e+02 -8.971585427897350939e+01 4.626244357115214001e+01 -7.433151297823714287e+01 4.409369607403790070e+01 1.278714981899939289e+02 -5.012033328367523666e+01 1.424559367659980680e+01 -2.626370118858422842e+01 -9.938064796364686515e+01 -1.691171882194108278e+01 4.196803971825100454e+00 -7.613028911498562756e+00 -1.456424056755904495e+01 1.152268659109265627e+02 1.271188096051041327e+02 1.818067144866452338e+02 -2.967578474353931597e+02 3.724869693343838861e+01 -1.538039914864602409e+01 -6.079083895074565191e+01 1.758787223354127320e+02 7.426535843473668308e+01 -2.550912519577308135e+00 -1.130792888601532553e+02 -1.061125883427420291e+01 9.763587898467632442e+01 -1.310703432773825341e+02 -1.644845923624559987e+02 1.047527654134240116e+01 4.138320541529373031e+01 -5.955139462863009214e+01 4.102000987109560981e+01 -1.044829306259160262e+02 -1.476476615979298970e+02 2.058049210679613950e+01 4.740902193314042989e+01 4.707600339662980637e+00 -8.144494164921756862e+01 -9.135346967326364620e+01 -8.227945511498937492e+01 -8.548189784135395541e+01 1.236354451945157429e+01 5.548705443284557504e+01 1.137977341258254285e+02 7.757583336905383931e+01 8.745467912707721325e+01 1.050221966130124116e+02 -7.307599502097448863e+01 -8.063208050350320377e+01 6.893234449836963051e+01 6.701119556027170177e+01 5.791158040155769271e+01 -9.174886798291034040e+00 -8.907689943578137104e+01 5.282151400958841236e+01 -1.752211872201226015e+02 6.574689390929854937e+01 -4.357114523502163195e+01 -9.439984378387636355e+01 7.266594165466086963e+01 -1.680850876672009520e+01 -7.552561149788540718e+01 -5.627530357494323709e+01 -8.987223832225740949e+00 2.378865950570631185e+02 7.541164657193779419e+01 5.377863884879180034e+01 -1.018676484350648650e+02 1.454568854888180169e+02 1.048449463562361128e+00 -8.868076070089337293e+01 1.529573408378583963e+02 -1.513244327435043033e+02 1.549340612791505656e+01 -3.193660396720660444e+01 -2.182345848026766646e+02 -1.324084656265804085e+02 -8.660518404265197034e+01 -2.917034981185911491e+01 -1.183655008321701274e+02 5.723202650878951658e+01 6.453943972093901493e+01 -2.740593325637910382e+01 -9.907216094930838324e+01 1.122959981422681608e+02 1.173409044970851056e+02 4.588755728138509227e+01 1.738220595477830699e+01 2.596476724552089763e+02 4.336284609301173276e+01 -1.187201154325313439e+02 -4.478992078781490704e+01 -1.677519050779296492e+02 3.167237173869902378e+01 1.523334585795235796e+02 -1.473859647403585882e+02 1.309363781080780313e+02 -9.042120083804597641e+01 -1.882069808362866326e+01 -7.984177042628323173e-01 5.257344033636960745e+01 -1.150976238945867003e+01 -2.269335252285816296e+01 -1.872021334334027287e+01 -1.260659214092308247e+02 4.614465362762742728e+01 -3.017506222358598933e+01 -1.285853247599276372e+01 -1.066513791763856922e+01 2.247868818911857431e+02 1.733506513375422742e+02 2.314307429526881776e+02 1.311251359273312858e+02 -8.613395759479949731e+01 7.477768789053043008e+01 2.103864223293297897e+01 4.729139838442075927e+01 -3.947541260456775092e+01 2.541442186203121025e+02 -2.320312847470323803e+01 -1.360694293236280146e+02 -1.486957862299037991e+01 -4.562061513317566863e+01 -7.701010130643528839e+01 4.294906066407740042e+01 -1.165660070978967688e+01 1.810567728828753218e+02 9.191122879428471037e+01 4.068615595737026069e+01 9.753611786850505894e+01 9.417643653446818064e+01 -2.288101990621135329e+01 1.389998016684627942e+02 2.640905984221923575e+01 8.920790861778033332e+01 4.747419967704301769e+01 6.894535754936845784e+00 -1.152453943273198291e+02 -1.153630116090627951e+02 -8.965198108289527568e+01 -1.549743265582443286e+01 8.632622867458417204e+01 -3.049770197504601299e+01 9.846412098591007123e+01 4.363809857076778798e+01 -7.241524522695587507e+01 -2.981848298466085367e+01 -5.833813667787295998e+01 1.749448898639599648e+01 -4.610087710063027089e+01 -1.115702516732222023e+02 1.209970515901937347e+02 1.208349737609399597e+02 -7.864196289076541291e+01 5.380087536685659089e+00 -4.513683333667884057e+01 -3.242907798295029664e+01 -1.129355990047488412e+01 -3.110987717057133040e+01 4.430509236248855842e+01 -1.399747774026318439e+02 -5.262998420964770219e+01 -1.511865955127847201e+02 1.733310638339304148e+02 -2.009406180142714504e+01 5.863196171411019009e+01 1.185146206568983196e+01 1.436820660354794086e+02 4.438537468903170691e+01 3.552016541201544442e+01 1.535762745321982550e+02 -4.900128891201384818e+01 -9.710512101842959964e+01 2.706542894011881017e+01 -1.571354569205090854e+02 -5.310716774256741957e+01 1.017458860861773644e+02 -1.268349676288836321e+02 -3.614429717094964900e+01 9.074204689645485189e+01 -9.387501217618026317e+01 -8.891553396993306535e+01 -8.212418188017005605e+01 -6.338942412794388304e+01 2.475250956635972557e+02 1.969385163192283130e+02 1.023114298883831594e+02 -1.015300916664991746e+02 7.434339709926889839e+01 -6.576128844536339102e+01 -3.118760199086512941e+01 1.650245727190842615e+01 -3.203980053510782966e+01 -9.306542847257317419e+01 -2.778990032608839034e+00 1.464688101525860198e+01 1.079883605241777644e+02 -1.275114735192124158e+02 4.163741623607941023e+01 6.326401415671119821e+01 3.423433706793287712e+01 -8.987328916282967839e+01 -1.472939633855027921e+02 1.915139488244564347e+02 -1.764942523543818353e+01 2.496713783048323165e+01 1.551919999611550054e+02 2.642117525492485797e+01 2.747686141049882735e+01 -4.413466497894572882e+01 8.777790795980111227e+01 -1.350352510886935988e+02 -3.050020120214078645e+01 -6.078239236540037282e+00 -5.286819426424276713e+01 6.231165314644206532e+00 2.104414632854225786e+01 -3.542802359819119573e+01 1.352740612814134025e+01 2.115348415994590141e+02 -2.711938626302785593e+01 -2.771339165920447556e+01 -1.005974317169309273e+02 -1.619761079312884933e+00 -7.988639839579404622e+01 6.309197808042526390e+00 1.108907740127845756e+02 -5.146249690798705956e+01 5.976878403411469698e+00 -5.371873485494492684e+01 3.278895616195485641e+00 8.624336830845282975e+01 -1.145809606806043490e+02 -9.577553282648564448e+01 -1.014539264229941438e+02 7.056419100904615505e+01 8.559934700783739459e+01 -9.121231529318258424e+01 6.194622036375289298e+01 2.554903029186108654e+01 3.825640357257920954e+01 -1.754504765308613656e+01 9.033469247719845896e+01 7.880420863310553159e+01 -7.638328839838266049e+01 1.166721323982701009e+01 7.996097367644819087e+01 7.201776676284569589e+01 -1.968222035539643500e+01 2.468067125122224326e+01 -1.310889801482906023e+02 4.798577840501485525e+01 -3.240718795078025494e+01 -3.231012095974077170e+01 1.712082064671260184e+02 4.687767811519536565e+01 1.188255819322430540e+02 1.887885405005404778e+02 -1.361014126850052435e+02 1.473882983150064376e+02 -6.272002441535355644e+01 -1.335976784199769156e+02 8.137154323336210382e+01 -1.325152117403831937e+02 -2.838506385212308203e+01 5.575274275546146185e+01 7.957736071300722358e+00 -1.662425852437927460e+02 8.329964254934706958e+01 2.494718949281179476e+01 6.829461371906475620e+01 3.588769922180791383e+01 9.358008468704470673e+00 -6.634330087772804063e+01 1.143781652971260456e+02 5.386647746669710557e+01 -6.140237260669483277e+01 -1.000783623845018013e+02 3.846520220084806141e+01 2.542726923274053519e+01 8.145461524061104797e+01 1.816763110571002642e+02 -2.433400779306408523e+01 -1.088892838729458532e+02 -8.370734318389696682e+01 -5.072417566064238059e+01 -4.381918234850407856e+01 -1.450229755593059906e+02 -2.226322904419715698e+01 1.280228873108424921e+02 7.366540004672918940e+01 -1.209483006562278007e+02 -1.481788864580053371e+02 -6.729231097053767030e+01 -7.543044847266423858e+01 1.451053266365172192e+02 -1.684839797430915382e+02 8.555877813043092317e+01 -4.553241065863737447e+00 -4.253542647198213444e+01 1.313397688666126406e+01 9.008100739952351432e+01 4.897829308146207694e+01 1.365885455687787271e+02 -1.572773008654523892e+02 -8.002148458989746871e+01 2.507433191268177453e+01 4.143652421864381807e+01 2.036969866955593886e+02 1.437559411481816198e+02 6.477712908302058281e+01 7.125596766140431271e+01 -3.367677041511586822e+01 1.500126994922017616e+02 -1.772562225091706694e+02 -6.267595760142923211e+01 -5.304778814829122524e+01 -5.118113781809400820e+01 -1.020389852901492844e+02 -1.481829108609825951e+01 -6.781983106279703577e+01 7.032072977693630378e+01 -9.036404003633172977e+00 -5.737296961340770451e+01 -6.149587137781670521e+01 1.780466963060722492e+02 5.833418128884151344e+01 -1.356988806702831241e+01 2.064006672359807624e+02 -1.070603410785731739e+02 -3.490561251430365530e+01 6.616407399718708859e+01 -1.347849179811248521e-01 1.479316627482822888e+01 -1.236167709172858054e+02 1.740743116309273830e+02 -4.836386186269446341e+01 -2.657982286951335382e+01 -1.083591810461550438e+02 1.243003819341625729e+02 9.466250927645549496e+01 -7.654376703417796080e+01 -3.714845521174174081e+01 3.847182284055924129e+01 -1.494686750621639533e+02 -1.847959997637383389e-01 -7.374951957661799895e+01 7.588264622385132441e+00 -1.067042375552508560e+02 -1.564784291202422821e+02 -6.976557254832140131e+01 1.462407902408276641e+02 5.580584189092243719e+01 -8.844832541084885236e+01 8.797218523564359316e+01 3.375477250892412684e+01 8.715301735795490856e+01 -4.154748625498028503e+01 -8.292687903030108032e+01 1.686867849906645347e+02 4.106094498166228135e+01 2.854419238948938542e+01 -7.196799041173565570e+01 -4.171757926190932153e+01 9.386962265516228143e+00 -7.069828755478977378e+00 -1.703696521514280846e+02 -3.412139787819079118e+01 6.347714565643416051e+01 1.099644875007833491e+02 1.534555670518743682e+02 -1.308865112566992650e+01 8.829401800448360405e+01 1.553832062498916855e+02 6.245618505077015215e+01 1.454593522671956691e+02 1.582003783511727235e+01 1.292814420096694334e+02 -8.263449734976589411e+01 5.249924901482565787e+01 2.884293355485736043e+01 7.463237341530940228e+01 -1.044783455456521608e+02 1.947884824674122797e+02 -1.265628799712805659e+02 8.683014440697741065e+01 -1.055533957166108081e+02 4.536902251564757904e+01 1.356697273646625668e+01 8.910027743980528214e+01 -7.234555369405094893e+01 -7.415821527212126796e+01 -1.093923099019879253e+01 8.746819908230980900e+01 -2.904703257713281772e+01 -1.599692521509610188e+01 -1.926407967047239467e+01 4.646267730648770744e+00 9.624731606370585268e+01 -6.132804518376504177e+01 -2.652678809543692395e+00 -1.898495588846529358e+02 1.193972165073947878e+02 -1.221492900947832680e+02 -7.225191565478010602e+01 -2.301021124884936953e+01 -1.055777230002487954e+02 -5.198160046904000353e+01 -5.729690186619905745e+01 -1.925622732220140065e+01 1.332301465788656003e+02 5.286671414504958477e+01 9.819631946615938034e+01 -1.330859822006478623e+02 -1.355036440531874007e+02 -2.803083492455413079e+02 9.992120803930431805e+01 1.019260109477129959e+02 4.137883129958134987e+01 -4.152480209909087705e+01 -3.635318057917820767e+01 -1.796060024449066646e+02 1.428630469238035232e+02 -1.050343907339230327e+02 1.045976599531057047e+02 -1.556768883539918704e+02 -1.400245249799658254e+01 -5.415468688439489142e+01 -1.166307269310689492e+02 -4.508829758774182750e+01 -1.225928536253331558e+01 -9.063602195188646249e+01 -1.011948318307056525e+02 -1.208889942033491316e+01 6.962468048531879106e+01 -1.218811854638283876e+02 -1.530874691532497778e+01 -7.213601366802880932e+01 -1.285373160479123840e+02 6.464202434624222171e+00 9.303744977558612561e+01 1.619382132828093006e+02 -1.864587966900741023e+01 -4.505273992740888644e+01 -1.214940375683785589e+02 -1.601120345227647874e+02 1.015782890331199155e+02 -7.118627091363407544e+01 7.731215153926774519e+01 9.199409501924211696e+00 2.860077875189924157e+01 7.228455935514084274e+01 -8.297639426883814906e+01 8.094902336216348715e+01 1.128711336935886038e+02 1.542086652037944248e+02 -1.141064215902464127e+02 1.017980825919211298e+02 -4.679283679973132593e+01 -8.892078893024188346e+01 2.101592104268196692e+02 4.820097506608765769e+01 8.174627465481400179e+01 2.078669918026991681e+01 -6.195681159218764833e+01 -3.421413814924225960e+01 -2.060474904105441851e+02 1.034608095813983653e+02 7.980758105701947613e+01 -7.413676820653046207e+01 -7.161211446706772676e+01 1.421960525470451842e+02 9.898168092908679228e+01 5.006581892926038790e+01 7.449975778382240321e+01 -7.695235349398474867e+00 1.010641273796689035e+02 -1.014415297325433301e+02 1.825191439576814503e+02 -3.866960869033569992e+01 -1.194918334772949464e+02 -3.692512353763233790e+01 7.026387142165070543e+01 1.442978156263739038e+02 1.259850069641497683e+01 1.702434980829411586e+02 5.111386874470399277e+01 3.294031342616146674e+01 -1.090157571214423342e+02 4.386388012324702146e+01 -1.224230712619645942e+02 4.673121572580489413e+01 3.779426850938583016e+01 -1.208334273819503295e+02 -8.328856348689268430e+01 3.903525845232980629e+01 8.545685788313567954e+00 -2.273536614379443677e+01 4.101847158700979179e+01 -2.096175082022573832e+01 -6.179130261754210807e+01 -2.568059353577638149e+01 -2.196402669458158385e+01 -3.900123610575028010e+01 1.838005606920856749e+01 -7.886737764213927449e+01 1.164940315678992704e+02 -7.275476130322530821e+01 -4.133261517838068499e+00 6.425357423749535712e+01 3.798952320007801919e+00 1.563297493573251273e+01 1.563964776992987638e+01 -1.147031028884822348e+02 -4.318097473841916667e+00 6.370449863651194278e+01 -2.266525988182991114e+02 -8.313048920133705622e+01 -1.103698941311257045e+02 4.289289726722682872e+01 9.422516020825663929e+01 -8.986515489253920919e+01 -1.644091133545901471e+02 -1.813457584757638585e+02 1.954400379134045096e+01 -1.419036481965885912e+02 -6.194007258430519691e+00 1.444708432896749741e+02 -6.927455561042261678e+00 3.632314220187107878e+01 -9.668660352614026010e+01 7.803582826766677272e+01 -1.157925037701968449e+02 -1.506704894725626431e+01 -2.956486684134347342e+01 5.620406879637022257e+01 -8.630801740246100806e+00 1.030748626931009539e+02 -1.190464793174363649e+02 -4.882714270408939683e+01 8.444500363766829309e+01 6.445717075340132851e+01 -8.019661266525888266e+01 -5.299639585245088114e+01 -4.808259290289404220e+01 -2.817211083329418102e+02 1.883563688364061193e+02 7.402373625641470767e+01 -2.293346838386134579e+01 -2.885784283883800683e+01 4.038459976758870340e+01 -8.177155276296858233e+01 9.671906571832892041e+01 5.877259628608538833e+01 7.960648113648895219e+01 -8.168559686149761490e+01 -2.574731569014551980e+01 3.235641538323654487e+01 1.687616510821711202e+01 -4.159556317345762011e+01 1.533366716696374397e+02 -1.677547742874239134e+01 3.436676832654863745e+01 -2.230723972020013832e+02 -8.215379347155793255e+01 -7.097025084285402841e+01 2.234036985462514835e+01 1.059212750942389789e+02 -2.248185994588796461e+02 -1.814455447723678390e+02 2.149973102895851014e+02 -1.024871676994354885e+01 9.316545858874061992e+01 6.077417740115015476e+01 -5.368295273349365715e+01 -1.270640240117057544e+02 -9.230105417501063414e+01 -4.874038575023903519e+01 -3.629064715643723105e+01 -3.798334579420354373e+01 1.565444726297424083e+01 3.608021651372797578e+01 1.618410293181082693e+02 1.195379872703420148e+02 6.771561356932140896e+00 -4.272824807987841922e+00 -1.539797458699749484e+02 1.160543486724600797e+02 1.545116442550522322e+02 -1.003439970108909733e+02 7.150630407673237698e+01 1.658495872984253383e+00 5.327949467239567838e+01 1.216181915435106902e+02 6.881060678998868241e+01 -1.300221409326038327e+02 1.563817069617689626e+01 -2.850675655752575111e+01 1.081125359582292944e+01 -2.242121135204938653e+01 4.398586285402084428e+01 -2.528828272036969906e+02 1.758101632635519138e+02 7.057405290676999954e+00 1.547310622870939198e+02 -1.021974192175216700e+01 1.030703591137956892e+02 6.955393936122585785e+01 -4.076566751021291424e+01 2.908035775151645197e+01 -7.074654822478478877e+01 -8.647005796721973070e+01 -7.001449348253775895e+01 -3.115494785800836652e+01 4.390412491310687670e+01 1.070865988979399646e+02 2.768007454351814900e+01 6.043797497960859744e+01 -1.019429865137101956e+02 -1.333745783337766682e+02 -1.311476323840824776e+01 4.511863471497272116e+01 -4.421809243173169079e+01 9.202365327028539355e+01 5.404280743753794525e+01 -2.689642272329405870e+01 2.913919920665750496e+01 5.974461836261336600e+01 -7.016858071543046549e+01 -1.301525522870993541e+02 1.382838600211785263e+02 7.605784058566356975e+00 4.881829518273475088e+01 -1.454046647395221612e+02 -5.202084838425665225e+01 -4.287717944716444851e-01 -6.410127960951534476e+01 4.153318444667246645e+00 5.486586200492617849e+01 1.817369959104693180e+02 3.814810343401027382e+01 -1.068488056844002720e+01 7.044916568684136848e+01 -4.434567200531268583e+01 -1.062959647443282165e+02 -1.348030500690738336e+02 9.136637526991986391e+00 2.450462042189628775e+01 2.325489140694279300e+01 -5.552340539463462221e+01 1.179482578181061854e+02 -7.891936130219674794e+01 1.253124823416738280e+02 8.525528088096341151e+01 -6.353106341809936453e+01 -8.279631682866188669e+01 8.228111115272771769e+01 1.996524052381978009e+01 -5.132788615794168408e+01 -5.262515315986303932e+01 1.336778913384657983e+02 5.605402747922073559e+01 7.814844223332602269e+01 2.557189480870466269e+01 -4.113326694898335489e+01 1.050888995777345087e+02 -5.339081710172852269e+01 5.507432409501265003e-01 7.490850161386282480e+01 9.748149086351726567e+01 2.501351602455663681e+02 -1.715262332760353559e+02 1.575789518813189432e+02 -6.616056594927380274e+01 -1.491916160288846349e+01 -2.459999688334487189e+01 -2.031145943677275767e+01 -5.401936867429014910e+01 9.113869211637513956e+01 1.804248956003449962e+02 -1.164721580688586755e+02 3.033872618365921880e+01 -1.245008191406461577e+02 6.888327758043682536e+01 -4.365424146391698912e+01 -7.955443250047609638e+01 -5.294588101867328334e+01 4.047271090947501193e+01 1.903644407667157523e+01 -8.037436913207663736e+01 -1.386833159979705670e+02 2.042193227978285464e+01 1.550549892171754323e+02 1.405878810857722705e+01 1.796088614206553018e+02 7.341981813135908475e+00 1.325712731097964650e+02 -3.406943924144050584e+01 8.940372552407498574e+01 -7.039716215917738396e+01 -1.112861451289133328e+02 4.873786539806735618e+01 -5.719833990938277424e+01 -7.746164279989464774e+01 7.188877852733496354e+01 6.382003703504003589e+00 -9.305340071448736694e+01 -1.486609843845449745e+02 1.460798301109041404e+02 -8.808624961931113262e+01 -2.336391413209734313e+00 1.186843085750830085e+02 5.734667990819139760e+01 -9.710381904454011703e+01 1.052846806795851364e+01 2.789747874222939572e+02 5.273478374221853215e+01 -1.560741827710461678e+02 -4.723693897759068250e+01 -6.088310995341947773e+01 9.524521801208939209e+00 1.065240223045914405e+02 -1.025111073980291536e+02 2.138427217139995662e+01 1.292843938629902993e+02 1.860446180168599994e+01 -2.093936601320133946e+02 4.788035774431057945e+01 7.483047166808736961e+01 -1.347303864061705525e+01 3.250902136661502340e+01 1.631434354743893922e-01 2.235345908879357779e+01 2.750126927586507364e+01 1.148628315213586149e+02 9.722353889549675898e+01 1.547887191415648900e+01 1.477817675077805859e+02 -6.348993417810047646e+01 2.446158054509145074e+02 6.450440981952939978e+01 1.405672068677819482e+02 -2.178774742413805043e+01 8.934790633635867607e+01 -4.856549893831108733e+01 -1.452071736388176078e+02 2.596042932160630201e+01 9.425563179030233130e+01 -8.688563207023153723e+01 -1.039179228557518968e+02 -6.601766121961490796e+01 3.632559541611420428e+01 -1.133082495646267347e+02 7.412479102985089696e+01 2.783024708298751193e+01 -9.685534401642962621e+01 1.884514502777585392e+02 -1.167060955142345868e+01 -1.009833714075589626e+02 -1.330264207353837058e+01 -2.027860811802880292e+01 -1.391451640572946076e+02 -3.971623773037298832e+01 6.103978380623682654e+01 1.307832997273535511e+02 2.881618474166368671e+01 2.654402815266236360e+01 4.444650523563313271e+01 -3.545358230743671868e+01 -1.445045620661076384e+02 1.576247883287560292e+01 3.072884212660757441e+01 1.321064270361490571e+02 -9.826533831587880741e+00 -7.555403201342181774e+01 7.264968883311632908e+01 9.735623094565278857e-01 3.160438853624913591e+01 1.381882532689581353e+02 -1.761617583769815383e+02 -9.216298592486056407e+01 1.238011471771313552e+02 -2.080640727445065181e+02 -1.773669148252763250e+02 8.778221623655004180e+01 1.485183406442976946e+02 6.115673489817479691e+01 -4.311134548107222741e+00 1.501984421662387206e+02 -2.117146268136154106e+02 1.033447271438719639e+02 4.087076463587448671e+01 1.225549583670187701e+02 -1.818836496869310508e+02 1.027237920660471673e+02 -2.723706050540408796e+01 -1.289374382755044905e+02 -5.133713677496730021e+00 -8.910710969718192587e+01 -1.566624943966969674e+01 -4.177930847733718700e+00 -1.188121704257529387e+02 -1.189324701567558407e+02 -6.034233832558854971e+01 -1.243251041797557406e+02 1.938345351179023055e+02 -1.553653009614029656e+02 -4.839350675870834806e+01 1.664040559363096179e+02 3.272354340269481554e+01 -2.854650405641564817e+02 -1.225996084548436329e+02 3.424344725190741912e+01 5.271511214845398285e+01 8.251622959900757337e+00 -1.491018550284424293e+02 3.441661980634324891e+01 7.230008148131924273e+00 -7.168551557506104643e+01 1.955197296931017092e+02 1.953705183181005225e+02 4.189624900327890700e+00 -2.011272936834449183e+02 1.214995030222242178e+02 2.966060483097850664e+01 3.662980503091583184e+00 7.386995747816277458e+01 -2.001027737117422021e+02 -1.331116328882215782e+02 1.360046140802445223e+02 1.057500823145600322e+02 5.102683448196918903e+01 1.380946927525317278e+02 -1.719199911221432728e+02 -1.972997235454297638e+01 -1.257670737804235159e+02 4.209342526879155599e+01 -1.001753526623491979e+02 8.396730882964395448e+01 -3.270401005432992037e+01 1.194388184224461114e+01 1.711231391717524275e+02 2.752020461011182206e+01 -2.541892892253526952e+02 -1.218850070222099617e+02 -8.037785148966597149e+01 1.524800619615511437e+02 1.209256901783659366e+01 -5.195371883966998183e+01 2.925636533050076693e+01 6.026817325898875310e+01 -3.814713323933513323e+01 1.036842824461545973e+02 -9.715757060497119824e+01 4.746120100427851440e+01 1.079466944605204475e+02 -3.423912661246788502e+01 -9.463180133534521588e+01 -1.094115401445976090e+02 1.154974071094396351e+02 -4.790962972383131557e+01 1.895530411551720817e+02 5.516849394788700067e+01 1.069965096872178378e+02 1.779170691283029839e+02 8.252390615690593734e+00 -1.198781648640809010e+02 -1.598335114056773705e+02 -1.101054792374493587e+02 4.098788274367838369e+01
-1.280876284118098241e+01 -4.558446348699126460e+00 9.753943359355048415e+01 -2.157512338454237124e+02 1.464036454133538143e+02 5.981167835497893748e+01 1.433174199953608365e+02 -1.216709578124029605e+02 -2.608518992822780547e+00 -2.266634714690091457e+01 -2.067528441092459275e+02 3.081396178408392572e+01 -1.725574927553881466e+01 1.152090687051263700e+02 -1.178374663174608798e+02 5.813045540733464378e+01 1.180058494662561088e+02 -4.328544782610372721e+01 -4.671930208915197369e+01 -2.542578262268298062e+01 5.814126188750623214e+01 5.940947860165276495e+01 3.054885598342939801e+01 -2.189959773917712198e+02 -4.857381610011359641e+01 8.622322664414124915e+01 9.335982985164603676e+00 -9.772203810520299072e+00 -6.265480014534662700e+01 -1.459286688245345154e+01 6.907262172036018910e+01 -1.369444888265493319e+02 -5.834392960774680859e+01 8.451403802173958368e+00 1.954929980658786519e+02 1.997172282637521619e+02 -3.026209233292173906e+01 5.263190008921521468e+01 -2.468582459028788867e-01 -1.315155121590192095e+02 9.038215640211480206e+01 1.009774588318028208e+02 1.021916761029544176e+02 1.099758385627628599e+01 5.827705475987193751e+01 4.531514160630452182e+01 3.661277514451447246e+01 2.764723059415859296e+01 1.038534087441859839e+02 8.447926479689225232e+01 6.175780377352589312e+01 1.534950291688639652e+02 2.333512161869956572e+02 1.841874471943621074e+02 -5.569167674080861730e+01 4.639605893678333359e+01 -6.052136275619767503e+01 5.310400449887235652e+01 -1.809918354128981264e+02 5.320586357528917176e+01 -1.928142662291906504e+02 -1.588853004825331254e+02 1.219685651770155310e+01 -8.722129936934754468e+00 1.596418557889686554e+02 -1.958574074125474738e+02 7.088855841633237276e+01 2.164598174811944773e+02 -6.953544983996630791e+00 -1.834525280557957103e+02 3.346915857873424471e+01 1.857112596475816702e+02 -5.755536436570140779e+01 -2.510571743398812998e+02 -9.660441506385126331e+01 8.382017772815865797e+00 -2.167298549369733678e+02 3.022006887687124177e+01 -1.690554660305384971e+02 -1.748202187648981862e+02 -5.386433147446256697e+01 1.436351558371219141e+02 6.545252910941995594e+01 1.000508955963755930e+01 -8.356838879604271142e+01 -4.015279715573941388e+01 6.007862568411790960e+01 -2.188429688114530052e+02 5.100515327659285703e+01 -7.066559031067519925e+01 -7.367871786266094603e+01 -1.667163749798069716e+02 6.133237789474414825e+01 8.742849522003854190e+01 -1.530802088512839987e+02 1.629721954996465740e+02 -3.761509016576700759e+01 -1.596034502214048345e+01 8.266880740639788883e+01 1.474857571005196633e+02 2.050829163124242527e+01 1.428944951311866305e+02 -1.745740808513084374e+01 -8.558391189878317107e+01 -1.850112628793918645e+01 9.536685703340685905e+01 4.363585546240996393e+01 9.492265340907403015e+01 9.158187328570345187e+01 -8.062357596062288678e+01 -1.648753793909282592e+02 1.194029646119329726e+02 5.263691941743026348e+01 1.574580741589728028e+01 2.966851906106425218e+01 -6.591874365447313266e+01 9.319624854042685058e+01 8.721415696194627287e+01 -1.331681610206337574e+01 -6.916241859340156850e+01 2.980950742037977363e+01 6.099899964907937289e+00 -5.969210368790171373e+01 1.646273419654188217e+02 -3.187783584086819388e+01 1.180664881824559700e+02 -6.806164205242936305e+01 3.727689604779320831e+01 -3.503284558467950660e+01 8.690430137792637311e+01 2.279795121921717538e+01 1.122657309379734016e+02 -1.127044614135284775e+02 7.222371274670007324e+01 1.199502990505626911e+02 -4.342360159209302140e+01 7.424149955235834319e+00 -1.240059518395429805e+01 1.135145793267311944e+02 3.533596817536488910e+00 1.638879722042725007e+02 -1.374549222919430917e+02 1.133942671681461860e+02 -8.874385408207275816e+01 9.314194882153114463e+01 -1.332688035452586632e+02 2.869694849069859188e+01 2.407362324424211053e+01 1.736265321787510141e+00 3.532129320972914144e+01 4.473350188495038537e+01 -1.205092607171537722e+01 1.058675044754995476e+01 1.051677990384941950e+02 1.238081981573889010e+02 -8.437260182347093007e+01 -5.272338148598532115e+01 4.606375959319089475e+01 1.479229827708825828e+00 -1.333334019282994234e+02 -5.366945468845904088e+01 -3.447945484395032167e+01 4.760558889063278798e+01 -6.380227359687270905e+01 2.231295483104113941e+01 1.561977360537833306e+02 -7.739233425490462537e+01 7.874685201394463263e+01 8.190843225151633078e+01 1.098276156649143864e+01 1.203127966623595455e+02 6.129794208821771662e+01 1.638332747680528030e+02 -3.374507218170666079e+01 1.096625431127743582e+02 5.419543006150171038e+01 -1.567175129981163018e+01 1.991902550132606677e+02 -1.354513767027123947e+02 4.772795382885112758e+01 -1.831480746378066442e+02 -8.219793648277268971e+01 4.008783028543786031e+01 -7.054704681125170396e+01 -1.522357608023523312e+02 1.947924158412112092e+02 -8.383689950530725810e+01 -4.642448729020512843e+01 -4.523798045044900107e+01 1.190269708486834617e+02 1.904296300451459558e+02 6.330972696825597268e+01 1.430058138243405494e+02 2.146196809339208471e+02 -1.566246709784669511e+00 1.592908780161290849e+02 6.932480942747540098e+01 1.862095349329338774e+02 -1.230400288012805419e+02 -1.157966472764621813e+01 6.215270120939088372e+00 1.857689677963061570e+02 -8.886594113859084132e+01 -5.918936156999600939e+01 -5.177440281412834366e+01 -1.310779095231397378e+02 4.568716784400760567e+00 -9.871488975423396539e+01 1.507861895283681974e+02 2.303213674793227739e+01 1.172935619945552155e+01 7.072084657012574382e+01 -4.807341260726213150e+00 1.144333906174684046e+02 -1.553961431693322197e+02 4.443023515794634903e+01 -1.670589727994318423e+02 1.148534211816547383e+02 9.398705443330442222e+01 -6.581460391304435120e+01 4.577234137484865073e+01 2.329296779798002888e+02 -2.980566024765384014e+01 4.073971504246766528e+01 -3.196434305970159429e+01 5.667535982696765728e+01 6.285740572426082906e+01 -6.146188609186140184e+00 9.966189331497984938e+01 9.923258993695543495e+01 -1.896054761939174682e+02 -1.498639489038693853e+02 -1.172007277557694778e+02 -9.222549934718994535e+00 -1.464623340382981098e+02 1.129993322283960850e+02 1.078925376300469594e+02 5.769655807377966283e+01 1.091755180692232763e+01 1.541813060558790767e+02 8.209748604704695651e+01 6.601142445680656579e+01 -9.934289364357427132e+01 1.490248432589145011e+02 -3.520955590171071847e+00 1.069175323700000604e+02 8.624490221914612675e+00 3.592136118663142241e+01 -7.398884576593587781e+01 -8.869882463720848875e+01 6.997475626231931756e+01 -3.774127110616344538e+00 1.428905419806434338e+02 -1.227339053410731395e+01 -2.780549723133325823e+00 4.480843166354780038e+01 2.210908655342028695e+01 1.381654990063449588e+02 1.434654466448198740e+01 3.502380370364116402e+01 -1.510894458772156952e+02 6.428463977676105401e+01 1.305083016122156039e+02 -1.718652149415041208e+01 -2.225749599795937002e+02 8.237321110612710129e+01 1.327928977148784213e+02 1.985387571051868960e+01 1.841688685313370968e+02 -4.139601416570471315e+00 4.174401455543006989e+01 -4.245206953478057699e+01 -1.348539619649000088e+02 5.448093614334405999e+01 -4.616131696404570306e+01 -7.873065692030995422e+01 4.005874417365451023e+01 -1.795035966629370137e+02 6.960239129201254116e+01 1.596837277985255525e+02 -9.827556524265790472e+01 1.679392512657691441e+02 -9.473476806863769184e+01 -5.789206539139959418e+00 -1.022850890312347438e+01 7.434863082089664488e+01 -4.521344125756483123e+01 -1.045150579580688230e+02 -8.588557280915891567e+01 1.413153759756992827e+02 5.728584429428085656e+01 -1.277189108464610570e+02 4.283346036614737784e+00 4.205107783325706805e+01 7.995173170731433743e+01 -3.905137419216281103e+01 5.804690692347741532e+01 -6.677068273607251570e+01 -1.571232350389774410e+02 -3.351398901815606735e+01 1.364187610582504249e+02 -1.097384701341779021e+02 -6.183748496473089773e+00 -1.575712358044216899e+02 -4.677947314987543237e+00 -1.411161710969437877e+02 3.185861345233284680e+01 5.823664937627930271e+01 -4.866695462113344917e+01 -7.964683799459523073e+01 5.453517648121432693e+00 7.192622629099584231e+01 -6.550792643993048614e+01 1.301665548309821077e+02 1.020082287992244545e+02 -1.233330264084116408e+02 -1.018892277500941219e+02 1.304831622383590854e+02 6.887439677251539649e+01 1.450530088733904392e+02 9.659342763013195565e+01 7.833121762613791361e+01 -5.817978036408669595e+01 -7.889071426458829706e+01 -7.434677734542160010e+01 1.972782492535311860e+02 2.950977972960203033e+01 -2.402865846214075063e+01 -6.604458075448593490e+01 -4.814539251877147308e+01 -1.264909262410205031e+02 -1.587111117264431748e+01 -1.685263461046099280e+02 1.200810815375240281e+02 4.416184708032540129e+01 -1.106512448950942229e+02 -4.648436226376868774e+01 1.149872065978020288e+02 -9.307646062805838483e+01 9.875225309862014456e+01 -1.137680411152580291e+02 -1.130891152456837823e+01 -9.170509530863604652e+01 8.616885813682046091e+01 -4.078083074774091443e+01 9.861476876663848756e+00 2.817936591481768716e+01 -1.215794487261351975e+02 1.199840945363258271e+01 4.643242825138852936e+01 -2.145803102964519482e+01 -6.598551006590766121e+01 1.944484813019109311e+02 8.298426339291485476e+01 4.520883867453733274e+01 -3.014596586846702664e+01 7.697621578951958554e+01 1.608511804832677967e+02 -8.851514615782275541e+01 2.010246494379075273e+02 -1.277325856074931352e+02 -1.764779738976958186e+02 1.456557210530866087e+02 -2.245124639055871398e+02 -9.129844824000623582e-01 -2.350257219990965325e+02 -1.467003347157588280e+02 6.886859703319376536e+01 -1.397095406272841842e+02 5.600633386312372863e+01 1.055028804623913459e+02 -1.538418391184022482e+02 -2.887709135279824935e+01 7.236408145193591679e+01 1.284898814131937002e+02 -1.785862923875453419e+02 8.395311260256953290e+01 -9.400168195409339944e+01 -9.452308044767855577e+00 -1.329396505495869185e+01 -7.634216382642038923e+01 -8.663165136357712015e+01 1.740266548251374843e+02 -2.083098262490691965e+01 1.295490877341118452e+00 1.249860172384079533e+02 -8.324323754255044605e+01 -3.304729024017470351e+01 -1.033840498151036513e+02 -4.687927824231230289e+01 4.945466880885840411e+00 5.701086270499292397e+01 -1.298104515067255136e+02 2.280484539633549730e+02 -5.183082619025235971e+01 1.179894381640391146e+02 -4.699112032499336777e+01 1.152990468590649442e+02 1.339938454739887845e+02 4.617632352588584865e+01 1.175778277394902886e+02 -4.164125320819449172e+01 1.348517810232703198e+02 -1.507917749365836642e+02 -6.302265448979337492e+01 -6.068937423613569848e+01 2.464907214230832011e+01 -1.564325953164399436e+02 6.992421156553918138e+01 -2.973163717935493722e+01 -7.966714739846459281e+01 8.636076724773803903e+01 -1.456781955394458805e+02 -8.795535354825348406e+01 -5.076121617304978884e+01 3.188610119978672230e+01 1.251497576200308401e+02 1.126408578997826879e+02 6.661541603609374818e+01 -1.506155679257134672e+00 1.686363644655415897e+02 1.181324118536346788e+02 -9.109425066522669567e+01 -7.531006592055727822e+01 5.318651600322431960e+01 9.590107495703543705e+00 9.446103193422848676e+01 1.607553745088858363e+02 6.806248340493129945e+01 2.356499048286380216e+01 -9.854609240772917644e+01 1.655903442453519006e+02 -1.095682006098429042e+02 -1.593027191402903782e+02 6.335221627981459847e+01 1.074627571280048386e+02 1.893817312699123789e+01 -1.337993350260756529e+02 2.862795805145688277e+01 4.085838757144199462e+01 -3.482383435604107791e-01 1.261362456818312552e+02 9.416791509109552294e+01 1.648282939703899430e+01 7.545353535522639277e+01 -1.029944430658394197e+02 -6.128638048813838779e+00 9.470026742633214667e+01 2.859146769083286088e+01 -6.260900350456121544e+01 1.906816590203951307e+02 2.224872120532146198e+02 -1.207736739624273810e+02 -2.659607852366028524e+01 -2.022678806620583316e+02 -6.946307378439824731e+01 1.506552838203887461e+02 3.239028999765167782e+00 -6.830271335398953170e+01 1.575547791707845136e+02 -6.011227562910609379e+01 -1.545054457684895510e+02 1.313593924414782634e+02 -6.462156892253263152e+01 3.319744505363388498e+01 8.302606356088010386e+01 1.326426336937317352e+01 -2.291070050077762232e+02 4.069762305097562916e+01 -5.936244619556064528e+00 8.665045180358174548e+01 -2.265929206539340512e+01 9.720529459761348789e+01 1.634253438936931957e+01 -8.142017987867144768e+01 -1.969572515907227839e+01 -1.684782258955420389e+02 1.105366916634898047e+02 2.430677133712727311e+01 -4.000621102958715625e+01 -4.979586643030470583e+01 -6.048636487060614542e+01 3.953848437522763248e+01 1.544819732375997035e+02 1.275592844325653772e+02 4.137672727498469527e+01 -1.902085770530825641e+02 -3.729378520069552394e+01 4.212746954307990421e+01 1.127777164188003098e+02 8.381029137376371807e+01 1.483822028298786222e+01 -1.788109322712346909e+02 1.265674786595137675e+02 -2.150736599939799021e+02 -1.978349753355652467e+02 -1.756494255804233351e+00 -7.090854953554595852e+01 -2.318929428352225131e+01 8.374088433074319937e+01 5.375062267160391372e+01 -1.068757443411572581e+02 -1.455994577097102081e+02 1.401508319526345225e+01 1.188929224682592860e+02 1.986688887450993590e+01 -5.451044581662989685e+01 -4.965381765547218151e+01 -1.125316472151205183e+01 1.551191736918020183e+02 2.149643629255335497e+01 -1.699972867845550297e+02 1.255987420202026499e+02 -6.540635854831016616e+01 -4.084196683108993753e+00 1.507002287009885038e+02 -5.116034877677286374e+01 -1.917550024559985644e+01 -1.075029294533880631e+02 -5.871598823697866010e+00 -2.333638059642343876e+01 1.288591710230825811e+02 1.174963976989241274e+02 6.613621015562213756e+01 6.405085572456887633e+01 -1.830652209944581799e+01 1.322751650161501686e+02 -1.103596414644121921e+02 -4.162901308347529472e+00 -8.910368597112010036e+01 1.537240607548484093e+02 7.136977170339561383e+01 5.056050426640263140e+01 8.074460097686385396e+00 -5.216316667364297643e+01 3.364366033106136911e+01 6.580471331720699979e+00 3.577805660458948989e+00 2.358172200946734165e+01 5.849018696328636224e+01 1.665981252040497225e+02 -3.802665967915460499e+01 -5.085410729326460455e+01 6.535484452010513223e+01 1.131721729449514555e+02 -1.253963808558047255e+01 8.997309964364141877e+01 1.018519574394552478e+02 2.062450261121883557e+02 -8.466981403254513339e+01 -1.200187818239927537e+02 -2.802654470438515233e+01 6.082060471104412613e+01 -9.928629021628463391e+00 1.050792799475500772e+02 3.643975038077674355e+01 -1.590794112941795220e+02 4.406995773915031123e+01 -8.750051026584438318e+01 -1.323241302450927037e+02 1.315454369667416188e+02 -7.437319956304048674e+01 5.787141842836629024e+01 1.086952022738786781e+02 -9.678596159648394348e+01 2.297740805099516948e+01 -7.052130595800736046e+01 3.938036282113642983e+01 -1.120539346181652434e+02 6.020469899038666739e+01 5.344173763272878119e+01 3.784779999912279980e+00 8.210688690093107311e+01 -1.493705373275640795e+02 7.460731324801041353e+01 -2.863473065181311483e+01 -1.638614603914610655e+02 9.166840859066455494e+01 2.381139267948667992e+01 -1.902176965948186478e+02 2.282071809470272115e+02 -5.222084841698891866e-01 1.019966773921443064e+02 -1.169648277082740151e+02 -1.883515246499129603e+02 -9.051001425202073847e+01 2.424846585540104016e+00 1.385708449455472362e+02 3.847709664667936291e+00 -9.270051876791103496e+01 4.884039087155913705e+01 1.329169971495962841e+02 6.300945837590347764e+01 -5.016514294633316950e+01 -5.736650773269003878e+01 8.195944457864462152e+01 2.979495664738696092e+01 -1.896967840943057979e+02 -2.010632813705771937e+01 1.639348963144157096e+02 9.582168845193945117e+01 -5.561260144750627177e+01 -1.084372756884705922e+02 -4.138639441183145351e+01 -4.663382910976547180e+01 -1.110019003135594460e+02 -1.788533172924600123e+01 -4.428355190781559969e+01 -1.101983181454490648e+02 -1.279516046940102854e+02 -2.614479727137151954e+01 -1.218943919812009398e+02 -1.298056923344022664e+02 -3.717771744323797378e+01 -5.366283653244759932e+01 -1.076864283406708296e+02 1.870461929648990633e+02 1.057288885656942057e+01 -2.826295188865342567e+01 -1.708079181263970270e+01 7.904677142801733680e+01 1.572291357029791570e+01 2.516752604350036293e+01 -2.134769089467824799e+01 -4.650356189316927669e+01 2.101119480528087635e+01 -1.460791054768031074e+02 -1.599483983842028181e+02 -9.081885619069973359e+01 -1.917600278312019100e+02 -9.003899321144744761e+01 8.617855831308692416e+01 6.168314396199933469e+01 -2.617532703003685413e+01 6.105783801500600561e+01 -1.573307710647575277e+02 -4.107080972599482749e+01 -1.167001942814004991e+02 -6.706688344481102604e+01 2.119984029205977265e+02 -2.062691713743521973e+02 2.062455121835376985e+02 2.508707568107219643e+01 -5.671949406169142804e+01 9.265058033610074517e+01 1.246737512983459197e+02 -5.213503783323547935e+01 -2.047382428209840839e+02 -1.498094465631966443e+02 1.027718785037502727e+02 8.415949492711013136e+01 -1.362173324671417731e+02 3.209009848319800540e+01 -3.987631589471670424e+01 -7.777296709816918963e+01 -2.856344977700482346e+01 -5.507837734842815536e+01 -8.683742094391188004e+01 -3.422229943548785513e+01 4.538748704352793872e+00 -3.282427338872003020e+01 -3.752906358026184552e-01 -1.439239125627168470e+01 9.238600511964060047e+01 1.277220877881816108e+02 1.322369274456167965e+01 1.688175071188210907e+01 -6.344275151453987149e+01 -1.970032372794164246e+02 3.401159119672065145e+01 -9.215936803079807760e+01 2.596438873117678980e+01 -8.172614833753087282e+00 1.057641857491730786e+00 7.270414178220225665e+01 1.224780321280525328e+02 -7.082333851999452179e+01 3.818222788873082152e+01 -1.938247953353118476e+02 9.730896909722122956e+00 6.978983260512075404e+00 -1.231530412044634915e+02 -3.387563453282478321e+01 -4.454228737249345471e+01 4.787831098247131045e+00 -1.027372234495169607e+02 2.718187206077423923e+01 -9.811429783011368500e+01 5.633620394905962314e+01 6.819563794165443937e+01 3.707321738338719541e+01 -2.915512290044178201e+01 1.079885014381844428e+02 6.138410624291026352e+01 8.038276731289454347e+01 -6.732123900454654120e+01 2.035611530123709656e+01 1.284700085686923501e+02 -5.875764973406747060e+01 -6.948850217103062832e+00 3.212983227058452229e+01 -1.289920467571928100e+02 9.823641306481366087e+01 8.996212735524285620e+01 -1.016008439348418619e+02 -8.269492230692091539e+01 -5.576488949802597261e+01 -4.580511850356970882e+01 -1.608778214310435999e+02 -1.364437213706203806e+02 -1.330022900223261217e+02 1.060673449559253640e+02 6.002440838630406006e+01 1.601188061578835118e+02 7.230916639811734825e+00 -8.600141876557115950e+01 1.881688460858863721e+01 1.387481370521953217e+01 -6.376093429915545130e+01 7.428671755912350250e+01 1.184247607762070942e+02 9.996687054681716589e+00 1.437894890309484026e+02 2.255884377561684673e+01 1.112580736468096205e+02 1.511630203125603167e+01 -2.083333057855697916e+02 2.189385064571352473e+02 -4.905834988283962872e+01 -1.494403250443217246e+02 -6.734655028504937491e+01 -4.296850078482140134e+01 4.130294073380652975e+01 2.553407435768019340e+01 4.563533610239912974e+01 -7.386470386774641383e+01 1.219790360364586093e+02 -8.595920801959236712e+01 -6.986322445002326020e+00 1.418500241782738556e+02 1.091192916834624071e+02 5.775646170278211855e+01 -1.761513334968972515e+02 2.529900322933776380e+01 1.396151760114177307e+02 2.329086184046992258e+01 9.697636529703206065e+01 1.057131431715517067e+02 -2.099720894395908601e+02 7.635553732664149607e+01 -5.730976837726552731e+01 -2.231251993981733222e+02 8.773981959506291162e+01 2.433715996711304541e+01 -1.203488291032124806e+02 -5.767400970393511273e+01 1.365007385275005447e+02 1.449335596332173566e+02 -7.441376808823295619e+01 -1.252408510830855732e+02 -8.167055637690279468e+01 -1.621857869322433316e+02 1.912115748604663423e+01 3.704177835915749029e+01 -1.656702328609659602e+01 -1.206616110596245584e+01 -8.715462997992712246e+01 -8.590791942689556038e+01 -2.396361223915545224e+01 1.297539298965837986e+02 1.318305448258782349e+02 7.844386485711049772e+01 9.382742782774170109e+01 -7.581865455477304749e+01 -1.741798550514927229e+02 -1.272434776370219822e+01 -2.227192795557311555e+01 -6.836678185213322934e+01 1.431666151815251586e+00 7.030058900708498015e+01 -5.091739504342177725e+01 2.375814618770960251e+01 7.619652731048422822e+01 6.745627512375294543e+01 1.063680989669732355e+02 -1.435292461842558680e+02 3.813777826798639126e+01 8.016357306128195148e+01 9.117592967175110630e+01 5.682017483179802042e+01 -9.933252904779016035e+01 1.317488505808358923e+02 1.226589500020088366e+02 9.222398399112529432e+01 9.769678441848606099e+01 -8.102905948440977113e+01 -1.430029010500297559e+01 -1.245498174086346133e+01 7.412990384687152812e+01 6.251605829367753842e+01 5.388861075641489151e+01 9.387783429519720357e+01 1.120960360982794413e+02 1.192505191969899272e+02 -6.240135986305574534e+01 7.756108225684859292e+01 6.276763328814114828e+01 -1.132148975855746755e+02 1.266344670969003374e+02 -9.648960351616148401e+00 -2.687604184065410351e+01 1.918358458382093090e+02 8.519600103776542710e+01 1.195073407998746404e+02 -1.390112161372429114e+02 -1.519863061062281417e+02 -1.480590579819078414e+02 -1.176953037322499540e+02 -4.267472335088421431e+01 1.058063845536476890e+02 -1.626075913711318321e+02 3.134753987949014231e+01 1.392140644078891114e+02 -5.725459894768896163e+01 -8.812941229353127426e+01 -3.390128643978233924e+01 1.311305757583447473e+02 2.194178891752886216e+02 -6.439135372452516037e+01 1.914253989144979329e+01 -2.673696243517206383e+01 6.616716049861312854e+01 5.820208753163097981e+01 -2.060484965262761818e+02 -8.569428249037213163e+01 1.329915956178681427e+02 1.351403563597128255e+02 9.139820394303730211e+01 -4.818579985625772366e+01 -7.329451440255452610e+01 -4.389330856112076162e+01 -1.707864931978804748e+02 6.881584157614145170e+01 -2.481759444475722987e+01 1.609728684968388563e+02 -2.703539428892774765e+01 -3.044488624530919765e+02 1.402040544628551686e+02 4.862544942236326762e+01 -1.141689242298469651e+02 -2.146403682827705239e+01 3.417503541369486442e+01 -2.010685820119349501e+02 -1.106323748035882062e+02 -1.061560515262628286e+02 -5.461425991490435905e+01 6.080184860273672598e+01 -1.596415630528808833e+02 1.044987281737365237e+02 -5.261123778395336359e+01 2.831923488787986276e+00 -1.292317549908880494e+02 -1.004084720250718163e+02 1.703503505177609441e+02 8.396149128106429771e+01 -4.091790859336266095e+01 3.599713355476343679e+01 -2.717809255443268412e+01 4.194985895409986654e+01 -1.013895596813395912e+02 9.585779737322371830e+01 4.894105002275394156e+01 -1.152453029358800478e+02 1.131700507077376869e+02 -4.761120431325392133e+01 9.684893795168011366e+01 -4.789059773665186270e+01 8.567794185290756559e+01 -1.487301570954741692e+02 1.383890335463403005e+02 2.401253898864435854e+01 9.761773378907126641e+01 1.264898413687169381e+02 -1.422430296337842606e+02 -8.332349123446930150e+01 -1.024689250683028945e+02 6.486773191527693427e+01 -1.662353968360711178e+02 1.470203987920071143e+02 1.381261402232258320e+02 5.140171219435044492e+01 -8.238080417633003094e+01 5.537558671029428581e+01 -1.041597667132640339e+02 -1.060849239882697503e+01 3.394072428633830185e+01 -1.783351351385563817e+02 -7.917401422440083536e+01 -1.313746420374945600e+01 9.919980191984481621e+01 -4.875079075853381738e+01 1.055750872806080167e+02 -6.245492934978917532e+01 -2.046827626237246420e+02 -1.039969290366123573e+02 -3.305621574472345969e+01 -5.844772804126273513e+01 2.922284266166795419e+01 4.994497198833762752e+01 6.156504242961402973e+00 2.465312820530899174e+01 -1.140227754435920104e+02 5.235368069719022799e+01 3.171696427981545696e+01 -7.013204187865825645e+01 9.019957045819500863e+00 5.480025357688496257e+01 -9.275064338631220551e+01 -5.356746646401044387e+01 -2.350048866916966617e+01 9.488695428514989771e+01 -1.666057242063395449e+01 4.080425634761374099e+00 -2.218806657599926382e+02 -9.243244863251739218e+01 9.624990494732378465e+01 -8.675615679198391206e+01 3.048658776006048399e+01 3.021767844273608006e+01 3.688381476754532429e+01 6.429719034314469184e+01 -1.726751123610382876e+02 1.401101526218002675e+02 7.934716749871564900e+01 -7.333539420158947664e+00 -7.863928362751657630e+01 1.088812986231476003e+02 6.043858493642571261e+01 -1.957530775725267915e+02 -4.903194958958278704e+01 -7.953251642956163892e+01 -5.043162493712111427e+01 -6.026503832900039725e+01 -9.638339847256136750e+01 -5.875720242345600752e+01 1.864421503840457319e+02 -1.662240466764324935e+02 6.373465498653347794e+01 2.701126094599122140e+01 -7.320027192193443000e+01 1.012064825947234681e+01 -3.839242352330795427e+01 3.346391285419224815e+00 -9.361255605797084911e+01 -1.923671716127335571e+02 1.791098141681182909e+01 4.079526440085626859e+01 -1.245927680156198747e+01 -8.736571764573879406e+00 -3.873428795307447103e+01 -1.849235459992158894e+02 -2.983171956072227360e+01 -6.364494020971089583e+01 1.357689149617051783e+01 -1.520730560662397224e+01 8.821853190632620567e+01 -6.139143172984882568e+01 -1.009814023006540680e+02 -3.477310956725950319e+01 -8.750286807956170421e+00 4.426723197492043482e+01 -2.154608841407446818e+01 -7.188700103881699022e+01 -1.546817013264930729e+01 1.952631102857962730e+01 4.626992309546519522e+01 -1.110363439361957916e+02 -1.354261765304260052e+02 2.244004335287585263e+02 -2.126578437622400202e+02 -7.397318914067943751e+01 -4.513053670349319901e+01 1.362523472569775151e+02 6.165006332127602917e+01 2.230443511171137914e+02 2.384838269035348048e+02 -6.075994770377124610e+01 1.261321454679372778e+02 -5.458612135576141355e+01 -3.977611442293957111e+01 -9.804786896650158212e+01 -7.779762543309875866e+01 -6.776850260728157593e+01 -8.674523300299546236e+01 -2.375572235300502655e+02 -2.639297441969210354e+02 1.312428513879458478e+02 -2.586312122681211534e+01 5.191106904145484435e+01 1.275696353948868165e+02
