# 
#                 ----------------------------------------------------
#                 Data from a 3D direct N-body simulation. 
# 
#                 rows are i-particle; 
#                 coumns are :mass, tag, x ,y, z, vx, vy, vz, ax, ay, az
# 
#                 NTHU, Computational Physics Lab
# 
#                 ----------------------------------------------------
#                 Time = 8.19999999999987
1.000000000000000000e+00 2.000000000000000000e+00 3.000000000000000000e+00 4.000000000000000000e+00 5.000000000000000000e+00 6.000000000000000000e+00 7.000000000000000000e+00 8.000000000000000000e+00 9.000000000000000000e+00 1.000000000000000000e+01 1.100000000000000000e+01 1.200000000000000000e+01 1.300000000000000000e+01 1.400000000000000000e+01 1.500000000000000000e+01 1.600000000000000000e+01 1.700000000000000000e+01 1.800000000000000000e+01 1.900000000000000000e+01 2.000000000000000000e+01 2.100000000000000000e+01 2.200000000000000000e+01 2.300000000000000000e+01 2.400000000000000000e+01 2.500000000000000000e+01 2.600000000000000000e+01 2.700000000000000000e+01 2.800000000000000000e+01 2.900000000000000000e+01 3.000000000000000000e+01 3.100000000000000000e+01 3.200000000000000000e+01 3.300000000000000000e+01 3.400000000000000000e+01 3.500000000000000000e+01 3.600000000000000000e+01 3.700000000000000000e+01 3.800000000000000000e+01 3.900000000000000000e+01 4.000000000000000000e+01 4.100000000000000000e+01 4.200000000000000000e+01 4.300000000000000000e+01 4.400000000000000000e+01 4.500000000000000000e+01 4.600000000000000000e+01 4.700000000000000000e+01 4.800000000000000000e+01 4.900000000000000000e+01 5.000000000000000000e+01 5.100000000000000000e+01 5.200000000000000000e+01 5.300000000000000000e+01 5.400000000000000000e+01 5.500000000000000000e+01 5.600000000000000000e+01 5.700000000000000000e+01 5.800000000000000000e+01 5.900000000000000000e+01 6.000000000000000000e+01 6.100000000000000000e+01 6.200000000000000000e+01 6.300000000000000000e+01 6.400000000000000000e+01 6.500000000000000000e+01 6.600000000000000000e+01 6.700000000000000000e+01 6.800000000000000000e+01 6.900000000000000000e+01 7.000000000000000000e+01 7.100000000000000000e+01 7.200000000000000000e+01 7.300000000000000000e+01 7.400000000000000000e+01 7.500000000000000000e+01 7.600000000000000000e+01 7.700000000000000000e+01 7.800000000000000000e+01 7.900000000000000000e+01 8.000000000000000000e+01 8.100000000000000000e+01 8.200000000000000000e+01 8.300000000000000000e+01 8.400000000000000000e+01 8.500000000000000000e+01 8.600000000000000000e+01 8.700000000000000000e+01 8.800000000000000000e+01 8.900000000000000000e+01 9.000000000000000000e+01 9.100000000000000000e+01 9.200000000000000000e+01 9.300000000000000000e+01 9.400000000000000000e+01 9.500000000000000000e+01 9.600000000000000000e+01 9.700000000000000000e+01 9.800000000000000000e+01 9.900000000000000000e+01 1.000000000000000000e+02 1.010000000000000000e+02 1.020000000000000000e+02 1.030000000000000000e+02 1.040000000000000000e+02 1.050000000000000000e+02 1.060000000000000000e+02 1.070000000000000000e+02 1.080000000000000000e+02 1.090000000000000000e+02 1.100000000000000000e+02 1.110000000000000000e+02 1.120000000000000000e+02 1.130000000000000000e+02 1.140000000000000000e+02 1.150000000000000000e+02 1.160000000000000000e+02 1.170000000000000000e+02 1.180000000000000000e+02 1.190000000000000000e+02 1.200000000000000000e+02 1.210000000000000000e+02 1.220000000000000000e+02 1.230000000000000000e+02 1.240000000000000000e+02 1.250000000000000000e+02 1.260000000000000000e+02 1.270000000000000000e+02 1.280000000000000000e+02 1.290000000000000000e+02 1.300000000000000000e+02 1.310000000000000000e+02 1.320000000000000000e+02 1.330000000000000000e+02 1.340000000000000000e+02 1.350000000000000000e+02 1.360000000000000000e+02 1.370000000000000000e+02 1.380000000000000000e+02 1.390000000000000000e+02 1.400000000000000000e+02 1.410000000000000000e+02 1.420000000000000000e+02 1.430000000000000000e+02 1.440000000000000000e+02 1.450000000000000000e+02 1.460000000000000000e+02 1.470000000000000000e+02 1.480000000000000000e+02 1.490000000000000000e+02 1.500000000000000000e+02 1.510000000000000000e+02 1.520000000000000000e+02 1.530000000000000000e+02 1.540000000000000000e+02 1.550000000000000000e+02 1.560000000000000000e+02 1.570000000000000000e+02 1.580000000000000000e+02 1.590000000000000000e+02 1.600000000000000000e+02 1.610000000000000000e+02 1.620000000000000000e+02 1.630000000000000000e+02 1.640000000000000000e+02 1.650000000000000000e+02 1.660000000000000000e+02 1.670000000000000000e+02 1.680000000000000000e+02 1.690000000000000000e+02 1.700000000000000000e+02 1.710000000000000000e+02 1.720000000000000000e+02 1.730000000000000000e+02 1.740000000000000000e+02 1.750000000000000000e+02 1.760000000000000000e+02 1.770000000000000000e+02 1.780000000000000000e+02 1.790000000000000000e+02 1.800000000000000000e+02 1.810000000000000000e+02 1.820000000000000000e+02 1.830000000000000000e+02 1.840000000000000000e+02 1.850000000000000000e+02 1.860000000000000000e+02 1.870000000000000000e+02 1.880000000000000000e+02 1.890000000000000000e+02 1.900000000000000000e+02 1.910000000000000000e+02 1.920000000000000000e+02 1.930000000000000000e+02 1.940000000000000000e+02 1.950000000000000000e+02 1.960000000000000000e+02 1.970000000000000000e+02 1.980000000000000000e+02 1.990000000000000000e+02 2.000000000000000000e+02 2.010000000000000000e+02 2.020000000000000000e+02 2.030000000000000000e+02 2.040000000000000000e+02 2.050000000000000000e+02 2.060000000000000000e+02 2.070000000000000000e+02 2.080000000000000000e+02 2.090000000000000000e+02 2.100000000000000000e+02 2.110000000000000000e+02 2.120000000000000000e+02 2.130000000000000000e+02 2.140000000000000000e+02 2.150000000000000000e+02 2.160000000000000000e+02 2.170000000000000000e+02 2.180000000000000000e+02 2.190000000000000000e+02 2.200000000000000000e+02 2.210000000000000000e+02 2.220000000000000000e+02 2.230000000000000000e+02 2.240000000000000000e+02 2.250000000000000000e+02 2.260000000000000000e+02 2.270000000000000000e+02 2.280000000000000000e+02 2.290000000000000000e+02 2.300000000000000000e+02 2.310000000000000000e+02 2.320000000000000000e+02 2.330000000000000000e+02 2.340000000000000000e+02 2.350000000000000000e+02 2.360000000000000000e+02 2.370000000000000000e+02 2.380000000000000000e+02 2.390000000000000000e+02 2.400000000000000000e+02 2.410000000000000000e+02 2.420000000000000000e+02 2.430000000000000000e+02 2.440000000000000000e+02 2.450000000000000000e+02 2.460000000000000000e+02 2.470000000000000000e+02 2.480000000000000000e+02 2.490000000000000000e+02 2.500000000000000000e+02 2.510000000000000000e+02 2.520000000000000000e+02 2.530000000000000000e+02 2.540000000000000000e+02 2.550000000000000000e+02 2.560000000000000000e+02 2.570000000000000000e+02 2.580000000000000000e+02 2.590000000000000000e+02 2.600000000000000000e+02 2.610000000000000000e+02 2.620000000000000000e+02 2.630000000000000000e+02 2.640000000000000000e+02 2.650000000000000000e+02 2.660000000000000000e+02 2.670000000000000000e+02 2.680000000000000000e+02 2.690000000000000000e+02 2.700000000000000000e+02 2.710000000000000000e+02 2.720000000000000000e+02 2.730000000000000000e+02 2.740000000000000000e+02 2.750000000000000000e+02 2.760000000000000000e+02 2.770000000000000000e+02 2.780000000000000000e+02 2.790000000000000000e+02 2.800000000000000000e+02 2.810000000000000000e+02 2.820000000000000000e+02 2.830000000000000000e+02 2.840000000000000000e+02 2.850000000000000000e+02 2.860000000000000000e+02 2.870000000000000000e+02 2.880000000000000000e+02 2.890000000000000000e+02 2.900000000000000000e+02 2.910000000000000000e+02 2.920000000000000000e+02 2.930000000000000000e+02 2.940000000000000000e+02 2.950000000000000000e+02 2.960000000000000000e+02 2.970000000000000000e+02 2.980000000000000000e+02 2.990000000000000000e+02 3.000000000000000000e+02 3.010000000000000000e+02 3.020000000000000000e+02 3.030000000000000000e+02 3.040000000000000000e+02 3.050000000000000000e+02 3.060000000000000000e+02 3.070000000000000000e+02 3.080000000000000000e+02 3.090000000000000000e+02 3.100000000000000000e+02 3.110000000000000000e+02 3.120000000000000000e+02 3.130000000000000000e+02 3.140000000000000000e+02 3.150000000000000000e+02 3.160000000000000000e+02 3.170000000000000000e+02 3.180000000000000000e+02 3.190000000000000000e+02 3.200000000000000000e+02 3.210000000000000000e+02 3.220000000000000000e+02 3.230000000000000000e+02 3.240000000000000000e+02 3.250000000000000000e+02 3.260000000000000000e+02 3.270000000000000000e+02 3.280000000000000000e+02 3.290000000000000000e+02 3.300000000000000000e+02 3.310000000000000000e+02 3.320000000000000000e+02 3.330000000000000000e+02 3.340000000000000000e+02 3.350000000000000000e+02 3.360000000000000000e+02 3.370000000000000000e+02 3.380000000000000000e+02 3.390000000000000000e+02 3.400000000000000000e+02 3.410000000000000000e+02 3.420000000000000000e+02 3.430000000000000000e+02 3.440000000000000000e+02 3.450000000000000000e+02 3.460000000000000000e+02 3.470000000000000000e+02 3.480000000000000000e+02 3.490000000000000000e+02 3.500000000000000000e+02 3.510000000000000000e+02 3.520000000000000000e+02 3.530000000000000000e+02 3.540000000000000000e+02 3.550000000000000000e+02 3.560000000000000000e+02 3.570000000000000000e+02 3.580000000000000000e+02 3.590000000000000000e+02 3.600000000000000000e+02 3.610000000000000000e+02 3.620000000000000000e+02 3.630000000000000000e+02 3.640000000000000000e+02 3.650000000000000000e+02 3.660000000000000000e+02 3.670000000000000000e+02 3.680000000000000000e+02 3.690000000000000000e+02 3.700000000000000000e+02 3.710000000000000000e+02 3.720000000000000000e+02 3.730000000000000000e+02 3.740000000000000000e+02 3.750000000000000000e+02 3.760000000000000000e+02 3.770000000000000000e+02 3.780000000000000000e+02 3.790000000000000000e+02 3.800000000000000000e+02 3.810000000000000000e+02 3.820000000000000000e+02 3.830000000000000000e+02 3.840000000000000000e+02 3.850000000000000000e+02 3.860000000000000000e+02 3.870000000000000000e+02 3.880000000000000000e+02 3.890000000000000000e+02 3.900000000000000000e+02 3.910000000000000000e+02 3.920000000000000000e+02 3.930000000000000000e+02 3.940000000000000000e+02 3.950000000000000000e+02 3.960000000000000000e+02 3.970000000000000000e+02 3.980000000000000000e+02 3.990000000000000000e+02 4.000000000000000000e+02 4.010000000000000000e+02 4.020000000000000000e+02 4.030000000000000000e+02 4.040000000000000000e+02 4.050000000000000000e+02 4.060000000000000000e+02 4.070000000000000000e+02 4.080000000000000000e+02 4.090000000000000000e+02 4.100000000000000000e+02 4.110000000000000000e+02 4.120000000000000000e+02 4.130000000000000000e+02 4.140000000000000000e+02 4.150000000000000000e+02 4.160000000000000000e+02 4.170000000000000000e+02 4.180000000000000000e+02 4.190000000000000000e+02 4.200000000000000000e+02 4.210000000000000000e+02 4.220000000000000000e+02 4.230000000000000000e+02 4.240000000000000000e+02 4.250000000000000000e+02 4.260000000000000000e+02 4.270000000000000000e+02 4.280000000000000000e+02 4.290000000000000000e+02 4.300000000000000000e+02 4.310000000000000000e+02 4.320000000000000000e+02 4.330000000000000000e+02 4.340000000000000000e+02 4.350000000000000000e+02 4.360000000000000000e+02 4.370000000000000000e+02 4.380000000000000000e+02 4.390000000000000000e+02 4.400000000000000000e+02 4.410000000000000000e+02 4.420000000000000000e+02 4.430000000000000000e+02 4.440000000000000000e+02 4.450000000000000000e+02 4.460000000000000000e+02 4.470000000000000000e+02 4.480000000000000000e+02 4.490000000000000000e+02 4.500000000000000000e+02 4.510000000000000000e+02 4.520000000000000000e+02 4.530000000000000000e+02 4.540000000000000000e+02 4.550000000000000000e+02 4.560000000000000000e+02 4.570000000000000000e+02 4.580000000000000000e+02 4.590000000000000000e+02 4.600000000000000000e+02 4.610000000000000000e+02 4.620000000000000000e+02 4.630000000000000000e+02 4.640000000000000000e+02 4.650000000000000000e+02 4.660000000000000000e+02 4.670000000000000000e+02 4.680000000000000000e+02 4.690000000000000000e+02 4.700000000000000000e+02 4.710000000000000000e+02 4.720000000000000000e+02 4.730000000000000000e+02 4.740000000000000000e+02 4.750000000000000000e+02 4.760000000000000000e+02 4.770000000000000000e+02 4.780000000000000000e+02 4.790000000000000000e+02 4.800000000000000000e+02 4.810000000000000000e+02 4.820000000000000000e+02 4.830000000000000000e+02 4.840000000000000000e+02 4.850000000000000000e+02 4.860000000000000000e+02 4.870000000000000000e+02 4.880000000000000000e+02 4.890000000000000000e+02 4.900000000000000000e+02 4.910000000000000000e+02 4.920000000000000000e+02 4.930000000000000000e+02 4.940000000000000000e+02 4.950000000000000000e+02 4.960000000000000000e+02 4.970000000000000000e+02 4.980000000000000000e+02 4.990000000000000000e+02 5.000000000000000000e+02 5.010000000000000000e+02 5.020000000000000000e+02 5.030000000000000000e+02 5.040000000000000000e+02 5.050000000000000000e+02 5.060000000000000000e+02 5.070000000000000000e+02 5.080000000000000000e+02 5.090000000000000000e+02 5.100000000000000000e+02 5.110000000000000000e+02 5.120000000000000000e+02 5.130000000000000000e+02 5.140000000000000000e+02 5.150000000000000000e+02 5.160000000000000000e+02 5.170000000000000000e+02 5.180000000000000000e+02 5.190000000000000000e+02 5.200000000000000000e+02 5.210000000000000000e+02 5.220000000000000000e+02 5.230000000000000000e+02 5.240000000000000000e+02 5.250000000000000000e+02 5.260000000000000000e+02 5.270000000000000000e+02 5.280000000000000000e+02 5.290000000000000000e+02 5.300000000000000000e+02 5.310000000000000000e+02 5.320000000000000000e+02 5.330000000000000000e+02 5.340000000000000000e+02 5.350000000000000000e+02 5.360000000000000000e+02 5.370000000000000000e+02 5.380000000000000000e+02 5.390000000000000000e+02 5.400000000000000000e+02 5.410000000000000000e+02 5.420000000000000000e+02 5.430000000000000000e+02 5.440000000000000000e+02 5.450000000000000000e+02 5.460000000000000000e+02 5.470000000000000000e+02 5.480000000000000000e+02 5.490000000000000000e+02 5.500000000000000000e+02 5.510000000000000000e+02 5.520000000000000000e+02 5.530000000000000000e+02 5.540000000000000000e+02 5.550000000000000000e+02 5.560000000000000000e+02 5.570000000000000000e+02 5.580000000000000000e+02 5.590000000000000000e+02 5.600000000000000000e+02 5.610000000000000000e+02 5.620000000000000000e+02 5.630000000000000000e+02 5.640000000000000000e+02 5.650000000000000000e+02 5.660000000000000000e+02 5.670000000000000000e+02 5.680000000000000000e+02 5.690000000000000000e+02 5.700000000000000000e+02 5.710000000000000000e+02 5.720000000000000000e+02 5.730000000000000000e+02 5.740000000000000000e+02 5.750000000000000000e+02 5.760000000000000000e+02 5.770000000000000000e+02 5.780000000000000000e+02 5.790000000000000000e+02 5.800000000000000000e+02 5.810000000000000000e+02 5.820000000000000000e+02 5.830000000000000000e+02 5.840000000000000000e+02 5.850000000000000000e+02 5.860000000000000000e+02 5.870000000000000000e+02 5.880000000000000000e+02 5.890000000000000000e+02 5.900000000000000000e+02 5.910000000000000000e+02 5.920000000000000000e+02 5.930000000000000000e+02 5.940000000000000000e+02 5.950000000000000000e+02 5.960000000000000000e+02 5.970000000000000000e+02 5.980000000000000000e+02 5.990000000000000000e+02 6.000000000000000000e+02 6.010000000000000000e+02 6.020000000000000000e+02 6.030000000000000000e+02 6.040000000000000000e+02 6.050000000000000000e+02 6.060000000000000000e+02 6.070000000000000000e+02 6.080000000000000000e+02 6.090000000000000000e+02 6.100000000000000000e+02 6.110000000000000000e+02 6.120000000000000000e+02 6.130000000000000000e+02 6.140000000000000000e+02 6.150000000000000000e+02 6.160000000000000000e+02 6.170000000000000000e+02 6.180000000000000000e+02 6.190000000000000000e+02 6.200000000000000000e+02 6.210000000000000000e+02 6.220000000000000000e+02 6.230000000000000000e+02 6.240000000000000000e+02 6.250000000000000000e+02 6.260000000000000000e+02 6.270000000000000000e+02 6.280000000000000000e+02 6.290000000000000000e+02 6.300000000000000000e+02 6.310000000000000000e+02 6.320000000000000000e+02 6.330000000000000000e+02 6.340000000000000000e+02 6.350000000000000000e+02 6.360000000000000000e+02 6.370000000000000000e+02 6.380000000000000000e+02 6.390000000000000000e+02 6.400000000000000000e+02 6.410000000000000000e+02 6.420000000000000000e+02 6.430000000000000000e+02 6.440000000000000000e+02 6.450000000000000000e+02 6.460000000000000000e+02 6.470000000000000000e+02 6.480000000000000000e+02 6.490000000000000000e+02 6.500000000000000000e+02 6.510000000000000000e+02 6.520000000000000000e+02 6.530000000000000000e+02 6.540000000000000000e+02 6.550000000000000000e+02 6.560000000000000000e+02 6.570000000000000000e+02 6.580000000000000000e+02 6.590000000000000000e+02 6.600000000000000000e+02 6.610000000000000000e+02 6.620000000000000000e+02 6.630000000000000000e+02 6.640000000000000000e+02 6.650000000000000000e+02 6.660000000000000000e+02 6.670000000000000000e+02 6.680000000000000000e+02 6.690000000000000000e+02 6.700000000000000000e+02 6.710000000000000000e+02 6.720000000000000000e+02 6.730000000000000000e+02 6.740000000000000000e+02 6.750000000000000000e+02 6.760000000000000000e+02 6.770000000000000000e+02 6.780000000000000000e+02 6.790000000000000000e+02 6.800000000000000000e+02 6.810000000000000000e+02 6.820000000000000000e+02 6.830000000000000000e+02 6.840000000000000000e+02 6.850000000000000000e+02 6.860000000000000000e+02 6.870000000000000000e+02 6.880000000000000000e+02 6.890000000000000000e+02 6.900000000000000000e+02 6.910000000000000000e+02 6.920000000000000000e+02 6.930000000000000000e+02 6.940000000000000000e+02 6.950000000000000000e+02 6.960000000000000000e+02 6.970000000000000000e+02 6.980000000000000000e+02 6.990000000000000000e+02 7.000000000000000000e+02 7.010000000000000000e+02 7.020000000000000000e+02 7.030000000000000000e+02 7.040000000000000000e+02 7.050000000000000000e+02 7.060000000000000000e+02 7.070000000000000000e+02 7.080000000000000000e+02 7.090000000000000000e+02 7.100000000000000000e+02 7.110000000000000000e+02 7.120000000000000000e+02 7.130000000000000000e+02 7.140000000000000000e+02 7.150000000000000000e+02 7.160000000000000000e+02 7.170000000000000000e+02 7.180000000000000000e+02 7.190000000000000000e+02 7.200000000000000000e+02 7.210000000000000000e+02 7.220000000000000000e+02 7.230000000000000000e+02 7.240000000000000000e+02 7.250000000000000000e+02 7.260000000000000000e+02 7.270000000000000000e+02 7.280000000000000000e+02 7.290000000000000000e+02 7.300000000000000000e+02 7.310000000000000000e+02 7.320000000000000000e+02 7.330000000000000000e+02 7.340000000000000000e+02 7.350000000000000000e+02 7.360000000000000000e+02 7.370000000000000000e+02 7.380000000000000000e+02 7.390000000000000000e+02 7.400000000000000000e+02 7.410000000000000000e+02 7.420000000000000000e+02 7.430000000000000000e+02 7.440000000000000000e+02 7.450000000000000000e+02 7.460000000000000000e+02 7.470000000000000000e+02 7.480000000000000000e+02 7.490000000000000000e+02 7.500000000000000000e+02 7.510000000000000000e+02 7.520000000000000000e+02 7.530000000000000000e+02 7.540000000000000000e+02 7.550000000000000000e+02 7.560000000000000000e+02 7.570000000000000000e+02 7.580000000000000000e+02 7.590000000000000000e+02 7.600000000000000000e+02 7.610000000000000000e+02 7.620000000000000000e+02 7.630000000000000000e+02 7.640000000000000000e+02 7.650000000000000000e+02 7.660000000000000000e+02 7.670000000000000000e+02 7.680000000000000000e+02 7.690000000000000000e+02 7.700000000000000000e+02 7.710000000000000000e+02 7.720000000000000000e+02 7.730000000000000000e+02 7.740000000000000000e+02 7.750000000000000000e+02 7.760000000000000000e+02 7.770000000000000000e+02 7.780000000000000000e+02 7.790000000000000000e+02 7.800000000000000000e+02 7.810000000000000000e+02 7.820000000000000000e+02 7.830000000000000000e+02 7.840000000000000000e+02 7.850000000000000000e+02 7.860000000000000000e+02 7.870000000000000000e+02 7.880000000000000000e+02 7.890000000000000000e+02 7.900000000000000000e+02 7.910000000000000000e+02 7.920000000000000000e+02 7.930000000000000000e+02 7.940000000000000000e+02 7.950000000000000000e+02 7.960000000000000000e+02 7.970000000000000000e+02 7.980000000000000000e+02 7.990000000000000000e+02 8.000000000000000000e+02 8.010000000000000000e+02 8.020000000000000000e+02 8.030000000000000000e+02 8.040000000000000000e+02 8.050000000000000000e+02 8.060000000000000000e+02 8.070000000000000000e+02 8.080000000000000000e+02 8.090000000000000000e+02 8.100000000000000000e+02 8.110000000000000000e+02 8.120000000000000000e+02 8.130000000000000000e+02 8.140000000000000000e+02 8.150000000000000000e+02 8.160000000000000000e+02 8.170000000000000000e+02 8.180000000000000000e+02 8.190000000000000000e+02 8.200000000000000000e+02 8.210000000000000000e+02 8.220000000000000000e+02 8.230000000000000000e+02 8.240000000000000000e+02 8.250000000000000000e+02 8.260000000000000000e+02 8.270000000000000000e+02 8.280000000000000000e+02 8.290000000000000000e+02 8.300000000000000000e+02 8.310000000000000000e+02 8.320000000000000000e+02 8.330000000000000000e+02 8.340000000000000000e+02 8.350000000000000000e+02 8.360000000000000000e+02 8.370000000000000000e+02 8.380000000000000000e+02 8.390000000000000000e+02 8.400000000000000000e+02 8.410000000000000000e+02 8.420000000000000000e+02 8.430000000000000000e+02 8.440000000000000000e+02 8.450000000000000000e+02 8.460000000000000000e+02 8.470000000000000000e+02 8.480000000000000000e+02 8.490000000000000000e+02 8.500000000000000000e+02 8.510000000000000000e+02 8.520000000000000000e+02 8.530000000000000000e+02 8.540000000000000000e+02 8.550000000000000000e+02 8.560000000000000000e+02 8.570000000000000000e+02 8.580000000000000000e+02 8.590000000000000000e+02 8.600000000000000000e+02 8.610000000000000000e+02 8.620000000000000000e+02 8.630000000000000000e+02 8.640000000000000000e+02 8.650000000000000000e+02 8.660000000000000000e+02 8.670000000000000000e+02 8.680000000000000000e+02 8.690000000000000000e+02 8.700000000000000000e+02 8.710000000000000000e+02 8.720000000000000000e+02 8.730000000000000000e+02 8.740000000000000000e+02 8.750000000000000000e+02 8.760000000000000000e+02 8.770000000000000000e+02 8.780000000000000000e+02 8.790000000000000000e+02 8.800000000000000000e+02 8.810000000000000000e+02 8.820000000000000000e+02 8.830000000000000000e+02 8.840000000000000000e+02 8.850000000000000000e+02 8.860000000000000000e+02 8.870000000000000000e+02 8.880000000000000000e+02 8.890000000000000000e+02 8.900000000000000000e+02 8.910000000000000000e+02 8.920000000000000000e+02 8.930000000000000000e+02 8.940000000000000000e+02 8.950000000000000000e+02 8.960000000000000000e+02 8.970000000000000000e+02 8.980000000000000000e+02 8.990000000000000000e+02 9.000000000000000000e+02 9.010000000000000000e+02 9.020000000000000000e+02 9.030000000000000000e+02 9.040000000000000000e+02 9.050000000000000000e+02 9.060000000000000000e+02 9.070000000000000000e+02 9.080000000000000000e+02 9.090000000000000000e+02 9.100000000000000000e+02 9.110000000000000000e+02 9.120000000000000000e+02 9.130000000000000000e+02 9.140000000000000000e+02 9.150000000000000000e+02 9.160000000000000000e+02 9.170000000000000000e+02 9.180000000000000000e+02 9.190000000000000000e+02 9.200000000000000000e+02 9.210000000000000000e+02 9.220000000000000000e+02 9.230000000000000000e+02 9.240000000000000000e+02 9.250000000000000000e+02 9.260000000000000000e+02 9.270000000000000000e+02 9.280000000000000000e+02 9.290000000000000000e+02 9.300000000000000000e+02 9.310000000000000000e+02 9.320000000000000000e+02 9.330000000000000000e+02 9.340000000000000000e+02 9.350000000000000000e+02 9.360000000000000000e+02 9.370000000000000000e+02 9.380000000000000000e+02 9.390000000000000000e+02 9.400000000000000000e+02 9.410000000000000000e+02 9.420000000000000000e+02 9.430000000000000000e+02 9.440000000000000000e+02 9.450000000000000000e+02 9.460000000000000000e+02 9.470000000000000000e+02 9.480000000000000000e+02 9.490000000000000000e+02 9.500000000000000000e+02 9.510000000000000000e+02 9.520000000000000000e+02 9.530000000000000000e+02 9.540000000000000000e+02 9.550000000000000000e+02 9.560000000000000000e+02 9.570000000000000000e+02 9.580000000000000000e+02 9.590000000000000000e+02 9.600000000000000000e+02 9.610000000000000000e+02 9.620000000000000000e+02 9.630000000000000000e+02 9.640000000000000000e+02 9.650000000000000000e+02 9.660000000000000000e+02 9.670000000000000000e+02 9.680000000000000000e+02 9.690000000000000000e+02 9.700000000000000000e+02 9.710000000000000000e+02 9.720000000000000000e+02 9.730000000000000000e+02 9.740000000000000000e+02 9.750000000000000000e+02 9.760000000000000000e+02 9.770000000000000000e+02 9.780000000000000000e+02 9.790000000000000000e+02 9.800000000000000000e+02 9.810000000000000000e+02 9.820000000000000000e+02 9.830000000000000000e+02 9.840000000000000000e+02 9.850000000000000000e+02 9.860000000000000000e+02 9.870000000000000000e+02 9.880000000000000000e+02 9.890000000000000000e+02 9.900000000000000000e+02 9.910000000000000000e+02 9.920000000000000000e+02 9.930000000000000000e+02 9.940000000000000000e+02 9.950000000000000000e+02 9.960000000000000000e+02 9.970000000000000000e+02 9.980000000000000000e+02 9.990000000000000000e+02 1.000000000000000000e+03
1.000000000000000021e-02 1.000000000000000021e-02 1.000000000000000021e-02 1.000000000000000021e-02 1.000000000000000021e-02 1.000000000000000021e-02 1.000000000000000021e-02 1.000000000000000021e-02 1.000000000000000021e-02 1.000000000000000021e-02 1.000000000000000021e-02 1.000000000000000021e-02 1.000000000000000021e-02 1.000000000000000021e-02 1.000000000000000021e-02 1.000000000000000021e-02 1.000000000000000021e-02 1.000000000000000021e-02 1.000000000000000021e-02 1.000000000000000021e-02 1.000000000000000021e-02 1.000000000000000021e-02 1.000000000000000021e-02 1.000000000000000021e-02 1.000000000000000021e-02 1.000000000000000021e-02 1.000000000000000021e-02 1.000000000000000021e-02 1.000000000000000021e-02 1.000000000000000021e-02 1.000000000000000021e-02 1.000000000000000021e-02 1.000000000000000021e-02 1.000000000000000021e-02 1.000000000000000021e-02 1.000000000000000021e-02 1.000000000000000021e-02 1.000000000000000021e-02 1.000000000000000021e-02 1.000000000000000021e-02 1.000000000000000021e-02 1.000000000000000021e-02 1.000000000000000021e-02 1.000000000000000021e-02 1.000000000000000021e-02 1.000000000000000021e-02 1.000000000000000021e-02 1.000000000000000021e-02 1.000000000000000021e-02 1.000000000000000021e-02 1.000000000000000021e-02 1.000000000000000021e-02 1.000000000000000021e-02 1.000000000000000021e-02 1.000000000000000021e-02 1.000000000000000021e-02 1.000000000000000021e-02 1.000000000000000021e-02 1.000000000000000021e-02 1.000000000000000021e-02 1.000000000000000021e-02 1.000000000000000021e-02 1.000000000000000021e-02 1.000000000000000021e-02 1.000000000000000021e-02 1.000000000000000021e-02 1.000000000000000021e-02 1.000000000000000021e-02 1.000000000000000021e-02 1.000000000000000021e-02 1.000000000000000021e-02 1.000000000000000021e-02 1.000000000000000021e-02 1.000000000000000021e-02 1.000000000000000021e-02 1.000000000000000021e-02 1.000000000000000021e-02 1.000000000000000021e-02 1.000000000000000021e-02 1.000000000000000021e-02 1.000000000000000021e-02 1.000000000000000021e-02 1.000000000000000021e-02 1.000000000000000021e-02 1.000000000000000021e-02 1.000000000000000021e-02 1.000000000000000021e-02 1.000000000000000021e-02 1.000000000000000021e-02 1.000000000000000021e-02 1.000000000000000021e-02 1.000000000000000021e-02 1.000000000000000021e-02 1.000000000000000021e-02 1.000000000000000021e-02 1.000000000000000021e-02 1.000000000000000021e-02 1.000000000000000021e-02 1.000000000000000021e-02 1.000000000000000021e-02 1.000000000000000021e-02 1.000000000000000021e-02 1.000000000000000021e-02 1.000000000000000021e-02 1.000000000000000021e-02 1.000000000000000021e-02 1.000000000000000021e-02 1.000000000000000021e-02 1.000000000000000021e-02 1.000000000000000021e-02 1.000000000000000021e-02 1.000000000000000021e-02 1.000000000000000021e-02 1.000000000000000021e-02 1.000000000000000021e-02 1.000000000000000021e-02 1.000000000000000021e-02 1.000000000000000021e-02 1.000000000000000021e-02 1.000000000000000021e-02 1.000000000000000021e-02 1.000000000000000021e-02 1.000000000000000021e-02 1.000000000000000021e-02 1.000000000000000021e-02 1.000000000000000021e-02 1.000000000000000021e-02 1.000000000000000021e-02 1.000000000000000021e-02 1.000000000000000021e-02 1.000000000000000021e-02 1.000000000000000021e-02 1.000000000000000021e-02 1.000000000000000021e-02 1.000000000000000021e-02 1.000000000000000021e-02 1.000000000000000021e-02 1.000000000000000021e-02 1.000000000000000021e-02 1.000000000000000021e-02 1.000000000000000021e-02 1.000000000000000021e-02 1.000000000000000021e-02 1.000000000000000021e-02 1.000000000000000021e-02 1.000000000000000021e-02 1.000000000000000021e-02 1.000000000000000021e-02 1.000000000000000021e-02 1.000000000000000021e-02 1.000000000000000021e-02 1.000000000000000021e-02 1.000000000000000021e-02 1.000000000000000021e-02 1.000000000000000021e-02 1.000000000000000021e-02 1.000000000000000021e-02 1.000000000000000021e-02 1.000000000000000021e-02 1.000000000000000021e-02 1.000000000000000021e-02 1.000000000000000021e-02 1.000000000000000021e-02 1.000000000000000021e-02 1.000000000000000021e-02 1.000000000000000021e-02 1.000000000000000021e-02 1.000000000000000021e-02 1.000000000000000021e-02 1.000000000000000021e-02 1.000000000000000021e-02 1.000000000000000021e-02 1.000000000000000021e-02 1.000000000000000021e-02 1.000000000000000021e-02 1.000000000000000021e-02 1.000000000000000021e-02 1.000000000000000021e-02 1.000000000000000021e-02 1.000000000000000021e-02 1.000000000000000021e-02 1.000000000000000021e-02 1.000000000000000021e-02 1.000000000000000021e-02 1.000000000000000021e-02 1.000000000000000021e-02 1.000000000000000021e-02 1.000000000000000021e-02 1.000000000000000021e-02 1.000000000000000021e-02 1.000000000000000021e-02 1.000000000000000021e-02 1.000000000000000021e-02 1.000000000000000021e-02 1.000000000000000021e-02 1.000000000000000021e-02 1.000000000000000021e-02 1.000000000000000021e-02 1.000000000000000021e-02 1.000000000000000021e-02 1.000000000000000021e-02 1.000000000000000021e-02 1.000000000000000021e-02 1.000000000000000021e-02 1.000000000000000021e-02 1.000000000000000021e-02 1.000000000000000021e-02 1.000000000000000021e-02 1.000000000000000021e-02 1.000000000000000021e-02 1.000000000000000021e-02 1.000000000000000021e-02 1.000000000000000021e-02 1.000000000000000021e-02 1.000000000000000021e-02 1.000000000000000021e-02 1.000000000000000021e-02 1.000000000000000021e-02 1.000000000000000021e-02 1.000000000000000021e-02 1.000000000000000021e-02 1.000000000000000021e-02 1.000000000000000021e-02 1.000000000000000021e-02 1.000000000000000021e-02 1.000000000000000021e-02 1.000000000000000021e-02 1.000000000000000021e-02 1.000000000000000021e-02 1.000000000000000021e-02 1.000000000000000021e-02 1.000000000000000021e-02 1.000000000000000021e-02 1.000000000000000021e-02 1.000000000000000021e-02 1.000000000000000021e-02 1.000000000000000021e-02 1.000000000000000021e-02 1.000000000000000021e-02 1.000000000000000021e-02 1.000000000000000021e-02 1.000000000000000021e-02 1.000000000000000021e-02 1.000000000000000021e-02 1.000000000000000021e-02 1.000000000000000021e-02 1.000000000000000021e-02 1.000000000000000021e-02 1.000000000000000021e-02 1.000000000000000021e-02 1.000000000000000021e-02 1.000000000000000021e-02 1.000000000000000021e-02 1.000000000000000021e-02 1.000000000000000021e-02 1.000000000000000021e-02 1.000000000000000021e-02 1.000000000000000021e-02 1.000000000000000021e-02 1.000000000000000021e-02 1.000000000000000021e-02 1.000000000000000021e-02 1.000000000000000021e-02 1.000000000000000021e-02 1.000000000000000021e-02 1.000000000000000021e-02 1.000000000000000021e-02 1.000000000000000021e-02 1.000000000000000021e-02 1.000000000000000021e-02 1.000000000000000021e-02 1.000000000000000021e-02 1.000000000000000021e-02 1.000000000000000021e-02 1.000000000000000021e-02 1.000000000000000021e-02 1.000000000000000021e-02 1.000000000000000021e-02 1.000000000000000021e-02 1.000000000000000021e-02 1.000000000000000021e-02 1.000000000000000021e-02 1.000000000000000021e-02 1.000000000000000021e-02 1.000000000000000021e-02 1.000000000000000021e-02 1.000000000000000021e-02 1.000000000000000021e-02 1.000000000000000021e-02 1.000000000000000021e-02 1.000000000000000021e-02 1.000000000000000021e-02 1.000000000000000021e-02 1.000000000000000021e-02 1.000000000000000021e-02 1.000000000000000021e-02 1.000000000000000021e-02 1.000000000000000021e-02 1.000000000000000021e-02 1.000000000000000021e-02 1.000000000000000021e-02 1.000000000000000021e-02 1.000000000000000021e-02 1.000000000000000021e-02 1.000000000000000021e-02 1.000000000000000021e-02 1.000000000000000021e-02 1.000000000000000021e-02 1.000000000000000021e-02 1.000000000000000021e-02 1.000000000000000021e-02 1.000000000000000021e-02 1.000000000000000021e-02 1.000000000000000021e-02 1.000000000000000021e-02 1.000000000000000021e-02 1.000000000000000021e-02 1.000000000000000021e-02 1.000000000000000021e-02 1.000000000000000021e-02 1.000000000000000021e-02 1.000000000000000021e-02 1.000000000000000021e-02 1.000000000000000021e-02 1.000000000000000021e-02 1.000000000000000021e-02 1.000000000000000021e-02 1.000000000000000021e-02 1.000000000000000021e-02 1.000000000000000021e-02 1.000000000000000021e-02 1.000000000000000021e-02 1.000000000000000021e-02 1.000000000000000021e-02 1.000000000000000021e-02 1.000000000000000021e-02 1.000000000000000021e-02 1.000000000000000021e-02 1.000000000000000021e-02 1.000000000000000021e-02 1.000000000000000021e-02 1.000000000000000021e-02 1.000000000000000021e-02 1.000000000000000021e-02 1.000000000000000021e-02 1.000000000000000021e-02 1.000000000000000021e-02 1.000000000000000021e-02 1.000000000000000021e-02 1.000000000000000021e-02 1.000000000000000021e-02 1.000000000000000021e-02 1.000000000000000021e-02 1.000000000000000021e-02 1.000000000000000021e-02 1.000000000000000021e-02 1.000000000000000021e-02 1.000000000000000021e-02 1.000000000000000021e-02 1.000000000000000021e-02 1.000000000000000021e-02 1.000000000000000021e-02 1.000000000000000021e-02 1.000000000000000021e-02 1.000000000000000021e-02 1.000000000000000021e-02 1.000000000000000021e-02 1.000000000000000021e-02 1.000000000000000021e-02 1.000000000000000021e-02 1.000000000000000021e-02 1.000000000000000021e-02 1.000000000000000021e-02 1.000000000000000021e-02 1.000000000000000021e-02 1.000000000000000021e-02 1.000000000000000021e-02 1.000000000000000021e-02 1.000000000000000021e-02 1.000000000000000021e-02 1.000000000000000021e-02 1.000000000000000021e-02 1.000000000000000021e-02 1.000000000000000021e-02 1.000000000000000021e-02 1.000000000000000021e-02 1.000000000000000021e-02 1.000000000000000021e-02 1.000000000000000021e-02 1.000000000000000021e-02 1.000000000000000021e-02 1.000000000000000021e-02 1.000000000000000021e-02 1.000000000000000021e-02 1.000000000000000021e-02 1.000000000000000021e-02 1.000000000000000021e-02 1.000000000000000021e-02 1.000000000000000021e-02 1.000000000000000021e-02 1.000000000000000021e-02 1.000000000000000021e-02 1.000000000000000021e-02 1.000000000000000021e-02 1.000000000000000021e-02 1.000000000000000021e-02 1.000000000000000021e-02 1.000000000000000021e-02 1.000000000000000021e-02 1.000000000000000021e-02 1.000000000000000021e-02 1.000000000000000021e-02 1.000000000000000021e-02 1.000000000000000021e-02 1.000000000000000021e-02 1.000000000000000021e-02 1.000000000000000021e-02 1.000000000000000021e-02 1.000000000000000021e-02 1.000000000000000021e-02 1.000000000000000021e-02 1.000000000000000021e-02 1.000000000000000021e-02 1.000000000000000021e-02 1.000000000000000021e-02 1.000000000000000021e-02 1.000000000000000021e-02 1.000000000000000021e-02 1.000000000000000021e-02 1.000000000000000021e-02 1.000000000000000021e-02 1.000000000000000021e-02 1.000000000000000021e-02 1.000000000000000021e-02 1.000000000000000021e-02 1.000000000000000021e-02 1.000000000000000021e-02 1.000000000000000021e-02 1.000000000000000021e-02 1.000000000000000021e-02 1.000000000000000021e-02 1.000000000000000021e-02 1.000000000000000021e-02 1.000000000000000021e-02 1.000000000000000021e-02 1.000000000000000021e-02 1.000000000000000021e-02 1.000000000000000021e-02 1.000000000000000021e-02 1.000000000000000021e-02 1.000000000000000021e-02 1.000000000000000021e-02 1.000000000000000021e-02 1.000000000000000021e-02 1.000000000000000021e-02 1.000000000000000021e-02 1.000000000000000021e-02 1.000000000000000021e-02 1.000000000000000021e-02 1.000000000000000021e-02 1.000000000000000021e-02 1.000000000000000021e-02 1.000000000000000021e-02 1.000000000000000021e-02 1.000000000000000021e-02 1.000000000000000021e-02 1.000000000000000021e-02 1.000000000000000021e-02 1.000000000000000021e-02 1.000000000000000021e-02 1.000000000000000021e-02 1.000000000000000021e-02 1.000000000000000021e-02 1.000000000000000021e-02 1.000000000000000021e-02 1.000000000000000021e-02 1.000000000000000021e-02 1.000000000000000021e-02 1.000000000000000021e-02 1.000000000000000021e-02 1.000000000000000021e-02 1.000000000000000021e-02 1.000000000000000021e-02 1.000000000000000021e-02 1.000000000000000021e-02 1.000000000000000021e-02 1.000000000000000021e-02 1.000000000000000021e-02 1.000000000000000021e-02 1.000000000000000021e-02 1.000000000000000021e-02 1.000000000000000021e-02 1.000000000000000021e-02 1.000000000000000021e-02 1.000000000000000021e-02 1.000000000000000021e-02 1.000000000000000021e-02 1.000000000000000021e-02 1.000000000000000021e-02 1.000000000000000021e-02 1.000000000000000021e-02 1.000000000000000021e-02 1.000000000000000021e-02 1.000000000000000021e-02 1.000000000000000021e-02 1.000000000000000021e-02 1.000000000000000021e-02 1.000000000000000021e-02 1.000000000000000021e-02 1.000000000000000021e-02 1.000000000000000021e-02 1.000000000000000021e-02 1.000000000000000021e-02 1.000000000000000021e-02 1.000000000000000021e-02 1.000000000000000021e-02 1.000000000000000021e-02 1.000000000000000021e-02 1.000000000000000021e-02 1.000000000000000021e-02 1.000000000000000021e-02 1.000000000000000021e-02 1.000000000000000021e-02 1.000000000000000021e-02 1.000000000000000021e-02 1.000000000000000021e-02 1.000000000000000021e-02 1.000000000000000021e-02 1.000000000000000021e-02 1.000000000000000021e-02 1.000000000000000021e-02 1.000000000000000021e-02 1.000000000000000021e-02 1.000000000000000021e-02 1.000000000000000021e-02 1.000000000000000021e-02 1.000000000000000021e-02 1.000000000000000021e-02 1.000000000000000021e-02 1.000000000000000021e-02 1.000000000000000021e-02 1.000000000000000021e-02 1.000000000000000021e-02 1.000000000000000021e-02 1.000000000000000021e-02 1.000000000000000021e-02 1.000000000000000021e-02 1.000000000000000021e-02 1.000000000000000021e-02 1.000000000000000021e-02 1.000000000000000021e-02 1.000000000000000021e-02 1.000000000000000021e-02 1.000000000000000021e-02 1.000000000000000021e-02 1.000000000000000021e-02 1.000000000000000021e-02 1.000000000000000021e-02 1.000000000000000021e-02 1.000000000000000021e-02 1.000000000000000021e-02 1.000000000000000021e-02 1.000000000000000021e-02 1.000000000000000021e-02 1.000000000000000021e-02 1.000000000000000021e-02 1.000000000000000021e-02 1.000000000000000021e-02 1.000000000000000021e-02 1.000000000000000021e-02 1.000000000000000021e-02 1.000000000000000021e-02 1.000000000000000021e-02 1.000000000000000021e-02 1.000000000000000021e-02 1.000000000000000021e-02 1.000000000000000021e-02 1.000000000000000021e-02 1.000000000000000021e-02 1.000000000000000021e-02 1.000000000000000021e-02 1.000000000000000021e-02 1.000000000000000021e-02 1.000000000000000021e-02 1.000000000000000021e-02 1.000000000000000021e-02 1.000000000000000021e-02 1.000000000000000021e-02 1.000000000000000021e-02 1.000000000000000021e-02 1.000000000000000021e-02 1.000000000000000021e-02 1.000000000000000021e-02 1.000000000000000021e-02 1.000000000000000021e-02 1.000000000000000021e-02 1.000000000000000021e-02 1.000000000000000021e-02 1.000000000000000021e-02 1.000000000000000021e-02 1.000000000000000021e-02 1.000000000000000021e-02 1.000000000000000021e-02 1.000000000000000021e-02 1.000000000000000021e-02 1.000000000000000021e-02 1.000000000000000021e-02 1.000000000000000021e-02 1.000000000000000021e-02 1.000000000000000021e-02 1.000000000000000021e-02 1.000000000000000021e-02 1.000000000000000021e-02 1.000000000000000021e-02 1.000000000000000021e-02 1.000000000000000021e-02 1.000000000000000021e-02 1.000000000000000021e-02 1.000000000000000021e-02 1.000000000000000021e-02 1.000000000000000021e-02 1.000000000000000021e-02 1.000000000000000021e-02 1.000000000000000021e-02 1.000000000000000021e-02 1.000000000000000021e-02 1.000000000000000021e-02 1.000000000000000021e-02 1.000000000000000021e-02 1.000000000000000021e-02 1.000000000000000021e-02 1.000000000000000021e-02 1.000000000000000021e-02 1.000000000000000021e-02 1.000000000000000021e-02 1.000000000000000021e-02 1.000000000000000021e-02 1.000000000000000021e-02 1.000000000000000021e-02 1.000000000000000021e-02 1.000000000000000021e-02 1.000000000000000021e-02 1.000000000000000021e-02 1.000000000000000021e-02 1.000000000000000021e-02 1.000000000000000021e-02 1.000000000000000021e-02 1.000000000000000021e-02 1.000000000000000021e-02 1.000000000000000021e-02 1.000000000000000021e-02 1.000000000000000021e-02 1.000000000000000021e-02 1.000000000000000021e-02 1.000000000000000021e-02 1.000000000000000021e-02 1.000000000000000021e-02 1.000000000000000021e-02 1.000000000000000021e-02 1.000000000000000021e-02 1.000000000000000021e-02 1.000000000000000021e-02 1.000000000000000021e-02 1.000000000000000021e-02 1.000000000000000021e-02 1.000000000000000021e-02 1.000000000000000021e-02 1.000000000000000021e-02 1.000000000000000021e-02 1.000000000000000021e-02 1.000000000000000021e-02 1.000000000000000021e-02 1.000000000000000021e-02 1.000000000000000021e-02 1.000000000000000021e-02 1.000000000000000021e-02 1.000000000000000021e-02 1.000000000000000021e-02 1.000000000000000021e-02 1.000000000000000021e-02 1.000000000000000021e-02 1.000000000000000021e-02 1.000000000000000021e-02 1.000000000000000021e-02 1.000000000000000021e-02 1.000000000000000021e-02 1.000000000000000021e-02 1.000000000000000021e-02 1.000000000000000021e-02 1.000000000000000021e-02 1.000000000000000021e-02 1.000000000000000021e-02 1.000000000000000021e-02 1.000000000000000021e-02 1.000000000000000021e-02 1.000000000000000021e-02 1.000000000000000021e-02 1.000000000000000021e-02 1.000000000000000021e-02 1.000000000000000021e-02 1.000000000000000021e-02 1.000000000000000021e-02 1.000000000000000021e-02 1.000000000000000021e-02 1.000000000000000021e-02 1.000000000000000021e-02 1.000000000000000021e-02 1.000000000000000021e-02 1.000000000000000021e-02 1.000000000000000021e-02 1.000000000000000021e-02 1.000000000000000021e-02 1.000000000000000021e-02 1.000000000000000021e-02 1.000000000000000021e-02 1.000000000000000021e-02 1.000000000000000021e-02 1.000000000000000021e-02 1.000000000000000021e-02 1.000000000000000021e-02 1.000000000000000021e-02 1.000000000000000021e-02 1.000000000000000021e-02 1.000000000000000021e-02 1.000000000000000021e-02 1.000000000000000021e-02 1.000000000000000021e-02 1.000000000000000021e-02 1.000000000000000021e-02 1.000000000000000021e-02 1.000000000000000021e-02 1.000000000000000021e-02 1.000000000000000021e-02 1.000000000000000021e-02 1.000000000000000021e-02 1.000000000000000021e-02 1.000000000000000021e-02 1.000000000000000021e-02 1.000000000000000021e-02 1.000000000000000021e-02 1.000000000000000021e-02 1.000000000000000021e-02 1.000000000000000021e-02 1.000000000000000021e-02 1.000000000000000021e-02 1.000000000000000021e-02 1.000000000000000021e-02 1.000000000000000021e-02 1.000000000000000021e-02 1.000000000000000021e-02 1.000000000000000021e-02 1.000000000000000021e-02 1.000000000000000021e-02 1.000000000000000021e-02 1.000000000000000021e-02 1.000000000000000021e-02 1.000000000000000021e-02 1.000000000000000021e-02 1.000000000000000021e-02 1.000000000000000021e-02 1.000000000000000021e-02 1.000000000000000021e-02 1.000000000000000021e-02 1.000000000000000021e-02 1.000000000000000021e-02 1.000000000000000021e-02 1.000000000000000021e-02 1.000000000000000021e-02 1.000000000000000021e-02 1.000000000000000021e-02 1.000000000000000021e-02 1.000000000000000021e-02 1.000000000000000021e-02 1.000000000000000021e-02 1.000000000000000021e-02 1.000000000000000021e-02 1.000000000000000021e-02 1.000000000000000021e-02 1.000000000000000021e-02 1.000000000000000021e-02 1.000000000000000021e-02 1.000000000000000021e-02 1.000000000000000021e-02 1.000000000000000021e-02 1.000000000000000021e-02 1.000000000000000021e-02 1.000000000000000021e-02 1.000000000000000021e-02 1.000000000000000021e-02 1.000000000000000021e-02 1.000000000000000021e-02 1.000000000000000021e-02 1.000000000000000021e-02 1.000000000000000021e-02 1.000000000000000021e-02 1.000000000000000021e-02 1.000000000000000021e-02 1.000000000000000021e-02 1.000000000000000021e-02 1.000000000000000021e-02 1.000000000000000021e-02 1.000000000000000021e-02 1.000000000000000021e-02 1.000000000000000021e-02 1.000000000000000021e-02 1.000000000000000021e-02 1.000000000000000021e-02 1.000000000000000021e-02 1.000000000000000021e-02 1.000000000000000021e-02 1.000000000000000021e-02 1.000000000000000021e-02 1.000000000000000021e-02 1.000000000000000021e-02 1.000000000000000021e-02 1.000000000000000021e-02 1.000000000000000021e-02 1.000000000000000021e-02 1.000000000000000021e-02 1.000000000000000021e-02 1.000000000000000021e-02 1.000000000000000021e-02 1.000000000000000021e-02 1.000000000000000021e-02 1.000000000000000021e-02 1.000000000000000021e-02 1.000000000000000021e-02 1.000000000000000021e-02 1.000000000000000021e-02 1.000000000000000021e-02 1.000000000000000021e-02 1.000000000000000021e-02 1.000000000000000021e-02 1.000000000000000021e-02 1.000000000000000021e-02 1.000000000000000021e-02 1.000000000000000021e-02 1.000000000000000021e-02 1.000000000000000021e-02 1.000000000000000021e-02 1.000000000000000021e-02 1.000000000000000021e-02 1.000000000000000021e-02 1.000000000000000021e-02 1.000000000000000021e-02 1.000000000000000021e-02 1.000000000000000021e-02 1.000000000000000021e-02 1.000000000000000021e-02 1.000000000000000021e-02 1.000000000000000021e-02 1.000000000000000021e-02 1.000000000000000021e-02 1.000000000000000021e-02 1.000000000000000021e-02 1.000000000000000021e-02 1.000000000000000021e-02 1.000000000000000021e-02 1.000000000000000021e-02 1.000000000000000021e-02 1.000000000000000021e-02 1.000000000000000021e-02 1.000000000000000021e-02 1.000000000000000021e-02 1.000000000000000021e-02 1.000000000000000021e-02 1.000000000000000021e-02 1.000000000000000021e-02 1.000000000000000021e-02 1.000000000000000021e-02 1.000000000000000021e-02 1.000000000000000021e-02 1.000000000000000021e-02 1.000000000000000021e-02 1.000000000000000021e-02 1.000000000000000021e-02 1.000000000000000021e-02 1.000000000000000021e-02 1.000000000000000021e-02 1.000000000000000021e-02 1.000000000000000021e-02 1.000000000000000021e-02 1.000000000000000021e-02 1.000000000000000021e-02 1.000000000000000021e-02 1.000000000000000021e-02 1.000000000000000021e-02 1.000000000000000021e-02 1.000000000000000021e-02 1.000000000000000021e-02 1.000000000000000021e-02 1.000000000000000021e-02 1.000000000000000021e-02 1.000000000000000021e-02 1.000000000000000021e-02 1.000000000000000021e-02 1.000000000000000021e-02 1.000000000000000021e-02 1.000000000000000021e-02 1.000000000000000021e-02 1.000000000000000021e-02 1.000000000000000021e-02 1.000000000000000021e-02 1.000000000000000021e-02 1.000000000000000021e-02 1.000000000000000021e-02 1.000000000000000021e-02 1.000000000000000021e-02 1.000000000000000021e-02 1.000000000000000021e-02 1.000000000000000021e-02 1.000000000000000021e-02 1.000000000000000021e-02 1.000000000000000021e-02 1.000000000000000021e-02 1.000000000000000021e-02 1.000000000000000021e-02 1.000000000000000021e-02 1.000000000000000021e-02 1.000000000000000021e-02 1.000000000000000021e-02 1.000000000000000021e-02 1.000000000000000021e-02 1.000000000000000021e-02 1.000000000000000021e-02 1.000000000000000021e-02 1.000000000000000021e-02 1.000000000000000021e-02 1.000000000000000021e-02 1.000000000000000021e-02 1.000000000000000021e-02 1.000000000000000021e-02 1.000000000000000021e-02 1.000000000000000021e-02 1.000000000000000021e-02 1.000000000000000021e-02 1.000000000000000021e-02 1.000000000000000021e-02 1.000000000000000021e-02 1.000000000000000021e-02 1.000000000000000021e-02 1.000000000000000021e-02 1.000000000000000021e-02 1.000000000000000021e-02 1.000000000000000021e-02 1.000000000000000021e-02 1.000000000000000021e-02 1.000000000000000021e-02 1.000000000000000021e-02 1.000000000000000021e-02 1.000000000000000021e-02 1.000000000000000021e-02 1.000000000000000021e-02 1.000000000000000021e-02 1.000000000000000021e-02 1.000000000000000021e-02 1.000000000000000021e-02 1.000000000000000021e-02 1.000000000000000021e-02 1.000000000000000021e-02 1.000000000000000021e-02 1.000000000000000021e-02 1.000000000000000021e-02 1.000000000000000021e-02 1.000000000000000021e-02 1.000000000000000021e-02 1.000000000000000021e-02 1.000000000000000021e-02 1.000000000000000021e-02 1.000000000000000021e-02 1.000000000000000021e-02 1.000000000000000021e-02 1.000000000000000021e-02 1.000000000000000021e-02 1.000000000000000021e-02 1.000000000000000021e-02 1.000000000000000021e-02 1.000000000000000021e-02 1.000000000000000021e-02 1.000000000000000021e-02 1.000000000000000021e-02 1.000000000000000021e-02 1.000000000000000021e-02 1.000000000000000021e-02 1.000000000000000021e-02 1.000000000000000021e-02 1.000000000000000021e-02 1.000000000000000021e-02 1.000000000000000021e-02 1.000000000000000021e-02 1.000000000000000021e-02 1.000000000000000021e-02 1.000000000000000021e-02 1.000000000000000021e-02 1.000000000000000021e-02 1.000000000000000021e-02 1.000000000000000021e-02 1.000000000000000021e-02 1.000000000000000021e-02 1.000000000000000021e-02
-1.145998050982368568e+02 1.740990908979271126e+02 4.042523873088986619e+01 -9.091198568187005336e+00 -9.024676044140744580e+01 -1.375351158656662776e+01 -2.134580246385562816e+02 6.906879237791176962e-01 -8.702483512777678243e+01 -1.433679475050943530e+01 -2.035217442898386508e+01 6.670028889582725107e+00 -1.828150518052395812e+00 1.723048451130673868e+02 8.688904700355114130e+01 -3.979358238572904582e+01 -5.417472217220063158e+01 8.134930777061011042e+01 3.369797771809192000e+01 -2.604164258775148966e+01 -8.098540038013196352e+01 -7.581423809422760485e+01 -1.418886447569703435e+01 2.971212886886638671e+01 -2.001775431358331616e+02 -1.014099976322294907e+02 -2.678590660607521201e+01 2.070809504071509082e+02 7.266972033495558492e+01 7.875835840316551639e+01 8.244864011218049882e+01 1.220419257951957492e+00 -8.129819786081115751e+01 2.129691788756968265e+02 -2.513881183554066183e+02 6.036893597753761043e+01 -1.234274125048298743e+02 -3.560678688878904552e+01 4.138493906706766090e+00 1.301229309853773657e+02 -1.262287274710947145e+02 -1.403919257364244011e+01 7.946703832887781971e+01 1.782632612099888831e+02 7.330265116529636771e+01 -7.029911389536157174e+01 4.237749215973483530e+01 -2.913332323756589659e+01 -6.784711493763403212e+01 1.608230073996518001e+02 -7.253072134291994644e+01 -5.353952835783422159e+01 -1.430348151831595089e+02 5.854722520857355228e+00 -5.191923343523374967e+01 3.969959840798967576e+01 -9.112058992328074680e+01 -5.142422298101239164e+01 -1.041486657993811065e+02 -1.596374125633009555e+02 2.001309996942130454e+01 4.654631510838029129e+01 -1.264477210093838835e+02 1.321255631793339980e+01 -8.146933942066947054e+01 5.044497973426060611e+01 1.710942808009234852e+02 -1.481562427262207109e+02 -4.449962304928610735e+01 7.369589617661468139e+00 3.000146269556011269e+00 4.352150114899514932e+01 8.626098450389156369e+01 9.638701467988802785e-01 -9.011463755248316332e+00 -7.194403157571684915e+01 8.039922258881377104e+01 -3.369582935228103082e+01 2.699611301260022245e+01 1.068283530322179473e+02 9.064538081638428935e+01 -4.390267132459644728e+01 5.941129725344284651e+01 1.514488992733078305e+02 1.193577432154015554e+02 -4.155137190410654213e+00 1.789645967285379697e+02 -1.145377636113805693e+02 4.339666478769571789e+00 -4.307800312560577538e+01 2.124789034313537854e+02 -2.180020860378760617e+01 2.945119149914754431e+00 -7.887121262457564796e+01 -7.319148584390236856e+00 -6.560632693417153405e+01 6.960196973810049315e+01 -9.711445359822302237e+01 7.039063343029873465e+01 -4.902936917480237611e+01 -5.113006749766422132e+01 -9.414803715384783800e+01 5.456167785156424088e+01 -5.623453141777890352e+01 -1.534045647325545474e+02 -8.164979398168215141e+01 -1.074734858441148475e+02 -1.615166026308428115e+02 1.396599027397696773e+02 -2.828356540780848860e+01 3.289266291414996601e+01 9.211302654898796050e+01 -1.069358037270382624e+02 5.853991683908083843e+01 -4.450678353471683835e+01 -7.116845390525600124e+01 -9.250519957256449288e+01 2.088659268843549910e+02 -5.829486250081228604e+01 -5.082061250537113750e+01 -4.853451517298668705e+01 8.260148447999812049e+01 -4.252709777823110215e+01 1.417747156191612419e+02 -5.119527642924521160e+01 5.656637990382287740e+01 4.665531066033038243e+00 -8.339377952281193984e+01 7.072233782677751890e+01 2.849464594111978499e+02 -9.450609162261915230e+01 4.880723843542965312e+01 -7.829239457840053262e+01 4.646905387085114825e+01 1.347735132926603114e+02 -5.275554639632274245e+01 1.497148536516985651e+01 -2.764812604772600935e+01 -1.047217968863551789e+02 -1.773313416416417709e+01 4.372561007464080163e+00 -8.043183464657182924e+00 -1.537478428892628735e+01 1.215216476760511028e+02 1.339172942701815714e+02 1.915850728875904281e+02 -3.126961867218226416e+02 3.927660716254969486e+01 -1.617387773754248670e+01 -6.409113032163462265e+01 1.853490574836158657e+02 7.837210006280520247e+01 -2.629593276188705531e+00 -1.192241184262480260e+02 -1.122497977202316299e+01 1.028976360333887214e+02 -1.382042046935235646e+02 -1.734028847026903577e+02 1.103828966399281164e+01 4.364740624284620907e+01 -6.273911918390791698e+01 4.322906460875968548e+01 -1.101425899482011772e+02 -1.556663355455781925e+02 2.173424769062629380e+01 4.997959593305991177e+01 4.930154929788031382e+00 -8.593287274959884314e+01 -9.631516569597035016e+01 -8.680860849445292615e+01 -9.010475114455763901e+01 1.298126392183653977e+01 5.852440519070574254e+01 1.199451572166394584e+02 8.180779625327670601e+01 9.217235857063320736e+01 1.106512027126488817e+02 -7.705683988462332934e+01 -8.502308151766928290e+01 7.266712913750848202e+01 7.051269043220365518e+01 6.105363671319383911e+01 -9.688361507424339436e+00 -9.391066472241963936e+01 5.566526544862415449e+01 -1.845511285263625609e+02 6.926842166768123832e+01 -4.597929427325746587e+01 -9.953907640798360035e+01 7.659093020795248208e+01 -1.767112539564246276e+01 -7.966457081465480883e+01 -5.936973358395924549e+01 -9.436163244725165100e+00 2.507013035951610505e+02 7.934856063698336470e+01 5.666995197597832856e+01 -1.074289731872351439e+02 1.532918135805882969e+02 1.065726208596171176e+00 -9.350987141596353069e+01 1.611719220536348587e+02 -1.595136715083241086e+02 1.632440345302924456e+01 -3.370969362124142776e+01 -2.299890481656123313e+02 -1.396650623098388166e+02 -9.132198960502215357e+01 -3.061151350763099188e+01 -1.248329575002467493e+02 6.036771184757147779e+01 6.801353804838608141e+01 -2.884180769031220137e+01 -1.043545089040786138e+02 1.183844001071515635e+02 1.237698288175263883e+02 4.838298575060578344e+01 1.826235294418478361e+01 2.736265091406220336e+02 4.574015401998156705e+01 -1.250205865685512379e+02 -4.716471930883895425e+01 -1.768829809204485741e+02 3.338266645493040841e+01 1.606373525757196603e+02 -1.555023861583086955e+02 1.380266253377955650e+02 -9.531660786205640079e+01 -1.979113834262322769e+01 -7.618779381162112951e-01 5.538797631711484826e+01 -1.217475857033022457e+01 -2.387193551008931536e+01 -1.986163355339483161e+01 -1.327663795016981396e+02 4.867994358481726636e+01 -3.184162119214609987e+01 -1.363624546162237827e+01 -1.122861832132092097e+01 2.369194067736162594e+02 1.826321980625126855e+02 2.439279665198549480e+02 1.382075246808424538e+02 -9.078382140542863965e+01 7.887358483984375823e+01 2.212877917142225215e+01 4.994502323210767258e+01 -4.169605766458583673e+01 2.679045193393043292e+02 -2.442633403610626885e+01 -1.434149236785065114e+02 -1.569632762778026702e+01 -4.806230385695315732e+01 -8.121243040944513325e+01 4.528125315120248473e+01 -1.228904949490966025e+01 1.908563441934941238e+02 9.698946392254291027e+01 4.290487059060362895e+01 1.028866403084384018e+02 9.910273453254896481e+01 -2.412440044154830687e+01 1.465344174867042568e+02 2.777753903038817640e+01 9.398565391125615065e+01 4.999267140474558602e+01 7.283727314052053536e+00 -1.215091369833334625e+02 -1.215512727947059233e+02 -9.446449543867031196e+01 -1.635052077915049296e+01 9.097388708485610209e+01 -3.219654838247306827e+01 1.037972607570299175e+02 4.597176390917234556e+01 -7.633235540726350621e+01 -3.146499553277617522e+01 -6.150951928200997543e+01 1.843151155650011930e+01 -4.864962560036936878e+01 -1.176053381085499296e+02 1.275796956874873587e+02 1.273506825523120227e+02 -8.285074126197150690e+01 5.746175177954365054e+00 -4.755034105901415131e+01 -3.425397683024196027e+01 -1.190556944485279622e+01 -3.275824971921108641e+01 4.663282961172999563e+01 -1.474662268890269559e+02 -5.543790019238493016e+01 -1.594046472367408001e+02 1.827111231928168138e+02 -2.125433570936809957e+01 6.186193409938881871e+01 1.252616832160864924e+01 1.514787169132623603e+02 4.685003941792067650e+01 3.749796788369187084e+01 1.618500051870683762e+02 -5.165989850800286831e+01 -1.023070870695652133e+02 2.845642232761689527e+01 -1.656428774500263899e+02 -5.596763341305987183e+01 1.072031153574696418e+02 -1.339083144328013759e+02 -3.811405334185141669e+01 9.567638860418315971e+01 -9.903818592213926308e+01 -9.380619554200158916e+01 -8.661059815640852833e+01 -6.690243003150781931e+01 2.608869862229640830e+02 2.076161139498493355e+02 1.079159926606116215e+02 -1.070514273916990362e+02 7.841797666863195104e+01 -6.922898407023936329e+01 -3.264532550659680510e+01 1.737687940463867875e+01 -3.366987031808184128e+01 -9.814509698783160729e+01 -2.818135582177502485e+00 1.550243561357040178e+01 1.137903268478354448e+02 -1.343987531794876986e+02 4.377555527995718876e+01 6.666449035775131904e+01 3.614184786444698716e+01 -9.471994773160625414e+01 -1.552003522386443706e+02 2.019452630571985026e+02 -1.862221508479968080e+01 2.632133455322280469e+01 1.634909031440474507e+02 2.786000750754988076e+01 2.898325143974224360e+01 -4.649601154273708659e+01 9.249510458595169382e+01 -1.423569200893225855e+02 -3.216754020840313189e+01 -6.402351014980542487e+00 -5.576408262504267555e+01 6.418863826708092191e+00 2.225378755901339289e+01 -3.734596346321330884e+01 1.426036229504648567e+01 2.229752550292621152e+02 -2.856765656925621499e+01 -2.916096204838502359e+01 -1.060443143905204835e+02 -1.731916699141961669e+00 -8.423914385070074218e+01 6.692778113934313211e+00 1.168722208707655597e+02 -5.426646036969925291e+01 6.312662583490467050e+00 -5.665786240268801066e+01 3.483219173160213789e+00 9.094705692290719412e+01 -1.208088742739461594e+02 -1.009280714131291887e+02 -1.069181590454530664e+02 7.445385776695074753e+01 9.025070798315705645e+01 -9.625833512590293140e+01 6.525166959041786185e+01 2.690196741806351355e+01 4.033207145357260259e+01 -1.851705870128836651e+01 9.520772201724059869e+01 8.313212974761653129e+01 -8.057087626094616439e+01 1.238056766587639501e+01 8.434127400802347552e+01 7.596156546234797702e+01 -2.071170486392605525e+01 2.605281288999951883e+01 -1.381994696613110136e+02 5.055636349904227700e+01 -3.414863217317998334e+01 -3.401356262386824625e+01 1.805108699427866839e+02 4.945625612364128187e+01 1.253088756380318216e+02 1.990047682643679821e+02 -1.435229884947046344e+02 1.553487998185085814e+02 -6.603813794619199484e+01 -1.408306890005887624e+02 8.580134033369414226e+01 -1.397566316269693232e+02 -2.991080502327282176e+01 5.881262425536208127e+01 8.444719351300353338e+00 -1.751724466790385293e+02 8.775937437634360094e+01 2.626871379218125213e+01 7.201902199484403866e+01 3.779054397652448927e+01 9.879887484620741844e+00 -6.995178727034678445e+01 1.206375547458131479e+02 5.678073900939443774e+01 -6.475079506027826426e+01 -1.055073621334534835e+02 4.061162996188943453e+01 2.672308653881573548e+01 8.584735263200489896e+01 1.914470218371266981e+02 -2.568675626875959495e+01 -1.147776897266598723e+02 -8.833803588063921097e+01 -5.348548817151588253e+01 -4.627807471583178511e+01 -1.529222598482178910e+02 -2.343405791467819554e+01 1.349196287679470174e+02 7.769110204527504493e+01 -1.275221282826828570e+02 -1.560943155608772770e+02 -7.098608108199599087e+01 -7.960954859991106503e+01 1.528789574845387449e+02 -1.776096550309539452e+02 9.014611222722096784e+01 -4.802220932651088958e+00 -4.481840672379768620e+01 1.387478097560788193e+01 9.502244791926470668e+01 5.170309150318637137e+01 1.440036621908689938e+02 -1.657963443157509573e+02 -8.436641285428700598e+01 2.637802139904804122e+01 4.369815795037948902e+01 2.148047202459702589e+02 1.515305128197332181e+02 6.825040349584826060e+01 7.512455954550347315e+01 -3.571668363702830362e+01 1.582050132397902757e+02 -1.867986318726012769e+02 -6.603080287230262968e+01 -5.593581878037932853e+01 -5.396095855757164372e+01 -1.076256743905582454e+02 -1.560179165223720332e+01 -7.151998714256440337e+01 7.417137736053028618e+01 -9.556669555581786213e+00 -6.055805023645517338e+01 -6.495062865595025414e+01 1.877198741791915211e+02 6.142604590466086023e+01 -1.425446940366407489e+01 2.175824176694530081e+02 -1.128246914657149063e+02 -3.681712179646326177e+01 6.974200843746919531e+01 -1.306349248955655518e-01 1.553922474695466427e+01 -1.302262042219464604e+02 1.835029469201485881e+02 -5.105537902094263103e+01 -2.809130993420505362e+01 -1.142536924355995041e+02 1.310473904239550791e+02 9.987196823291418468e+01 -8.072616766711053060e+01 -3.907413593886766989e+01 4.052167831195716019e+01 -1.576129317255104070e+02 -1.250568785234713043e-01 -7.775139908450702819e+01 8.031758959288039179e+00 -1.125392229458530835e+02 -1.649760752119804010e+02 -7.353624316489037938e+01 1.541493662306141630e+02 5.889513470745264812e+01 -9.320939665629771298e+01 9.278569125896332537e+01 3.563500534247559415e+01 9.180666679590909496e+01 -4.379410830894497764e+01 -8.746239139745905788e+01 1.778054620061955404e+02 4.333168074865729125e+01 3.010702582327807875e+01 -7.590661047014488361e+01 -4.397415142026074619e+01 9.957081258012523861e+00 -7.431464002963454440e+00 -1.795807983698152555e+02 -3.594421205735547886e+01 6.693708767795378378e+01 1.159755531622124636e+02 1.617223874247529238e+02 -1.377036603576921259e+01 9.306875533375610132e+01 1.637506366718668289e+02 6.586087467158115771e+01 1.534730066249436220e+02 1.667149181714345829e+01 1.362633940319307158e+02 -8.710289669080748354e+01 5.538643412702468538e+01 3.045878718616858549e+01 7.869642789806833605e+01 -1.101272149169278123e+02 2.052720476576810142e+02 -1.335479707474176507e+02 9.149194742472518271e+01 -1.113645063751968252e+02 4.778727561312852146e+01 1.428809722947004524e+01 9.396597656555523770e+01 -7.631508350340757829e+01 -7.818985861484671318e+01 -1.157742013878385912e+01 9.222358128179480730e+01 -3.061702602712855281e+01 -1.688713108917736605e+01 -2.031488433969209595e+01 4.902060549029001457e+00 1.015111008963274912e+02 -6.471452469927606899e+01 -2.812996233994349726e+00 -2.001592064775433641e+02 1.257759103210400440e+02 -1.287663848968667537e+02 -7.619751836386717514e+01 -2.429027746500297269e+01 -1.112787948703074505e+02 -5.482536120405200819e+01 -6.037906632714917521e+01 -2.026698717406098638e+01 1.405215791295013901e+02 5.573875804475017759e+01 1.035638022521340389e+02 -1.403193370496960597e+02 -1.428902419753288200e+02 -2.953642939539906820e+02 1.052950561665413431e+02 1.075360421598989262e+02 4.356699233395959681e+01 -4.371051422035006340e+01 -3.839942926773835552e+01 -1.893253333971150596e+02 1.507076263818246389e+02 -1.107719196794615613e+02 1.102907042456197075e+02 -1.642068500116770906e+02 -1.474822619046008043e+01 -5.710306322837051596e+01 -1.229658813623308617e+02 -4.753166580854500012e+01 -1.285379775314710571e+01 -9.554310515196355880e+01 -1.067589521572130167e+02 -1.273748112065377036e+01 7.344421492605619051e+01 -1.285562895961391519e+02 -1.617168400836870035e+01 -7.608054205897747124e+01 -1.355555088215829755e+02 6.919473697700447623e+00 9.822235319160337497e+01 1.707238677914584741e+02 -1.968507599700076227e+01 -4.752243788151138659e+01 -1.280655248222013256e+02 -1.687465654835735904e+02 1.070530552917964826e+02 -7.507088319215223748e+01 8.155949742040046146e+01 9.708398562518917529e+00 3.020776813769936808e+01 7.622692245743850492e+01 -8.743319407136540633e+01 8.531508739910896111e+01 1.189807998065066670e+02 1.624623504351046677e+02 -1.203828620330361900e+02 1.072906997571276548e+02 -4.929436313724935559e+01 -9.372747733356091260e+01 2.214801503401481284e+02 5.087195664356844560e+01 8.616703887755477353e+01 2.201311315586281125e+01 -6.518479132204680582e+01 -3.607012218080603105e+01 -2.171764167338918128e+02 1.090443709935106682e+02 8.416023281209483287e+01 -7.815529711400746748e+01 -7.554678300486341413e+01 1.499070041416837569e+02 1.043423454839760609e+02 5.276676294361315911e+01 7.856251341398852617e+01 -8.179201747749376139e+00 1.065493292119703455e+02 -1.068695144590727466e+02 1.924855517923377590e+02 -4.076397386320144278e+01 -1.259388190681880246e+02 -3.886558940950880725e+01 7.407837506764798263e+01 1.521369314472621284e+02 1.337913430171533768e+01 1.794715160268875707e+02 5.391506247904923299e+01 3.469679843538421693e+01 -1.149486123170104719e+02 4.628867308362128341e+01 -1.291329761162419629e+02 4.923073024514695106e+01 3.993163048320949571e+01 -1.273349033192028514e+02 -8.780065850752541223e+01 4.111838849080685776e+01 9.010723030639979925e+00 -2.400749277081774480e+01 4.320008613796741059e+01 -2.209335214426853256e+01 -6.514895293096705586e+01 -2.695244205987028607e+01 -2.320821994421678625e+01 -4.113252742111914273e+01 1.939957174015636809e+01 -8.309419559802670108e+01 1.228329912296506734e+02 -7.677802044771961221e+01 -4.466707045236589124e+00 6.760466075209482995e+01 4.038773981954090431e+00 1.645219659230010123e+01 1.646951026927431982e+01 -1.209657590418070470e+02 -4.569148409772401109e+00 6.717620016974005637e+01 -2.389817628091365407e+02 -8.759430333902042776e+01 -1.164132085643769443e+02 4.520928157788158330e+01 9.936095755095182369e+01 -9.472292970970156034e+01 -1.733527340115211359e+02 -1.911359033670366898e+02 2.063200263328850070e+01 -1.496502391251759150e+02 -6.517824523219560184e+00 1.523212637507569411e+02 -7.355813149032334408e+00 3.832988461874802510e+01 -1.020239159593903793e+02 8.227525619156237724e+01 -1.221188944028751706e+02 -1.585089399580918545e+01 -3.122126520876951972e+01 5.923194896883669713e+01 -9.159348621112000544e+00 1.086971000573273045e+02 -1.254723011515182236e+02 -5.147417887673000791e+01 8.887575870316987903e+01 6.795153921633362870e+01 -8.460152220632090803e+01 -5.584203031135825057e+01 -5.064851460657224891e+01 -2.969320359917577434e+02 1.985476729545763703e+02 7.809577250157450123e+01 -2.422214478165465223e+01 -3.041089411680376742e+01 4.257416868066182047e+01 -8.629190810739608253e+01 1.020242851464476388e+02 6.191540289023755150e+01 8.406274983132894363e+01 -8.613058523447091375e+01 -2.724448157246758484e+01 3.416625032478811619e+01 1.779565636148629793e+01 -4.380798805764647597e+01 1.615776264423425346e+02 -1.770537148638915781e+01 3.619223294667943236e+01 -2.350925248637155676e+02 -8.665340472107067171e+01 -7.485388841276748906e+01 2.353714077768766799e+01 1.116748826755102755e+02 -2.368780210360403942e+02 -1.912573446997272697e+02 2.266986965221096284e+02 -1.081094099840761835e+01 9.825648958806763744e+01 6.417298025425715480e+01 -5.663391034271818114e+01 -1.339568086596603678e+02 -9.730685910756885448e+01 -5.140321962861695937e+01 -3.829627475457258612e+01 -4.003404346315818430e+01 1.655708109397325600e+01 3.794674086682223901e+01 1.705405839375749792e+02 1.259406170174011947e+02 7.055637596286906010e+00 -4.472048371308501302e+00 -1.623933671598640842e+02 1.223375540534199928e+02 1.629182152064772424e+02 -1.057150241510092883e+02 7.539441817958440595e+01 1.846804975004038729e+00 5.610209705678196457e+01 1.282882410913752267e+02 7.253689139921115725e+01 -1.370256036703530071e+02 1.652690973023669230e+01 -3.004680845147685631e+01 1.138792154293178172e+01 -2.372628172735480945e+01 4.639660952389721871e+01 -2.664295181009417774e+02 1.853889052138260638e+02 7.507415078610559789e+00 1.631458140842544253e+02 -1.082893747245823057e+01 1.087095038881232369e+02 7.333610620047976170e+01 -4.303142109571350460e+01 3.059083863592492492e+01 -7.453067287751871106e+01 -9.111515580547464310e+01 -7.385909728111384709e+01 -3.283220308824976996e+01 4.630982949246029534e+01 1.129275498452212929e+02 2.922721118010924002e+01 6.362293663038362723e+01 -1.074562215887076775e+02 -1.406155432230253268e+02 -1.382792698801262077e+01 4.760277823299855271e+01 -4.671974358362530921e+01 9.694144227339486974e+01 5.693397199481201199e+01 -2.837413213284475333e+01 3.073359519706505694e+01 6.295157328641968775e+01 -7.400969979886049543e+01 -1.372236858456178084e+02 1.458342737044128796e+02 8.023642550122872308e+00 5.147925284329903661e+01 -1.532653664835577274e+02 -5.483766484604269209e+01 -4.904326681523633047e-01 -6.746324379392103765e+01 4.395150051720485784e+00 5.781471853216470436e+01 1.915620261662741086e+02 4.020408114538103206e+01 -1.127197380832274654e+01 7.418865215199383556e+01 -4.677117445252456918e+01 -1.120550242820591507e+02 -1.421299122245062279e+02 9.647665991894617932e+00 2.583364250468847700e+01 2.445999604090582125e+01 -5.852323674987891877e+01 1.243573386393141504e+02 -8.321371954417622874e+01 1.321070901464345582e+02 8.988596302122135739e+01 -6.697830143591822605e+01 -8.718058655273522106e+01 8.670638126919189403e+01 2.112593575408853397e+01 -5.405572596825463449e+01 -5.548788932976155763e+01 1.408002228309455290e+02 5.903686258956271615e+01 8.231136123435001650e+01 2.695090267437760545e+01 -4.340252020039184799e+01 1.108327277459160456e+02 -5.626379161442341825e+01 5.355954347890486966e-01 7.899931054783711204e+01 1.027214341374314870e+02 2.635365398537299484e+02 -1.806983062615540234e+02 1.661075914787444106e+02 -6.979841076046380977e+01 -1.571171123462518970e+01 -2.583334751425173437e+01 -2.141109708808748380e+01 -5.701662025081904517e+01 9.597140443284165201e+01 1.902258000606794042e+02 -1.228076247375697818e+02 3.197804980488262316e+01 -1.312355481716574559e+02 7.260439220762059165e+01 -4.605895432064490791e+01 -8.379396414946356231e+01 -5.576763826912286248e+01 4.262699889374883355e+01 2.009841592348465866e+01 -8.476892223798454040e+01 -1.462198660064986200e+02 2.154168862425756004e+01 1.634582106396357517e+02 1.481809079985405830e+01 1.893439836373809726e+02 7.753039447560076347e+00 1.397367099785016649e+02 -3.593152974502746844e+01 9.418893353460326523e+01 -7.422188224302757931e+01 -1.173228577341930929e+02 5.137889015748895361e+01 -6.032549422033514475e+01 -8.163623896690667436e+01 7.585393597366012841e+01 6.686015851199012872e+00 -9.814250971622031727e+01 -1.566734687288366672e+02 1.539599028672251961e+02 -9.286199327300332129e+01 -2.422886639265615649e+00 1.250895755436043117e+02 6.049171308901723876e+01 -1.023386559184924351e+02 1.105310352374302418e+01 2.940772492766318464e+02 5.563051760274679935e+01 -1.645653906886266498e+02 -4.977544028846047297e+01 -6.423521657769542514e+01 1.006486527521336427e+01 1.122912481850298860e+02 -1.080248848230477137e+02 2.250299558844274372e+01 1.363188707926523193e+02 1.962025600266860081e+01 -2.207131427528073004e+02 5.054929962674862765e+01 7.887289232273333539e+01 -1.417548582328934081e+01 3.429231564511125896e+01 1.215884794175810107e-01 2.348000832641452362e+01 2.899033744222261788e+01 1.210390550149347888e+02 1.024291741934002573e+02 1.620156728824018089e+01 1.557768048783246400e+02 -6.692049332813353146e+01 2.578178595423845536e+02 6.796439966230671814e+01 1.480936508117699759e+02 -2.297866603187554091e+01 9.414589250232555173e+01 -5.132577356220037501e+01 -1.530391211463320360e+02 2.740399603107980298e+01 9.946884512257197741e+01 -9.164159910346255344e+01 -1.095231154719512716e+02 -6.957926704241891969e+01 3.824951322101208007e+01 -1.194935988191057561e+02 7.817239167704643421e+01 2.938203334232313679e+01 -1.020908347545010599e+02 1.986815677552342549e+02 -1.230542522592694610e+01 -1.064031161347536028e+02 -1.397389297210349035e+01 -2.137358766295404067e+01 -1.466897135252166322e+02 -4.188964898307563089e+01 6.432475700135502450e+01 1.378207385817137265e+02 3.033726290680533921e+01 2.801446866736838714e+01 4.685351257937320923e+01 -3.743017354982651312e+01 -1.522798472392946110e+02 1.655742612642726996e+01 3.244827892798692659e+01 1.392119664926397604e+02 -1.042846667753133616e+01 -7.966614661052928170e+01 7.659366531337002471e+01 1.057280133803603528e+00 3.347878185556961483e+01 1.457615018208064726e+02 -1.857887084370692889e+02 -9.713627792461605281e+01 1.304915090138395328e+02 -2.193312522457119940e+02 -1.869711426309962405e+02 9.247742751573950670e+01 1.565570672656446334e+02 6.441200978439060520e+01 -4.505568015813896210e+00 1.583968698448867656e+02 -2.231069869478876910e+02 1.089392483672334322e+02 4.308840505262276110e+01 1.291947992180358256e+02 -1.917297569483296229e+02 1.083903035679113316e+02 -2.878619250376908312e+01 -1.359298240983265202e+02 -5.417809833824728472e+00 -9.395546536503981372e+01 -1.663715981152941836e+01 -4.318595553219925165e+00 -1.252389525397694143e+02 -1.253691405358465687e+02 -6.362393497175826695e+01 -1.310852288788420026e+02 2.043529221663239070e+02 -1.636491561816218052e+02 -5.099368795190689241e+01 1.754027856551686568e+02 3.448539839412098473e+01 -3.008978912846231992e+02 -1.291645068981134159e+02 3.612832075751940408e+01 5.554378064551537619e+01 8.782093451484112023e+00 -1.572247810622313011e+02 3.628218615697164751e+01 7.568368570908302395e+00 -7.556158448285886209e+01 2.060608931349923694e+02 2.059824963432436107e+02 4.392213871680081816e+00 -2.119783033502858700e+02 1.280927254631368157e+02 3.129679712512763246e+01 3.781221721593261087e+00 7.793038879918688622e+01 -2.108976534283671640e+02 -1.403428379405650333e+02 1.434045388157678929e+02 1.114542235356530000e+02 5.383013306051639546e+01 1.456373473373647016e+02 -1.812209257385086119e+02 -2.075341442886131915e+01 -1.326180071092543358e+02 4.426521769575951737e+01 -1.055805274808053156e+02 8.847345402972044326e+01 -3.441185445105579532e+01 1.258568606777814125e+01 1.803599353445702320e+02 2.893378707422381879e+01 -2.679340974490146436e+02 -1.284300455519933735e+02 -8.474319069262585913e+01 1.607209683608774924e+02 1.273902236843947833e+01 -5.466210699652854998e+01 3.092249393637450083e+01 6.357452443028871159e+01 -4.025947002693188637e+01 1.092959248239907737e+02 -1.023967275777189201e+02 5.002696160215258203e+01 1.137756243957288120e+02 -3.598597254554498193e+01 -9.974560751861491781e+01 -1.152635610338672052e+02 1.217374805784548357e+02 -5.046548701480537602e+01 1.998024247165159863e+02 5.815027530461669159e+01 1.127990751186285365e+02 1.874043368546221586e+02 8.706539012574589620e+00 -1.263096575341324694e+02 -1.685324112057513446e+02 -1.160949514934824265e+02 4.315310517116519406e+01
-1.354382957179354108e+01 -4.762125692844263014e+00 1.028491933865455223e+02 -2.273897051151486153e+02 1.543170220369999299e+02 6.309440009508759317e+01 1.510552088309568148e+02 -1.282336561794573129e+02 -2.774188640467323275e+00 -2.391491138372611758e+01 -2.179171557351721162e+02 3.252316538488506836e+01 -1.820025447383531869e+01 1.214179827878508604e+02 -1.241424148884663055e+02 6.126765284626137742e+01 1.244304449584860066e+02 -4.560887728204161107e+01 -4.934874096168396562e+01 -2.689461521358934348e+01 6.124681340328938006e+01 6.269273047250050723e+01 3.217296219916068623e+01 -2.308869417019668049e+02 -5.129028593479002751e+01 9.081143415268013541e+01 9.826902470773566378e+00 -1.026282863385702981e+01 -6.606793403918287311e+01 -1.532479263695487326e+01 7.281410335957188806e+01 -1.443688162727862050e+02 -6.143727904949170693e+01 8.942710693010720746e+00 2.059853563283059259e+02 2.105080885956791690e+02 -3.180481200803355435e+01 5.548642264603783758e+01 -2.822448858779293968e-01 -1.386708774425736692e+02 9.530286376310870367e+01 1.064841316265321893e+02 1.077453136683370190e+02 1.161810289157869391e+01 6.146252692268850382e+01 4.778359753120923870e+01 3.861169997670642573e+01 2.909587094234486315e+01 1.095008385128595023e+02 8.908593282466218000e+01 6.514682258667866677e+01 1.617941170251985170e+02 2.458233795906783996e+02 1.941532435715479323e+02 -5.869723269822841871e+01 4.890983303930142512e+01 -6.384493598331733466e+01 5.602758364485020337e+01 -1.907369692194328650e+02 5.609517541022306375e+01 -2.033166462536949268e+02 -1.674899844451428521e+02 1.284429336439909974e+01 -9.158402973003060055e+00 1.683308038986389761e+02 -2.064119003549933211e+02 7.474970258917036858e+01 2.281371509154643320e+02 -7.248417564284619807e+00 -1.932738699477116029e+02 3.535888952348395264e+01 1.958304439352740758e+02 -6.066028121413993546e+01 -2.645475985347041501e+02 -1.018360992553489410e+02 8.741660130822443975e+00 -2.284720430077182698e+02 3.176688395635997253e+01 -1.782177598946703938e+02 -1.843369575317305475e+02 -5.668652613588564293e+01 1.514885548155008337e+02 6.907603078967001409e+01 1.052903433392912724e+01 -8.803158658225503075e+01 -4.233921038754063915e+01 6.336445132777681266e+01 -2.306252741173142624e+02 5.377993095296477577e+01 -7.459432307706012466e+01 -7.761933729848064445e+01 -1.757553811836333182e+02 6.473315758696456612e+01 9.224664943370827075e+01 -1.614126812553225818e+02 1.717727537631994323e+02 -3.968941761066150065e+01 -1.682057535485507671e+01 8.704705331659255307e+01 1.554399632595790308e+02 2.154209600606123232e+01 1.506210976876277812e+02 -1.834926222797770734e+01 -9.022685013035754764e+01 -1.952152990095058627e+01 1.005651502732400076e+02 4.598934480971751526e+01 1.000403677286200974e+02 9.654896721157695083e+01 -8.491407833868923660e+01 -1.737677314825462531e+02 1.258565143533197528e+02 5.549577011658100645e+01 1.649948602625521943e+01 3.128090209422541434e+01 -6.947735775502381728e+01 9.824117036324290098e+01 9.188323174220309397e+01 -1.396277410482577963e+01 -7.287274370823125480e+01 3.150738893543982044e+01 6.413554710416010884e+00 -6.298406720988742080e+01 1.734648582837895106e+02 -3.381026758162593637e+01 1.244549785381224041e+02 -7.177060042520842842e+01 3.928889977031491298e+01 -3.698946846869016980e+01 9.156993853476893719e+01 2.405206775195032876e+01 1.183298160241534305e+02 -1.187543302398577652e+02 7.612852976150770701e+01 1.264800466357793738e+02 -4.581159127251810048e+01 7.741853556927487112e+00 -1.292873443257772514e+01 1.196047482436388947e+02 3.585223276404746695e+00 1.728568505733778125e+02 -1.449055344882740997e+02 1.195951651633269961e+02 -9.365004214463893106e+01 9.812835358867212676e+01 -1.404933093204423074e+02 3.027200490142784872e+01 2.535946093468997375e+01 1.881689551312162534e+00 3.723744709438224021e+01 4.703671334535631843e+01 -1.277117682646493257e+01 1.103897534120123147e+01 1.108722534910008761e+02 1.305670431870456696e+02 -8.890234605068309293e+01 -5.565611488943915219e+01 4.862314228976691055e+01 1.593232405833627352e+00 -1.405318554850742885e+02 -5.651463988972971464e+01 -3.642173181466525733e+01 5.023124898071189648e+01 -6.732750489583210651e+01 2.355479269939674580e+01 1.646721125712543881e+02 -8.162925451112327835e+01 8.295937303924232253e+01 8.640252363539086389e+01 1.151155033424892693e+01 1.268304488645802195e+02 6.462991810194021980e+01 1.727349579256629113e+02 -3.548686321789936216e+01 1.156530360383583229e+02 5.710861221512632824e+01 -1.654430307968549485e+01 2.099768265960094880e+02 -1.428271237810618288e+02 5.029043865391362544e+01 -1.930426570737847385e+02 -8.666187250593742419e+01 4.222314135898638909e+01 -7.434346385726880158e+01 -1.605113912124560329e+02 2.052899135793016114e+02 -8.836499312978240539e+01 -4.892385731886024303e+01 -4.768771050350263607e+01 1.254466902582098555e+02 2.007276037963514455e+02 6.673856384696952659e+01 1.507317590636990303e+02 2.261765140510304377e+02 -1.690806363818625480e+00 1.679447767870418602e+02 7.307819827880538810e+01 1.962675113211867028e+02 -1.296413589481015549e+02 -1.225617141065649740e+01 6.521528838715848764e+00 1.958347552818916313e+02 -9.373405357060406118e+01 -6.230578991955994894e+01 -5.459831561471548156e+01 -1.380613076943904218e+02 4.802800037734566097e+00 -1.040674809820091582e+02 1.588322519855681492e+02 2.431365760169532209e+01 1.239403945808627050e+01 7.454846307423873952e+01 -5.104676183939410805e+00 1.205390373584102406e+02 -1.637408080983616117e+02 4.679533389462695681e+01 -1.761722831940185756e+02 1.210586543451673549e+02 9.895226341957589966e+01 -6.941758890290381601e+01 4.818991838309855069e+01 2.455031189524964361e+02 -3.138544081215160730e+01 4.295493743585928570e+01 -3.367843413874724234e+01 5.972457760284267181e+01 6.629188624456948276e+01 -6.457487945547687680e+00 1.050962350845798738e+02 1.046848989003589310e+02 -1.998647068864203220e+02 -1.579749665906608698e+02 -1.234893230476118617e+02 -9.760027850355850632e+00 -1.544273515425942094e+02 1.191015999282609528e+02 1.137677903247191153e+02 6.076645611858263862e+01 1.150116967001267199e+01 1.625401934017553174e+02 8.654078398817395623e+01 6.955460354140390677e+01 -1.047811529002630948e+02 1.569614945631358296e+02 -3.669607065316569550e+00 1.126495876164078140e+02 9.081066499535781489e+00 3.786820208872071447e+01 -7.802939185260447630e+01 -9.352601149137277048e+01 7.375211078260203124e+01 -3.931687027530104128e+00 1.507123334879653100e+02 -1.296555842478455034e+01 -2.951012477694185954e+00 4.723231178265846353e+01 2.333221699024113249e+01 1.456438462321184488e+02 1.503705745360391610e+01 3.689731094061063743e+01 -1.593092486566274886e+02 6.781334230918588446e+01 1.376052127974371899e+02 -1.823561723869682893e+01 -2.346559441864457369e+02 8.685029610549491963e+01 1.399537599536141954e+02 2.084185844526447795e+01 1.940661297972666546e+02 -4.208887177161032334e+00 4.403891395489619498e+01 -4.469206564670236048e+01 -1.422140722215206949e+02 5.737682496242765495e+01 -4.863849743751173804e+01 -8.308431879748897586e+01 4.220775586271638957e+01 -1.892588310628975137e+02 7.347392500686747496e+01 1.682310301856183514e+02 -1.036065136075042687e+02 1.769565167982881064e+02 -9.994957027711205910e+01 -6.134301882639986658e+00 -1.074309943923989685e+01 7.831097426986180210e+01 -4.759350652473968069e+01 -1.102209656312961528e+02 -9.045547231777167951e+01 1.489289191983832268e+02 6.037105069773493682e+01 -1.344974805859225171e+02 4.547269624172200153e+00 4.436579239722431822e+01 8.429500719742877379e+01 -4.117235963658426812e+01 6.124453160062470403e+01 -7.038284142051793424e+01 -1.657003535940901315e+02 -3.534364078923015740e+01 1.438372607992456835e+02 -1.156217687051372849e+02 -6.565669156126847206e+00 -1.661996479044992157e+02 -4.836706008574771509e+00 -1.487539409679832829e+02 3.351894869798972110e+01 6.128719957664780793e+01 -5.131329916117633871e+01 -8.400519503852596870e+01 5.733583575544536792e+00 7.581056152544402948e+01 -6.906075370402635372e+01 1.372699441284036652e+02 1.074609417317586662e+02 -1.300285284000992760e+02 -1.074001903332220280e+02 1.375698780135784602e+02 7.266421277152544178e+01 1.529080482326962169e+02 1.021065389108632786e+02 8.263928238117216551e+01 -6.132183314672362684e+01 -8.322802973004053229e+01 -7.842574198980469191e+01 2.080283733036429226e+02 3.102043056755088912e+01 -2.530948169489331789e+01 -6.970853675154897644e+01 -5.088633317420684676e+01 -1.333375001013103258e+02 -1.678507510957781790e+01 -1.776467062474204965e+02 1.266176093827156137e+02 4.661833718582766295e+01 -1.167039655237505542e+02 -4.898146751269709398e+01 1.212541843003250364e+02 -9.822043427161528939e+01 1.040987518408973216e+02 -1.199120938707302599e+02 -1.190542549674095696e+01 -9.668315344122730437e+01 9.079850841096761371e+01 -4.300931822566785456e+01 1.048690107403584371e+01 2.967213152919195451e+01 -1.282066839177033160e+02 1.265618863596418286e+01 4.889660835593615218e+01 -2.270444834932087019e+01 -6.957267911042914932e+01 2.048892318968890720e+02 8.746985507733377574e+01 4.770923062815536753e+01 -3.179712411320925725e+01 8.120251179523884844e+01 1.695648718909893944e+02 -9.339640838220991270e+01 2.118931840424067161e+02 -1.346530765883468348e+02 -1.860925510445549662e+02 1.536576740751878845e+02 -2.366659453466286607e+02 -1.028229283167120034e+00 -2.477604924036188834e+02 -1.547176035695240159e+02 7.257875013857926660e+01 -1.473469012143948191e+02 5.906768624426270264e+01 1.111315805291475129e+02 -1.622586431692545830e+02 -3.050806704073613318e+01 7.626489946267805919e+01 1.354861260458779668e+02 -1.882143442078722728e+02 8.845155070938864128e+01 -9.907464139208885001e+01 -1.000204577309612475e+01 -1.406434754313941937e+01 -8.051042029787657839e+01 -9.136967577984286493e+01 1.834532324372789276e+02 -2.190775892947036496e+01 1.337889052197713591e+00 1.317296400141787558e+02 -8.766898880119649107e+01 -3.482959058888681625e+01 -1.089196961378098933e+02 -4.944113205145044532e+01 5.261205944557117320e+00 6.014065074011465839e+01 -1.368427799846423909e+02 2.403868836097519193e+02 -5.467147546057775287e+01 1.244699906628140127e+02 -4.954836962620696283e+01 1.216090588459368718e+02 1.411640753608934631e+02 4.877149387267996872e+01 1.240237487572428847e+02 -4.390204405240574204e+01 1.421749816985613108e+02 -1.589041373049297192e+02 -6.643441036792584953e+01 -6.398488852989538600e+01 2.592003257620447698e+01 -1.649408676711813371e+02 7.373911253273604416e+01 -3.133608871767039972e+01 -8.399139893878246710e+01 9.108805014250928878e+01 -1.535717111765968070e+02 -9.269684670378994440e+01 -5.344006233086370372e+01 3.363201506923513051e+01 1.319659329903004448e+02 1.188153554134104724e+02 7.028844702253957166e+01 -1.659505265165942545e+00 1.777030447381864349e+02 1.245366632596976473e+02 -9.595757505112085539e+01 -7.946358157337112971e+01 5.644438446968112544e+01 1.017025495730733908e+01 9.957879073332078690e+01 1.693472822597326797e+02 7.172326913440910801e+01 2.475550152681771721e+01 -1.038293913115789593e+02 1.746026424438664719e+02 -1.155192289994220403e+02 -1.679330660711843279e+02 6.675956829074286247e+01 1.132381942038798712e+02 1.992713616118157205e+01 -1.410231201780558479e+02 3.021538201341118679e+01 4.310079499641315692e+01 -2.974333977012177943e-01 1.329250869496617327e+02 9.900069169852497453e+01 1.736267353978819017e+01 7.953303465064777811e+01 -1.086778371341011962e+02 -6.374788477543966714e+00 9.978840678921922347e+01 3.011970963221031639e+01 -6.600373038700587358e+01 2.009309302305157132e+02 2.344853319463135790e+02 -1.273876570358824694e+02 -2.799244446954458354e+01 -2.132803687456360819e+02 -7.322184735855385895e+01 1.588950574757006677e+02 3.478090847364299965e+00 -7.199448289538946710e+01 1.661439241198014827e+02 -6.341698909054652233e+01 -1.628510175269592821e+02 1.384583215060578141e+02 -6.817845721837728945e+01 3.490347375479086622e+01 8.756971842420533392e+01 1.396093939984655208e+01 -2.414753894529166587e+02 4.284644868615632873e+01 -6.191475025600971627e+00 9.128394806282061325e+01 -2.387785971732463963e+01 1.025627293023888456e+02 1.717863085940598822e+01 -8.594195947145242087e+01 -2.074500746891500214e+01 -1.775613465768548735e+02 1.165439576929688599e+02 2.560107712979649364e+01 -4.219510975971123656e+01 -5.251369234717561341e+01 -6.368595788567459692e+01 4.163492401288881695e+01 1.628268668827799104e+02 1.344785418455508648e+02 4.366075619567073574e+01 -2.004936869662402046e+02 -3.930839575555455667e+01 4.438771664355469682e+01 1.189215611868053060e+02 8.841560178530781400e+01 1.567229367589198752e+01 -1.885358443437881704e+02 1.335044459419699763e+02 -2.267567131961665723e+02 -2.085611166787857655e+02 -1.884686529980803993e+00 -7.476843140413672018e+01 -2.437805076635318002e+01 8.830433927840475405e+01 5.667317142582812295e+01 -1.127151742171992339e+02 -1.534592420039392380e+02 1.479893181301918936e+01 1.253503785167757343e+02 2.100452546515900565e+01 -5.747061689508162630e+01 -5.228198626646131686e+01 -1.197469255783362740e+01 1.635354663758083689e+02 2.268308909286066211e+01 -1.791083610258567376e+02 1.322948164515302096e+02 -6.888205273663822936e+01 -4.309905381690841253e+00 1.588613772560783559e+02 -5.398037385284636258e+01 -2.019258387399236909e+01 -1.133226800834204795e+02 -6.205255732851183481e+00 -2.462176830562022545e+01 1.359037742481515636e+02 1.239149088150765294e+02 6.971982322044483737e+01 6.746101916500153095e+01 -1.930953919150691434e+01 1.395363434927013202e+02 -1.163013878759573316e+02 -4.404684167691117480e+00 -9.393656670226317829e+01 1.621536395406202473e+02 7.526377497268551053e+01 5.335310470402873761e+01 8.558953830559310916e+00 -5.494817292044558599e+01 3.547379759119659326e+01 6.983039615431523295e+00 3.676931899176393959e+00 2.489306074632767718e+01 6.166660806801645123e+01 1.756273069631707529e+02 -4.002912021957173749e+01 -5.364242037850993228e+01 6.888513554006479467e+01 1.193277829438876694e+02 -1.320764195259708806e+01 9.479655118713115769e+01 1.072598441955811808e+02 2.173507991637594330e+02 -8.927442323211096209e+01 -1.265633366320651021e+02 -2.952858661297101150e+01 6.406920758909538449e+01 -1.046320318277468076e+01 1.107812040330067447e+02 3.838501381991287076e+01 -1.677055999805006650e+02 4.646950290229805347e+01 -9.224257729643511539e+01 -1.395033239231783568e+02 1.386632567858388256e+02 -7.835038898179635680e+01 6.093998535681785711e+01 1.146534768593893006e+02 -1.020994909557414445e+02 2.417103086796116074e+01 -7.435527140066474772e+01 4.146590566295147795e+01 -1.180184945340960638e+02 6.340721561418357055e+01 5.629817948918331894e+01 4.074578232834268121e+00 8.661449979613034600e+01 -1.575387395212157742e+02 7.866422508434310146e+01 -3.007782634195117666e+01 -1.727224115965911722e+02 9.656575701536881695e+01 2.504874431088843423e+01 -2.005883787122801891e+02 2.404809258755189489e+02 -5.374179290222701466e-01 1.075343655582920945e+02 -1.233050725760861326e+02 -1.985534897574831348e+02 -9.540291186794259204e+01 2.513873060654847169e+00 1.461254495286437418e+02 4.127909044010824147e+00 -9.769992121113170924e+01 5.157351207254713898e+01 1.401159904019965836e+02 6.645818456178747624e+01 -5.292305528420049399e+01 -6.045839588868182801e+01 8.640390072090903573e+01 3.146487851801472857e+01 -1.998959272047751767e+02 -2.120036673071632194e+01 1.728323316033559820e+02 1.010745669690867174e+02 -5.859010955826848743e+01 -1.143083206964544303e+02 -4.364454506004480550e+01 -4.915646803585503477e+01 -1.170178036507139439e+02 -1.893165093413126954e+01 -4.668976500447988087e+01 -1.161559743179752218e+02 -1.348025509954904919e+02 -2.750827203635445173e+01 -1.284610196455925575e+02 -1.367368257556409219e+02 -3.918931328448674378e+01 -5.661052796565527245e+01 -1.134591699621968104e+02 1.972166752412170752e+02 1.116341629550746717e+01 -2.981346954578271280e+01 -1.802961193668004114e+01 8.334327571209303187e+01 1.655928267851215452e+01 2.653791942753388611e+01 -2.258999412418499020e+01 -4.893937430163381919e+01 2.217219962418417367e+01 -1.539916108949078364e+02 -1.686766474141345782e+02 -9.585262060134778039e+01 -2.021948158067671386e+02 -9.496747439360964904e+01 9.094282441970844388e+01 6.502721110658426085e+01 -2.762391920386504296e+01 6.438720558849112763e+01 -1.658427003865299696e+02 -4.320064691181156746e+01 -1.230204035678409440e+02 -7.072964346196009444e+01 2.234404407839851388e+02 -2.174984920395470169e+02 2.174824103762820755e+02 2.651031415073630271e+01 -5.985891641745549663e+01 9.777622790535313868e+01 1.314709405959762023e+02 -5.498205372500599708e+01 -2.158177027042135876e+02 -1.579736673308313755e+02 1.083391513010050744e+02 8.874958053194468732e+01 -1.436705227086695800e+02 3.388054462967311053e+01 -4.200431666563741828e+01 -8.200450985678992311e+01 -3.011285307148073542e+01 -5.810502829722326368e+01 -9.160361086415636578e+01 -3.604039712503847426e+01 4.706838713911137617e+00 -3.469314516588408992e+01 -4.409810673823679195e-01 -1.524873774092841394e+01 9.748723187858497852e+01 1.346174058682688894e+02 1.396093728546646417e+01 1.777670746078529262e+01 -6.683317778563819900e+01 -2.076513286070940012e+02 3.587355877067615495e+01 -9.721207363657202905e+01 2.735461529494949318e+01 -8.715428463000661097e+00 1.044985316171934908e+00 7.649148627098195163e+01 1.291201597245186292e+02 -7.463369985242246685e+01 4.025965805509258644e+01 -2.042612116691248616e+02 1.022960104770227474e+01 7.467795240515577859e+00 -1.298261839295641380e+02 -3.574802027189176101e+01 -4.696334224107863520e+01 5.063392832192857185e+00 -1.083450242244181112e+02 2.867029855031107743e+01 -1.034696686668962542e+02 5.950693132009146780e+01 7.186052256557800888e+01 3.905872568672893408e+01 -3.074682796677635110e+01 1.138110011123653322e+02 6.467088177507278601e+01 8.473033077410914871e+01 -7.094624325559722422e+01 2.153582246549797219e+01 1.354667038212000136e+02 -6.190659065472288347e+01 -7.316438329181574218e+00 3.388418969765658773e+01 -1.359440442214193467e+02 1.035912112536797025e+02 9.483709995198020692e+01 -1.070333480394726706e+02 -8.718557825351963686e+01 -5.875682021818660417e+01 -4.816310437010594114e+01 -1.696715932067942276e+02 -1.438733014291497909e+02 -1.401720576851292037e+02 1.118029087748595742e+02 6.321258222919136216e+01 1.687423069530183852e+02 7.603404106199265655e+00 -9.074177178828742285e+01 1.978945768561251839e+01 1.463381364636187421e+01 -6.711824328500968306e+01 7.829843660638618985e+01 1.248297758810443554e+02 1.059120230891725889e+01 1.516513341531438925e+02 2.381436841157671935e+01 1.172983567364139077e+02 1.597857447248265750e+01 -2.195884102814889616e+02 2.307736733097463286e+02 -5.171326693277581654e+01 -1.576129439120013274e+02 -7.099106600913317777e+01 -4.539806096886162834e+01 4.344846347338410197e+01 2.688935378666955600e+01 4.804125118193805122e+01 -7.788946521544259838e+01 1.285234891378091788e+02 -9.057403543139756152e+01 -7.357622762906548708e+00 1.495622272029112594e+02 1.150696447833705207e+02 6.081563662009380522e+01 -1.856522069117947638e+02 2.666732764384492782e+01 1.472069215465143657e+02 2.456827280744185416e+01 1.022229768386529969e+02 1.114563427851262247e+02 -2.212188888404748184e+02 8.049073667024366330e+01 -6.041742422152740488e+01 -2.351682509950756526e+02 9.248551081712815858e+01 2.567750698542751309e+01 -1.268909421878199879e+02 -6.081793060802307593e+01 1.439851330435660373e+02 1.527571843885878593e+02 -7.838094020974295972e+01 -1.320167693190669809e+02 -8.611856136111677529e+01 -1.710121880506404466e+02 2.013965272788396987e+01 3.900140102236598239e+01 -1.738304874931669275e+01 -1.270528973044108056e+01 -9.180560783365712041e+01 -9.063901789459127656e+01 -2.523256565416069463e+01 1.367666974537037277e+02 1.390635327152814114e+02 8.273192769560795057e+01 9.888619646519946116e+01 -8.004422197736039379e+01 -1.835587709178719251e+02 -1.347403341088006457e+01 -2.356116630033008974e+01 -7.203604074014916137e+01 1.530335512219010097e+00 7.416008511238385381e+01 -5.371370611015589702e+01 2.495781435741297116e+01 8.033318550373586220e+01 7.111684450394447765e+01 1.121228243328910565e+02 -1.513823289342986982e+02 4.022767363899578186e+01 8.453007794296013344e+01 9.614594801346184738e+01 5.995294052981143551e+01 -1.047528477426429134e+02 1.389505214653898122e+02 1.293061628741808704e+02 9.722611493170794006e+01 1.030106713649555985e+02 -8.546925363767053341e+01 -1.510023727239593150e+01 -1.309919184520196112e+01 7.820426324871291968e+01 6.591336131663372555e+01 5.675061800185431338e+01 9.902900097268079094e+01 1.181565729097170703e+02 1.256356568301821994e+02 -6.590445953128180179e+01 8.176207540231024495e+01 6.621441677048770202e+01 -1.193760050027651971e+02 1.335264030001193305e+02 -1.019751300549943807e+01 -2.832212047249056042e+01 2.022062140290433092e+02 8.976607421638999540e+01 1.259457473561322018e+02 -1.465085172228818635e+02 -1.601877906950693671e+02 -1.561769769194068544e+02 -1.241004387441015950e+02 -4.498418668960120215e+01 1.116104237534678134e+02 -1.713739801647611500e+02 3.308290501172845666e+01 1.467566617902278381e+02 -6.032977021003750906e+01 -9.291375209478405850e+01 -3.570105588980811717e+01 1.382699653433213030e+02 2.313177019127255676e+02 -6.778852551848828512e+01 2.016229310458527380e+01 -2.821290751053825474e+01 6.973033664980016511e+01 6.138368600854042967e+01 -2.171658699136123687e+02 -9.030682566438065351e+01 1.401422737847047699e+02 1.424439436078616268e+02 9.633423424107313338e+01 -5.073396385482729443e+01 -7.728187928755423286e+01 -4.631249292615152768e+01 -1.799271483487919454e+02 7.257044462397948337e+01 -2.619190024253315840e+01 1.696785936195790327e+02 -2.846800041271156090e+01 -3.207929486103110435e+02 1.477935591669652524e+02 5.136531558628794869e+01 -1.203705079610394932e+02 -2.256761779214007646e+01 3.604217126109539748e+01 -2.119040044830074976e+02 -1.166465038137993560e+02 -1.118179642623471040e+02 -5.763394578316764694e+01 6.412780739087925497e+01 -1.682246425942957728e+02 1.102128231513174086e+02 -5.544719092454229781e+01 2.958372900313861908e+00 -1.362214462216908544e+02 -1.057325778355096872e+02 1.795862482614472526e+02 8.849785204809383288e+01 -4.313726025630550254e+01 3.799176830412130101e+01 -2.867046929181313786e+01 4.411222636935835340e+01 -1.068726434129131775e+02 1.009276906609835294e+02 5.162376970256747200e+01 -1.215071750126558925e+02 1.193155459465317279e+02 -5.023932211499415246e+01 1.021188796581677991e+02 -5.050943372742336379e+01 9.035878410628365032e+01 -1.568289686937769716e+02 1.458573895957516697e+02 2.533269472084339213e+01 1.028808982991300951e+02 1.333337686930223356e+02 -1.499444105963688401e+02 -8.783260946583600060e+01 -1.080190218812489462e+02 6.840807979880793255e+01 -1.752476952661787095e+02 1.549023315570298962e+02 1.456904078498225203e+02 5.421109564523285229e+01 -8.685134936078604539e+01 5.836430464683638064e+01 -1.097562144472743171e+02 -1.122781666726819871e+01 3.581388991171753133e+01 -1.880259996715741408e+02 -8.351979656496189364e+01 -1.385307970907891750e+01 1.046325954666429254e+02 -5.138297996885380314e+01 1.112439068978160037e+02 -6.588091915132862653e+01 -2.158596151021896503e+02 -1.096627712965851345e+02 -3.492644630646125137e+01 -6.164998165790709095e+01 3.083800729325751178e+01 5.259022209922632385e+01 6.515162687994701329e+00 2.586958444538996460e+01 -1.201291070830700107e+02 5.512007660499814676e+01 3.342483310245181372e+01 -7.399158682548589638e+01 9.473210085900431565e+00 5.767316581675444809e+01 -9.779685262299378223e+01 -5.643407624008601431e+01 -2.472417190128377484e+01 1.000673297836158326e+02 -1.755803788436932322e+01 4.297237236435179852e+00 -2.337778955219418435e+02 -9.746613149772949214e+01 1.014337792739343342e+02 -9.155302537760505288e+01 3.214457349865123348e+01 3.186675295073495207e+01 3.893702942194248351e+01 6.778461949558881372e+01 -1.820203181434779935e+02 1.476633804499646772e+02 8.352579930372709782e+01 -7.691983256585822382e+00 -8.289856954338931416e+01 1.148544302351864133e+02 6.370184260808068899e+01 -2.062808063733585016e+02 -5.170501019646462737e+01 -8.379354368540101916e+01 -5.321933144453600306e+01 -6.357936344503772119e+01 -1.016757768358597502e+02 -6.195735154070028017e+01 1.964638907554615059e+02 -1.752818748923907606e+02 6.721146265897210981e+01 2.846520317053457205e+01 -7.713646511345331191e+01 1.064342693781905247e+01 -4.043438464285739542e+01 3.508992983244795472e+00 -9.864019890456714279e+01 -2.027284789128203784e+02 1.887537653389158621e+01 4.303090574521046108e+01 -1.313923012258755030e+01 -9.302005355430944533e+00 -4.083218578150085420e+01 -1.949695503456304948e+02 -3.147467414593976187e+01 -6.710515921004959239e+01 1.436150285246950276e+01 -1.601875838422038711e+01 9.291889250976755932e+01 -6.470371176444943728e+01 -1.064670426502788558e+02 -3.672974054340612327e+01 -9.279992420085124039e+00 4.676694156627067400e+01 -2.275035378334199265e+01 -7.564664940217146238e+01 -1.629052538178155274e+01 2.062015997736932604e+01 4.877449058556543804e+01 -1.170897503498512435e+02 -1.427729145436762508e+02 2.365208944589225837e+02 -2.241335637403769567e+02 -7.801886597629820130e+01 -4.761213605129312754e+01 1.436472723964878924e+02 6.499643793949798010e+01 2.350053382052666677e+02 2.513573990957496278e+02 -6.400176393103963335e+01 1.330013259452784098e+02 -5.741415728425933196e+01 -4.190779724093813741e+01 -1.034027870502560660e+02 -8.201388666810873929e+01 -7.148341221554571234e+01 -9.138957634634461158e+01 -2.503870517528479809e+02 -2.782583601296920506e+02 1.383742181381724947e+02 -2.724012699857966524e+01 5.470934192522980055e+01 1.343917916268431441e+02
