# 
#                 ----------------------------------------------------
#                 Data from a 3D direct N-body simulation. 
# 
#                 rows are i-particle; 
#                 coumns are :mass, tag, x ,y, z, vx, vy, vz, ax, ay, az
# 
#                 NTHU, Computational Physics Lab
# 
#                 ----------------------------------------------------
#                 Time = 1.400000000000001
1.000000000000000000e+00 2.000000000000000000e+00 3.000000000000000000e+00 4.000000000000000000e+00 5.000000000000000000e+00 6.000000000000000000e+00 7.000000000000000000e+00 8.000000000000000000e+00 9.000000000000000000e+00 1.000000000000000000e+01 1.100000000000000000e+01 1.200000000000000000e+01 1.300000000000000000e+01 1.400000000000000000e+01 1.500000000000000000e+01 1.600000000000000000e+01 1.700000000000000000e+01 1.800000000000000000e+01 1.900000000000000000e+01 2.000000000000000000e+01 2.100000000000000000e+01 2.200000000000000000e+01 2.300000000000000000e+01 2.400000000000000000e+01 2.500000000000000000e+01 2.600000000000000000e+01 2.700000000000000000e+01 2.800000000000000000e+01 2.900000000000000000e+01 3.000000000000000000e+01 3.100000000000000000e+01 3.200000000000000000e+01 3.300000000000000000e+01 3.400000000000000000e+01 3.500000000000000000e+01 3.600000000000000000e+01 3.700000000000000000e+01 3.800000000000000000e+01 3.900000000000000000e+01 4.000000000000000000e+01 4.100000000000000000e+01 4.200000000000000000e+01 4.300000000000000000e+01 4.400000000000000000e+01 4.500000000000000000e+01 4.600000000000000000e+01 4.700000000000000000e+01 4.800000000000000000e+01 4.900000000000000000e+01 5.000000000000000000e+01 5.100000000000000000e+01 5.200000000000000000e+01 5.300000000000000000e+01 5.400000000000000000e+01 5.500000000000000000e+01 5.600000000000000000e+01 5.700000000000000000e+01 5.800000000000000000e+01 5.900000000000000000e+01 6.000000000000000000e+01 6.100000000000000000e+01 6.200000000000000000e+01 6.300000000000000000e+01 6.400000000000000000e+01 6.500000000000000000e+01 6.600000000000000000e+01 6.700000000000000000e+01 6.800000000000000000e+01 6.900000000000000000e+01 7.000000000000000000e+01 7.100000000000000000e+01 7.200000000000000000e+01 7.300000000000000000e+01 7.400000000000000000e+01 7.500000000000000000e+01 7.600000000000000000e+01 7.700000000000000000e+01 7.800000000000000000e+01 7.900000000000000000e+01 8.000000000000000000e+01 8.100000000000000000e+01 8.200000000000000000e+01 8.300000000000000000e+01 8.400000000000000000e+01 8.500000000000000000e+01 8.600000000000000000e+01 8.700000000000000000e+01 8.800000000000000000e+01 8.900000000000000000e+01 9.000000000000000000e+01 9.100000000000000000e+01 9.200000000000000000e+01 9.300000000000000000e+01 9.400000000000000000e+01 9.500000000000000000e+01 9.600000000000000000e+01 9.700000000000000000e+01 9.800000000000000000e+01 9.900000000000000000e+01 1.000000000000000000e+02 1.010000000000000000e+02 1.020000000000000000e+02 1.030000000000000000e+02 1.040000000000000000e+02 1.050000000000000000e+02 1.060000000000000000e+02 1.070000000000000000e+02 1.080000000000000000e+02 1.090000000000000000e+02 1.100000000000000000e+02 1.110000000000000000e+02 1.120000000000000000e+02 1.130000000000000000e+02 1.140000000000000000e+02 1.150000000000000000e+02 1.160000000000000000e+02 1.170000000000000000e+02 1.180000000000000000e+02 1.190000000000000000e+02 1.200000000000000000e+02 1.210000000000000000e+02 1.220000000000000000e+02 1.230000000000000000e+02 1.240000000000000000e+02 1.250000000000000000e+02 1.260000000000000000e+02 1.270000000000000000e+02 1.280000000000000000e+02 1.290000000000000000e+02 1.300000000000000000e+02 1.310000000000000000e+02 1.320000000000000000e+02 1.330000000000000000e+02 1.340000000000000000e+02 1.350000000000000000e+02 1.360000000000000000e+02 1.370000000000000000e+02 1.380000000000000000e+02 1.390000000000000000e+02 1.400000000000000000e+02 1.410000000000000000e+02 1.420000000000000000e+02 1.430000000000000000e+02 1.440000000000000000e+02 1.450000000000000000e+02 1.460000000000000000e+02 1.470000000000000000e+02 1.480000000000000000e+02 1.490000000000000000e+02 1.500000000000000000e+02 1.510000000000000000e+02 1.520000000000000000e+02 1.530000000000000000e+02 1.540000000000000000e+02 1.550000000000000000e+02 1.560000000000000000e+02 1.570000000000000000e+02 1.580000000000000000e+02 1.590000000000000000e+02 1.600000000000000000e+02 1.610000000000000000e+02 1.620000000000000000e+02 1.630000000000000000e+02 1.640000000000000000e+02 1.650000000000000000e+02 1.660000000000000000e+02 1.670000000000000000e+02 1.680000000000000000e+02 1.690000000000000000e+02 1.700000000000000000e+02 1.710000000000000000e+02 1.720000000000000000e+02 1.730000000000000000e+02 1.740000000000000000e+02 1.750000000000000000e+02 1.760000000000000000e+02 1.770000000000000000e+02 1.780000000000000000e+02 1.790000000000000000e+02 1.800000000000000000e+02 1.810000000000000000e+02 1.820000000000000000e+02 1.830000000000000000e+02 1.840000000000000000e+02 1.850000000000000000e+02 1.860000000000000000e+02 1.870000000000000000e+02 1.880000000000000000e+02 1.890000000000000000e+02 1.900000000000000000e+02 1.910000000000000000e+02 1.920000000000000000e+02 1.930000000000000000e+02 1.940000000000000000e+02 1.950000000000000000e+02 1.960000000000000000e+02 1.970000000000000000e+02 1.980000000000000000e+02 1.990000000000000000e+02 2.000000000000000000e+02 2.010000000000000000e+02 2.020000000000000000e+02 2.030000000000000000e+02 2.040000000000000000e+02 2.050000000000000000e+02 2.060000000000000000e+02 2.070000000000000000e+02 2.080000000000000000e+02 2.090000000000000000e+02 2.100000000000000000e+02 2.110000000000000000e+02 2.120000000000000000e+02 2.130000000000000000e+02 2.140000000000000000e+02 2.150000000000000000e+02 2.160000000000000000e+02 2.170000000000000000e+02 2.180000000000000000e+02 2.190000000000000000e+02 2.200000000000000000e+02 2.210000000000000000e+02 2.220000000000000000e+02 2.230000000000000000e+02 2.240000000000000000e+02 2.250000000000000000e+02 2.260000000000000000e+02 2.270000000000000000e+02 2.280000000000000000e+02 2.290000000000000000e+02 2.300000000000000000e+02 2.310000000000000000e+02 2.320000000000000000e+02 2.330000000000000000e+02 2.340000000000000000e+02 2.350000000000000000e+02 2.360000000000000000e+02 2.370000000000000000e+02 2.380000000000000000e+02 2.390000000000000000e+02 2.400000000000000000e+02 2.410000000000000000e+02 2.420000000000000000e+02 2.430000000000000000e+02 2.440000000000000000e+02 2.450000000000000000e+02 2.460000000000000000e+02 2.470000000000000000e+02 2.480000000000000000e+02 2.490000000000000000e+02 2.500000000000000000e+02 2.510000000000000000e+02 2.520000000000000000e+02 2.530000000000000000e+02 2.540000000000000000e+02 2.550000000000000000e+02 2.560000000000000000e+02 2.570000000000000000e+02 2.580000000000000000e+02 2.590000000000000000e+02 2.600000000000000000e+02 2.610000000000000000e+02 2.620000000000000000e+02 2.630000000000000000e+02 2.640000000000000000e+02 2.650000000000000000e+02 2.660000000000000000e+02 2.670000000000000000e+02 2.680000000000000000e+02 2.690000000000000000e+02 2.700000000000000000e+02 2.710000000000000000e+02 2.720000000000000000e+02 2.730000000000000000e+02 2.740000000000000000e+02 2.750000000000000000e+02 2.760000000000000000e+02 2.770000000000000000e+02 2.780000000000000000e+02 2.790000000000000000e+02 2.800000000000000000e+02 2.810000000000000000e+02 2.820000000000000000e+02 2.830000000000000000e+02 2.840000000000000000e+02 2.850000000000000000e+02 2.860000000000000000e+02 2.870000000000000000e+02 2.880000000000000000e+02 2.890000000000000000e+02 2.900000000000000000e+02 2.910000000000000000e+02 2.920000000000000000e+02 2.930000000000000000e+02 2.940000000000000000e+02 2.950000000000000000e+02 2.960000000000000000e+02 2.970000000000000000e+02 2.980000000000000000e+02 2.990000000000000000e+02 3.000000000000000000e+02 3.010000000000000000e+02 3.020000000000000000e+02 3.030000000000000000e+02 3.040000000000000000e+02 3.050000000000000000e+02 3.060000000000000000e+02 3.070000000000000000e+02 3.080000000000000000e+02 3.090000000000000000e+02 3.100000000000000000e+02 3.110000000000000000e+02 3.120000000000000000e+02 3.130000000000000000e+02 3.140000000000000000e+02 3.150000000000000000e+02 3.160000000000000000e+02 3.170000000000000000e+02 3.180000000000000000e+02 3.190000000000000000e+02 3.200000000000000000e+02 3.210000000000000000e+02 3.220000000000000000e+02 3.230000000000000000e+02 3.240000000000000000e+02 3.250000000000000000e+02 3.260000000000000000e+02 3.270000000000000000e+02 3.280000000000000000e+02 3.290000000000000000e+02 3.300000000000000000e+02 3.310000000000000000e+02 3.320000000000000000e+02 3.330000000000000000e+02 3.340000000000000000e+02 3.350000000000000000e+02 3.360000000000000000e+02 3.370000000000000000e+02 3.380000000000000000e+02 3.390000000000000000e+02 3.400000000000000000e+02 3.410000000000000000e+02 3.420000000000000000e+02 3.430000000000000000e+02 3.440000000000000000e+02 3.450000000000000000e+02 3.460000000000000000e+02 3.470000000000000000e+02 3.480000000000000000e+02 3.490000000000000000e+02 3.500000000000000000e+02 3.510000000000000000e+02 3.520000000000000000e+02 3.530000000000000000e+02 3.540000000000000000e+02 3.550000000000000000e+02 3.560000000000000000e+02 3.570000000000000000e+02 3.580000000000000000e+02 3.590000000000000000e+02 3.600000000000000000e+02 3.610000000000000000e+02 3.620000000000000000e+02 3.630000000000000000e+02 3.640000000000000000e+02 3.650000000000000000e+02 3.660000000000000000e+02 3.670000000000000000e+02 3.680000000000000000e+02 3.690000000000000000e+02 3.700000000000000000e+02 3.710000000000000000e+02 3.720000000000000000e+02 3.730000000000000000e+02 3.740000000000000000e+02 3.750000000000000000e+02 3.760000000000000000e+02 3.770000000000000000e+02 3.780000000000000000e+02 3.790000000000000000e+02 3.800000000000000000e+02 3.810000000000000000e+02 3.820000000000000000e+02 3.830000000000000000e+02 3.840000000000000000e+02 3.850000000000000000e+02 3.860000000000000000e+02 3.870000000000000000e+02 3.880000000000000000e+02 3.890000000000000000e+02 3.900000000000000000e+02 3.910000000000000000e+02 3.920000000000000000e+02 3.930000000000000000e+02 3.940000000000000000e+02 3.950000000000000000e+02 3.960000000000000000e+02 3.970000000000000000e+02 3.980000000000000000e+02 3.990000000000000000e+02 4.000000000000000000e+02 4.010000000000000000e+02 4.020000000000000000e+02 4.030000000000000000e+02 4.040000000000000000e+02 4.050000000000000000e+02 4.060000000000000000e+02 4.070000000000000000e+02 4.080000000000000000e+02 4.090000000000000000e+02 4.100000000000000000e+02 4.110000000000000000e+02 4.120000000000000000e+02 4.130000000000000000e+02 4.140000000000000000e+02 4.150000000000000000e+02 4.160000000000000000e+02 4.170000000000000000e+02 4.180000000000000000e+02 4.190000000000000000e+02 4.200000000000000000e+02 4.210000000000000000e+02 4.220000000000000000e+02 4.230000000000000000e+02 4.240000000000000000e+02 4.250000000000000000e+02 4.260000000000000000e+02 4.270000000000000000e+02 4.280000000000000000e+02 4.290000000000000000e+02 4.300000000000000000e+02 4.310000000000000000e+02 4.320000000000000000e+02 4.330000000000000000e+02 4.340000000000000000e+02 4.350000000000000000e+02 4.360000000000000000e+02 4.370000000000000000e+02 4.380000000000000000e+02 4.390000000000000000e+02 4.400000000000000000e+02 4.410000000000000000e+02 4.420000000000000000e+02 4.430000000000000000e+02 4.440000000000000000e+02 4.450000000000000000e+02 4.460000000000000000e+02 4.470000000000000000e+02 4.480000000000000000e+02 4.490000000000000000e+02 4.500000000000000000e+02 4.510000000000000000e+02 4.520000000000000000e+02 4.530000000000000000e+02 4.540000000000000000e+02 4.550000000000000000e+02 4.560000000000000000e+02 4.570000000000000000e+02 4.580000000000000000e+02 4.590000000000000000e+02 4.600000000000000000e+02 4.610000000000000000e+02 4.620000000000000000e+02 4.630000000000000000e+02 4.640000000000000000e+02 4.650000000000000000e+02 4.660000000000000000e+02 4.670000000000000000e+02 4.680000000000000000e+02 4.690000000000000000e+02 4.700000000000000000e+02 4.710000000000000000e+02 4.720000000000000000e+02 4.730000000000000000e+02 4.740000000000000000e+02 4.750000000000000000e+02 4.760000000000000000e+02 4.770000000000000000e+02 4.780000000000000000e+02 4.790000000000000000e+02 4.800000000000000000e+02 4.810000000000000000e+02 4.820000000000000000e+02 4.830000000000000000e+02 4.840000000000000000e+02 4.850000000000000000e+02 4.860000000000000000e+02 4.870000000000000000e+02 4.880000000000000000e+02 4.890000000000000000e+02 4.900000000000000000e+02 4.910000000000000000e+02 4.920000000000000000e+02 4.930000000000000000e+02 4.940000000000000000e+02 4.950000000000000000e+02 4.960000000000000000e+02 4.970000000000000000e+02 4.980000000000000000e+02 4.990000000000000000e+02 5.000000000000000000e+02 5.010000000000000000e+02 5.020000000000000000e+02 5.030000000000000000e+02 5.040000000000000000e+02 5.050000000000000000e+02 5.060000000000000000e+02 5.070000000000000000e+02 5.080000000000000000e+02 5.090000000000000000e+02 5.100000000000000000e+02 5.110000000000000000e+02 5.120000000000000000e+02 5.130000000000000000e+02 5.140000000000000000e+02 5.150000000000000000e+02 5.160000000000000000e+02 5.170000000000000000e+02 5.180000000000000000e+02 5.190000000000000000e+02 5.200000000000000000e+02 5.210000000000000000e+02 5.220000000000000000e+02 5.230000000000000000e+02 5.240000000000000000e+02 5.250000000000000000e+02 5.260000000000000000e+02 5.270000000000000000e+02 5.280000000000000000e+02 5.290000000000000000e+02 5.300000000000000000e+02 5.310000000000000000e+02 5.320000000000000000e+02 5.330000000000000000e+02 5.340000000000000000e+02 5.350000000000000000e+02 5.360000000000000000e+02 5.370000000000000000e+02 5.380000000000000000e+02 5.390000000000000000e+02 5.400000000000000000e+02 5.410000000000000000e+02 5.420000000000000000e+02 5.430000000000000000e+02 5.440000000000000000e+02 5.450000000000000000e+02 5.460000000000000000e+02 5.470000000000000000e+02 5.480000000000000000e+02 5.490000000000000000e+02 5.500000000000000000e+02 5.510000000000000000e+02 5.520000000000000000e+02 5.530000000000000000e+02 5.540000000000000000e+02 5.550000000000000000e+02 5.560000000000000000e+02 5.570000000000000000e+02 5.580000000000000000e+02 5.590000000000000000e+02 5.600000000000000000e+02 5.610000000000000000e+02 5.620000000000000000e+02 5.630000000000000000e+02 5.640000000000000000e+02 5.650000000000000000e+02 5.660000000000000000e+02 5.670000000000000000e+02 5.680000000000000000e+02 5.690000000000000000e+02 5.700000000000000000e+02 5.710000000000000000e+02 5.720000000000000000e+02 5.730000000000000000e+02 5.740000000000000000e+02 5.750000000000000000e+02 5.760000000000000000e+02 5.770000000000000000e+02 5.780000000000000000e+02 5.790000000000000000e+02 5.800000000000000000e+02 5.810000000000000000e+02 5.820000000000000000e+02 5.830000000000000000e+02 5.840000000000000000e+02 5.850000000000000000e+02 5.860000000000000000e+02 5.870000000000000000e+02 5.880000000000000000e+02 5.890000000000000000e+02 5.900000000000000000e+02 5.910000000000000000e+02 5.920000000000000000e+02 5.930000000000000000e+02 5.940000000000000000e+02 5.950000000000000000e+02 5.960000000000000000e+02 5.970000000000000000e+02 5.980000000000000000e+02 5.990000000000000000e+02 6.000000000000000000e+02 6.010000000000000000e+02 6.020000000000000000e+02 6.030000000000000000e+02 6.040000000000000000e+02 6.050000000000000000e+02 6.060000000000000000e+02 6.070000000000000000e+02 6.080000000000000000e+02 6.090000000000000000e+02 6.100000000000000000e+02 6.110000000000000000e+02 6.120000000000000000e+02 6.130000000000000000e+02 6.140000000000000000e+02 6.150000000000000000e+02 6.160000000000000000e+02 6.170000000000000000e+02 6.180000000000000000e+02 6.190000000000000000e+02 6.200000000000000000e+02 6.210000000000000000e+02 6.220000000000000000e+02 6.230000000000000000e+02 6.240000000000000000e+02 6.250000000000000000e+02 6.260000000000000000e+02 6.270000000000000000e+02 6.280000000000000000e+02 6.290000000000000000e+02 6.300000000000000000e+02 6.310000000000000000e+02 6.320000000000000000e+02 6.330000000000000000e+02 6.340000000000000000e+02 6.350000000000000000e+02 6.360000000000000000e+02 6.370000000000000000e+02 6.380000000000000000e+02 6.390000000000000000e+02 6.400000000000000000e+02 6.410000000000000000e+02 6.420000000000000000e+02 6.430000000000000000e+02 6.440000000000000000e+02 6.450000000000000000e+02 6.460000000000000000e+02 6.470000000000000000e+02 6.480000000000000000e+02 6.490000000000000000e+02 6.500000000000000000e+02 6.510000000000000000e+02 6.520000000000000000e+02 6.530000000000000000e+02 6.540000000000000000e+02 6.550000000000000000e+02 6.560000000000000000e+02 6.570000000000000000e+02 6.580000000000000000e+02 6.590000000000000000e+02 6.600000000000000000e+02 6.610000000000000000e+02 6.620000000000000000e+02 6.630000000000000000e+02 6.640000000000000000e+02 6.650000000000000000e+02 6.660000000000000000e+02 6.670000000000000000e+02 6.680000000000000000e+02 6.690000000000000000e+02 6.700000000000000000e+02 6.710000000000000000e+02 6.720000000000000000e+02 6.730000000000000000e+02 6.740000000000000000e+02 6.750000000000000000e+02 6.760000000000000000e+02 6.770000000000000000e+02 6.780000000000000000e+02 6.790000000000000000e+02 6.800000000000000000e+02 6.810000000000000000e+02 6.820000000000000000e+02 6.830000000000000000e+02 6.840000000000000000e+02 6.850000000000000000e+02 6.860000000000000000e+02 6.870000000000000000e+02 6.880000000000000000e+02 6.890000000000000000e+02 6.900000000000000000e+02 6.910000000000000000e+02 6.920000000000000000e+02 6.930000000000000000e+02 6.940000000000000000e+02 6.950000000000000000e+02 6.960000000000000000e+02 6.970000000000000000e+02 6.980000000000000000e+02 6.990000000000000000e+02 7.000000000000000000e+02 7.010000000000000000e+02 7.020000000000000000e+02 7.030000000000000000e+02 7.040000000000000000e+02 7.050000000000000000e+02 7.060000000000000000e+02 7.070000000000000000e+02 7.080000000000000000e+02 7.090000000000000000e+02 7.100000000000000000e+02 7.110000000000000000e+02 7.120000000000000000e+02 7.130000000000000000e+02 7.140000000000000000e+02 7.150000000000000000e+02 7.160000000000000000e+02 7.170000000000000000e+02 7.180000000000000000e+02 7.190000000000000000e+02 7.200000000000000000e+02 7.210000000000000000e+02 7.220000000000000000e+02 7.230000000000000000e+02 7.240000000000000000e+02 7.250000000000000000e+02 7.260000000000000000e+02 7.270000000000000000e+02 7.280000000000000000e+02 7.290000000000000000e+02 7.300000000000000000e+02 7.310000000000000000e+02 7.320000000000000000e+02 7.330000000000000000e+02 7.340000000000000000e+02 7.350000000000000000e+02 7.360000000000000000e+02 7.370000000000000000e+02 7.380000000000000000e+02 7.390000000000000000e+02 7.400000000000000000e+02 7.410000000000000000e+02 7.420000000000000000e+02 7.430000000000000000e+02 7.440000000000000000e+02 7.450000000000000000e+02 7.460000000000000000e+02 7.470000000000000000e+02 7.480000000000000000e+02 7.490000000000000000e+02 7.500000000000000000e+02 7.510000000000000000e+02 7.520000000000000000e+02 7.530000000000000000e+02 7.540000000000000000e+02 7.550000000000000000e+02 7.560000000000000000e+02 7.570000000000000000e+02 7.580000000000000000e+02 7.590000000000000000e+02 7.600000000000000000e+02 7.610000000000000000e+02 7.620000000000000000e+02 7.630000000000000000e+02 7.640000000000000000e+02 7.650000000000000000e+02 7.660000000000000000e+02 7.670000000000000000e+02 7.680000000000000000e+02 7.690000000000000000e+02 7.700000000000000000e+02 7.710000000000000000e+02 7.720000000000000000e+02 7.730000000000000000e+02 7.740000000000000000e+02 7.750000000000000000e+02 7.760000000000000000e+02 7.770000000000000000e+02 7.780000000000000000e+02 7.790000000000000000e+02 7.800000000000000000e+02 7.810000000000000000e+02 7.820000000000000000e+02 7.830000000000000000e+02 7.840000000000000000e+02 7.850000000000000000e+02 7.860000000000000000e+02 7.870000000000000000e+02 7.880000000000000000e+02 7.890000000000000000e+02 7.900000000000000000e+02 7.910000000000000000e+02 7.920000000000000000e+02 7.930000000000000000e+02 7.940000000000000000e+02 7.950000000000000000e+02 7.960000000000000000e+02 7.970000000000000000e+02 7.980000000000000000e+02 7.990000000000000000e+02 8.000000000000000000e+02 8.010000000000000000e+02 8.020000000000000000e+02 8.030000000000000000e+02 8.040000000000000000e+02 8.050000000000000000e+02 8.060000000000000000e+02 8.070000000000000000e+02 8.080000000000000000e+02 8.090000000000000000e+02 8.100000000000000000e+02 8.110000000000000000e+02 8.120000000000000000e+02 8.130000000000000000e+02 8.140000000000000000e+02 8.150000000000000000e+02 8.160000000000000000e+02 8.170000000000000000e+02 8.180000000000000000e+02 8.190000000000000000e+02 8.200000000000000000e+02 8.210000000000000000e+02 8.220000000000000000e+02 8.230000000000000000e+02 8.240000000000000000e+02 8.250000000000000000e+02 8.260000000000000000e+02 8.270000000000000000e+02 8.280000000000000000e+02 8.290000000000000000e+02 8.300000000000000000e+02 8.310000000000000000e+02 8.320000000000000000e+02 8.330000000000000000e+02 8.340000000000000000e+02 8.350000000000000000e+02 8.360000000000000000e+02 8.370000000000000000e+02 8.380000000000000000e+02 8.390000000000000000e+02 8.400000000000000000e+02 8.410000000000000000e+02 8.420000000000000000e+02 8.430000000000000000e+02 8.440000000000000000e+02 8.450000000000000000e+02 8.460000000000000000e+02 8.470000000000000000e+02 8.480000000000000000e+02 8.490000000000000000e+02 8.500000000000000000e+02 8.510000000000000000e+02 8.520000000000000000e+02 8.530000000000000000e+02 8.540000000000000000e+02 8.550000000000000000e+02 8.560000000000000000e+02 8.570000000000000000e+02 8.580000000000000000e+02 8.590000000000000000e+02 8.600000000000000000e+02 8.610000000000000000e+02 8.620000000000000000e+02 8.630000000000000000e+02 8.640000000000000000e+02 8.650000000000000000e+02 8.660000000000000000e+02 8.670000000000000000e+02 8.680000000000000000e+02 8.690000000000000000e+02 8.700000000000000000e+02 8.710000000000000000e+02 8.720000000000000000e+02 8.730000000000000000e+02 8.740000000000000000e+02 8.750000000000000000e+02 8.760000000000000000e+02 8.770000000000000000e+02 8.780000000000000000e+02 8.790000000000000000e+02 8.800000000000000000e+02 8.810000000000000000e+02 8.820000000000000000e+02 8.830000000000000000e+02 8.840000000000000000e+02 8.850000000000000000e+02 8.860000000000000000e+02 8.870000000000000000e+02 8.880000000000000000e+02 8.890000000000000000e+02 8.900000000000000000e+02 8.910000000000000000e+02 8.920000000000000000e+02 8.930000000000000000e+02 8.940000000000000000e+02 8.950000000000000000e+02 8.960000000000000000e+02 8.970000000000000000e+02 8.980000000000000000e+02 8.990000000000000000e+02 9.000000000000000000e+02 9.010000000000000000e+02 9.020000000000000000e+02 9.030000000000000000e+02 9.040000000000000000e+02 9.050000000000000000e+02 9.060000000000000000e+02 9.070000000000000000e+02 9.080000000000000000e+02 9.090000000000000000e+02 9.100000000000000000e+02 9.110000000000000000e+02 9.120000000000000000e+02 9.130000000000000000e+02 9.140000000000000000e+02 9.150000000000000000e+02 9.160000000000000000e+02 9.170000000000000000e+02 9.180000000000000000e+02 9.190000000000000000e+02 9.200000000000000000e+02 9.210000000000000000e+02 9.220000000000000000e+02 9.230000000000000000e+02 9.240000000000000000e+02 9.250000000000000000e+02 9.260000000000000000e+02 9.270000000000000000e+02 9.280000000000000000e+02 9.290000000000000000e+02 9.300000000000000000e+02 9.310000000000000000e+02 9.320000000000000000e+02 9.330000000000000000e+02 9.340000000000000000e+02 9.350000000000000000e+02 9.360000000000000000e+02 9.370000000000000000e+02 9.380000000000000000e+02 9.390000000000000000e+02 9.400000000000000000e+02 9.410000000000000000e+02 9.420000000000000000e+02 9.430000000000000000e+02 9.440000000000000000e+02 9.450000000000000000e+02 9.460000000000000000e+02 9.470000000000000000e+02 9.480000000000000000e+02 9.490000000000000000e+02 9.500000000000000000e+02 9.510000000000000000e+02 9.520000000000000000e+02 9.530000000000000000e+02 9.540000000000000000e+02 9.550000000000000000e+02 9.560000000000000000e+02 9.570000000000000000e+02 9.580000000000000000e+02 9.590000000000000000e+02 9.600000000000000000e+02 9.610000000000000000e+02 9.620000000000000000e+02 9.630000000000000000e+02 9.640000000000000000e+02 9.650000000000000000e+02 9.660000000000000000e+02 9.670000000000000000e+02 9.680000000000000000e+02 9.690000000000000000e+02 9.700000000000000000e+02 9.710000000000000000e+02 9.720000000000000000e+02 9.730000000000000000e+02 9.740000000000000000e+02 9.750000000000000000e+02 9.760000000000000000e+02 9.770000000000000000e+02 9.780000000000000000e+02 9.790000000000000000e+02 9.800000000000000000e+02 9.810000000000000000e+02 9.820000000000000000e+02 9.830000000000000000e+02 9.840000000000000000e+02 9.850000000000000000e+02 9.860000000000000000e+02 9.870000000000000000e+02 9.880000000000000000e+02 9.890000000000000000e+02 9.900000000000000000e+02 9.910000000000000000e+02 9.920000000000000000e+02 9.930000000000000000e+02 9.940000000000000000e+02 9.950000000000000000e+02 9.960000000000000000e+02 9.970000000000000000e+02 9.980000000000000000e+02 9.990000000000000000e+02 1.000000000000000000e+03
1.000000000000000021e-02 1.000000000000000021e-02 1.000000000000000021e-02 1.000000000000000021e-02 1.000000000000000021e-02 1.000000000000000021e-02 1.000000000000000021e-02 1.000000000000000021e-02 1.000000000000000021e-02 1.000000000000000021e-02 1.000000000000000021e-02 1.000000000000000021e-02 1.000000000000000021e-02 1.000000000000000021e-02 1.000000000000000021e-02 1.000000000000000021e-02 1.000000000000000021e-02 1.000000000000000021e-02 1.000000000000000021e-02 1.000000000000000021e-02 1.000000000000000021e-02 1.000000000000000021e-02 1.000000000000000021e-02 1.000000000000000021e-02 1.000000000000000021e-02 1.000000000000000021e-02 1.000000000000000021e-02 1.000000000000000021e-02 1.000000000000000021e-02 1.000000000000000021e-02 1.000000000000000021e-02 1.000000000000000021e-02 1.000000000000000021e-02 1.000000000000000021e-02 1.000000000000000021e-02 1.000000000000000021e-02 1.000000000000000021e-02 1.000000000000000021e-02 1.000000000000000021e-02 1.000000000000000021e-02 1.000000000000000021e-02 1.000000000000000021e-02 1.000000000000000021e-02 1.000000000000000021e-02 1.000000000000000021e-02 1.000000000000000021e-02 1.000000000000000021e-02 1.000000000000000021e-02 1.000000000000000021e-02 1.000000000000000021e-02 1.000000000000000021e-02 1.000000000000000021e-02 1.000000000000000021e-02 1.000000000000000021e-02 1.000000000000000021e-02 1.000000000000000021e-02 1.000000000000000021e-02 1.000000000000000021e-02 1.000000000000000021e-02 1.000000000000000021e-02 1.000000000000000021e-02 1.000000000000000021e-02 1.000000000000000021e-02 1.000000000000000021e-02 1.000000000000000021e-02 1.000000000000000021e-02 1.000000000000000021e-02 1.000000000000000021e-02 1.000000000000000021e-02 1.000000000000000021e-02 1.000000000000000021e-02 1.000000000000000021e-02 1.000000000000000021e-02 1.000000000000000021e-02 1.000000000000000021e-02 1.000000000000000021e-02 1.000000000000000021e-02 1.000000000000000021e-02 1.000000000000000021e-02 1.000000000000000021e-02 1.000000000000000021e-02 1.000000000000000021e-02 1.000000000000000021e-02 1.000000000000000021e-02 1.000000000000000021e-02 1.000000000000000021e-02 1.000000000000000021e-02 1.000000000000000021e-02 1.000000000000000021e-02 1.000000000000000021e-02 1.000000000000000021e-02 1.000000000000000021e-02 1.000000000000000021e-02 1.000000000000000021e-02 1.000000000000000021e-02 1.000000000000000021e-02 1.000000000000000021e-02 1.000000000000000021e-02 1.000000000000000021e-02 1.000000000000000021e-02 1.000000000000000021e-02 1.000000000000000021e-02 1.000000000000000021e-02 1.000000000000000021e-02 1.000000000000000021e-02 1.000000000000000021e-02 1.000000000000000021e-02 1.000000000000000021e-02 1.000000000000000021e-02 1.000000000000000021e-02 1.000000000000000021e-02 1.000000000000000021e-02 1.000000000000000021e-02 1.000000000000000021e-02 1.000000000000000021e-02 1.000000000000000021e-02 1.000000000000000021e-02 1.000000000000000021e-02 1.000000000000000021e-02 1.000000000000000021e-02 1.000000000000000021e-02 1.000000000000000021e-02 1.000000000000000021e-02 1.000000000000000021e-02 1.000000000000000021e-02 1.000000000000000021e-02 1.000000000000000021e-02 1.000000000000000021e-02 1.000000000000000021e-02 1.000000000000000021e-02 1.000000000000000021e-02 1.000000000000000021e-02 1.000000000000000021e-02 1.000000000000000021e-02 1.000000000000000021e-02 1.000000000000000021e-02 1.000000000000000021e-02 1.000000000000000021e-02 1.000000000000000021e-02 1.000000000000000021e-02 1.000000000000000021e-02 1.000000000000000021e-02 1.000000000000000021e-02 1.000000000000000021e-02 1.000000000000000021e-02 1.000000000000000021e-02 1.000000000000000021e-02 1.000000000000000021e-02 1.000000000000000021e-02 1.000000000000000021e-02 1.000000000000000021e-02 1.000000000000000021e-02 1.000000000000000021e-02 1.000000000000000021e-02 1.000000000000000021e-02 1.000000000000000021e-02 1.000000000000000021e-02 1.000000000000000021e-02 1.000000000000000021e-02 1.000000000000000021e-02 1.000000000000000021e-02 1.000000000000000021e-02 1.000000000000000021e-02 1.000000000000000021e-02 1.000000000000000021e-02 1.000000000000000021e-02 1.000000000000000021e-02 1.000000000000000021e-02 1.000000000000000021e-02 1.000000000000000021e-02 1.000000000000000021e-02 1.000000000000000021e-02 1.000000000000000021e-02 1.000000000000000021e-02 1.000000000000000021e-02 1.000000000000000021e-02 1.000000000000000021e-02 1.000000000000000021e-02 1.000000000000000021e-02 1.000000000000000021e-02 1.000000000000000021e-02 1.000000000000000021e-02 1.000000000000000021e-02 1.000000000000000021e-02 1.000000000000000021e-02 1.000000000000000021e-02 1.000000000000000021e-02 1.000000000000000021e-02 1.000000000000000021e-02 1.000000000000000021e-02 1.000000000000000021e-02 1.000000000000000021e-02 1.000000000000000021e-02 1.000000000000000021e-02 1.000000000000000021e-02 1.000000000000000021e-02 1.000000000000000021e-02 1.000000000000000021e-02 1.000000000000000021e-02 1.000000000000000021e-02 1.000000000000000021e-02 1.000000000000000021e-02 1.000000000000000021e-02 1.000000000000000021e-02 1.000000000000000021e-02 1.000000000000000021e-02 1.000000000000000021e-02 1.000000000000000021e-02 1.000000000000000021e-02 1.000000000000000021e-02 1.000000000000000021e-02 1.000000000000000021e-02 1.000000000000000021e-02 1.000000000000000021e-02 1.000000000000000021e-02 1.000000000000000021e-02 1.000000000000000021e-02 1.000000000000000021e-02 1.000000000000000021e-02 1.000000000000000021e-02 1.000000000000000021e-02 1.000000000000000021e-02 1.000000000000000021e-02 1.000000000000000021e-02 1.000000000000000021e-02 1.000000000000000021e-02 1.000000000000000021e-02 1.000000000000000021e-02 1.000000000000000021e-02 1.000000000000000021e-02 1.000000000000000021e-02 1.000000000000000021e-02 1.000000000000000021e-02 1.000000000000000021e-02 1.000000000000000021e-02 1.000000000000000021e-02 1.000000000000000021e-02 1.000000000000000021e-02 1.000000000000000021e-02 1.000000000000000021e-02 1.000000000000000021e-02 1.000000000000000021e-02 1.000000000000000021e-02 1.000000000000000021e-02 1.000000000000000021e-02 1.000000000000000021e-02 1.000000000000000021e-02 1.000000000000000021e-02 1.000000000000000021e-02 1.000000000000000021e-02 1.000000000000000021e-02 1.000000000000000021e-02 1.000000000000000021e-02 1.000000000000000021e-02 1.000000000000000021e-02 1.000000000000000021e-02 1.000000000000000021e-02 1.000000000000000021e-02 1.000000000000000021e-02 1.000000000000000021e-02 1.000000000000000021e-02 1.000000000000000021e-02 1.000000000000000021e-02 1.000000000000000021e-02 1.000000000000000021e-02 1.000000000000000021e-02 1.000000000000000021e-02 1.000000000000000021e-02 1.000000000000000021e-02 1.000000000000000021e-02 1.000000000000000021e-02 1.000000000000000021e-02 1.000000000000000021e-02 1.000000000000000021e-02 1.000000000000000021e-02 1.000000000000000021e-02 1.000000000000000021e-02 1.000000000000000021e-02 1.000000000000000021e-02 1.000000000000000021e-02 1.000000000000000021e-02 1.000000000000000021e-02 1.000000000000000021e-02 1.000000000000000021e-02 1.000000000000000021e-02 1.000000000000000021e-02 1.000000000000000021e-02 1.000000000000000021e-02 1.000000000000000021e-02 1.000000000000000021e-02 1.000000000000000021e-02 1.000000000000000021e-02 1.000000000000000021e-02 1.000000000000000021e-02 1.000000000000000021e-02 1.000000000000000021e-02 1.000000000000000021e-02 1.000000000000000021e-02 1.000000000000000021e-02 1.000000000000000021e-02 1.000000000000000021e-02 1.000000000000000021e-02 1.000000000000000021e-02 1.000000000000000021e-02 1.000000000000000021e-02 1.000000000000000021e-02 1.000000000000000021e-02 1.000000000000000021e-02 1.000000000000000021e-02 1.000000000000000021e-02 1.000000000000000021e-02 1.000000000000000021e-02 1.000000000000000021e-02 1.000000000000000021e-02 1.000000000000000021e-02 1.000000000000000021e-02 1.000000000000000021e-02 1.000000000000000021e-02 1.000000000000000021e-02 1.000000000000000021e-02 1.000000000000000021e-02 1.000000000000000021e-02 1.000000000000000021e-02 1.000000000000000021e-02 1.000000000000000021e-02 1.000000000000000021e-02 1.000000000000000021e-02 1.000000000000000021e-02 1.000000000000000021e-02 1.000000000000000021e-02 1.000000000000000021e-02 1.000000000000000021e-02 1.000000000000000021e-02 1.000000000000000021e-02 1.000000000000000021e-02 1.000000000000000021e-02 1.000000000000000021e-02 1.000000000000000021e-02 1.000000000000000021e-02 1.000000000000000021e-02 1.000000000000000021e-02 1.000000000000000021e-02 1.000000000000000021e-02 1.000000000000000021e-02 1.000000000000000021e-02 1.000000000000000021e-02 1.000000000000000021e-02 1.000000000000000021e-02 1.000000000000000021e-02 1.000000000000000021e-02 1.000000000000000021e-02 1.000000000000000021e-02 1.000000000000000021e-02 1.000000000000000021e-02 1.000000000000000021e-02 1.000000000000000021e-02 1.000000000000000021e-02 1.000000000000000021e-02 1.000000000000000021e-02 1.000000000000000021e-02 1.000000000000000021e-02 1.000000000000000021e-02 1.000000000000000021e-02 1.000000000000000021e-02 1.000000000000000021e-02 1.000000000000000021e-02 1.000000000000000021e-02 1.000000000000000021e-02 1.000000000000000021e-02 1.000000000000000021e-02 1.000000000000000021e-02 1.000000000000000021e-02 1.000000000000000021e-02 1.000000000000000021e-02 1.000000000000000021e-02 1.000000000000000021e-02 1.000000000000000021e-02 1.000000000000000021e-02 1.000000000000000021e-02 1.000000000000000021e-02 1.000000000000000021e-02 1.000000000000000021e-02 1.000000000000000021e-02 1.000000000000000021e-02 1.000000000000000021e-02 1.000000000000000021e-02 1.000000000000000021e-02 1.000000000000000021e-02 1.000000000000000021e-02 1.000000000000000021e-02 1.000000000000000021e-02 1.000000000000000021e-02 1.000000000000000021e-02 1.000000000000000021e-02 1.000000000000000021e-02 1.000000000000000021e-02 1.000000000000000021e-02 1.000000000000000021e-02 1.000000000000000021e-02 1.000000000000000021e-02 1.000000000000000021e-02 1.000000000000000021e-02 1.000000000000000021e-02 1.000000000000000021e-02 1.000000000000000021e-02 1.000000000000000021e-02 1.000000000000000021e-02 1.000000000000000021e-02 1.000000000000000021e-02 1.000000000000000021e-02 1.000000000000000021e-02 1.000000000000000021e-02 1.000000000000000021e-02 1.000000000000000021e-02 1.000000000000000021e-02 1.000000000000000021e-02 1.000000000000000021e-02 1.000000000000000021e-02 1.000000000000000021e-02 1.000000000000000021e-02 1.000000000000000021e-02 1.000000000000000021e-02 1.000000000000000021e-02 1.000000000000000021e-02 1.000000000000000021e-02 1.000000000000000021e-02 1.000000000000000021e-02 1.000000000000000021e-02 1.000000000000000021e-02 1.000000000000000021e-02 1.000000000000000021e-02 1.000000000000000021e-02 1.000000000000000021e-02 1.000000000000000021e-02 1.000000000000000021e-02 1.000000000000000021e-02 1.000000000000000021e-02 1.000000000000000021e-02 1.000000000000000021e-02 1.000000000000000021e-02 1.000000000000000021e-02 1.000000000000000021e-02 1.000000000000000021e-02 1.000000000000000021e-02 1.000000000000000021e-02 1.000000000000000021e-02 1.000000000000000021e-02 1.000000000000000021e-02 1.000000000000000021e-02 1.000000000000000021e-02 1.000000000000000021e-02 1.000000000000000021e-02 1.000000000000000021e-02 1.000000000000000021e-02 1.000000000000000021e-02 1.000000000000000021e-02 1.000000000000000021e-02 1.000000000000000021e-02 1.000000000000000021e-02 1.000000000000000021e-02 1.000000000000000021e-02 1.000000000000000021e-02 1.000000000000000021e-02 1.000000000000000021e-02 1.000000000000000021e-02 1.000000000000000021e-02 1.000000000000000021e-02 1.000000000000000021e-02 1.000000000000000021e-02 1.000000000000000021e-02 1.000000000000000021e-02 1.000000000000000021e-02 1.000000000000000021e-02 1.000000000000000021e-02 1.000000000000000021e-02 1.000000000000000021e-02 1.000000000000000021e-02 1.000000000000000021e-02 1.000000000000000021e-02 1.000000000000000021e-02 1.000000000000000021e-02 1.000000000000000021e-02 1.000000000000000021e-02 1.000000000000000021e-02 1.000000000000000021e-02 1.000000000000000021e-02 1.000000000000000021e-02 1.000000000000000021e-02 1.000000000000000021e-02 1.000000000000000021e-02 1.000000000000000021e-02 1.000000000000000021e-02 1.000000000000000021e-02 1.000000000000000021e-02 1.000000000000000021e-02 1.000000000000000021e-02 1.000000000000000021e-02 1.000000000000000021e-02 1.000000000000000021e-02 1.000000000000000021e-02 1.000000000000000021e-02 1.000000000000000021e-02 1.000000000000000021e-02 1.000000000000000021e-02 1.000000000000000021e-02 1.000000000000000021e-02 1.000000000000000021e-02 1.000000000000000021e-02 1.000000000000000021e-02 1.000000000000000021e-02 1.000000000000000021e-02 1.000000000000000021e-02 1.000000000000000021e-02 1.000000000000000021e-02 1.000000000000000021e-02 1.000000000000000021e-02 1.000000000000000021e-02 1.000000000000000021e-02 1.000000000000000021e-02 1.000000000000000021e-02 1.000000000000000021e-02 1.000000000000000021e-02 1.000000000000000021e-02 1.000000000000000021e-02 1.000000000000000021e-02 1.000000000000000021e-02 1.000000000000000021e-02 1.000000000000000021e-02 1.000000000000000021e-02 1.000000000000000021e-02 1.000000000000000021e-02 1.000000000000000021e-02 1.000000000000000021e-02 1.000000000000000021e-02 1.000000000000000021e-02 1.000000000000000021e-02 1.000000000000000021e-02 1.000000000000000021e-02 1.000000000000000021e-02 1.000000000000000021e-02 1.000000000000000021e-02 1.000000000000000021e-02 1.000000000000000021e-02 1.000000000000000021e-02 1.000000000000000021e-02 1.000000000000000021e-02 1.000000000000000021e-02 1.000000000000000021e-02 1.000000000000000021e-02 1.000000000000000021e-02 1.000000000000000021e-02 1.000000000000000021e-02 1.000000000000000021e-02 1.000000000000000021e-02 1.000000000000000021e-02 1.000000000000000021e-02 1.000000000000000021e-02 1.000000000000000021e-02 1.000000000000000021e-02 1.000000000000000021e-02 1.000000000000000021e-02 1.000000000000000021e-02 1.000000000000000021e-02 1.000000000000000021e-02 1.000000000000000021e-02 1.000000000000000021e-02 1.000000000000000021e-02 1.000000000000000021e-02 1.000000000000000021e-02 1.000000000000000021e-02 1.000000000000000021e-02 1.000000000000000021e-02 1.000000000000000021e-02 1.000000000000000021e-02 1.000000000000000021e-02 1.000000000000000021e-02 1.000000000000000021e-02 1.000000000000000021e-02 1.000000000000000021e-02 1.000000000000000021e-02 1.000000000000000021e-02 1.000000000000000021e-02 1.000000000000000021e-02 1.000000000000000021e-02 1.000000000000000021e-02 1.000000000000000021e-02 1.000000000000000021e-02 1.000000000000000021e-02 1.000000000000000021e-02 1.000000000000000021e-02 1.000000000000000021e-02 1.000000000000000021e-02 1.000000000000000021e-02 1.000000000000000021e-02 1.000000000000000021e-02 1.000000000000000021e-02 1.000000000000000021e-02 1.000000000000000021e-02 1.000000000000000021e-02 1.000000000000000021e-02 1.000000000000000021e-02 1.000000000000000021e-02 1.000000000000000021e-02 1.000000000000000021e-02 1.000000000000000021e-02 1.000000000000000021e-02 1.000000000000000021e-02 1.000000000000000021e-02 1.000000000000000021e-02 1.000000000000000021e-02 1.000000000000000021e-02 1.000000000000000021e-02 1.000000000000000021e-02 1.000000000000000021e-02 1.000000000000000021e-02 1.000000000000000021e-02 1.000000000000000021e-02 1.000000000000000021e-02 1.000000000000000021e-02 1.000000000000000021e-02 1.000000000000000021e-02 1.000000000000000021e-02 1.000000000000000021e-02 1.000000000000000021e-02 1.000000000000000021e-02 1.000000000000000021e-02 1.000000000000000021e-02 1.000000000000000021e-02 1.000000000000000021e-02 1.000000000000000021e-02 1.000000000000000021e-02 1.000000000000000021e-02 1.000000000000000021e-02 1.000000000000000021e-02 1.000000000000000021e-02 1.000000000000000021e-02 1.000000000000000021e-02 1.000000000000000021e-02 1.000000000000000021e-02 1.000000000000000021e-02 1.000000000000000021e-02 1.000000000000000021e-02 1.000000000000000021e-02 1.000000000000000021e-02 1.000000000000000021e-02 1.000000000000000021e-02 1.000000000000000021e-02 1.000000000000000021e-02 1.000000000000000021e-02 1.000000000000000021e-02 1.000000000000000021e-02 1.000000000000000021e-02 1.000000000000000021e-02 1.000000000000000021e-02 1.000000000000000021e-02 1.000000000000000021e-02 1.000000000000000021e-02 1.000000000000000021e-02 1.000000000000000021e-02 1.000000000000000021e-02 1.000000000000000021e-02 1.000000000000000021e-02 1.000000000000000021e-02 1.000000000000000021e-02 1.000000000000000021e-02 1.000000000000000021e-02 1.000000000000000021e-02 1.000000000000000021e-02 1.000000000000000021e-02 1.000000000000000021e-02 1.000000000000000021e-02 1.000000000000000021e-02 1.000000000000000021e-02 1.000000000000000021e-02 1.000000000000000021e-02 1.000000000000000021e-02 1.000000000000000021e-02 1.000000000000000021e-02 1.000000000000000021e-02 1.000000000000000021e-02 1.000000000000000021e-02 1.000000000000000021e-02 1.000000000000000021e-02 1.000000000000000021e-02 1.000000000000000021e-02 1.000000000000000021e-02 1.000000000000000021e-02 1.000000000000000021e-02 1.000000000000000021e-02 1.000000000000000021e-02 1.000000000000000021e-02 1.000000000000000021e-02 1.000000000000000021e-02 1.000000000000000021e-02 1.000000000000000021e-02 1.000000000000000021e-02 1.000000000000000021e-02 1.000000000000000021e-02 1.000000000000000021e-02 1.000000000000000021e-02 1.000000000000000021e-02 1.000000000000000021e-02 1.000000000000000021e-02 1.000000000000000021e-02 1.000000000000000021e-02 1.000000000000000021e-02 1.000000000000000021e-02 1.000000000000000021e-02 1.000000000000000021e-02 1.000000000000000021e-02 1.000000000000000021e-02 1.000000000000000021e-02 1.000000000000000021e-02 1.000000000000000021e-02 1.000000000000000021e-02 1.000000000000000021e-02 1.000000000000000021e-02 1.000000000000000021e-02 1.000000000000000021e-02 1.000000000000000021e-02 1.000000000000000021e-02 1.000000000000000021e-02 1.000000000000000021e-02 1.000000000000000021e-02 1.000000000000000021e-02 1.000000000000000021e-02 1.000000000000000021e-02 1.000000000000000021e-02 1.000000000000000021e-02 1.000000000000000021e-02 1.000000000000000021e-02 1.000000000000000021e-02 1.000000000000000021e-02 1.000000000000000021e-02 1.000000000000000021e-02 1.000000000000000021e-02 1.000000000000000021e-02 1.000000000000000021e-02 1.000000000000000021e-02 1.000000000000000021e-02 1.000000000000000021e-02 1.000000000000000021e-02 1.000000000000000021e-02 1.000000000000000021e-02 1.000000000000000021e-02 1.000000000000000021e-02 1.000000000000000021e-02 1.000000000000000021e-02 1.000000000000000021e-02 1.000000000000000021e-02 1.000000000000000021e-02 1.000000000000000021e-02 1.000000000000000021e-02 1.000000000000000021e-02 1.000000000000000021e-02 1.000000000000000021e-02 1.000000000000000021e-02 1.000000000000000021e-02 1.000000000000000021e-02 1.000000000000000021e-02 1.000000000000000021e-02 1.000000000000000021e-02 1.000000000000000021e-02 1.000000000000000021e-02 1.000000000000000021e-02 1.000000000000000021e-02 1.000000000000000021e-02 1.000000000000000021e-02 1.000000000000000021e-02 1.000000000000000021e-02 1.000000000000000021e-02 1.000000000000000021e-02 1.000000000000000021e-02 1.000000000000000021e-02 1.000000000000000021e-02 1.000000000000000021e-02 1.000000000000000021e-02 1.000000000000000021e-02 1.000000000000000021e-02 1.000000000000000021e-02 1.000000000000000021e-02 1.000000000000000021e-02 1.000000000000000021e-02 1.000000000000000021e-02 1.000000000000000021e-02 1.000000000000000021e-02 1.000000000000000021e-02 1.000000000000000021e-02 1.000000000000000021e-02 1.000000000000000021e-02 1.000000000000000021e-02 1.000000000000000021e-02 1.000000000000000021e-02 1.000000000000000021e-02 1.000000000000000021e-02 1.000000000000000021e-02 1.000000000000000021e-02 1.000000000000000021e-02 1.000000000000000021e-02 1.000000000000000021e-02 1.000000000000000021e-02 1.000000000000000021e-02 1.000000000000000021e-02 1.000000000000000021e-02 1.000000000000000021e-02 1.000000000000000021e-02 1.000000000000000021e-02 1.000000000000000021e-02 1.000000000000000021e-02 1.000000000000000021e-02 1.000000000000000021e-02 1.000000000000000021e-02 1.000000000000000021e-02 1.000000000000000021e-02 1.000000000000000021e-02 1.000000000000000021e-02 1.000000000000000021e-02 1.000000000000000021e-02 1.000000000000000021e-02 1.000000000000000021e-02 1.000000000000000021e-02 1.000000000000000021e-02 1.000000000000000021e-02 1.000000000000000021e-02 1.000000000000000021e-02 1.000000000000000021e-02 1.000000000000000021e-02 1.000000000000000021e-02 1.000000000000000021e-02 1.000000000000000021e-02 1.000000000000000021e-02 1.000000000000000021e-02 1.000000000000000021e-02 1.000000000000000021e-02 1.000000000000000021e-02 1.000000000000000021e-02 1.000000000000000021e-02 1.000000000000000021e-02 1.000000000000000021e-02 1.000000000000000021e-02 1.000000000000000021e-02 1.000000000000000021e-02 1.000000000000000021e-02 1.000000000000000021e-02 1.000000000000000021e-02 1.000000000000000021e-02 1.000000000000000021e-02 1.000000000000000021e-02 1.000000000000000021e-02 1.000000000000000021e-02 1.000000000000000021e-02 1.000000000000000021e-02 1.000000000000000021e-02 1.000000000000000021e-02 1.000000000000000021e-02 1.000000000000000021e-02 1.000000000000000021e-02 1.000000000000000021e-02 1.000000000000000021e-02 1.000000000000000021e-02 1.000000000000000021e-02 1.000000000000000021e-02 1.000000000000000021e-02 1.000000000000000021e-02 1.000000000000000021e-02 1.000000000000000021e-02 1.000000000000000021e-02 1.000000000000000021e-02 1.000000000000000021e-02 1.000000000000000021e-02 1.000000000000000021e-02 1.000000000000000021e-02 1.000000000000000021e-02 1.000000000000000021e-02 1.000000000000000021e-02 1.000000000000000021e-02 1.000000000000000021e-02 1.000000000000000021e-02 1.000000000000000021e-02 1.000000000000000021e-02 1.000000000000000021e-02 1.000000000000000021e-02 1.000000000000000021e-02 1.000000000000000021e-02 1.000000000000000021e-02 1.000000000000000021e-02 1.000000000000000021e-02 1.000000000000000021e-02 1.000000000000000021e-02 1.000000000000000021e-02 1.000000000000000021e-02 1.000000000000000021e-02 1.000000000000000021e-02 1.000000000000000021e-02 1.000000000000000021e-02 1.000000000000000021e-02 1.000000000000000021e-02 1.000000000000000021e-02 1.000000000000000021e-02 1.000000000000000021e-02 1.000000000000000021e-02 1.000000000000000021e-02 1.000000000000000021e-02 1.000000000000000021e-02 1.000000000000000021e-02 1.000000000000000021e-02 1.000000000000000021e-02 1.000000000000000021e-02 1.000000000000000021e-02 1.000000000000000021e-02 1.000000000000000021e-02 1.000000000000000021e-02 1.000000000000000021e-02 1.000000000000000021e-02 1.000000000000000021e-02 1.000000000000000021e-02 1.000000000000000021e-02 1.000000000000000021e-02 1.000000000000000021e-02 1.000000000000000021e-02 1.000000000000000021e-02 1.000000000000000021e-02 1.000000000000000021e-02 1.000000000000000021e-02 1.000000000000000021e-02 1.000000000000000021e-02 1.000000000000000021e-02 1.000000000000000021e-02 1.000000000000000021e-02 1.000000000000000021e-02 1.000000000000000021e-02 1.000000000000000021e-02 1.000000000000000021e-02 1.000000000000000021e-02 1.000000000000000021e-02 1.000000000000000021e-02 1.000000000000000021e-02 1.000000000000000021e-02 1.000000000000000021e-02 1.000000000000000021e-02 1.000000000000000021e-02 1.000000000000000021e-02 1.000000000000000021e-02 1.000000000000000021e-02 1.000000000000000021e-02 1.000000000000000021e-02 1.000000000000000021e-02 1.000000000000000021e-02 1.000000000000000021e-02 1.000000000000000021e-02 1.000000000000000021e-02 1.000000000000000021e-02 1.000000000000000021e-02 1.000000000000000021e-02 1.000000000000000021e-02 1.000000000000000021e-02 1.000000000000000021e-02 1.000000000000000021e-02 1.000000000000000021e-02 1.000000000000000021e-02 1.000000000000000021e-02 1.000000000000000021e-02 1.000000000000000021e-02 1.000000000000000021e-02 1.000000000000000021e-02 1.000000000000000021e-02 1.000000000000000021e-02 1.000000000000000021e-02 1.000000000000000021e-02 1.000000000000000021e-02 1.000000000000000021e-02 1.000000000000000021e-02 1.000000000000000021e-02 1.000000000000000021e-02 1.000000000000000021e-02 1.000000000000000021e-02 1.000000000000000021e-02 1.000000000000000021e-02 1.000000000000000021e-02 1.000000000000000021e-02 1.000000000000000021e-02 1.000000000000000021e-02 1.000000000000000021e-02 1.000000000000000021e-02 1.000000000000000021e-02 1.000000000000000021e-02 1.000000000000000021e-02 1.000000000000000021e-02 1.000000000000000021e-02 1.000000000000000021e-02 1.000000000000000021e-02 1.000000000000000021e-02 1.000000000000000021e-02 1.000000000000000021e-02 1.000000000000000021e-02 1.000000000000000021e-02 1.000000000000000021e-02 1.000000000000000021e-02 1.000000000000000021e-02 1.000000000000000021e-02
-1.056115208935243004e+02 1.607197870138618043e+02 3.718998659741167501e+01 -8.348036071407628711e+00 -8.321048084798485434e+01 -1.267653805600445693e+01 -1.969699438281146797e+02 6.834194776658826243e-01 -8.019258471753965978e+01 -1.347238210778726497e+01 -1.881125081917021191e+01 6.223180591089594316e+00 -1.689421327255715921e+00 1.589118060229661182e+02 8.015894493998933967e+01 -3.679312647028302052e+01 -5.008262820516073077e+01 7.502888580318480649e+01 3.110302909148689210e+01 -2.405235686070481549e+01 -7.465460513310353008e+01 -6.986926401502890371e+01 -1.305280548801223084e+01 2.740439723375859060e+01 -1.846022850142369975e+02 -9.348005423837079775e+01 -2.472043396291179462e+01 1.909443252316476958e+02 6.702318477746355541e+01 7.273024790112934568e+01 7.606782477761275629e+01 1.114627277507321601e+00 -7.519422300218278110e+01 1.965943862266296662e+02 -2.320140742089562877e+02 5.581343962553234661e+01 -1.137184788573636922e+02 -3.286944902183894612e+01 3.828930445384756354e+00 1.200343781188616958e+02 -1.163898766009451862e+02 -1.288429710613690027e+01 7.323327019239673064e+01 1.644717419501398012e+02 6.754716190382265495e+01 -6.473578680554739151e+01 3.896474823618090255e+01 -2.691405245819909453e+01 -6.257934060931766140e+01 1.483200734619917682e+02 -6.672574592600817311e+01 -4.932692687921927899e+01 -1.320822550041711736e+02 5.558903093239448978e+00 -4.783976801865550499e+01 3.665087734903151073e+01 -8.406156637866482129e+01 -4.740207813274432169e+01 -9.606964159919466795e+01 -1.472839939957309809e+02 1.836884096788194753e+01 4.304762810479534352e+01 -1.166597395865124440e+02 1.216726097875844204e+01 -7.506483493872001134e+01 4.654453178509399436e+01 1.579500671012314967e+02 -1.367045197092809872e+02 -4.100246354289017603e+01 6.859791055434804719e+00 2.793036575170425806e+00 4.017192541815788331e+01 7.956683508966649754e+01 7.059099111902489287e-01 -8.396104607630274330e+00 -6.631415839916606103e+01 7.412146117518535959e+01 -3.096675007824331161e+01 2.493755964279079862e+01 9.857040700462563620e+01 8.353954648826110940e+01 -4.053729612748153244e+01 5.468965333845338250e+01 1.396763865193690322e+02 1.101209477658513265e+02 -3.765166876761758985e+00 1.650154024484755837e+02 -1.056813402107565452e+02 3.926062160370879184e+00 -3.973688966008996459e+01 1.959366657047317801e+02 -2.010912083050404675e+01 2.761645660287408433e+00 -7.275124211464968482e+01 -6.785728530801090841e+00 -6.044147272417204420e+01 6.423906873399725725e+01 -8.960296047404747810e+01 6.507447630213280831e+01 -4.527926799399410385e+01 -4.711982509193618540e+01 -8.686051896177609422e+01 5.025030438183414105e+01 -5.178223140312361039e+01 -1.414801020371718323e+02 -7.526263125114579111e+01 -9.910004747768147126e+01 -1.489640185854183301e+02 1.287707438131764661e+02 -2.596976268145184363e+01 3.037236747794994329e+01 8.495475056137260594e+01 -9.854704301083532414e+01 5.393747897571903849e+01 -4.103555180341002284e+01 -6.581417479525939029e+01 -8.543703719694757126e+01 1.924795634133596991e+02 -5.375171445425380057e+01 -4.694120825637467220e+01 -4.465556732906750881e+01 7.616410009678681092e+01 -3.925755394856098235e+01 1.306890794080666751e+02 -4.734648438790193836e+01 5.227065454964512980e+01 4.305370056710644100e+00 -7.678104096308831572e+01 6.513936181219030175e+01 2.628465435784523265e+02 -8.726777930202398181e+01 4.496203052759122443e+01 -7.230728928797013566e+01 4.287976488353817928e+01 1.243440084688572398e+02 -4.877360696141624885e+01 1.387468149170550369e+01 -2.555606510854875424e+01 -9.665086808852703371e+01 -1.649100920222020861e+01 4.107009108877771375e+00 -7.393178090693084847e+00 -1.415000857933604017e+01 1.120098240053017093e+02 1.236442849270798945e+02 1.768091341486932606e+02 -2.886117997521149618e+02 3.621221388943430952e+01 -1.497557610689697860e+01 -5.910430131957743072e+01 1.710379686462039501e+02 7.216663641005690977e+01 -2.510892998406442977e+00 -1.099388797272967082e+02 -1.029753273319612639e+01 9.494675633887936783e+01 -1.274244734000404549e+02 -1.599265663452649449e+02 1.018760292443715798e+01 4.022628918589737879e+01 -5.792225236050722259e+01 3.989104856008849254e+01 -1.015903770029261040e+02 -1.435495984902823920e+02 1.999089847960722466e+01 4.609534718256365693e+01 4.593928435987507441e+00 -7.915129108676141811e+01 -8.881780662422345074e+01 -7.996501831825879947e+01 -8.311931448713012571e+01 1.204785880477842142e+01 5.393472123257195960e+01 1.106559632053293427e+02 7.541301754596000251e+01 8.504374143315619961e+01 1.021454714830147879e+02 -7.104143973778361953e+01 -7.838797950244268975e+01 6.702375156045323479e+01 6.522163933136297942e+01 5.630588155023193764e+01 -8.912234995522849701e+00 -8.660652802574469433e+01 5.136817149370854452e+01 -1.704527159936629346e+02 6.394713993135119523e+01 -4.234030887222443340e+01 -9.177343668225735485e+01 7.065990320458351448e+01 -1.636769725934714614e+01 -7.341044441601708570e+01 -5.469386599590012565e+01 -8.757803267034347527e+00 2.313371560604770991e+02 7.339954507870527323e+01 5.230111039717377253e+01 -9.902542704344047308e+01 1.414526162406119454e+02 1.039710853611384378e+00 -8.621262224485022330e+01 1.487590199066809191e+02 -1.471392064186663049e+02 1.506864823085153304e+01 -3.103056153933697559e+01 -2.122269767973620276e+02 -1.287000265663828316e+02 -8.419469283697813466e+01 -2.843379289217403283e+01 -1.150601457251749764e+02 5.562984120732263449e+01 6.276398580271462180e+01 -2.667158168902885862e+01 -9.637243015185408979e+01 1.091843839687134903e+02 1.140552814199202487e+02 4.461220894128396708e+01 1.693220014454582412e+01 2.525030496684834134e+02 4.214804248472071890e+01 -1.155001814137577583e+02 -4.357616329519670728e+01 -1.630853457408978215e+02 3.079840986773594125e+01 1.480896617209932913e+02 -1.432379534766713221e+02 1.273128193519898019e+02 -8.791945309036098877e+01 -1.832476940839185531e+01 -8.169297360187857127e-01 5.113501334201459514e+01 -1.117004181033435195e+01 -2.209096530896441024e+01 -1.813706314352171134e+01 -1.226414606677014802e+02 4.484907748911814451e+01 -2.932331179286612510e+01 -1.246109712088693122e+01 -1.037678498822787709e+01 2.185860493680050638e+02 1.686069001715018203e+02 2.250435832441240223e+02 1.275056146516365487e+02 -8.375757652928197672e+01 7.268457610493416610e+01 2.048145288728305502e+01 4.593520481335552574e+01 -3.834057914508052534e+01 2.471114421513552770e+02 -2.257795787832107237e+01 -1.323155245977598327e+02 -1.444703676212799159e+01 -4.437268005261896775e+01 -7.486272535367393743e+01 4.175728257614517958e+01 -1.133327857267830829e+01 1.760485759518965097e+02 8.931594535859784401e+01 3.955249740396136815e+01 9.480166726709018121e+01 9.165872277322341688e+01 -2.224554563667957652e+01 1.351491928490854093e+02 2.570979287254824897e+01 8.676605907381960492e+01 4.618718855865836304e+01 6.695813507376070284e+00 -1.120444956589662695e+02 -1.122003593190656829e+02 -8.719232090960665005e+01 -1.506168682058023300e+01 8.395103625190895968e+01 -2.962955369018281004e+01 9.573866574360495463e+01 4.244546337254619317e+01 -7.041352289929608332e+01 -2.897704309836711190e+01 -5.671725424051693665e+01 1.701586313176865772e+01 -4.479829698801445659e+01 -1.084859228755660183e+02 1.176328587244251906e+02 1.175050255543179816e+02 -7.649106860042154210e+01 5.193066634914195845e+00 -4.390356307046746309e+01 -3.149641904590782815e+01 -1.098085441558471587e+01 -3.026733428466990361e+01 4.311548513265401539e+01 -1.361463949600201602e+02 -5.119486631542968524e+01 -1.469866593165413917e+02 1.685378925463970745e+02 -1.950111515967380882e+01 5.698163357390745176e+01 1.150672739429240288e+01 1.396974814976255459e+02 4.312592848081514063e+01 3.450959733306165589e+01 1.493476265601589148e+02 -4.764249730347044931e+01 -9.444690871275909672e+01 2.635445351828968441e+01 -1.527874340794225816e+02 -5.164526263046390397e+01 9.895702281236769693e+01 -1.232201930644271499e+02 -3.513771508689686129e+01 8.822028538475284165e+01 -9.123643769418653449e+01 -8.641618965599535329e+01 -7.983152487278273668e+01 -6.159417769290514144e+01 2.406959815716710409e+02 1.914813628931034941e+02 9.944710239260147944e+01 -9.870823339748103820e+01 7.226119336200429188e+01 -6.398899993762067595e+01 -3.044213424549050018e+01 1.605572684626704216e+01 -3.120676056603761239e+01 -9.046935550972000328e+01 -2.758886447098201966e+00 1.420967389614427923e+01 1.050232733294717633e+02 -1.239915098941286686e+02 4.054459839278667488e+01 6.152632199630618004e+01 3.325933515812285179e+01 -8.739635371754174287e+01 -1.432530922134648108e+02 1.861827247371076339e+02 -1.715217395290610014e+01 2.427514138581540593e+01 1.509505485809883396e+02 2.568612652275213648e+01 2.670701784028268833e+01 -4.292800460166529319e+01 8.536722736315388715e+01 -1.312935767633963735e+02 -2.964801789497520801e+01 -5.912585051658987290e+00 -5.138837533209120778e+01 6.135189485861219261e+00 2.042598238145546574e+01 -3.444773936889532706e+01 1.315285103576468728e+01 2.056877922771674321e+02 -2.637918738942220998e+01 -2.697352511704711020e+01 -9.781356674171975385e+01 -1.562378077370336182e+00 -7.766183571622632087e+01 6.113361858901372514e+00 1.078340036474430832e+02 -5.002939667493921405e+01 5.805344756740177026e+00 -5.221656834849282802e+01 3.174543755098888642e+00 8.383950026360511742e+01 -1.113982251320538666e+02 -9.314217509739852119e+01 -9.866122279978125675e+01 6.857622499569497165e+01 8.322223517097756940e+01 -8.863364696633689732e+01 6.025686143315228094e+01 2.485770885747229286e+01 3.719544932888582167e+01 -1.704826983568245780e+01 8.784446187419624152e+01 7.659248247513158958e+01 -7.424329660554506916e+01 1.130261928734256749e+01 7.772237105832857651e+01 7.000242382143247255e+01 -1.915595677263686980e+01 2.397910877519619177e+01 -1.274551394714690673e+02 4.667208675935990669e+01 -3.151721738433005271e+01 -3.143960759966633134e+01 1.664538821192957130e+02 4.556000176227944820e+01 1.155124219228674605e+02 1.835672755198244204e+02 -1.323085075672003939e+02 1.433202742274075376e+02 -6.102445551277153868e+01 -1.299011276875234557e+02 7.910769658003502514e+01 -1.288141892085864413e+02 -2.760507472950214947e+01 5.418882001594081288e+01 7.708957029416447782e+00 -1.616787526801009847e+02 8.102064699138672665e+01 2.427182665633177550e+01 6.639125444992257030e+01 3.491531410213485032e+01 9.091198964977451169e+00 -6.449925358520665952e+01 1.111793073985056850e+02 5.237732485645676661e+01 -5.969120430480601414e+01 -9.730385264195659545e+01 3.736833613831720413e+01 2.476504528554942652e+01 7.920978346542644033e+01 1.766827234546897216e+02 -2.364249680150483002e+01 -1.058800481010591739e+02 -8.134091057845517980e+01 -4.931305300137746883e+01 -4.256262008131201213e+01 -1.409860187336100523e+02 -2.166480340007435501e+01 1.244978302888676325e+02 7.160811477212050136e+01 -1.175887070030606623e+02 -1.441337217101916224e+02 -6.540471649510563168e+01 -7.329466102603736033e+01 1.411324734161212575e+02 -1.638200522215990418e+02 8.321431717787039872e+01 -4.426063619134179561e+00 -4.136876388833140794e+01 1.275553308481618764e+01 8.755561246208388582e+01 4.758581950035692643e+01 1.327989032888314966e+02 -1.529236828302995832e+02 -7.780098368583031743e+01 2.440814334953392972e+01 4.028069652085690677e+01 1.980201605590840472e+02 1.397825877406963571e+02 6.300224565463130943e+01 6.927894047640018016e+01 -3.263523436526863719e+01 1.458259225972378488e+02 -1.723794491595939178e+02 -6.096165760006440593e+01 -5.157197951291289684e+01 -4.976037317981153763e+01 -9.918431819023234652e+01 -1.441773474874221250e+01 -6.592882130264344198e+01 6.835273182824464300e+01 -8.770582822599005013e+00 -5.574542009649201901e+01 -5.973020432878148966e+01 1.731030105428608579e+02 5.675372462830043929e+01 -1.321986443166136027e+01 2.006861239987022714e+02 -1.041143839065830576e+02 -3.392881012666484253e+01 6.433554686793580402e+01 -1.370203037245692756e-01 1.441186350791903159e+01 -1.202391749969466588e+02 1.692557746176527189e+02 -4.698844290886232500e+01 -2.580733492526640660e+01 -1.053468003627126706e+02 1.208528645585267611e+02 9.200032305647039266e+01 -7.440629925353381680e+01 -3.616439044439199790e+01 3.742410736417296846e+01 -1.453065466890562334e+02 -2.151021082261798112e-01 -7.170430781460692060e+01 7.361598612086056370e+00 -1.037220240097750263e+02 -1.521357068287903758e+02 -6.783769215262196894e+01 1.421990178625695762e+02 5.422734305878907435e+01 -8.601523146329586211e+01 8.551211059042094575e+01 3.279405797157328095e+01 8.477469716777302722e+01 -4.039950245161280407e+01 -8.060914491758661882e+01 1.640264959087175782e+02 3.990042473661390687e+01 2.774550768998237160e+01 -6.995511427784973080e+01 -4.056433585264363018e+01 9.095635109938653429e+00 -6.885064046382735725e+00 -1.656622520785844301e+02 -3.318998378549716222e+01 6.170903230639515868e+01 1.068925431580793202e+02 1.492307454152779940e+02 -1.274026745133805427e+01 8.585388847612281893e+01 1.511071626943264903e+02 6.071621396514393609e+01 1.413638467562478525e+02 1.538488244081508860e+01 1.257132393926261500e+02 -8.035096941451199370e+01 5.102402355378814747e+01 2.801709412917748665e+01 7.255521610999643656e+01 -1.015913721472074229e+02 1.894304969834867336e+02 -1.229932830778308244e+02 8.444766599484928804e+01 -1.025836808983932258e+02 4.413342280201116807e+01 1.319844625423472095e+01 8.661366618159499353e+01 -7.031706446101122765e+01 -7.209770757117532014e+01 -1.061313320548057426e+01 8.503797499642548985e+01 -2.824472916026528679e+01 -1.554197406654582814e+01 -1.872698156835961925e+01 4.515401888574093192e+00 9.355734829794651830e+01 -5.959742843328843520e+01 -2.570780464301706036e+00 -1.845807025432847013e+02 1.161374168489530661e+02 -1.187675202965402121e+02 -7.023691419438149808e+01 -2.235611380027239647e+01 -1.026641790094265616e+02 -5.052836486187646159e+01 -5.572186733768668176e+01 -1.873971917021866318e+01 1.295038582248206467e+02 5.139898941532751309e+01 9.545324520345761243e+01 -1.293894329105528129e+02 -1.317287304079788441e+02 -2.726132630351083321e+02 9.717473696918462167e+01 9.905858810485882771e+01 4.026050719267667688e+01 -4.040787305558688303e+01 -3.530747037592240645e+01 -1.746386452747129852e+02 1.388540051023728950e+02 -1.021023029321503799e+02 1.016887566748854397e+02 -1.513177664628474872e+02 -1.362130962066032680e+01 -5.264793711065613024e+01 -1.133929708156974385e+02 -4.383960820442671746e+01 -1.195554083274994639e+01 -8.812835110744559586e+01 -9.835121410561315258e+01 -1.175741287752000019e+01 6.767274647071839411e+01 -1.184699398930048915e+02 -1.486776432159130579e+01 -7.012032555800145417e+01 -1.249506061624710895e+02 6.231624704215281696e+00 9.038758335319218418e+01 1.574482886660409520e+02 -1.811477881839260817e+01 -4.379058739674611189e+01 -1.181356546538141572e+02 -1.556992714720987863e+02 9.878032779208885472e+01 -6.920110689027272599e+01 7.514161798105693890e+01 8.939368643620250410e+00 2.777943508336620226e+01 7.027001256488948400e+01 -8.069872301472464926e+01 7.871779481848213322e+01 1.097486813393087601e+02 1.499905385467672261e+02 -1.108991619051192146e+02 9.899104880967664144e+01 -4.551448932059164321e+01 -8.646440773906883237e+01 2.043731307950735356e+02 4.683582392545499573e+01 7.948717417494405879e+01 2.015999572198246526e+01 -6.030709349397645269e+01 -3.326561088136597988e+01 -2.003597314882266005e+02 1.006071293801738591e+02 7.758327081762558919e+01 -7.208306543987137616e+01 -6.960143122283898265e+01 1.382551423276215132e+02 9.624213661094458416e+01 4.868564806712793569e+01 7.242355037186877098e+01 -7.447938557069162968e+00 9.826115223333766835e+01 -9.866766811213128108e+01 1.774255742268909444e+02 -3.759934294958090817e+01 -1.161968886749701966e+02 -3.593339690703587053e+01 6.831447138071517600e+01 1.402915219495386054e+02 1.219945198868563274e+01 1.655272468993563564e+02 4.968228451652431943e+01 3.204266410544402532e+01 -1.059837333969279172e+02 4.262481082946165145e+01 -1.189938602404204602e+02 4.545383095705526699e+01 3.670222534501800737e+01 -1.175107480531869442e+02 -8.098236641491843102e+01 3.797109186944344117e+01 8.308049184186669933e+00 -2.208523264910163419e+01 3.990369456910137558e+01 -2.038359437547746111e+01 -6.007535131729042632e+01 -2.503031917702149656e+01 -2.132822628956633082e+01 -3.791218358753089746e+01 1.785914497287764391e+01 -7.670723940442677247e+01 1.132545758542391212e+02 -7.069869713707029746e+01 -3.962835938711369632e+00 6.254090947268937128e+01 3.676342635789344282e+00 1.521425035605591702e+01 1.521545416075819368e+01 -1.115025594547107346e+02 -4.189809809502619942e+00 6.193006592028552149e+01 -2.203513758710018067e+02 -8.084919828110413675e+01 -1.072813885353575500e+02 4.170869700917830158e+01 9.160076607578949393e+01 -8.738268041056815605e+01 -1.598381833358824338e+02 -1.763423168324682990e+02 1.898802938906138849e+01 -1.379447284295129919e+02 -6.028461929789233231e+00 1.404587591439085088e+02 -6.708582579243730137e+00 3.529866805380955697e+01 -9.395921637156534700e+01 7.586932441746881750e+01 -1.125592039522610719e+02 -1.466645052291684159e+01 -2.871837814997225635e+01 5.465676475161698988e+01 -8.360687199847278706e+00 1.002016342219680212e+02 -1.157623886779986861e+02 -4.747435744547983205e+01 8.218061813321548925e+01 6.267143113168899049e+01 -7.794554405727403434e+01 -5.154210156405899568e+01 -4.677136705962915642e+01 -2.739468277231662796e+02 1.831478478122541560e+02 7.194319310882477225e+01 -2.227473965123679278e+01 -2.806409732068716423e+01 3.926463932811660129e+01 -7.946136637766704780e+01 9.400771270053920148e+01 5.716640887761346335e+01 7.732905817494797418e+01 -7.941406138541606197e+01 -2.498309573649894944e+01 3.143148069479557805e+01 1.640621576141769822e+01 -4.046493725116510376e+01 1.491250964419016043e+02 -1.630037782577135630e+01 3.343388291028862369e+01 -2.169291289812502725e+02 -7.985440613836075840e+01 -6.898562353285748827e+01 2.172868029508278198e+01 1.029808379299928447e+02 -2.186552312714512993e+02 -1.764308611138894207e+02 2.090169134855808579e+02 -9.961454189666925529e+00 9.056370397041420972e+01 5.903740165946031482e+01 -5.217504975820209268e+01 -1.235415868365442407e+02 -8.974294708797549447e+01 -4.737964649953514140e+01 -3.526560277548180977e+01 -3.693526351405285624e+01 1.519318556861288627e+01 3.512652790031859240e+01 1.573949554080753899e+02 1.162656910245050028e+02 6.625917323976999285e+00 -4.171100415556652230e+00 -1.496800098866977180e+02 1.128433380671760204e+02 1.502155033916180571e+02 -9.759901627272799374e+01 6.951917134131619491e+01 1.562545131190862691e+00 5.183702138611449328e+01 1.182094817189007188e+02 6.690608607984098910e+01 -1.264430956305878340e+02 1.518393773026912363e+01 -2.771964395000761172e+01 1.051565605777809331e+01 -2.175440960099362542e+01 4.275395626957885753e+01 -2.459591387297619178e+02 1.709148110286582494e+02 6.827226027675886932e+00 1.504306377433055673e+02 -9.908466345177918910e+00 1.001884640955309607e+02 6.762103898475294272e+01 -3.960788513441431746e+01 2.830845287336019567e+01 -6.881212449344839399e+01 -8.409624914750489211e+01 -6.804965439813024375e+01 -3.029697773864189259e+01 4.267442079459198823e+01 1.041012582945086251e+02 2.688951699364421088e+01 5.881023778476284036e+01 -9.912522885132528927e+01 -1.296738820184609722e+02 -1.275044991040491027e+01 4.384904788834792555e+01 -4.293956847234478857e+01 8.951028968673799113e+01 5.256528373682998279e+01 -2.614122333463867065e+01 2.832436153027237324e+01 5.810554591906819866e+01 -6.820553410275664419e+01 -1.265387194235673718e+02 1.344248793460291154e+02 7.392237333068040428e+00 4.745855715560959709e+01 -1.413873543725224522e+02 -5.058136868468064762e+01 -3.973439627130143648e-01 -6.238296343695451895e+01 4.029814643026690568e+00 5.335872775130706458e+01 1.767155706259511589e+02 3.709744809859846271e+01 -1.038484315922741175e+01 6.853799870459393162e+01 -4.310609522048272169e+01 -1.033526025534080190e+02 -1.310586052934430654e+02 8.875382713145034685e+00 2.382536302167248365e+01 2.263891752534320645e+01 -5.399034110378189411e+01 1.146728303173669588e+02 -7.672478190887983374e+01 1.218400455499332224e+02 8.288874767320321268e+01 -6.176984060080557981e+01 -8.055560999979316250e+01 8.001914147890941820e+01 1.937196645253611038e+01 -4.993372117245779407e+01 -5.116209655319254779e+01 1.300379148002557770e+02 5.452991651018287200e+01 7.602080670143067209e+01 2.486709315437234480e+01 -3.997366918727432505e+01 1.021535064308342839e+02 -5.192259943109881704e+01 5.583589109059150513e-01 7.281791762525755018e+01 9.480360012712590390e+01 2.432858719279979596e+02 -1.668385442545328772e+02 1.532202168040145693e+02 -6.430146637492576644e+01 -1.451422342779282104e+01 -2.396967432159462064e+01 -1.974958712870613198e+01 -5.248758988885813181e+01 8.866874993570618813e+01 1.754158438051812823e+02 -1.132342998538525762e+02 2.950087058765910797e+01 -1.210588276593302055e+02 6.698173319958162608e+01 -4.242539962882721483e+01 -7.738772514160845617e+01 -5.150359176131453864e+01 3.937177056630447680e+01 1.849359887117491752e+01 -7.812852286306456051e+01 -1.348315894099552850e+02 1.984979921071238707e+01 1.507602362740206274e+02 1.367052881287453481e+01 1.746333643109670106e+02 7.131987301420291026e+00 1.289092495284020856e+02 -3.311776701442133941e+01 8.695832303605661195e+01 -6.844248278478572445e+01 -1.082009307611048996e+02 4.738816886610856471e+01 -5.560006648458458756e+01 -7.532809874230652269e+01 6.986241181424787783e+01 6.226637669259933894e+00 -9.045243547143176954e+01 -1.445660828481128135e+02 1.420525659606914815e+02 -8.564557411332356196e+01 -2.292286182292741170e+00 1.154107650026202947e+02 5.573935357066218188e+01 -9.442852913126972680e+01 1.026039236076217698e+01 2.712559829691926438e+02 5.125477818203532365e+01 -1.517344409366578191e+02 -4.593973905541794522e+01 -5.916994890428412646e+01 9.248523311627380394e+00 1.035766333016243266e+02 -9.969309585797314810e+01 2.081257996086072026e+01 1.256892655940390995e+02 1.808553393001213649e+01 -2.036084653640699003e+02 4.651628914989996844e+01 7.276453985535528091e+01 -1.311396953977783575e+01 3.159770865497669945e+01 1.844445516155312770e-01 2.177752973575749351e+01 2.674022160933296988e+01 1.117064518423545394e+02 9.456319380245739126e+01 1.510956723260071932e+01 1.436957993936095761e+02 -6.173660727281161797e+01 2.378682562214321479e+02 6.273595572843900925e+01 1.367174614151390983e+02 -2.117909597373009589e+01 8.689590093048275321e+01 -4.715483635041196209e+01 -1.412043955157274695e+02 2.522273093768890817e+01 9.159130438777415861e+01 -8.445497513280892576e+01 -1.010531114598755948e+02 -6.419749882036971655e+01 3.534226384228957585e+01 -1.101473760699582556e+02 7.205620423438202238e+01 2.703732270943336502e+01 -9.417963451130393082e+01 1.832230292388412636e+02 -1.134614889815171423e+01 -9.821340093303051333e+01 -1.295964895497733949e+01 -1.971911634499268473e+01 -1.352891736310502324e+02 -3.860543037867376626e+01 5.936090636003250154e+01 1.271866903987940987e+02 2.803890450710967386e+01 2.579251146068381928e+01 4.321631131046904528e+01 -3.444356363581943015e+01 -1.405309561556470896e+02 1.535699604787851413e+01 2.985001999074986045e+01 1.284749248786174292e+02 -9.518875915000933219e+00 -7.345239811980503930e+01 7.063424546292102946e+01 9.308052667339453690e-01 3.064639726169385270e+01 1.343208688351609794e+02 -1.712416658886096172e+02 -8.962137736156969936e+01 1.203818627565417216e+02 -2.023055786418628657e+02 -1.724583074134475282e+02 8.538258634781836065e+01 1.444099247358176967e+02 5.949300560669197324e+01 -4.211805632990851755e+00 1.460084842052646934e+02 -2.058922427567142677e+02 1.004855999903403756e+02 3.973742610282195642e+01 1.191616223427566865e+02 -1.768513513610463690e+02 9.982782071587124051e+01 -2.644537266993994962e+01 -1.253640311640647269e+02 -4.988718763649369947e+00 -8.662939029957824744e+01 -1.517005504462632715e+01 -4.106063067061537453e+00 -1.155275628668863277e+02 -1.156428576986526764e+02 -5.866526187753078858e+01 -1.208701490065363515e+02 1.884586586650531217e+02 -1.511315165140165391e+02 -4.706469916356414274e+01 1.618048885385919959e+02 3.182311317351332747e+01 -2.775773301446573100e+02 -1.192444669060821809e+02 3.328028139494367821e+01 5.126949610979010430e+01 7.980641506017011721e+00 -1.449503033989853122e+02 3.346317713192797783e+01 7.057092947399686622e+00 -6.970461735299949169e+01 1.901323162485821001e+02 1.899469262600576371e+02 4.086063304144617270e+00 -1.955816145391855514e+02 1.181298333192333558e+02 2.882443777022117359e+01 3.602561023370402626e+00 7.179479838699286631e+01 -1.945855981560082739e+02 -1.294159592047764988e+02 1.322227422800716568e+02 1.028347423639329890e+02 4.959421231943451858e+01 1.342397735807023764e+02 -1.671664811554138055e+02 -1.920696677266901986e+01 -1.222657531191389779e+02 4.098322946808587375e+01 -9.741288908838991745e+01 8.166436614374808300e+01 -3.183108958205132666e+01 1.161592197001570170e+01 1.664024182112990218e+02 2.679774281842399830e+01 -2.471642328330182181e+02 -1.185399848703755623e+02 -7.814687943116288693e+01 1.482683160276860974e+02 1.176218493201843174e+01 -5.056949040482527380e+01 2.840484491408660972e+01 5.857837512312733708e+01 -3.706763597053456749e+01 1.008163318301493661e+02 -9.448004192222911968e+01 4.614985999325129740e+01 1.049675739256589253e+02 -3.334618081406688361e+01 -9.201825547787902337e+01 -1.064207663149957881e+02 1.123082039639775616e+02 -4.660341632361721054e+01 1.843147750758295444e+02 5.364467279481741002e+01 1.040309996251609022e+02 1.730681223655826670e+02 8.020275420762626339e+00 -1.165909467242627073e+02 -1.553876719754385647e+02 -1.070444217099165627e+02 3.988114917281137650e+01
-1.243313127284815778e+01 -4.454351250011605146e+00 9.482578517135171126e+01 -2.098029077775074711e+02 1.423593100599764796e+02 5.813404605653782653e+01 1.393626775764271599e+02 -1.183169179569297143e+02 -2.523871723621428753e+00 -2.202821149761142649e+01 -2.010469249775472065e+02 2.994047565871145977e+01 -1.677310053748280083e+01 1.120357744476578290e+02 -1.146151740569299733e+02 5.652720177376353661e+01 1.147223840122735936e+02 -4.209807024309575496e+01 -4.537555723584809897e+01 -2.467519724457427799e+01 5.655406838377589196e+01 5.773159904129163777e+01 2.971886697503915187e+01 -2.129186133632639724e+02 -4.718548506442127177e+01 8.387837016618611585e+01 9.085091872889581310e+00 -9.521469746230582842e+00 -6.091042441945540276e+01 -1.421862080835012776e+01 6.716044975673869999e+01 -1.331500246326442038e+02 -5.676291766437484654e+01 8.200293176344338519e+00 1.901303510939084731e+02 1.942021485859369534e+02 -2.947364133976675049e+01 5.117304223597957247e+01 -2.288544492627754001e-01 -1.278584883894717450e+02 8.786729809648532807e+01 9.816307641215225033e+01 9.935331273651787853e+01 1.068043967038296138e+01 5.664901270293908198e+01 4.405350831811543344e+01 3.559136870834720412e+01 2.690695593843753386e+01 1.009671474773242892e+02 8.212482827813390429e+01 6.002588637063686150e+01 1.492534400374659072e+02 2.269766833355290601e+02 1.790940814400767636e+02 -5.415564505578448262e+01 4.511131500709924325e+01 -5.882276771140197269e+01 5.160982742346525498e+01 -1.760112554079538540e+02 5.172917845524352032e+01 -1.874467247326819574e+02 -1.544877151158998743e+02 1.186597699554852525e+01 -8.499154967017590323e+00 1.552011352057540989e+02 -1.904632619746943760e+02 6.891517508601646114e+01 2.104916211327598887e+02 -6.802960835373676574e+00 -1.784327571095330995e+02 3.250350058359099137e+01 1.805396188359098915e+02 -5.596845437242176047e+01 -2.441621579020551280e+02 -9.393074812471013502e+01 8.198228970776007429e+00 -2.107285177673986709e+02 2.942961321168632693e+01 -1.643728607421635104e+02 -1.699563523012757855e+02 -5.242194944184193872e+01 1.396215636227604477e+02 6.360072499950346270e+01 9.737290188058683071e+00 -8.128728126999398285e+01 -3.903537045861165922e+01 5.839929203564925331e+01 -2.128211643510375382e+02 4.958672832593464364e+01 -6.865791516423182372e+01 -7.166471613910198357e+01 -1.620968080099559643e+02 5.959463190893388429e+01 8.496618729265618697e+01 -1.488216866219196675e+02 1.584745625754822527e+02 -3.655493212594866748e+01 -1.552071170566151714e+01 8.043112130811648797e+01 1.434205420241025308e+02 1.997978593639479072e+01 1.389455842841944104e+02 -1.700164480657165456e+01 -8.321100010858992846e+01 -1.797965600057106172e+01 9.271010032252253552e+01 4.243311557966177361e+01 9.230706404361743012e+01 8.904323839770697191e+01 -7.843073836565346824e+01 -1.603306727895363792e+02 1.161047530856642993e+02 5.117554915710892516e+01 1.536067856409661836e+01 2.884446379959907603e+01 -6.410011799458041537e+01 9.061794747480162471e+01 8.482785472358865775e+01 -1.298675396649589331e+01 -6.726626273080431417e+01 2.894185484214573734e+01 5.939579334910973785e+00 -5.800962619403723153e+01 1.601106346214199050e+02 -3.089011771704943854e+01 1.148015091282845219e+02 -6.616604015889254242e+01 3.624848782397972968e+01 -3.403304176100620282e+01 8.451970670505100713e+01 2.215703662509451988e+01 1.091668299463880913e+02 -1.096126865427144992e+02 7.022799609107110541e+01 1.166131072730534441e+02 -4.220324163952725627e+01 7.261682623671871006e+00 -1.213051028044913515e+01 1.104020543968303087e+02 3.506315674635595236e+00 1.593042298607805094e+02 -1.336472007278232468e+02 1.102252117367626312e+02 -8.623639468772847749e+01 9.059351911776512623e+01 -1.295764725747794728e+02 2.789193545136320296e+01 2.341630894719774147e+01 1.662812407496104816e+00 3.434199376576383855e+01 4.355564000684136516e+01 -1.168288695559312806e+01 1.035537408272115556e+01 1.022524121418830703e+02 1.203540614526810231e+02 -8.205751015189053987e+01 -5.122459574913156644e+01 4.475573840121371916e+01 1.420939128043177346e+00 -1.296546235906179447e+02 -5.221538055392997535e+01 -3.348686332514910902e+01 4.626376693473365975e+01 -6.200062604895223473e+01 2.167825111899293589e+01 1.518667431991615047e+02 -7.522695541070254421e+01 7.659395481249107718e+01 7.961171866107552830e+01 1.071255016740930444e+01 1.169818363569356734e+02 5.959485948146463130e+01 1.592837907869456444e+02 -3.285484589264367372e+01 1.066010172672989569e+02 5.270657557399260185e+01 -1.522587264519072825e+01 1.936774544001839615e+02 -1.316818362120430663e+02 4.641828287033867184e+01 -1.780911000053215218e+02 -7.991657677789970649e+01 3.899641392085870706e+01 -6.860684433965495543e+01 -1.480061749731166003e+02 1.894272332099976666e+02 -8.152269994663750197e+01 -4.514739792498581039e+01 -4.398605820318320525e+01 1.157460658865640966e+02 1.851666009738925709e+02 6.155733558203527167e+01 1.390574772800703158e+02 2.087132973163232919e+02 -1.502604411926728112e+00 1.548680521867232756e+02 6.740650920825486025e+01 1.810690928480861430e+02 -1.196662299814238679e+02 -1.123385986992479602e+01 6.058739059677621164e+00 1.806245033803865851e+02 -8.637804817732786944e+01 -5.759658032427854124e+01 -5.033106247909577746e+01 -1.275087589650049154e+02 4.449146064662750533e+00 -9.597939134741800160e+01 1.466740998219142398e+02 2.237714092396965526e+01 1.138974062865894332e+01 6.876464643529854470e+01 -4.655587827993350025e+00 1.113129718360902984e+02 -1.511313029849083023e+02 4.322145511427446962e+01 -1.624012920131757767e+02 1.116821087434489499e+02 9.144933628518298008e+01 -6.397326734459326758e+01 4.453675378168978938e+01 2.265035799054467134e+02 -2.899827441296156039e+01 3.960757194451825569e+01 -3.108815468681956773e+01 5.511704218903531682e+01 6.110216671838372093e+01 -5.987067197113566941e+00 9.688480144344001133e+01 9.644627770619597129e+01 -1.843621585597373382e+02 -1.457186492778035642e+02 -1.139868422017867431e+02 -8.947754057696620578e+00 -1.423915977973261420e+02 1.098806061510522625e+02 1.048898751624071508e+02 5.612767525188301221e+01 1.061921853977811558e+01 1.499091556314672573e+02 7.982641235888577569e+01 6.420053969190880139e+01 -9.656353822756602767e+01 1.449686609030316617e+02 -3.445113212913141432e+00 1.039881087610655612e+02 8.391016361792875244e+00 3.492658741393864119e+01 -7.192374035993228176e+01 -8.623191305074573165e+01 6.804422513014156948e+01 -3.693637436435531551e+00 1.388931415585688001e+02 -1.191968169743532968e+01 -2.693458380361591686e+00 4.357014469297858739e+01 2.148395951410428495e+01 1.343436702246304719e+02 1.399354864747781058e+01 3.406616885028041253e+01 -1.468886385731849487e+02 6.248120455564068720e+01 1.268812677937883109e+02 -1.665122691790777765e+01 -2.164005232208512268e+02 8.008533777269065013e+01 1.291334348884709016e+02 1.934894842140332827e+01 1.791105519422095824e+02 -4.104161235044498923e+00 4.057105802074136847e+01 -4.130728610071184193e+01 -1.310923647241375818e+02 5.300094776930988161e+01 -4.489542460208510022e+01 -7.650585357914047790e+01 3.896039484668663988e+01 -1.745177501855783078e+02 6.762409136025937073e+01 1.553156106675377544e+02 -9.555115619506838698e+01 1.633307476248359364e+02 -9.206993873953659602e+01 -5.613016054888544382e+00 -9.965499409741436665e+00 7.232356450650860324e+01 -4.399711118983246649e+01 -1.015991778060524382e+02 -8.355003667300105974e+01 1.374244508477051170e+02 5.570916633124476647e+01 -1.242543955540691201e+02 4.148415217139207911e+00 4.086879425505427577e+01 7.773202278668253484e+01 -3.796726293062494051e+01 5.641273010852117409e+01 -6.492460831528298115e+01 -1.527397977359181596e+02 -3.257900622530686974e+01 1.326272735579647417e+02 -1.067319330642846325e+02 -5.988291580095709499e+00 -1.531615841936205413e+02 -4.596802346874048872e+00 -1.372128012460426874e+02 3.101007700595029704e+01 5.667778929956122624e+01 -4.731463319852058191e+01 -7.741957695552147811e+01 5.310411447449540745e+00 6.994128212859564542e+01 -6.369235433205034980e+01 1.265362749679623988e+02 9.922140876600356307e+01 -1.199110427603539790e+02 -9.907287529559216921e+01 1.268612988005352804e+02 6.693772217130562296e+01 1.410385208958739724e+02 9.377654819580915557e+01 7.612971830064094547e+01 -5.657425432816916100e+01 -7.667411187736880152e+01 -7.226237621076512596e+01 1.917841691517436402e+02 2.873770705151240534e+01 -2.337403922154991420e+01 -6.417211574592440115e+01 -4.674474155997154412e+01 -1.229917775273507772e+02 -1.540410156864690450e+01 -1.638649784398562304e+02 1.167403552335700567e+02 4.290668322984269878e+01 -1.075579201494495578e+02 -4.520826032540652761e+01 1.117844442420417721e+02 -9.044761192844136133e+01 9.601995899682012237e+01 -1.106280252919594886e+02 -1.100413400984831114e+01 -8.916148016426723188e+01 8.380277672927759625e+01 -3.964214225614158948e+01 9.541805393118726997e+00 2.741616549558864335e+01 -1.181924641645664735e+02 1.166223830345511026e+01 4.517300285431062434e+01 -2.082122348878058560e+01 -6.415256750606896219e+01 1.891124812685344239e+02 8.069207128938826656e+01 4.393093993185570412e+01 -2.930224650548913345e+01 7.481627553236769756e+01 1.563976960326987751e+02 -8.602058841203545114e+01 1.954701221665704622e+02 -1.241959371520368904e+02 -1.715641718679956398e+02 1.415662327895854560e+02 -2.183010216528206797e+02 -8.544535816908379600e-01 -2.285170416943600173e+02 -1.426030622420745999e+02 6.697259890306999353e+01 -1.358062258550177717e+02 5.444183595396466302e+01 1.026261719005282913e+02 -1.495403293265116531e+02 -2.804362269218869486e+01 7.037051014613803090e+01 1.249143731186768775e+02 -1.736656753341908654e+02 8.165399672621201432e+01 -9.140916716398022857e+01 -9.171174944091076142e+00 -1.289972532661064086e+01 -7.421189618893760098e+01 -8.421042397350387887e+01 1.692090814319623462e+02 -2.028072809677337318e+01 1.273764735224510281e+00 1.215395537305813605e+02 -8.098123681569776977e+01 -3.213635871768973828e+01 -1.005550689164568610e+02 -4.557009495874108751e+01 4.784151660454460497e+00 5.541139605458235451e+01 -1.262164605921677065e+02 2.217424033250786977e+02 -5.037903162798444612e+01 1.146775752606462788e+02 -4.568430453040553374e+01 1.120741084203608864e+02 1.303293378700115568e+02 4.485019046268905640e+01 1.142836213587623035e+02 -4.048597156434273359e+01 1.311092136533557948e+02 -1.466458825877858771e+02 -6.127906445673342972e+01 -5.900518547080138632e+01 2.399957684502517452e+01 -1.520842748943298091e+02 6.797464642404814583e+01 -2.891146535718336352e+01 -7.745726573725200126e+01 8.394475008366926261e+01 -1.416439424618108376e+02 -8.553220182250106518e+01 -4.939222798700856742e+01 3.099386870786470283e+01 1.216663969194622581e+02 1.094852389611473455e+02 6.473834567794472150e+01 -1.428368464991629283e+00 1.640028291751069673e+02 1.148594718265964900e+02 -8.860874998180941020e+01 -7.318747984377121441e+01 5.152161248533279547e+01 9.293541450242855717e+00 9.184555992278882286e+01 1.563642417338980692e+02 6.619163433046963974e+01 2.295675745261201683e+01 -9.584607683796339472e+01 1.609846062417492192e+02 -1.065267915944122450e+02 -1.548919688475007206e+02 6.161085800985043193e+01 1.045111203885182363e+02 1.843282730070506048e+01 -1.301076214312185186e+02 2.781666678698229234e+01 3.971234861973226060e+01 -3.742080172492099344e-01 1.226667866461611425e+02 9.169761816577990032e+01 1.603314157837889198e+01 7.336860777003479939e+01 -1.000899368229411976e+02 -6.002825047910399725e+00 9.210005228802026522e+01 2.781010107034903100e+01 -6.087405116198048916e+01 1.854435281648276828e+02 2.163551284427468318e+02 -1.173935385357597028e+02 -2.588249623339742911e+01 -1.966397206382731042e+02 -6.754205394039500732e+01 1.464446655739062635e+02 3.116918885062358591e+00 -6.641596914770759952e+01 1.531651977675140586e+02 -5.842349714244100767e+01 -1.502404711460374642e+02 1.277313392369452316e+02 -6.280370918512134182e+01 3.232545516144079301e+01 8.070414025852997497e+01 1.290848268973022961e+01 -2.227858027323977126e+02 3.959940845241254692e+01 -5.805199939965759448e+00 8.428248213886102747e+01 -2.203649998989182635e+01 9.446746702838927945e+01 1.591523505574230057e+01 -7.910920203285053276e+01 -1.915945109276379554e+01 -1.638361419498317275e+02 1.074668082508126474e+02 2.364573100287262264e+01 -3.888758767673255079e+01 -4.840577582732792195e+01 -5.885118350519935149e+01 3.846717113050477366e+01 1.502172283764436997e+02 1.240232008547638145e+02 4.020962700202932183e+01 -1.849521381751048352e+02 -3.626423865593763196e+01 4.097236514575931210e+01 1.096376728657218251e+02 8.145671537226586167e+01 1.441203824714148851e+01 -1.738408064441001102e+02 1.230224031411386107e+02 -2.091028143444957834e+02 -1.923532209851922232e+02 -1.691045736924667198e+00 -6.893614531573878423e+01 -2.258180334413980717e+01 8.140870504723820034e+01 5.225713527841145378e+01 -1.038915615116428626e+02 -1.415825772382889056e+02 1.361439736190286354e+01 1.155928462135065899e+02 1.928552766264337492e+01 -5.299790717723060141e+01 -4.831063279313544001e+01 -1.088466966689721005e+01 1.508178472233149137e+02 2.088989244973956971e+01 -1.653405965834128040e+02 1.221765659288620611e+02 -6.362999391462292920e+01 -3.968969466548704084e+00 1.465294225184398158e+02 -4.971920973765773510e+01 -1.865580070651953193e+01 -1.045288158551741304e+02 -5.701037582752236155e+00 -2.267954370530688379e+01 1.252590648737630090e+02 1.142164264459709671e+02 6.430462860041235729e+01 6.230823428417104282e+01 -1.779402573088566797e+01 1.285642664702213551e+02 -1.073231214490965044e+02 -4.039358410995570914e+00 -8.663380850002714340e+01 1.494161865554706026e+02 6.937962085382379485e+01 4.913327787570849381e+01 7.826899462588733591e+00 -5.074097651233759620e+01 3.270839770015172121e+01 6.374579102340873327e+00 3.527049059176387225e+00 2.291155418184705894e+01 5.686677842074632849e+01 1.619836403781873173e+02 -3.700337871144915880e+01 -4.942916292386042443e+01 6.355068584798564757e+01 1.100262620786149199e+02 -1.219823364952261890e+01 8.750754845709809615e+01 9.908776734191104651e+01 2.005691432433668808e+02 -8.231658581241561023e+01 -1.166742880468671757e+02 -2.725888460754802267e+01 5.916037175213831034e+01 -9.655526400718912328e+00 1.021658771840773170e+02 3.544535903349670036e+01 -1.546708591221246820e+02 4.284367748515236229e+01 -8.507716170987528415e+01 -1.286550583818824691e+02 1.279078407920666507e+02 -7.234058606421648108e+01 5.630317059738032981e+01 1.056503266201473110e+02 -9.407063161625264058e+01 2.236728629036415938e+01 -6.856218841968856736e+01 3.831462661826404315e+01 -1.090056608435412215e+02 5.856803921577930083e+01 5.198205212883045334e+01 3.636598959010112431e+00 7.980341391847206012e+01 -1.451961558552140730e+02 7.253371283454468710e+01 -2.789725256794736552e+01 -1.593328802764526131e+02 8.916564624925248950e+01 2.317911185063865886e+01 -1.849174683813957074e+02 2.219342163402180290e+02 -5.143110731156933513e-01 9.916655990878477667e+01 -1.137244595993413867e+02 -1.831375535221242501e+02 -8.800948403803162989e+01 2.379400420557618467e+00 1.347100475942519893e+02 3.704265916299462891e+00 -9.014555227552219208e+01 4.744345142485039446e+01 1.292377830031329040e+02 6.124690000518110367e+01 -4.875566721795993885e+01 -5.578647908485929463e+01 7.968838051306927639e+01 2.894148553213158337e+01 -1.844841872337538291e+02 -1.954725750571376608e+01 1.593877215787407806e+02 9.313718156837498441e+01 -5.409078821093515188e+01 -1.054369055386975731e+02 -4.023238375888687557e+01 -4.534465071845978912e+01 -1.079273663168995938e+02 -1.735071699237699505e+01 -4.305380992104627325e+01 -1.071535591012133182e+02 -1.244500151063658109e+02 -2.544802118442116523e+01 -1.185383890134935569e+02 -1.262634789565047413e+02 -3.614961244047064781e+01 -5.215640219809791489e+01 -1.047360793490788211e+02 1.818484974216846126e+02 1.027093451550118886e+01 -2.747069705079700697e+01 -1.659600457691757569e+01 7.685101812938033561e+01 1.529598321699063845e+01 2.446723395059704487e+01 -2.071274208349674240e+01 -4.525886176726803001e+01 2.041810722630534869e+01 -1.420353873637475601e+02 -1.554878256109223003e+02 -8.824618446251392356e+01 -1.864273211794691463e+02 -8.752038977135734399e+01 8.374361637517800716e+01 5.997426091894755729e+01 -2.543523077116321573e+01 5.935641920407073968e+01 -1.529803236766360612e+02 -3.998223906696104279e+01 -1.134702581173620644e+02 -6.519518880612115197e+01 2.061506593232527962e+02 -2.005301828298391058e+02 2.005027147909707992e+02 2.435993357010492133e+01 -5.511516229978800396e+01 9.003113319077318977e+01 1.212001486376106811e+02 -5.068003587347903505e+01 -1.990758066345599104e+02 -1.456369379264274357e+02 9.992669468116147868e+01 8.181387797889391322e+01 -1.324082590459076982e+02 3.117506228220610964e+01 -3.878881305298898496e+01 -7.561055770741550930e+01 -2.777175594679742332e+01 -5.353160344246503399e+01 -8.440160391736091583e+01 -3.329308919638129538e+01 4.453300833469028497e+00 -3.186919445945255092e+01 -3.416720616791927290e-01 -1.395465071419381964e+01 8.977890388830714130e+01 1.241982354894142162e+02 1.284691119237978540e+01 1.642437426175261450e+01 -6.171007593401980529e+01 -1.915611669615671815e+02 3.306006726442261368e+01 -8.957723078785083715e+01 2.525391395599773503e+01 -7.895240302020656742e+00 1.063984042093572224e+00 7.076852085654346070e+01 1.190832359488967995e+02 -6.887594487576626534e+01 3.712057681111130591e+01 -1.884908308300225315e+02 9.476065024593543384e+00 6.728196817135444263e+00 -1.197425188298907273e+02 -3.291860150127781282e+01 -4.330506707130551547e+01 4.646950648374188475e+00 -9.987136458259658411e+01 2.642090581153548356e+01 -9.537756451050724138e+01 5.471579253130514076e+01 6.632267108461770988e+01 3.605887884692161549e+01 -2.834174056861655089e+01 1.050128584113391099e+02 5.970424967593374532e+01 7.816091894069970181e+01 -6.546857979058087551e+01 1.975318912010711969e+01 1.248941023113698208e+02 -5.714818942618470032e+01 -6.761019502551938842e+00 3.123325026136194182e+01 -1.254390283995110167e+02 9.549974610900667926e+01 8.747097757939833684e+01 -9.882426453334873884e+01 -8.039981337601103917e+01 -5.423596950835247554e+01 -4.460006583891134113e+01 -1.563835685060636536e+02 -1.326469875425367775e+02 -1.293381448313971021e+02 1.031359115909141764e+02 5.839498221384900489e+01 1.557114520966509303e+02 7.040765063642089316e+00 -8.357896607387030485e+01 1.831993387419110064e+01 1.348694020922717129e+01 -6.204516680982183630e+01 7.223653378537474623e+01 1.151513683370924070e+02 9.692739323024568421e+00 1.397716499732250952e+02 2.191715536007388110e+01 1.081710099221269843e+02 1.467561263168739671e+01 -2.025810697453185014e+02 2.128897871968029847e+02 -4.770164640071006090e+01 -1.452636821106576690e+02 -6.548403588085952265e+01 -4.172678115351507699e+01 4.020639631005242620e+01 2.484157235901333038e+01 4.440539073498536737e+01 -7.180773594011127159e+01 1.186344732026141031e+02 -8.360088205962114216e+01 -6.796576174470279952e+00 1.379086301995922668e+02 1.060782525294439864e+02 5.619306191520463756e+01 -1.712956207291994986e+02 2.460005599341705818e+01 1.357354266978726685e+02 2.263806780732356572e+01 9.429513660351427973e+01 1.027779517319117559e+02 -2.042240530630840283e+02 7.424209597200676569e+01 -5.572165005111756386e+01 -2.169702164615621882e+02 8.531450728279421014e+01 2.365218312233054476e+01 -1.170055728503952253e+02 -5.606726242093254342e+01 1.326758599955570332e+02 1.409350200556099821e+02 -7.238640492047872499e+01 -1.217778529229504727e+02 -7.939727869302357988e+01 -1.576749643401463175e+02 1.860065118538077655e+01 3.604027335083812744e+01 -1.615004634350681556e+01 -1.173957416493423622e+01 -8.477764392357434531e+01 -8.349013826803738425e+01 -2.331496483105405915e+01 1.261697975883877376e+02 1.281338727758360108e+02 7.625241304256627473e+01 9.124211964385665397e+01 -7.365911684781700330e+01 -1.693864274002096977e+02 -1.234115898970185654e+01 -2.161302322462362824e+01 -6.649174087476698958e+01 1.381094032498402902e+00 6.832820663054552313e+01 -4.948837124025167356e+01 2.314495192789349076e+01 7.408234458620860607e+01 6.558547094294266344e+01 1.034272605153382187e+02 -1.395160205196013408e+02 3.706968933840478542e+01 7.793171334352287261e+01 8.863604186199518153e+01 5.521907078487688381e+01 -9.656237583314690198e+01 1.280683453030917747e+02 1.192619490864845204e+02 8.966753878054231564e+01 9.498106052208760275e+01 -7.875986191571115569e+01 -1.389139640070723303e+01 -1.212571045190231622e+01 7.204768261745365976e+01 6.077981991466776179e+01 5.242587497800585083e+01 9.124511815502117429e+01 1.089986690751831730e+02 1.159872868967570270e+02 -6.061114995981404263e+01 7.541414525991096696e+01 6.100586502890481455e+01 -1.100664229580383449e+02 1.231122943231859495e+02 -9.368639530490026956e+00 -2.613699019905451593e+01 1.865357194488849188e+02 8.286056262169114461e+01 1.162167380664044032e+02 -1.351796286859592158e+02 -1.477947389520190313e+02 -1.439102453777479980e+02 -1.144218532230112260e+02 -4.149412215622631095e+01 1.028401367989073236e+02 -1.581272230295535053e+02 3.046064717134307642e+01 1.353592018672132156e+02 -5.568308334965274753e+01 -8.568420975521013361e+01 -3.298138450364387353e+01 1.274818489428965478e+02 2.133360275823372092e+02 -6.265509029022027221e+01 1.862141755903129337e+01 -2.598268499277889987e+01 6.434613097055779463e+01 5.657600787469915815e+01 -2.003665545591591979e+02 -8.333690613753829268e+01 1.293371655241320752e+02 1.314077028411889216e+02 8.887554755877491175e+01 -4.688351548191901941e+01 -7.125666465424862395e+01 -4.265697227175548534e+01 -1.661148164095044990e+02 6.689693091973332173e+01 -2.411522822244598885e+01 1.565235505167660222e+02 -2.630318295538402751e+01 -2.960954199322319482e+02 1.363251701354640488e+02 4.722525873533307816e+01 -1.109994567226015931e+02 -2.090037013253781595e+01 3.322088236659471505e+01 -1.955307758580793234e+02 -1.075587072831446704e+02 -1.032623945010657280e+02 -5.307111157342620089e+01 5.910205877828928323e+01 -1.552548949916044023e+02 1.015785397840028139e+02 -5.116188864595849140e+01 2.767227095019506589e+00 -1.256595102536216046e+02 -9.768767843429012032e+01 1.656302215178396864e+02 8.164307215889225233e+01 -3.978379840975966175e+01 3.497761412115962543e+01 -2.641536420983168654e+01 4.084474954166185512e+01 -9.858717363301089165e+01 9.326629244535659780e+01 4.757121739808243177e+01 -1.120449380493631963e+02 1.100291671426413416e+02 -4.626803064461786619e+01 9.415572572172534649e+01 -4.655264144768919010e+01 8.328562687487385574e+01 -1.445909986832638481e+02 1.345722058535132533e+02 2.333786123425348080e+01 9.492787278181184263e+01 1.229923038077900941e+02 -1.383070614417600552e+02 -8.101898475153829793e+01 -9.963238096338822913e+01 6.305837239138222827e+01 -1.616294591699346483e+02 1.429919088958416751e+02 1.342603612586690929e+02 4.996622603424700060e+01 -8.009604824694227432e+01 5.384822124263371990e+01 -1.012997229465965461e+02 -1.029194966041048254e+01 3.298336107117305716e+01 -1.733822358588455472e+02 -7.695315027798132235e+01 -1.277182476028260538e+01 9.642328389549651035e+01 -4.740552918122998705e+01 1.026779552817174306e+02 -6.070397389973689428e+01 -1.989704255645462183e+02 -1.011011976440623812e+02 -3.210039403265621161e+01 -5.681109558904772427e+01 2.839762145504578683e+01 4.859168288891123666e+01 5.973193198685223138e+00 2.403139511883323109e+01 -1.109020838321133908e+02 5.093976947808171474e+01 3.084408255486167505e+01 -6.815967946686373580e+01 8.788368260005340105e+00 5.333209546969354165e+01 -9.017151089224448413e+01 -5.210239085939158343e+01 -2.287513404183509635e+01 9.223940013933621174e+01 -1.620188760362944436e+01 3.969617476411523960e+00 -2.158000257215689714e+02 -8.985996099057054209e+01 9.360071207798371518e+01 -8.430449290740972401e+01 2.963929285356103449e+01 2.937493588540542433e+01 3.583446492323078303e+01 6.251488898895636481e+01 -1.678988842097919019e+02 1.362499653788959222e+02 7.721167454736487912e+01 -7.150340159020401209e+00 -7.646240047389036931e+01 1.058284879586626914e+02 5.877086213340962928e+01 -1.903724475599553614e+02 -4.766582340368584880e+01 -7.735472490173452798e+01 -4.900704138047592551e+01 -5.857120909661566799e+01 -9.367862314415870628e+01 -5.712157483619523646e+01 1.813201261309265533e+02 -1.615947605814907888e+02 6.195776100122829888e+01 2.626815099607417991e+01 -7.118858159042572709e+01 9.853448198594380258e+00 -3.734879447505176842e+01 3.263304410410567957e+00 -9.104310413384718004e+01 -1.870717695409384760e+02 1.741796677414817651e+01 3.965264655759111179e+01 -1.211170776749531797e+01 -8.447577679534164830e+00 -3.766204552996870092e+01 -1.797892012958267856e+02 -2.899208140640942943e+01 -6.187653106877676379e+01 1.317587961866439983e+01 -1.479253427543648769e+01 8.581635866108933897e+01 -5.969850264540729512e+01 -9.817777367518377218e+01 -3.377314025572631095e+01 -8.479571760804470060e+00 4.298977546259771287e+01 -2.093064832039522116e+01 -6.996544616986767551e+01 -1.504785915445340194e+01 1.896726803734062727e+01 4.498991129589332871e+01 -1.079425473786747034e+02 -1.316714695468181446e+02 2.182057569748725712e+02 -2.067928079038541114e+02 -7.190552782065225301e+01 -4.386227964784368538e+01 1.324730084017455169e+02 5.993981183826085157e+01 2.169312090154668908e+02 2.319042262224213005e+02 -5.910309377769829808e+01 1.226214571231507762e+02 -5.314082007273356112e+01 -3.868669127324105261e+01 -9.531115328156667488e+01 -7.564275574380673106e+01 -6.586989891633436400e+01 -8.437149567019513086e+01 -2.309998691494785135e+02 -2.566064955094017819e+02 1.275978747691981710e+02 -2.515936583768273849e+01 5.048095585348126235e+01 1.240830471666993020e+02
