# 
#                 ----------------------------------------------------
#                 Data from a 3D direct N-body simulation. 
# 
#                 rows are i-particle; 
#                 coumns are :mass, tag, x ,y, z, vx, vy, vz, ax, ay, az
# 
#                 NTHU, Computational Physics Lab
# 
#                 ----------------------------------------------------
#                 Time = 1.1000000000000008
1.000000000000000000e+00 2.000000000000000000e+00 3.000000000000000000e+00 4.000000000000000000e+00 5.000000000000000000e+00 6.000000000000000000e+00 7.000000000000000000e+00 8.000000000000000000e+00 9.000000000000000000e+00 1.000000000000000000e+01 1.100000000000000000e+01 1.200000000000000000e+01 1.300000000000000000e+01 1.400000000000000000e+01 1.500000000000000000e+01 1.600000000000000000e+01 1.700000000000000000e+01 1.800000000000000000e+01 1.900000000000000000e+01 2.000000000000000000e+01 2.100000000000000000e+01 2.200000000000000000e+01 2.300000000000000000e+01 2.400000000000000000e+01 2.500000000000000000e+01 2.600000000000000000e+01 2.700000000000000000e+01 2.800000000000000000e+01 2.900000000000000000e+01 3.000000000000000000e+01 3.100000000000000000e+01 3.200000000000000000e+01 3.300000000000000000e+01 3.400000000000000000e+01 3.500000000000000000e+01 3.600000000000000000e+01 3.700000000000000000e+01 3.800000000000000000e+01 3.900000000000000000e+01 4.000000000000000000e+01 4.100000000000000000e+01 4.200000000000000000e+01 4.300000000000000000e+01 4.400000000000000000e+01 4.500000000000000000e+01 4.600000000000000000e+01 4.700000000000000000e+01 4.800000000000000000e+01 4.900000000000000000e+01 5.000000000000000000e+01 5.100000000000000000e+01 5.200000000000000000e+01 5.300000000000000000e+01 5.400000000000000000e+01 5.500000000000000000e+01 5.600000000000000000e+01 5.700000000000000000e+01 5.800000000000000000e+01 5.900000000000000000e+01 6.000000000000000000e+01 6.100000000000000000e+01 6.200000000000000000e+01 6.300000000000000000e+01 6.400000000000000000e+01 6.500000000000000000e+01 6.600000000000000000e+01 6.700000000000000000e+01 6.800000000000000000e+01 6.900000000000000000e+01 7.000000000000000000e+01 7.100000000000000000e+01 7.200000000000000000e+01 7.300000000000000000e+01 7.400000000000000000e+01 7.500000000000000000e+01 7.600000000000000000e+01 7.700000000000000000e+01 7.800000000000000000e+01 7.900000000000000000e+01 8.000000000000000000e+01 8.100000000000000000e+01 8.200000000000000000e+01 8.300000000000000000e+01 8.400000000000000000e+01 8.500000000000000000e+01 8.600000000000000000e+01 8.700000000000000000e+01 8.800000000000000000e+01 8.900000000000000000e+01 9.000000000000000000e+01 9.100000000000000000e+01 9.200000000000000000e+01 9.300000000000000000e+01 9.400000000000000000e+01 9.500000000000000000e+01 9.600000000000000000e+01 9.700000000000000000e+01 9.800000000000000000e+01 9.900000000000000000e+01 1.000000000000000000e+02 1.010000000000000000e+02 1.020000000000000000e+02 1.030000000000000000e+02 1.040000000000000000e+02 1.050000000000000000e+02 1.060000000000000000e+02 1.070000000000000000e+02 1.080000000000000000e+02 1.090000000000000000e+02 1.100000000000000000e+02 1.110000000000000000e+02 1.120000000000000000e+02 1.130000000000000000e+02 1.140000000000000000e+02 1.150000000000000000e+02 1.160000000000000000e+02 1.170000000000000000e+02 1.180000000000000000e+02 1.190000000000000000e+02 1.200000000000000000e+02 1.210000000000000000e+02 1.220000000000000000e+02 1.230000000000000000e+02 1.240000000000000000e+02 1.250000000000000000e+02 1.260000000000000000e+02 1.270000000000000000e+02 1.280000000000000000e+02 1.290000000000000000e+02 1.300000000000000000e+02 1.310000000000000000e+02 1.320000000000000000e+02 1.330000000000000000e+02 1.340000000000000000e+02 1.350000000000000000e+02 1.360000000000000000e+02 1.370000000000000000e+02 1.380000000000000000e+02 1.390000000000000000e+02 1.400000000000000000e+02 1.410000000000000000e+02 1.420000000000000000e+02 1.430000000000000000e+02 1.440000000000000000e+02 1.450000000000000000e+02 1.460000000000000000e+02 1.470000000000000000e+02 1.480000000000000000e+02 1.490000000000000000e+02 1.500000000000000000e+02 1.510000000000000000e+02 1.520000000000000000e+02 1.530000000000000000e+02 1.540000000000000000e+02 1.550000000000000000e+02 1.560000000000000000e+02 1.570000000000000000e+02 1.580000000000000000e+02 1.590000000000000000e+02 1.600000000000000000e+02 1.610000000000000000e+02 1.620000000000000000e+02 1.630000000000000000e+02 1.640000000000000000e+02 1.650000000000000000e+02 1.660000000000000000e+02 1.670000000000000000e+02 1.680000000000000000e+02 1.690000000000000000e+02 1.700000000000000000e+02 1.710000000000000000e+02 1.720000000000000000e+02 1.730000000000000000e+02 1.740000000000000000e+02 1.750000000000000000e+02 1.760000000000000000e+02 1.770000000000000000e+02 1.780000000000000000e+02 1.790000000000000000e+02 1.800000000000000000e+02 1.810000000000000000e+02 1.820000000000000000e+02 1.830000000000000000e+02 1.840000000000000000e+02 1.850000000000000000e+02 1.860000000000000000e+02 1.870000000000000000e+02 1.880000000000000000e+02 1.890000000000000000e+02 1.900000000000000000e+02 1.910000000000000000e+02 1.920000000000000000e+02 1.930000000000000000e+02 1.940000000000000000e+02 1.950000000000000000e+02 1.960000000000000000e+02 1.970000000000000000e+02 1.980000000000000000e+02 1.990000000000000000e+02 2.000000000000000000e+02 2.010000000000000000e+02 2.020000000000000000e+02 2.030000000000000000e+02 2.040000000000000000e+02 2.050000000000000000e+02 2.060000000000000000e+02 2.070000000000000000e+02 2.080000000000000000e+02 2.090000000000000000e+02 2.100000000000000000e+02 2.110000000000000000e+02 2.120000000000000000e+02 2.130000000000000000e+02 2.140000000000000000e+02 2.150000000000000000e+02 2.160000000000000000e+02 2.170000000000000000e+02 2.180000000000000000e+02 2.190000000000000000e+02 2.200000000000000000e+02 2.210000000000000000e+02 2.220000000000000000e+02 2.230000000000000000e+02 2.240000000000000000e+02 2.250000000000000000e+02 2.260000000000000000e+02 2.270000000000000000e+02 2.280000000000000000e+02 2.290000000000000000e+02 2.300000000000000000e+02 2.310000000000000000e+02 2.320000000000000000e+02 2.330000000000000000e+02 2.340000000000000000e+02 2.350000000000000000e+02 2.360000000000000000e+02 2.370000000000000000e+02 2.380000000000000000e+02 2.390000000000000000e+02 2.400000000000000000e+02 2.410000000000000000e+02 2.420000000000000000e+02 2.430000000000000000e+02 2.440000000000000000e+02 2.450000000000000000e+02 2.460000000000000000e+02 2.470000000000000000e+02 2.480000000000000000e+02 2.490000000000000000e+02 2.500000000000000000e+02 2.510000000000000000e+02 2.520000000000000000e+02 2.530000000000000000e+02 2.540000000000000000e+02 2.550000000000000000e+02 2.560000000000000000e+02 2.570000000000000000e+02 2.580000000000000000e+02 2.590000000000000000e+02 2.600000000000000000e+02 2.610000000000000000e+02 2.620000000000000000e+02 2.630000000000000000e+02 2.640000000000000000e+02 2.650000000000000000e+02 2.660000000000000000e+02 2.670000000000000000e+02 2.680000000000000000e+02 2.690000000000000000e+02 2.700000000000000000e+02 2.710000000000000000e+02 2.720000000000000000e+02 2.730000000000000000e+02 2.740000000000000000e+02 2.750000000000000000e+02 2.760000000000000000e+02 2.770000000000000000e+02 2.780000000000000000e+02 2.790000000000000000e+02 2.800000000000000000e+02 2.810000000000000000e+02 2.820000000000000000e+02 2.830000000000000000e+02 2.840000000000000000e+02 2.850000000000000000e+02 2.860000000000000000e+02 2.870000000000000000e+02 2.880000000000000000e+02 2.890000000000000000e+02 2.900000000000000000e+02 2.910000000000000000e+02 2.920000000000000000e+02 2.930000000000000000e+02 2.940000000000000000e+02 2.950000000000000000e+02 2.960000000000000000e+02 2.970000000000000000e+02 2.980000000000000000e+02 2.990000000000000000e+02 3.000000000000000000e+02 3.010000000000000000e+02 3.020000000000000000e+02 3.030000000000000000e+02 3.040000000000000000e+02 3.050000000000000000e+02 3.060000000000000000e+02 3.070000000000000000e+02 3.080000000000000000e+02 3.090000000000000000e+02 3.100000000000000000e+02 3.110000000000000000e+02 3.120000000000000000e+02 3.130000000000000000e+02 3.140000000000000000e+02 3.150000000000000000e+02 3.160000000000000000e+02 3.170000000000000000e+02 3.180000000000000000e+02 3.190000000000000000e+02 3.200000000000000000e+02 3.210000000000000000e+02 3.220000000000000000e+02 3.230000000000000000e+02 3.240000000000000000e+02 3.250000000000000000e+02 3.260000000000000000e+02 3.270000000000000000e+02 3.280000000000000000e+02 3.290000000000000000e+02 3.300000000000000000e+02 3.310000000000000000e+02 3.320000000000000000e+02 3.330000000000000000e+02 3.340000000000000000e+02 3.350000000000000000e+02 3.360000000000000000e+02 3.370000000000000000e+02 3.380000000000000000e+02 3.390000000000000000e+02 3.400000000000000000e+02 3.410000000000000000e+02 3.420000000000000000e+02 3.430000000000000000e+02 3.440000000000000000e+02 3.450000000000000000e+02 3.460000000000000000e+02 3.470000000000000000e+02 3.480000000000000000e+02 3.490000000000000000e+02 3.500000000000000000e+02 3.510000000000000000e+02 3.520000000000000000e+02 3.530000000000000000e+02 3.540000000000000000e+02 3.550000000000000000e+02 3.560000000000000000e+02 3.570000000000000000e+02 3.580000000000000000e+02 3.590000000000000000e+02 3.600000000000000000e+02 3.610000000000000000e+02 3.620000000000000000e+02 3.630000000000000000e+02 3.640000000000000000e+02 3.650000000000000000e+02 3.660000000000000000e+02 3.670000000000000000e+02 3.680000000000000000e+02 3.690000000000000000e+02 3.700000000000000000e+02 3.710000000000000000e+02 3.720000000000000000e+02 3.730000000000000000e+02 3.740000000000000000e+02 3.750000000000000000e+02 3.760000000000000000e+02 3.770000000000000000e+02 3.780000000000000000e+02 3.790000000000000000e+02 3.800000000000000000e+02 3.810000000000000000e+02 3.820000000000000000e+02 3.830000000000000000e+02 3.840000000000000000e+02 3.850000000000000000e+02 3.860000000000000000e+02 3.870000000000000000e+02 3.880000000000000000e+02 3.890000000000000000e+02 3.900000000000000000e+02 3.910000000000000000e+02 3.920000000000000000e+02 3.930000000000000000e+02 3.940000000000000000e+02 3.950000000000000000e+02 3.960000000000000000e+02 3.970000000000000000e+02 3.980000000000000000e+02 3.990000000000000000e+02 4.000000000000000000e+02 4.010000000000000000e+02 4.020000000000000000e+02 4.030000000000000000e+02 4.040000000000000000e+02 4.050000000000000000e+02 4.060000000000000000e+02 4.070000000000000000e+02 4.080000000000000000e+02 4.090000000000000000e+02 4.100000000000000000e+02 4.110000000000000000e+02 4.120000000000000000e+02 4.130000000000000000e+02 4.140000000000000000e+02 4.150000000000000000e+02 4.160000000000000000e+02 4.170000000000000000e+02 4.180000000000000000e+02 4.190000000000000000e+02 4.200000000000000000e+02 4.210000000000000000e+02 4.220000000000000000e+02 4.230000000000000000e+02 4.240000000000000000e+02 4.250000000000000000e+02 4.260000000000000000e+02 4.270000000000000000e+02 4.280000000000000000e+02 4.290000000000000000e+02 4.300000000000000000e+02 4.310000000000000000e+02 4.320000000000000000e+02 4.330000000000000000e+02 4.340000000000000000e+02 4.350000000000000000e+02 4.360000000000000000e+02 4.370000000000000000e+02 4.380000000000000000e+02 4.390000000000000000e+02 4.400000000000000000e+02 4.410000000000000000e+02 4.420000000000000000e+02 4.430000000000000000e+02 4.440000000000000000e+02 4.450000000000000000e+02 4.460000000000000000e+02 4.470000000000000000e+02 4.480000000000000000e+02 4.490000000000000000e+02 4.500000000000000000e+02 4.510000000000000000e+02 4.520000000000000000e+02 4.530000000000000000e+02 4.540000000000000000e+02 4.550000000000000000e+02 4.560000000000000000e+02 4.570000000000000000e+02 4.580000000000000000e+02 4.590000000000000000e+02 4.600000000000000000e+02 4.610000000000000000e+02 4.620000000000000000e+02 4.630000000000000000e+02 4.640000000000000000e+02 4.650000000000000000e+02 4.660000000000000000e+02 4.670000000000000000e+02 4.680000000000000000e+02 4.690000000000000000e+02 4.700000000000000000e+02 4.710000000000000000e+02 4.720000000000000000e+02 4.730000000000000000e+02 4.740000000000000000e+02 4.750000000000000000e+02 4.760000000000000000e+02 4.770000000000000000e+02 4.780000000000000000e+02 4.790000000000000000e+02 4.800000000000000000e+02 4.810000000000000000e+02 4.820000000000000000e+02 4.830000000000000000e+02 4.840000000000000000e+02 4.850000000000000000e+02 4.860000000000000000e+02 4.870000000000000000e+02 4.880000000000000000e+02 4.890000000000000000e+02 4.900000000000000000e+02 4.910000000000000000e+02 4.920000000000000000e+02 4.930000000000000000e+02 4.940000000000000000e+02 4.950000000000000000e+02 4.960000000000000000e+02 4.970000000000000000e+02 4.980000000000000000e+02 4.990000000000000000e+02 5.000000000000000000e+02 5.010000000000000000e+02 5.020000000000000000e+02 5.030000000000000000e+02 5.040000000000000000e+02 5.050000000000000000e+02 5.060000000000000000e+02 5.070000000000000000e+02 5.080000000000000000e+02 5.090000000000000000e+02 5.100000000000000000e+02 5.110000000000000000e+02 5.120000000000000000e+02 5.130000000000000000e+02 5.140000000000000000e+02 5.150000000000000000e+02 5.160000000000000000e+02 5.170000000000000000e+02 5.180000000000000000e+02 5.190000000000000000e+02 5.200000000000000000e+02 5.210000000000000000e+02 5.220000000000000000e+02 5.230000000000000000e+02 5.240000000000000000e+02 5.250000000000000000e+02 5.260000000000000000e+02 5.270000000000000000e+02 5.280000000000000000e+02 5.290000000000000000e+02 5.300000000000000000e+02 5.310000000000000000e+02 5.320000000000000000e+02 5.330000000000000000e+02 5.340000000000000000e+02 5.350000000000000000e+02 5.360000000000000000e+02 5.370000000000000000e+02 5.380000000000000000e+02 5.390000000000000000e+02 5.400000000000000000e+02 5.410000000000000000e+02 5.420000000000000000e+02 5.430000000000000000e+02 5.440000000000000000e+02 5.450000000000000000e+02 5.460000000000000000e+02 5.470000000000000000e+02 5.480000000000000000e+02 5.490000000000000000e+02 5.500000000000000000e+02 5.510000000000000000e+02 5.520000000000000000e+02 5.530000000000000000e+02 5.540000000000000000e+02 5.550000000000000000e+02 5.560000000000000000e+02 5.570000000000000000e+02 5.580000000000000000e+02 5.590000000000000000e+02 5.600000000000000000e+02 5.610000000000000000e+02 5.620000000000000000e+02 5.630000000000000000e+02 5.640000000000000000e+02 5.650000000000000000e+02 5.660000000000000000e+02 5.670000000000000000e+02 5.680000000000000000e+02 5.690000000000000000e+02 5.700000000000000000e+02 5.710000000000000000e+02 5.720000000000000000e+02 5.730000000000000000e+02 5.740000000000000000e+02 5.750000000000000000e+02 5.760000000000000000e+02 5.770000000000000000e+02 5.780000000000000000e+02 5.790000000000000000e+02 5.800000000000000000e+02 5.810000000000000000e+02 5.820000000000000000e+02 5.830000000000000000e+02 5.840000000000000000e+02 5.850000000000000000e+02 5.860000000000000000e+02 5.870000000000000000e+02 5.880000000000000000e+02 5.890000000000000000e+02 5.900000000000000000e+02 5.910000000000000000e+02 5.920000000000000000e+02 5.930000000000000000e+02 5.940000000000000000e+02 5.950000000000000000e+02 5.960000000000000000e+02 5.970000000000000000e+02 5.980000000000000000e+02 5.990000000000000000e+02 6.000000000000000000e+02 6.010000000000000000e+02 6.020000000000000000e+02 6.030000000000000000e+02 6.040000000000000000e+02 6.050000000000000000e+02 6.060000000000000000e+02 6.070000000000000000e+02 6.080000000000000000e+02 6.090000000000000000e+02 6.100000000000000000e+02 6.110000000000000000e+02 6.120000000000000000e+02 6.130000000000000000e+02 6.140000000000000000e+02 6.150000000000000000e+02 6.160000000000000000e+02 6.170000000000000000e+02 6.180000000000000000e+02 6.190000000000000000e+02 6.200000000000000000e+02 6.210000000000000000e+02 6.220000000000000000e+02 6.230000000000000000e+02 6.240000000000000000e+02 6.250000000000000000e+02 6.260000000000000000e+02 6.270000000000000000e+02 6.280000000000000000e+02 6.290000000000000000e+02 6.300000000000000000e+02 6.310000000000000000e+02 6.320000000000000000e+02 6.330000000000000000e+02 6.340000000000000000e+02 6.350000000000000000e+02 6.360000000000000000e+02 6.370000000000000000e+02 6.380000000000000000e+02 6.390000000000000000e+02 6.400000000000000000e+02 6.410000000000000000e+02 6.420000000000000000e+02 6.430000000000000000e+02 6.440000000000000000e+02 6.450000000000000000e+02 6.460000000000000000e+02 6.470000000000000000e+02 6.480000000000000000e+02 6.490000000000000000e+02 6.500000000000000000e+02 6.510000000000000000e+02 6.520000000000000000e+02 6.530000000000000000e+02 6.540000000000000000e+02 6.550000000000000000e+02 6.560000000000000000e+02 6.570000000000000000e+02 6.580000000000000000e+02 6.590000000000000000e+02 6.600000000000000000e+02 6.610000000000000000e+02 6.620000000000000000e+02 6.630000000000000000e+02 6.640000000000000000e+02 6.650000000000000000e+02 6.660000000000000000e+02 6.670000000000000000e+02 6.680000000000000000e+02 6.690000000000000000e+02 6.700000000000000000e+02 6.710000000000000000e+02 6.720000000000000000e+02 6.730000000000000000e+02 6.740000000000000000e+02 6.750000000000000000e+02 6.760000000000000000e+02 6.770000000000000000e+02 6.780000000000000000e+02 6.790000000000000000e+02 6.800000000000000000e+02 6.810000000000000000e+02 6.820000000000000000e+02 6.830000000000000000e+02 6.840000000000000000e+02 6.850000000000000000e+02 6.860000000000000000e+02 6.870000000000000000e+02 6.880000000000000000e+02 6.890000000000000000e+02 6.900000000000000000e+02 6.910000000000000000e+02 6.920000000000000000e+02 6.930000000000000000e+02 6.940000000000000000e+02 6.950000000000000000e+02 6.960000000000000000e+02 6.970000000000000000e+02 6.980000000000000000e+02 6.990000000000000000e+02 7.000000000000000000e+02 7.010000000000000000e+02 7.020000000000000000e+02 7.030000000000000000e+02 7.040000000000000000e+02 7.050000000000000000e+02 7.060000000000000000e+02 7.070000000000000000e+02 7.080000000000000000e+02 7.090000000000000000e+02 7.100000000000000000e+02 7.110000000000000000e+02 7.120000000000000000e+02 7.130000000000000000e+02 7.140000000000000000e+02 7.150000000000000000e+02 7.160000000000000000e+02 7.170000000000000000e+02 7.180000000000000000e+02 7.190000000000000000e+02 7.200000000000000000e+02 7.210000000000000000e+02 7.220000000000000000e+02 7.230000000000000000e+02 7.240000000000000000e+02 7.250000000000000000e+02 7.260000000000000000e+02 7.270000000000000000e+02 7.280000000000000000e+02 7.290000000000000000e+02 7.300000000000000000e+02 7.310000000000000000e+02 7.320000000000000000e+02 7.330000000000000000e+02 7.340000000000000000e+02 7.350000000000000000e+02 7.360000000000000000e+02 7.370000000000000000e+02 7.380000000000000000e+02 7.390000000000000000e+02 7.400000000000000000e+02 7.410000000000000000e+02 7.420000000000000000e+02 7.430000000000000000e+02 7.440000000000000000e+02 7.450000000000000000e+02 7.460000000000000000e+02 7.470000000000000000e+02 7.480000000000000000e+02 7.490000000000000000e+02 7.500000000000000000e+02 7.510000000000000000e+02 7.520000000000000000e+02 7.530000000000000000e+02 7.540000000000000000e+02 7.550000000000000000e+02 7.560000000000000000e+02 7.570000000000000000e+02 7.580000000000000000e+02 7.590000000000000000e+02 7.600000000000000000e+02 7.610000000000000000e+02 7.620000000000000000e+02 7.630000000000000000e+02 7.640000000000000000e+02 7.650000000000000000e+02 7.660000000000000000e+02 7.670000000000000000e+02 7.680000000000000000e+02 7.690000000000000000e+02 7.700000000000000000e+02 7.710000000000000000e+02 7.720000000000000000e+02 7.730000000000000000e+02 7.740000000000000000e+02 7.750000000000000000e+02 7.760000000000000000e+02 7.770000000000000000e+02 7.780000000000000000e+02 7.790000000000000000e+02 7.800000000000000000e+02 7.810000000000000000e+02 7.820000000000000000e+02 7.830000000000000000e+02 7.840000000000000000e+02 7.850000000000000000e+02 7.860000000000000000e+02 7.870000000000000000e+02 7.880000000000000000e+02 7.890000000000000000e+02 7.900000000000000000e+02 7.910000000000000000e+02 7.920000000000000000e+02 7.930000000000000000e+02 7.940000000000000000e+02 7.950000000000000000e+02 7.960000000000000000e+02 7.970000000000000000e+02 7.980000000000000000e+02 7.990000000000000000e+02 8.000000000000000000e+02 8.010000000000000000e+02 8.020000000000000000e+02 8.030000000000000000e+02 8.040000000000000000e+02 8.050000000000000000e+02 8.060000000000000000e+02 8.070000000000000000e+02 8.080000000000000000e+02 8.090000000000000000e+02 8.100000000000000000e+02 8.110000000000000000e+02 8.120000000000000000e+02 8.130000000000000000e+02 8.140000000000000000e+02 8.150000000000000000e+02 8.160000000000000000e+02 8.170000000000000000e+02 8.180000000000000000e+02 8.190000000000000000e+02 8.200000000000000000e+02 8.210000000000000000e+02 8.220000000000000000e+02 8.230000000000000000e+02 8.240000000000000000e+02 8.250000000000000000e+02 8.260000000000000000e+02 8.270000000000000000e+02 8.280000000000000000e+02 8.290000000000000000e+02 8.300000000000000000e+02 8.310000000000000000e+02 8.320000000000000000e+02 8.330000000000000000e+02 8.340000000000000000e+02 8.350000000000000000e+02 8.360000000000000000e+02 8.370000000000000000e+02 8.380000000000000000e+02 8.390000000000000000e+02 8.400000000000000000e+02 8.410000000000000000e+02 8.420000000000000000e+02 8.430000000000000000e+02 8.440000000000000000e+02 8.450000000000000000e+02 8.460000000000000000e+02 8.470000000000000000e+02 8.480000000000000000e+02 8.490000000000000000e+02 8.500000000000000000e+02 8.510000000000000000e+02 8.520000000000000000e+02 8.530000000000000000e+02 8.540000000000000000e+02 8.550000000000000000e+02 8.560000000000000000e+02 8.570000000000000000e+02 8.580000000000000000e+02 8.590000000000000000e+02 8.600000000000000000e+02 8.610000000000000000e+02 8.620000000000000000e+02 8.630000000000000000e+02 8.640000000000000000e+02 8.650000000000000000e+02 8.660000000000000000e+02 8.670000000000000000e+02 8.680000000000000000e+02 8.690000000000000000e+02 8.700000000000000000e+02 8.710000000000000000e+02 8.720000000000000000e+02 8.730000000000000000e+02 8.740000000000000000e+02 8.750000000000000000e+02 8.760000000000000000e+02 8.770000000000000000e+02 8.780000000000000000e+02 8.790000000000000000e+02 8.800000000000000000e+02 8.810000000000000000e+02 8.820000000000000000e+02 8.830000000000000000e+02 8.840000000000000000e+02 8.850000000000000000e+02 8.860000000000000000e+02 8.870000000000000000e+02 8.880000000000000000e+02 8.890000000000000000e+02 8.900000000000000000e+02 8.910000000000000000e+02 8.920000000000000000e+02 8.930000000000000000e+02 8.940000000000000000e+02 8.950000000000000000e+02 8.960000000000000000e+02 8.970000000000000000e+02 8.980000000000000000e+02 8.990000000000000000e+02 9.000000000000000000e+02 9.010000000000000000e+02 9.020000000000000000e+02 9.030000000000000000e+02 9.040000000000000000e+02 9.050000000000000000e+02 9.060000000000000000e+02 9.070000000000000000e+02 9.080000000000000000e+02 9.090000000000000000e+02 9.100000000000000000e+02 9.110000000000000000e+02 9.120000000000000000e+02 9.130000000000000000e+02 9.140000000000000000e+02 9.150000000000000000e+02 9.160000000000000000e+02 9.170000000000000000e+02 9.180000000000000000e+02 9.190000000000000000e+02 9.200000000000000000e+02 9.210000000000000000e+02 9.220000000000000000e+02 9.230000000000000000e+02 9.240000000000000000e+02 9.250000000000000000e+02 9.260000000000000000e+02 9.270000000000000000e+02 9.280000000000000000e+02 9.290000000000000000e+02 9.300000000000000000e+02 9.310000000000000000e+02 9.320000000000000000e+02 9.330000000000000000e+02 9.340000000000000000e+02 9.350000000000000000e+02 9.360000000000000000e+02 9.370000000000000000e+02 9.380000000000000000e+02 9.390000000000000000e+02 9.400000000000000000e+02 9.410000000000000000e+02 9.420000000000000000e+02 9.430000000000000000e+02 9.440000000000000000e+02 9.450000000000000000e+02 9.460000000000000000e+02 9.470000000000000000e+02 9.480000000000000000e+02 9.490000000000000000e+02 9.500000000000000000e+02 9.510000000000000000e+02 9.520000000000000000e+02 9.530000000000000000e+02 9.540000000000000000e+02 9.550000000000000000e+02 9.560000000000000000e+02 9.570000000000000000e+02 9.580000000000000000e+02 9.590000000000000000e+02 9.600000000000000000e+02 9.610000000000000000e+02 9.620000000000000000e+02 9.630000000000000000e+02 9.640000000000000000e+02 9.650000000000000000e+02 9.660000000000000000e+02 9.670000000000000000e+02 9.680000000000000000e+02 9.690000000000000000e+02 9.700000000000000000e+02 9.710000000000000000e+02 9.720000000000000000e+02 9.730000000000000000e+02 9.740000000000000000e+02 9.750000000000000000e+02 9.760000000000000000e+02 9.770000000000000000e+02 9.780000000000000000e+02 9.790000000000000000e+02 9.800000000000000000e+02 9.810000000000000000e+02 9.820000000000000000e+02 9.830000000000000000e+02 9.840000000000000000e+02 9.850000000000000000e+02 9.860000000000000000e+02 9.870000000000000000e+02 9.880000000000000000e+02 9.890000000000000000e+02 9.900000000000000000e+02 9.910000000000000000e+02 9.920000000000000000e+02 9.930000000000000000e+02 9.940000000000000000e+02 9.950000000000000000e+02 9.960000000000000000e+02 9.970000000000000000e+02 9.980000000000000000e+02 9.990000000000000000e+02 1.000000000000000000e+03
1.000000000000000021e-02 1.000000000000000021e-02 1.000000000000000021e-02 1.000000000000000021e-02 1.000000000000000021e-02 1.000000000000000021e-02 1.000000000000000021e-02 1.000000000000000021e-02 1.000000000000000021e-02 1.000000000000000021e-02 1.000000000000000021e-02 1.000000000000000021e-02 1.000000000000000021e-02 1.000000000000000021e-02 1.000000000000000021e-02 1.000000000000000021e-02 1.000000000000000021e-02 1.000000000000000021e-02 1.000000000000000021e-02 1.000000000000000021e-02 1.000000000000000021e-02 1.000000000000000021e-02 1.000000000000000021e-02 1.000000000000000021e-02 1.000000000000000021e-02 1.000000000000000021e-02 1.000000000000000021e-02 1.000000000000000021e-02 1.000000000000000021e-02 1.000000000000000021e-02 1.000000000000000021e-02 1.000000000000000021e-02 1.000000000000000021e-02 1.000000000000000021e-02 1.000000000000000021e-02 1.000000000000000021e-02 1.000000000000000021e-02 1.000000000000000021e-02 1.000000000000000021e-02 1.000000000000000021e-02 1.000000000000000021e-02 1.000000000000000021e-02 1.000000000000000021e-02 1.000000000000000021e-02 1.000000000000000021e-02 1.000000000000000021e-02 1.000000000000000021e-02 1.000000000000000021e-02 1.000000000000000021e-02 1.000000000000000021e-02 1.000000000000000021e-02 1.000000000000000021e-02 1.000000000000000021e-02 1.000000000000000021e-02 1.000000000000000021e-02 1.000000000000000021e-02 1.000000000000000021e-02 1.000000000000000021e-02 1.000000000000000021e-02 1.000000000000000021e-02 1.000000000000000021e-02 1.000000000000000021e-02 1.000000000000000021e-02 1.000000000000000021e-02 1.000000000000000021e-02 1.000000000000000021e-02 1.000000000000000021e-02 1.000000000000000021e-02 1.000000000000000021e-02 1.000000000000000021e-02 1.000000000000000021e-02 1.000000000000000021e-02 1.000000000000000021e-02 1.000000000000000021e-02 1.000000000000000021e-02 1.000000000000000021e-02 1.000000000000000021e-02 1.000000000000000021e-02 1.000000000000000021e-02 1.000000000000000021e-02 1.000000000000000021e-02 1.000000000000000021e-02 1.000000000000000021e-02 1.000000000000000021e-02 1.000000000000000021e-02 1.000000000000000021e-02 1.000000000000000021e-02 1.000000000000000021e-02 1.000000000000000021e-02 1.000000000000000021e-02 1.000000000000000021e-02 1.000000000000000021e-02 1.000000000000000021e-02 1.000000000000000021e-02 1.000000000000000021e-02 1.000000000000000021e-02 1.000000000000000021e-02 1.000000000000000021e-02 1.000000000000000021e-02 1.000000000000000021e-02 1.000000000000000021e-02 1.000000000000000021e-02 1.000000000000000021e-02 1.000000000000000021e-02 1.000000000000000021e-02 1.000000000000000021e-02 1.000000000000000021e-02 1.000000000000000021e-02 1.000000000000000021e-02 1.000000000000000021e-02 1.000000000000000021e-02 1.000000000000000021e-02 1.000000000000000021e-02 1.000000000000000021e-02 1.000000000000000021e-02 1.000000000000000021e-02 1.000000000000000021e-02 1.000000000000000021e-02 1.000000000000000021e-02 1.000000000000000021e-02 1.000000000000000021e-02 1.000000000000000021e-02 1.000000000000000021e-02 1.000000000000000021e-02 1.000000000000000021e-02 1.000000000000000021e-02 1.000000000000000021e-02 1.000000000000000021e-02 1.000000000000000021e-02 1.000000000000000021e-02 1.000000000000000021e-02 1.000000000000000021e-02 1.000000000000000021e-02 1.000000000000000021e-02 1.000000000000000021e-02 1.000000000000000021e-02 1.000000000000000021e-02 1.000000000000000021e-02 1.000000000000000021e-02 1.000000000000000021e-02 1.000000000000000021e-02 1.000000000000000021e-02 1.000000000000000021e-02 1.000000000000000021e-02 1.000000000000000021e-02 1.000000000000000021e-02 1.000000000000000021e-02 1.000000000000000021e-02 1.000000000000000021e-02 1.000000000000000021e-02 1.000000000000000021e-02 1.000000000000000021e-02 1.000000000000000021e-02 1.000000000000000021e-02 1.000000000000000021e-02 1.000000000000000021e-02 1.000000000000000021e-02 1.000000000000000021e-02 1.000000000000000021e-02 1.000000000000000021e-02 1.000000000000000021e-02 1.000000000000000021e-02 1.000000000000000021e-02 1.000000000000000021e-02 1.000000000000000021e-02 1.000000000000000021e-02 1.000000000000000021e-02 1.000000000000000021e-02 1.000000000000000021e-02 1.000000000000000021e-02 1.000000000000000021e-02 1.000000000000000021e-02 1.000000000000000021e-02 1.000000000000000021e-02 1.000000000000000021e-02 1.000000000000000021e-02 1.000000000000000021e-02 1.000000000000000021e-02 1.000000000000000021e-02 1.000000000000000021e-02 1.000000000000000021e-02 1.000000000000000021e-02 1.000000000000000021e-02 1.000000000000000021e-02 1.000000000000000021e-02 1.000000000000000021e-02 1.000000000000000021e-02 1.000000000000000021e-02 1.000000000000000021e-02 1.000000000000000021e-02 1.000000000000000021e-02 1.000000000000000021e-02 1.000000000000000021e-02 1.000000000000000021e-02 1.000000000000000021e-02 1.000000000000000021e-02 1.000000000000000021e-02 1.000000000000000021e-02 1.000000000000000021e-02 1.000000000000000021e-02 1.000000000000000021e-02 1.000000000000000021e-02 1.000000000000000021e-02 1.000000000000000021e-02 1.000000000000000021e-02 1.000000000000000021e-02 1.000000000000000021e-02 1.000000000000000021e-02 1.000000000000000021e-02 1.000000000000000021e-02 1.000000000000000021e-02 1.000000000000000021e-02 1.000000000000000021e-02 1.000000000000000021e-02 1.000000000000000021e-02 1.000000000000000021e-02 1.000000000000000021e-02 1.000000000000000021e-02 1.000000000000000021e-02 1.000000000000000021e-02 1.000000000000000021e-02 1.000000000000000021e-02 1.000000000000000021e-02 1.000000000000000021e-02 1.000000000000000021e-02 1.000000000000000021e-02 1.000000000000000021e-02 1.000000000000000021e-02 1.000000000000000021e-02 1.000000000000000021e-02 1.000000000000000021e-02 1.000000000000000021e-02 1.000000000000000021e-02 1.000000000000000021e-02 1.000000000000000021e-02 1.000000000000000021e-02 1.000000000000000021e-02 1.000000000000000021e-02 1.000000000000000021e-02 1.000000000000000021e-02 1.000000000000000021e-02 1.000000000000000021e-02 1.000000000000000021e-02 1.000000000000000021e-02 1.000000000000000021e-02 1.000000000000000021e-02 1.000000000000000021e-02 1.000000000000000021e-02 1.000000000000000021e-02 1.000000000000000021e-02 1.000000000000000021e-02 1.000000000000000021e-02 1.000000000000000021e-02 1.000000000000000021e-02 1.000000000000000021e-02 1.000000000000000021e-02 1.000000000000000021e-02 1.000000000000000021e-02 1.000000000000000021e-02 1.000000000000000021e-02 1.000000000000000021e-02 1.000000000000000021e-02 1.000000000000000021e-02 1.000000000000000021e-02 1.000000000000000021e-02 1.000000000000000021e-02 1.000000000000000021e-02 1.000000000000000021e-02 1.000000000000000021e-02 1.000000000000000021e-02 1.000000000000000021e-02 1.000000000000000021e-02 1.000000000000000021e-02 1.000000000000000021e-02 1.000000000000000021e-02 1.000000000000000021e-02 1.000000000000000021e-02 1.000000000000000021e-02 1.000000000000000021e-02 1.000000000000000021e-02 1.000000000000000021e-02 1.000000000000000021e-02 1.000000000000000021e-02 1.000000000000000021e-02 1.000000000000000021e-02 1.000000000000000021e-02 1.000000000000000021e-02 1.000000000000000021e-02 1.000000000000000021e-02 1.000000000000000021e-02 1.000000000000000021e-02 1.000000000000000021e-02 1.000000000000000021e-02 1.000000000000000021e-02 1.000000000000000021e-02 1.000000000000000021e-02 1.000000000000000021e-02 1.000000000000000021e-02 1.000000000000000021e-02 1.000000000000000021e-02 1.000000000000000021e-02 1.000000000000000021e-02 1.000000000000000021e-02 1.000000000000000021e-02 1.000000000000000021e-02 1.000000000000000021e-02 1.000000000000000021e-02 1.000000000000000021e-02 1.000000000000000021e-02 1.000000000000000021e-02 1.000000000000000021e-02 1.000000000000000021e-02 1.000000000000000021e-02 1.000000000000000021e-02 1.000000000000000021e-02 1.000000000000000021e-02 1.000000000000000021e-02 1.000000000000000021e-02 1.000000000000000021e-02 1.000000000000000021e-02 1.000000000000000021e-02 1.000000000000000021e-02 1.000000000000000021e-02 1.000000000000000021e-02 1.000000000000000021e-02 1.000000000000000021e-02 1.000000000000000021e-02 1.000000000000000021e-02 1.000000000000000021e-02 1.000000000000000021e-02 1.000000000000000021e-02 1.000000000000000021e-02 1.000000000000000021e-02 1.000000000000000021e-02 1.000000000000000021e-02 1.000000000000000021e-02 1.000000000000000021e-02 1.000000000000000021e-02 1.000000000000000021e-02 1.000000000000000021e-02 1.000000000000000021e-02 1.000000000000000021e-02 1.000000000000000021e-02 1.000000000000000021e-02 1.000000000000000021e-02 1.000000000000000021e-02 1.000000000000000021e-02 1.000000000000000021e-02 1.000000000000000021e-02 1.000000000000000021e-02 1.000000000000000021e-02 1.000000000000000021e-02 1.000000000000000021e-02 1.000000000000000021e-02 1.000000000000000021e-02 1.000000000000000021e-02 1.000000000000000021e-02 1.000000000000000021e-02 1.000000000000000021e-02 1.000000000000000021e-02 1.000000000000000021e-02 1.000000000000000021e-02 1.000000000000000021e-02 1.000000000000000021e-02 1.000000000000000021e-02 1.000000000000000021e-02 1.000000000000000021e-02 1.000000000000000021e-02 1.000000000000000021e-02 1.000000000000000021e-02 1.000000000000000021e-02 1.000000000000000021e-02 1.000000000000000021e-02 1.000000000000000021e-02 1.000000000000000021e-02 1.000000000000000021e-02 1.000000000000000021e-02 1.000000000000000021e-02 1.000000000000000021e-02 1.000000000000000021e-02 1.000000000000000021e-02 1.000000000000000021e-02 1.000000000000000021e-02 1.000000000000000021e-02 1.000000000000000021e-02 1.000000000000000021e-02 1.000000000000000021e-02 1.000000000000000021e-02 1.000000000000000021e-02 1.000000000000000021e-02 1.000000000000000021e-02 1.000000000000000021e-02 1.000000000000000021e-02 1.000000000000000021e-02 1.000000000000000021e-02 1.000000000000000021e-02 1.000000000000000021e-02 1.000000000000000021e-02 1.000000000000000021e-02 1.000000000000000021e-02 1.000000000000000021e-02 1.000000000000000021e-02 1.000000000000000021e-02 1.000000000000000021e-02 1.000000000000000021e-02 1.000000000000000021e-02 1.000000000000000021e-02 1.000000000000000021e-02 1.000000000000000021e-02 1.000000000000000021e-02 1.000000000000000021e-02 1.000000000000000021e-02 1.000000000000000021e-02 1.000000000000000021e-02 1.000000000000000021e-02 1.000000000000000021e-02 1.000000000000000021e-02 1.000000000000000021e-02 1.000000000000000021e-02 1.000000000000000021e-02 1.000000000000000021e-02 1.000000000000000021e-02 1.000000000000000021e-02 1.000000000000000021e-02 1.000000000000000021e-02 1.000000000000000021e-02 1.000000000000000021e-02 1.000000000000000021e-02 1.000000000000000021e-02 1.000000000000000021e-02 1.000000000000000021e-02 1.000000000000000021e-02 1.000000000000000021e-02 1.000000000000000021e-02 1.000000000000000021e-02 1.000000000000000021e-02 1.000000000000000021e-02 1.000000000000000021e-02 1.000000000000000021e-02 1.000000000000000021e-02 1.000000000000000021e-02 1.000000000000000021e-02 1.000000000000000021e-02 1.000000000000000021e-02 1.000000000000000021e-02 1.000000000000000021e-02 1.000000000000000021e-02 1.000000000000000021e-02 1.000000000000000021e-02 1.000000000000000021e-02 1.000000000000000021e-02 1.000000000000000021e-02 1.000000000000000021e-02 1.000000000000000021e-02 1.000000000000000021e-02 1.000000000000000021e-02 1.000000000000000021e-02 1.000000000000000021e-02 1.000000000000000021e-02 1.000000000000000021e-02 1.000000000000000021e-02 1.000000000000000021e-02 1.000000000000000021e-02 1.000000000000000021e-02 1.000000000000000021e-02 1.000000000000000021e-02 1.000000000000000021e-02 1.000000000000000021e-02 1.000000000000000021e-02 1.000000000000000021e-02 1.000000000000000021e-02 1.000000000000000021e-02 1.000000000000000021e-02 1.000000000000000021e-02 1.000000000000000021e-02 1.000000000000000021e-02 1.000000000000000021e-02 1.000000000000000021e-02 1.000000000000000021e-02 1.000000000000000021e-02 1.000000000000000021e-02 1.000000000000000021e-02 1.000000000000000021e-02 1.000000000000000021e-02 1.000000000000000021e-02 1.000000000000000021e-02 1.000000000000000021e-02 1.000000000000000021e-02 1.000000000000000021e-02 1.000000000000000021e-02 1.000000000000000021e-02 1.000000000000000021e-02 1.000000000000000021e-02 1.000000000000000021e-02 1.000000000000000021e-02 1.000000000000000021e-02 1.000000000000000021e-02 1.000000000000000021e-02 1.000000000000000021e-02 1.000000000000000021e-02 1.000000000000000021e-02 1.000000000000000021e-02 1.000000000000000021e-02 1.000000000000000021e-02 1.000000000000000021e-02 1.000000000000000021e-02 1.000000000000000021e-02 1.000000000000000021e-02 1.000000000000000021e-02 1.000000000000000021e-02 1.000000000000000021e-02 1.000000000000000021e-02 1.000000000000000021e-02 1.000000000000000021e-02 1.000000000000000021e-02 1.000000000000000021e-02 1.000000000000000021e-02 1.000000000000000021e-02 1.000000000000000021e-02 1.000000000000000021e-02 1.000000000000000021e-02 1.000000000000000021e-02 1.000000000000000021e-02 1.000000000000000021e-02 1.000000000000000021e-02 1.000000000000000021e-02 1.000000000000000021e-02 1.000000000000000021e-02 1.000000000000000021e-02 1.000000000000000021e-02 1.000000000000000021e-02 1.000000000000000021e-02 1.000000000000000021e-02 1.000000000000000021e-02 1.000000000000000021e-02 1.000000000000000021e-02 1.000000000000000021e-02 1.000000000000000021e-02 1.000000000000000021e-02 1.000000000000000021e-02 1.000000000000000021e-02 1.000000000000000021e-02 1.000000000000000021e-02 1.000000000000000021e-02 1.000000000000000021e-02 1.000000000000000021e-02 1.000000000000000021e-02 1.000000000000000021e-02 1.000000000000000021e-02 1.000000000000000021e-02 1.000000000000000021e-02 1.000000000000000021e-02 1.000000000000000021e-02 1.000000000000000021e-02 1.000000000000000021e-02 1.000000000000000021e-02 1.000000000000000021e-02 1.000000000000000021e-02 1.000000000000000021e-02 1.000000000000000021e-02 1.000000000000000021e-02 1.000000000000000021e-02 1.000000000000000021e-02 1.000000000000000021e-02 1.000000000000000021e-02 1.000000000000000021e-02 1.000000000000000021e-02 1.000000000000000021e-02 1.000000000000000021e-02 1.000000000000000021e-02 1.000000000000000021e-02 1.000000000000000021e-02 1.000000000000000021e-02 1.000000000000000021e-02 1.000000000000000021e-02 1.000000000000000021e-02 1.000000000000000021e-02 1.000000000000000021e-02 1.000000000000000021e-02 1.000000000000000021e-02 1.000000000000000021e-02 1.000000000000000021e-02 1.000000000000000021e-02 1.000000000000000021e-02 1.000000000000000021e-02 1.000000000000000021e-02 1.000000000000000021e-02 1.000000000000000021e-02 1.000000000000000021e-02 1.000000000000000021e-02 1.000000000000000021e-02 1.000000000000000021e-02 1.000000000000000021e-02 1.000000000000000021e-02 1.000000000000000021e-02 1.000000000000000021e-02 1.000000000000000021e-02 1.000000000000000021e-02 1.000000000000000021e-02 1.000000000000000021e-02 1.000000000000000021e-02 1.000000000000000021e-02 1.000000000000000021e-02 1.000000000000000021e-02 1.000000000000000021e-02 1.000000000000000021e-02 1.000000000000000021e-02 1.000000000000000021e-02 1.000000000000000021e-02 1.000000000000000021e-02 1.000000000000000021e-02 1.000000000000000021e-02 1.000000000000000021e-02 1.000000000000000021e-02 1.000000000000000021e-02 1.000000000000000021e-02 1.000000000000000021e-02 1.000000000000000021e-02 1.000000000000000021e-02 1.000000000000000021e-02 1.000000000000000021e-02 1.000000000000000021e-02 1.000000000000000021e-02 1.000000000000000021e-02 1.000000000000000021e-02 1.000000000000000021e-02 1.000000000000000021e-02 1.000000000000000021e-02 1.000000000000000021e-02 1.000000000000000021e-02 1.000000000000000021e-02 1.000000000000000021e-02 1.000000000000000021e-02 1.000000000000000021e-02 1.000000000000000021e-02 1.000000000000000021e-02 1.000000000000000021e-02 1.000000000000000021e-02 1.000000000000000021e-02 1.000000000000000021e-02 1.000000000000000021e-02 1.000000000000000021e-02 1.000000000000000021e-02 1.000000000000000021e-02 1.000000000000000021e-02 1.000000000000000021e-02 1.000000000000000021e-02 1.000000000000000021e-02 1.000000000000000021e-02 1.000000000000000021e-02 1.000000000000000021e-02 1.000000000000000021e-02 1.000000000000000021e-02 1.000000000000000021e-02 1.000000000000000021e-02 1.000000000000000021e-02 1.000000000000000021e-02 1.000000000000000021e-02 1.000000000000000021e-02 1.000000000000000021e-02 1.000000000000000021e-02 1.000000000000000021e-02 1.000000000000000021e-02 1.000000000000000021e-02 1.000000000000000021e-02 1.000000000000000021e-02 1.000000000000000021e-02 1.000000000000000021e-02 1.000000000000000021e-02 1.000000000000000021e-02 1.000000000000000021e-02 1.000000000000000021e-02 1.000000000000000021e-02 1.000000000000000021e-02 1.000000000000000021e-02 1.000000000000000021e-02 1.000000000000000021e-02 1.000000000000000021e-02 1.000000000000000021e-02 1.000000000000000021e-02 1.000000000000000021e-02 1.000000000000000021e-02 1.000000000000000021e-02 1.000000000000000021e-02 1.000000000000000021e-02 1.000000000000000021e-02 1.000000000000000021e-02 1.000000000000000021e-02 1.000000000000000021e-02 1.000000000000000021e-02 1.000000000000000021e-02 1.000000000000000021e-02 1.000000000000000021e-02 1.000000000000000021e-02 1.000000000000000021e-02 1.000000000000000021e-02 1.000000000000000021e-02 1.000000000000000021e-02 1.000000000000000021e-02 1.000000000000000021e-02 1.000000000000000021e-02 1.000000000000000021e-02 1.000000000000000021e-02 1.000000000000000021e-02 1.000000000000000021e-02 1.000000000000000021e-02 1.000000000000000021e-02 1.000000000000000021e-02 1.000000000000000021e-02 1.000000000000000021e-02 1.000000000000000021e-02 1.000000000000000021e-02 1.000000000000000021e-02 1.000000000000000021e-02 1.000000000000000021e-02 1.000000000000000021e-02 1.000000000000000021e-02 1.000000000000000021e-02 1.000000000000000021e-02 1.000000000000000021e-02 1.000000000000000021e-02 1.000000000000000021e-02 1.000000000000000021e-02 1.000000000000000021e-02 1.000000000000000021e-02 1.000000000000000021e-02 1.000000000000000021e-02 1.000000000000000021e-02 1.000000000000000021e-02 1.000000000000000021e-02 1.000000000000000021e-02 1.000000000000000021e-02 1.000000000000000021e-02 1.000000000000000021e-02 1.000000000000000021e-02 1.000000000000000021e-02 1.000000000000000021e-02 1.000000000000000021e-02 1.000000000000000021e-02 1.000000000000000021e-02 1.000000000000000021e-02 1.000000000000000021e-02 1.000000000000000021e-02 1.000000000000000021e-02 1.000000000000000021e-02 1.000000000000000021e-02 1.000000000000000021e-02 1.000000000000000021e-02 1.000000000000000021e-02 1.000000000000000021e-02 1.000000000000000021e-02 1.000000000000000021e-02 1.000000000000000021e-02 1.000000000000000021e-02 1.000000000000000021e-02 1.000000000000000021e-02 1.000000000000000021e-02 1.000000000000000021e-02 1.000000000000000021e-02 1.000000000000000021e-02 1.000000000000000021e-02 1.000000000000000021e-02 1.000000000000000021e-02 1.000000000000000021e-02 1.000000000000000021e-02 1.000000000000000021e-02 1.000000000000000021e-02 1.000000000000000021e-02 1.000000000000000021e-02 1.000000000000000021e-02 1.000000000000000021e-02 1.000000000000000021e-02 1.000000000000000021e-02 1.000000000000000021e-02 1.000000000000000021e-02 1.000000000000000021e-02 1.000000000000000021e-02 1.000000000000000021e-02 1.000000000000000021e-02 1.000000000000000021e-02 1.000000000000000021e-02 1.000000000000000021e-02 1.000000000000000021e-02 1.000000000000000021e-02 1.000000000000000021e-02 1.000000000000000021e-02 1.000000000000000021e-02 1.000000000000000021e-02 1.000000000000000021e-02 1.000000000000000021e-02 1.000000000000000021e-02 1.000000000000000021e-02 1.000000000000000021e-02 1.000000000000000021e-02 1.000000000000000021e-02 1.000000000000000021e-02 1.000000000000000021e-02 1.000000000000000021e-02 1.000000000000000021e-02 1.000000000000000021e-02 1.000000000000000021e-02 1.000000000000000021e-02 1.000000000000000021e-02 1.000000000000000021e-02 1.000000000000000021e-02 1.000000000000000021e-02 1.000000000000000021e-02 1.000000000000000021e-02 1.000000000000000021e-02 1.000000000000000021e-02 1.000000000000000021e-02 1.000000000000000021e-02 1.000000000000000021e-02 1.000000000000000021e-02 1.000000000000000021e-02 1.000000000000000021e-02 1.000000000000000021e-02 1.000000000000000021e-02 1.000000000000000021e-02 1.000000000000000021e-02 1.000000000000000021e-02 1.000000000000000021e-02 1.000000000000000021e-02 1.000000000000000021e-02 1.000000000000000021e-02 1.000000000000000021e-02 1.000000000000000021e-02 1.000000000000000021e-02 1.000000000000000021e-02 1.000000000000000021e-02 1.000000000000000021e-02 1.000000000000000021e-02 1.000000000000000021e-02 1.000000000000000021e-02 1.000000000000000021e-02 1.000000000000000021e-02 1.000000000000000021e-02 1.000000000000000021e-02 1.000000000000000021e-02 1.000000000000000021e-02 1.000000000000000021e-02 1.000000000000000021e-02 1.000000000000000021e-02 1.000000000000000021e-02 1.000000000000000021e-02 1.000000000000000021e-02 1.000000000000000021e-02 1.000000000000000021e-02 1.000000000000000021e-02 1.000000000000000021e-02 1.000000000000000021e-02 1.000000000000000021e-02 1.000000000000000021e-02 1.000000000000000021e-02 1.000000000000000021e-02 1.000000000000000021e-02 1.000000000000000021e-02 1.000000000000000021e-02 1.000000000000000021e-02 1.000000000000000021e-02 1.000000000000000021e-02 1.000000000000000021e-02 1.000000000000000021e-02 1.000000000000000021e-02 1.000000000000000021e-02 1.000000000000000021e-02 1.000000000000000021e-02 1.000000000000000021e-02 1.000000000000000021e-02 1.000000000000000021e-02 1.000000000000000021e-02 1.000000000000000021e-02 1.000000000000000021e-02 1.000000000000000021e-02 1.000000000000000021e-02 1.000000000000000021e-02 1.000000000000000021e-02 1.000000000000000021e-02 1.000000000000000021e-02 1.000000000000000021e-02 1.000000000000000021e-02 1.000000000000000021e-02 1.000000000000000021e-02 1.000000000000000021e-02 1.000000000000000021e-02 1.000000000000000021e-02 1.000000000000000021e-02 1.000000000000000021e-02 1.000000000000000021e-02 1.000000000000000021e-02 1.000000000000000021e-02 1.000000000000000021e-02 1.000000000000000021e-02 1.000000000000000021e-02 1.000000000000000021e-02 1.000000000000000021e-02 1.000000000000000021e-02 1.000000000000000021e-02 1.000000000000000021e-02 1.000000000000000021e-02 1.000000000000000021e-02 1.000000000000000021e-02 1.000000000000000021e-02 1.000000000000000021e-02 1.000000000000000021e-02 1.000000000000000021e-02 1.000000000000000021e-02 1.000000000000000021e-02 1.000000000000000021e-02 1.000000000000000021e-02 1.000000000000000021e-02 1.000000000000000021e-02 1.000000000000000021e-02 1.000000000000000021e-02 1.000000000000000021e-02 1.000000000000000021e-02 1.000000000000000021e-02 1.000000000000000021e-02 1.000000000000000021e-02 1.000000000000000021e-02 1.000000000000000021e-02 1.000000000000000021e-02 1.000000000000000021e-02 1.000000000000000021e-02 1.000000000000000021e-02 1.000000000000000021e-02 1.000000000000000021e-02 1.000000000000000021e-02 1.000000000000000021e-02 1.000000000000000021e-02 1.000000000000000021e-02 1.000000000000000021e-02 1.000000000000000021e-02 1.000000000000000021e-02 1.000000000000000021e-02 1.000000000000000021e-02 1.000000000000000021e-02 1.000000000000000021e-02 1.000000000000000021e-02 1.000000000000000021e-02 1.000000000000000021e-02 1.000000000000000021e-02 1.000000000000000021e-02 1.000000000000000021e-02 1.000000000000000021e-02 1.000000000000000021e-02 1.000000000000000021e-02 1.000000000000000021e-02 1.000000000000000021e-02 1.000000000000000021e-02 1.000000000000000021e-02 1.000000000000000021e-02 1.000000000000000021e-02 1.000000000000000021e-02 1.000000000000000021e-02 1.000000000000000021e-02 1.000000000000000021e-02 1.000000000000000021e-02 1.000000000000000021e-02 1.000000000000000021e-02 1.000000000000000021e-02 1.000000000000000021e-02 1.000000000000000021e-02 1.000000000000000021e-02 1.000000000000000021e-02 1.000000000000000021e-02 1.000000000000000021e-02 1.000000000000000021e-02 1.000000000000000021e-02 1.000000000000000021e-02 1.000000000000000021e-02 1.000000000000000021e-02 1.000000000000000021e-02 1.000000000000000021e-02 1.000000000000000021e-02 1.000000000000000021e-02 1.000000000000000021e-02 1.000000000000000021e-02 1.000000000000000021e-02 1.000000000000000021e-02 1.000000000000000021e-02 1.000000000000000021e-02 1.000000000000000021e-02 1.000000000000000021e-02 1.000000000000000021e-02 1.000000000000000021e-02 1.000000000000000021e-02 1.000000000000000021e-02 1.000000000000000021e-02 1.000000000000000021e-02 1.000000000000000021e-02 1.000000000000000021e-02 1.000000000000000021e-02 1.000000000000000021e-02 1.000000000000000021e-02 1.000000000000000021e-02 1.000000000000000021e-02 1.000000000000000021e-02 1.000000000000000021e-02 1.000000000000000021e-02
-1.052150176687328980e+02 1.601295614101750004e+02 3.704727086797095126e+01 -8.315253049675771280e+00 -8.290008501269969088e+01 -1.262902879870872930e+01 -1.962425579963035602e+02 6.831035638662962262e-01 -7.989118481087774626e+01 -1.343424980012233583e+01 -1.874327317116059888e+01 6.203467438347033180e+00 -1.683290471725925608e+00 1.583209718279359777e+02 7.986205417798908002e+01 -3.666077636248506622e+01 -4.990210529521562677e+01 7.475007707001144297e+01 3.098856452013976082e+01 -2.396459765566719469e+01 -7.437533207526618639e+01 -6.960700389454198955e+01 -1.300267822731503919e+01 2.730258811862588786e+01 -1.839151810093131019e+02 -9.313025173849334237e+01 -2.462932319923470814e+01 1.902324525025011610e+02 6.677409513927835860e+01 7.246431263015037416e+01 7.578636001288647606e+01 1.109962635401885223e+00 -7.492497222479185837e+01 1.958720021796477795e+02 -2.311593570651546656e+02 5.561246994443356328e+01 -1.132901841644435876e+02 -3.274868819864315839e+01 3.815277638417264416e+00 1.195893229135160993e+02 -1.159558411908058702e+02 -1.283334389355409577e+01 7.295828435449455185e+01 1.638633245971309407e+02 6.729326189631339616e+01 -6.449035181231798219e+01 3.881422957318937961e+01 -2.681616245118601682e+01 -6.234696100575994393e+01 1.477684989949546832e+02 -6.646965595888875100e+01 -4.914106482331087733e+01 -1.315990641370543699e+02 5.545854962225947205e+00 -4.765982077561837116e+01 3.651638450088043442e+01 -8.375016123164316184e+01 -4.722462962366301298e+01 -9.571323775717191040e+01 -1.467390562712088240e+02 1.829629644946005840e+01 4.289328994262896799e+01 -1.162279629395636249e+02 1.212114941484097486e+01 -7.478230416403560810e+01 4.637246647148791112e+01 1.573702096821482712e+02 -1.361993189666747526e+02 -4.084822660078660306e+01 6.837316016289399556e+00 2.783912453820595712e+00 4.002416073590144663e+01 7.927152733944242868e+01 6.945281183000899805e-01 -8.368957137801805501e+00 -6.606578474693607461e+01 7.384451178137699401e+01 -3.084640193224223381e+01 2.484673989599234645e+01 9.820610689006606719e+01 8.322606612554494632e+01 -4.038884092436661888e+01 5.448135514623975695e+01 1.391570486659073538e+02 1.097134597858960916e+02 -3.747958204959376260e+00 1.644000390930595188e+02 -1.052906333306998903e+02 3.907826931779842194e+00 -3.958951774640538446e+01 1.952069000604121811e+02 -2.003451828367215271e+01 2.753553410064402129e+00 -7.248124811497834230e+01 -6.762196508960125030e+00 -6.021364354536190433e+01 6.400250240536888668e+01 -8.927160843990525052e+01 6.483994845835820797e+01 -4.511382995356090220e+01 -4.694292697399310299e+01 -8.653904168346997494e+01 5.006012220903486565e+01 -5.158583584247406861e+01 -1.409540641299745403e+02 -7.498085792748445044e+01 -9.873067588171070952e+01 -1.484102575324504585e+02 1.282903642588973696e+02 -2.586770982847626144e+01 3.026117435660205501e+01 8.463899367155650566e+01 -9.817701040498727139e+01 5.373445535200031742e+01 -4.088241831129982273e+01 -6.557797636131465424e+01 -8.512522880293013827e+01 1.917566775439170783e+02 -5.355130180621942060e+01 -4.677004799251634637e+01 -4.448445146817704199e+01 7.588012094652034989e+01 -3.911332179299174783e+01 1.302000317878410840e+02 -4.717671634409713022e+01 5.208115633231198416e+01 4.289480725140585093e+00 -7.648933508422929606e+01 6.489305088304276126e+01 2.618715774291666776e+02 -8.694847923331163031e+01 4.479242518179763266e+01 -7.204327207523640197e+01 4.272143342224595131e+01 1.238839120314024171e+02 -4.859795550139277509e+01 1.382630686751237370e+01 -2.546376252660043704e+01 -9.629481728920275430e+01 -1.643608994848892735e+01 4.095298664475531147e+00 -7.364502194403064195e+00 -1.409598074971191650e+01 1.115902251985520195e+02 1.231910995766354660e+02 1.761572889021648791e+02 -2.875492831151001383e+02 3.607702071428913371e+01 -1.492280980361576859e+01 -5.888433274201662471e+01 1.704065482822450122e+02 7.189290481076119477e+01 -2.505683166910359638e+00 -1.095292759877651179e+02 -1.025660949259944843e+01 9.459601279368914106e+01 -1.269489423662321030e+02 -1.593320523819028267e+02 1.015008499029596756e+01 4.007540517591134233e+01 -5.770976288984635971e+01 3.974379862411235820e+01 -1.012130958808583472e+02 -1.430150880616453151e+02 1.991400040615224398e+01 4.592400749558880335e+01 4.579105797651179088e+00 -7.885212882246266020e+01 -8.848708458576905400e+01 -7.966315976701059753e+01 -8.281116242056980070e+01 1.200668428322595993e+01 5.373224776907257905e+01 1.102461798889284665e+02 7.513092102111735926e+01 8.472928823829562361e+01 1.017702634769290313e+02 -7.077606816927728062e+01 -7.809528062023200334e+01 6.677482032218836139e+01 6.498822405997788110e+01 5.609645528649713953e+01 -8.877964890715858814e+00 -8.628431728107135257e+01 5.117861199748686118e+01 -1.698307502134233289e+02 6.371239669513474269e+01 -4.217976481828943491e+01 -9.143087829269462929e+01 7.039824946890554713e+01 -1.631020439721103088e+01 -7.313456900982941988e+01 -5.448759994064131007e+01 -8.727880813844391739e+00 2.304828972819826731e+02 7.313710227551555931e+01 5.210840267010348725e+01 -9.865471496079780422e+01 1.409303334095985747e+02 1.038575820460664323e+00 -8.589069503905962222e+01 1.482114256432478214e+02 -1.465933276253568351e+02 1.501324364551267720e+01 -3.091239281600810784e+01 -2.114433878223432828e+02 -1.282163428838074424e+02 -8.388029785523474402e+01 -2.833772224759919922e+01 -1.146290248022680345e+02 5.542088663593213482e+01 6.253241522717764411e+01 -2.657577284584511190e+01 -9.602029848387149968e+01 1.087785336894412183e+02 1.136267362103680227e+02 4.444586405006111818e+01 1.687349570786936326e+01 2.515711484644197355e+02 4.198960381089121086e+01 -1.150802062529001262e+02 -4.341784860110258393e+01 -1.624766870484479284e+02 3.068442479847198001e+01 1.475361449221722694e+02 -1.426969286244031139e+02 1.268401994821864207e+02 -8.759315664674723223e+01 -1.826008700532761964e+01 -8.193356859763224476e-01 5.094739842374865191e+01 -1.112573913662560976e+01 -2.201239307799108857e+01 -1.806101279063491205e+01 -1.221948033773868190e+02 4.468010186371474646e+01 -2.921221634314078131e+01 -1.240926102313384582e+01 -1.033915533704912271e+01 2.177772575630981748e+02 1.679881579255385589e+02 2.242104918160044349e+02 1.270335225147200049e+02 -8.344762517399395563e+01 7.241157986184073536e+01 2.040877560698289628e+01 4.575831560139964438e+01 -3.819256598828071247e+01 2.461941375250408441e+02 -2.249641510896514518e+01 -1.318259091311909401e+02 -1.439192362811192361e+01 -4.420990799700559393e+01 -7.458265828079156279e+01 4.160184549651977193e+01 -1.129110217707980368e+01 1.753953578230989763e+02 8.897744379452814201e+01 3.940464785422886251e+01 9.444501354192365739e+01 9.133033442342666319e+01 -2.216265934428633599e+01 1.346469615187704107e+02 2.561859479309138266e+01 8.644756271741157150e+01 4.601932849617988097e+01 6.669903554740905349e+00 -1.116270172059613941e+02 -1.117878517993739536e+02 -8.687149927190870358e+01 -1.500486505846858165e+01 8.364124318796639557e+01 -2.951632494794290906e+01 9.538319120358706016e+01 4.228990896659529142e+01 -7.015244743827322793e+01 -2.886729597502671041e+01 -5.650583724253741735e+01 1.695344939481675084e+01 -4.462840119155725915e+01 -1.080836334223198349e+02 1.171940651785199776e+02 1.170707006637378811e+02 -7.621053087270554727e+01 5.168677447442281192e+00 -4.374271763332399132e+01 -3.137477136994528593e+01 -1.094007195857073356e+01 -3.015743518861293992e+01 4.296032558083381758e+01 -1.356470716819113420e+02 -5.100767909217033491e+01 -1.464388627330047257e+02 1.679127520934688675e+02 -1.942377857688824250e+01 5.676640217665569565e+01 1.146176805990752001e+01 1.391777726134712054e+02 4.296166719967128955e+01 3.437780040401734993e+01 1.487960715849740438e+02 -4.746526644788260541e+01 -9.410021516042972678e+01 2.626171634648237330e+01 -1.522203119659244237e+02 -5.145458518045101926e+01 9.859327846820889363e+01 -1.227487263872139778e+02 -3.500643134604300855e+01 8.789137236753049365e+01 -9.089229591453822366e+01 -8.609020551828649559e+01 -7.953250379523049673e+01 -6.136003042206606750e+01 2.398052432096658038e+02 1.907695753268959322e+02 9.907350635810254857e+01 -9.834017324064410559e+01 7.198962053352316559e+01 -6.375783657309653307e+01 -3.034486931895260042e+01 1.599746801554044318e+01 -3.109810893128684484e+01 -9.013074795648763882e+01 -2.756259147964253753e+00 1.415265090577014462e+01 1.046365419332470026e+02 -1.235323948160326211e+02 4.040205731598305761e+01 6.129968386344833675e+01 3.313215819158503450e+01 -8.707328813641085219e+01 -1.427260311342541286e+02 1.854873654400779799e+02 -1.708731278606665782e+01 2.418488881665691892e+01 1.503973270216916092e+02 2.559026927101330173e+01 2.660660820511562008e+01 -4.277062732633974917e+01 8.505280821154113369e+01 -1.308055593143404565e+02 -2.953686412260062966e+01 -5.890978306585176405e+00 -5.119537135231323077e+01 6.122668690026187299e+00 2.034535751219223343e+01 -3.431987601923457021e+01 1.310399960314369672e+01 2.049251480689596008e+02 -2.628264123629057991e+01 -2.687702097822399949e+01 -9.745045905483542015e+01 -1.554890195129550623e+00 -7.737168455467343620e+01 6.087829488770805320e+00 1.074353162998171740e+02 -4.984247253704361924e+01 5.782975493299432834e+00 -5.202063643952421756e+01 3.160936876745854107e+00 8.352596498572964379e+01 -1.109831079052960519e+02 -9.279870220188605856e+01 -9.829696408203464841e+01 6.831692960964716121e+01 8.291219032388050891e+01 -8.829732041856703972e+01 6.003651518949222776e+01 2.476754601271983702e+01 3.705706092753848679e+01 -1.698347421781230793e+01 8.751967188268172038e+01 7.630401347158522185e+01 -7.396418470241512466e+01 1.125506409045060430e+01 7.743039092764333020e+01 6.973957287697761842e+01 -1.908730940039268020e+01 2.388758641624461632e+01 -1.269811818557682273e+02 4.650074425341163220e+01 -3.140113962967755512e+01 -3.132606940274008878e+01 1.658337723931918504e+02 4.538814467786821893e+01 1.150802982377749686e+02 1.828862600870809558e+02 -1.318137990003121160e+02 1.427896979958988766e+02 -6.080331295732725039e+01 -1.294189858399698778e+02 7.881242656244970135e+01 -1.283314549189156821e+02 -2.750332816623447485e+01 5.398483111059536554e+01 7.676514124378123860e+00 -1.610834870056465888e+02 8.072340885534175925e+01 2.418374025251485548e+01 6.614300219026696936e+01 3.478849075852867401e+01 9.056394035420689548e+00 -6.425874095131960928e+01 1.107620854292949417e+02 5.218310654130041826e+01 -5.946802151430067340e+01 -9.694197654394938013e+01 3.722527702124690308e+01 2.467867259924268097e+01 7.891699751451595546e+01 1.760314034540978696e+02 -2.355229416089118999e+01 -1.054875598760947923e+02 -8.103226480658381092e+01 -4.912900489472396970e+01 -4.239873146739429188e+01 -1.404594831436413642e+02 -2.158674789698316587e+01 1.240380380771957078e+02 7.133978879031877796e+01 -1.171505182871946147e+02 -1.436061178608808291e+02 -6.515852607129248497e+01 -7.301609042888856038e+01 1.406142929169800198e+02 -1.632117300275237142e+02 8.290852722969880517e+01 -4.409479328198735004e+00 -4.121660071592489061e+01 1.270618082836958607e+01 8.722622529262018531e+01 4.740420312293662164e+01 1.323046182795075936e+02 -1.523558491243965420e+02 -7.751136577981620235e+01 2.432125663076354272e+01 4.012994262766337528e+01 1.972797292493141583e+02 1.392643409485276891e+02 6.277075736811446660e+01 6.902108077791616836e+01 -3.249944764977501421e+01 1.452798426543049288e+02 -1.717433724580759247e+02 -6.073807426013268440e+01 -5.137949855997278803e+01 -4.957505753709104113e+01 -9.881200994006404414e+01 -1.436548298005979163e+01 -6.568217741754595806e+01 6.809604228356515421e+01 -8.735915449566910240e+00 -5.553315113923049040e+01 -5.949990508891605145e+01 1.724582021745363534e+02 5.654756946326516243e+01 -1.317420254339526942e+01 1.999407791118758837e+02 -1.037301426941474318e+02 -3.380141111179622015e+01 6.409705360385507333e+01 -1.373178952801967223e-01 1.436212923573202893e+01 -1.197986485056559900e+02 1.686272984651648699e+02 -4.680905318591770481e+01 -2.570657825646001982e+01 -1.049539006413672269e+02 1.204032378967186077e+02 9.165310382966475800e+01 -7.412750986359787930e+01 -3.603604330038511705e+01 3.728744819522842846e+01 -1.447636863035956480e+02 -2.190431270013235288e-01 -7.143755126472349559e+01 7.332033970029003811e+00 -1.033330456496987324e+02 -1.515692921631212755e+02 -6.758619045585537322e+01 1.416718506341593695e+02 5.402147686774408442e+01 -8.569788945215412923e+01 8.519123988536576064e+01 3.266876287464202022e+01 8.446449266333537764e+01 -4.024978071935753832e+01 -8.030685376874099290e+01 1.634186515376131297e+02 3.974905664289792639e+01 2.764133651770169209e+01 -6.969257558327549873e+01 -4.041391890326681846e+01 9.057639437087292578e+00 -6.860968071098558774e+00 -1.650482707650442649e+02 -3.306850806169365597e+01 6.147842474127603651e+01 1.064918746843661523e+02 1.486797050405695586e+02 -1.269482862095722453e+01 8.553562608604629247e+01 1.505494517793185025e+02 6.048927197319370919e+01 1.408296695485984458e+02 1.532812478662035005e+01 1.252478401774939982e+02 -8.005313478574926478e+01 5.083162611046947887e+01 2.790937814129551953e+01 7.228428381534178015e+01 -1.012148223631284907e+02 1.887316441119728836e+02 -1.225277130972779105e+02 8.413691959137561582e+01 -1.021963482774221035e+02 4.397227852500823531e+01 1.315038010890102171e+01 8.628934146805227101e+01 -7.005249905318770232e+01 -7.182895149186252581e+01 -1.057060336987935401e+01 8.472100530665808549e+01 -2.814008811906017371e+01 -1.548263486416483126e+01 -1.865692422795128280e+01 4.498325729594020217e+00 9.320650467588171750e+01 -5.937170901425812986e+01 -2.560100265697125010e+00 -1.838934877944153357e+02 1.157122478244802011e+02 -1.183264357500859774e+02 -6.997417919560308519e+01 -2.227080511379933725e+01 -1.022841691789994201e+02 -5.033882515007561409e+01 -5.551644363254045800e+01 -1.867235403243238778e+01 1.290178441225848189e+02 5.120755811412566061e+01 9.509546905995389920e+01 -1.289073006289117700e+02 -1.312363745804647408e+02 -2.716095653381501620e+02 9.681651005380997788e+01 9.868458308651817390e+01 4.011464249580619423e+01 -4.026219791153721417e+01 -3.517108143481429039e+01 -1.739907449925773051e+02 1.383311082261880642e+02 -1.017198792729868302e+02 1.013093699957802585e+02 -1.507492189874074597e+02 -1.357159694388523796e+01 -5.245141499270469154e+01 -1.129706659225851979e+02 -4.367674324888537285e+01 -1.191592819227246025e+01 -8.780128435622685856e+01 -9.798032130784061167e+01 -1.171417611101717249e+01 6.741816076037970618e+01 -1.180250198463028823e+02 -1.481024872052432606e+01 -6.985743101387987508e+01 -1.244827937756496254e+02 6.201294603844710096e+00 9.004195889574548062e+01 1.568626738113987642e+02 -1.804550706807924598e+01 -4.362596606792246234e+01 -1.176976246567896851e+02 -1.551237169010780406e+02 9.841538965591739441e+01 -6.894218855320544037e+01 7.485852243933790362e+01 8.905456046086879240e+00 2.767230364339880566e+01 7.000726874940556854e+01 -8.040164856818265093e+01 7.842678164220524195e+01 1.093414189788601476e+02 1.494403704543936158e+02 -1.104808606930694452e+02 9.862493000888652261e+01 -4.534775958353111491e+01 -8.614402976039124837e+01 2.036184341449243220e+02 4.665776157026373028e+01 7.919253008952038897e+01 2.007825864663465865e+01 -6.009192015528405761e+01 -3.314189443214453235e+01 -1.996178688228964120e+02 1.002349176109280080e+02 7.729316343273144696e+01 -7.181520234894030352e+01 -6.933918770883725813e+01 1.377411234761266883e+02 9.588482327582413234e+01 4.850564220161994200e+01 7.215275718337457533e+01 -7.415685808180940697e+00 9.789557697955420679e+01 -9.830588332074734126e+01 1.767612152035378301e+02 -3.745975299791373914e+01 -1.157671227609482116e+02 -3.580404467872946128e+01 6.806021423999185060e+01 1.397689811879297963e+02 1.214739900747954238e+01 1.649120990682204138e+02 4.949556336620605634e+01 3.192558531044591419e+01 -1.055882691656925800e+02 4.246320763773044149e+01 -1.185465874643064836e+02 4.528722290785536586e+01 3.655980527651608725e+01 -1.170773707046781880e+02 -8.068155751489317140e+01 3.783231620779785231e+01 8.277055690667818766e+00 -2.200043603655624125e+01 3.975830296009879561e+01 -2.030819388524917812e+01 -5.985154107395907630e+01 -2.494548917826848822e+01 -2.124530214879164447e+01 -3.777014770091946616e+01 1.779120926824889892e+01 -7.642549460306570097e+01 1.128320622868868099e+02 -7.043052902239239188e+01 -3.940606634905626127e+00 6.231752437181916804e+01 3.660348258408620659e+00 1.515963349642660773e+01 1.516012224448990686e+01 -1.110851167799317381e+02 -4.173078100892672282e+00 6.169861752758934159e+01 -2.195294957231264164e+02 -8.055164989502154071e+01 -1.068785557933380943e+02 4.155422191741022431e+01 9.125848401765178153e+01 -8.705889987812882680e+01 -1.592419883700295316e+02 -1.756897156519688963e+02 1.891551699828196220e+01 -1.374283713332764592e+02 -6.006867017216231730e+00 1.399354624448574782e+02 -6.680037379968106315e+00 3.516510456284418495e+01 -9.360350043043652590e+01 7.558675355184614375e+01 -1.121374792061529462e+02 -1.461420029970588175e+01 -2.860797262609550984e+01 5.445495721193132255e+01 -8.325456297025276342e+00 9.982688427026685929e+01 -1.153340405364336902e+02 -4.729791476312714593e+01 8.188527522795361335e+01 6.243852300014805934e+01 -7.765194382149923058e+01 -5.135241847583852604e+01 -4.660035058970036204e+01 -2.729328013319275215e+02 1.824684949065123192e+02 7.167185555320756407e+01 -2.218881497054608332e+01 -2.796056724103023328e+01 3.911851207499964289e+01 -7.916004918119497802e+01 9.365406862183523629e+01 5.695691334935499128e+01 7.703201488311960077e+01 -7.911779243980548415e+01 -2.488346707826866577e+01 3.131084207591113966e+01 1.634491866098510826e+01 -4.031747311823095714e+01 1.485757850843198469e+02 -1.623841781720442512e+01 3.331220908813049419e+01 -2.161278517295645258e+02 -7.955450783501086676e+01 -6.872677717499914252e+01 2.164889426825286378e+01 1.025973182879958330e+02 -2.178513313661174493e+02 -1.757767844146795539e+02 2.082368781901013222e+02 -9.923990269026578659e+00 9.022436198864359369e+01 5.881088614237915380e+01 -5.197838608028799712e+01 -1.230821671332605405e+02 -8.940930289065123304e+01 -4.720217275722844619e+01 -3.513190418145184424e+01 -3.679855990496279361e+01 1.513302546447433627e+01 3.500215023173254281e+01 1.568150519334638204e+02 1.158388780726578489e+02 6.606896961339718821e+00 -4.157837358989848298e+00 -1.491192042872099250e+02 1.124245319645632435e+02 1.496551661879186099e+02 -9.724098646463490070e+01 6.925998667048345681e+01 1.550045001453874027e+00 5.164888279382393677e+01 1.177648899095237311e+02 6.665767166045942815e+01 -1.259762901356741338e+02 1.512469053558370291e+01 -2.761697840831430639e+01 1.047706026012824587e+01 -2.166744783130259577e+01 4.259328615063362378e+01 -2.450560582091581239e+02 1.702763105354108575e+02 6.797193491307695901e+00 1.498697366686660928e+02 -9.867870014811359169e+00 9.981258239378740882e+01 6.736893211683707250e+01 -3.945688423313924886e+01 2.820777597263274927e+01 -6.855979185392807551e+01 -8.378664062535587220e+01 -6.779338057290564734e+01 -3.018503180494621319e+01 4.251401806955306029e+01 1.037118678757147165e+02 2.678641141066236031e+01 5.859793119197762934e+01 -9.875770146836904928e+01 -1.291911951875526086e+02 -1.270294085353662616e+01 4.368345417234690586e+01 -4.277280961750120269e+01 8.918246874748072628e+01 5.237257287250267268e+01 -2.604272298543341435e+01 2.821808238260405588e+01 5.789175586918307914e+01 -6.794949466955928585e+01 -1.260673658581361849e+02 1.339215403685641377e+02 7.364384760845739564e+00 4.728121620812223114e+01 -1.408633775041985530e+02 -5.039362244183119088e+01 -3.932492475741964921e-01 -6.215883637574706455e+01 4.013710696568542957e+00 5.316214772649653497e+01 1.760606156654679921e+02 3.696041552188745527e+01 -1.034570955984496443e+01 6.828872268950229341e+01 -4.294441786014815676e+01 -1.029686940294238866e+02 -1.305702203683399318e+02 8.841302678413480720e+00 2.373676527629993771e+01 2.255857181888513807e+01 -5.379038587119675441e+01 1.142456177789904643e+02 -7.643854902203624135e+01 1.213871381353160643e+02 8.258008306421625377e+01 -6.154015261432621031e+01 -8.026335140051600092e+01 7.972409340302860414e+01 1.929458132752609600e+01 -4.975187694618296774e+01 -5.097126941123270427e+01 1.295631524615289436e+02 5.433114313738416001e+01 7.574329318289376545e+01 2.477516378933081853e+01 -3.982243014832859984e+01 1.017706471127359720e+02 -5.173110283061895132e+01 5.593455616577256428e-01 7.254524722792430680e+01 9.445432603376484337e+01 2.423925026092557857e+02 -1.662271202393162071e+02 1.526517044751911669e+02 -6.405898798772300040e+01 -1.446141299480319731e+01 -2.388746140178971444e+01 -1.967630813560218073e+01 -5.228780055958218753e+01 8.834658936348972702e+01 1.747625050162907030e+02 -1.128119846942959867e+02 2.939158617707345655e+01 -1.206098829621321329e+02 6.673372479820450565e+01 -4.226512820427504380e+01 -7.710511981416692606e+01 -5.131546404172365072e+01 3.922817705022032442e+01 1.842278957691394581e+01 -7.783560004375087260e+01 -1.343292054790314012e+02 1.977518299236345811e+01 1.502000630787951536e+02 1.361987725340953759e+01 1.739843986659154211e+02 7.104602070533979408e+00 1.284316106787581759e+02 -3.299363917462907381e+01 8.663937707431774982e+01 -6.818753399791221170e+01 -1.077985229272540693e+02 4.721212997329568140e+01 -5.539159866415633360e+01 -7.504981769320254159e+01 6.959811767725204845e+01 6.206373490684097050e+00 -9.011318627462760844e+01 -1.440319846883287198e+02 1.415272879268873396e+02 -8.532723885274891984e+01 -2.286538722044639371e+00 1.149837947789193322e+02 5.552970942543134214e+01 -9.407959375402170110e+01 1.022542972679938522e+01 2.702491946106723617e+02 5.106173588659793694e+01 -1.511683986708580392e+02 -4.577055255867215067e+01 -5.894650038982755547e+01 9.212532872085480662e+00 1.031922073132326858e+02 -9.932553659432132065e+01 2.073801668491633521e+01 1.252203501339837715e+02 1.801786118524223568e+01 -2.028538915528021391e+02 4.633837018674048380e+01 7.249508074118263323e+01 -1.306713227544469014e+01 3.147884963924840562e+01 1.872262392255744368e-01 2.170240126826429616e+01 2.664095619211791899e+01 1.112947689650497693e+02 9.421620884213699298e+01 1.506140098801998661e+01 1.431628673063921156e+02 -6.150791612321486213e+01 2.369881499325429104e+02 6.250528718313838539e+01 1.362151804607305507e+02 -2.109970877912726195e+01 8.657608984917695238e+01 -4.697084448100081033e+01 -1.406823054729488547e+02 2.512651625605830219e+01 9.124379419661258339e+01 -8.413794192694645346e+01 -1.006794438599627028e+02 -6.396009763701857054e+01 3.521400342721127430e+01 -1.097351159900299677e+02 7.178639842736092191e+01 2.693390889317168302e+01 -9.383063989276327277e+01 1.825410774344350386e+02 -1.130382798352050777e+01 -9.785210681941823907e+01 -1.291491549501810177e+01 -1.964614785705551014e+01 -1.347862243042521584e+02 -3.846054496272517298e+01 5.914192808178668059e+01 1.267175834776864889e+02 2.793752850287959788e+01 2.569448975668630553e+01 4.305585411848399247e+01 -3.431183466382359626e+01 -1.400126823709237271e+02 1.530414483428636707e+01 2.973539105152476836e+01 1.280012622742995632e+02 -9.478746427616336234e+00 -7.317827795698100601e+01 7.037138094908472397e+01 9.252299052274087776e-01 3.052144365907333423e+01 1.338165938392388625e+02 -1.705999330957872075e+02 -8.928987886217097980e+01 1.199358814675016447e+02 -2.015544858353291602e+02 -1.718180658878385714e+02 8.506959875038400298e+01 1.438740584682486201e+02 5.927600154067943805e+01 -4.198852168320890144e+00 1.454619864121837622e+02 -2.051328212636813930e+02 1.001126859163545504e+02 3.958960578277932285e+01 1.187190323109526560e+02 -1.761949728787635365e+02 9.945009828967562271e+01 -2.634211381785819128e+01 -1.248979598922720271e+02 -4.969817446398313798e+00 -8.630622680900499688e+01 -1.510533661104018144e+01 -4.096690427794168698e+00 -1.150991459363905705e+02 -1.152137905340466091e+02 -5.844652249053714144e+01 -1.204195142680690083e+02 1.877574673113406902e+02 -1.505792935723351036e+02 -4.689138562635229590e+01 1.612050068164331549e+02 3.170566963041816422e+01 -2.765485084308638761e+02 -1.188068529935086133e+02 3.315466235247906468e+01 5.108094530617110962e+01 7.945303968382795290e+00 -1.444088054260609226e+02 3.333881868544050064e+01 7.034540097927906466e+00 -6.944625007421589657e+01 1.894296255777216800e+02 1.892395174526344874e+02 4.072554417130701765e+00 -1.948582857838639768e+02 1.176903217196418865e+02 2.871537824412730799e+01 3.594681017958262448e+00 7.152413456695373384e+01 -1.938659775182601095e+02 -1.289339293596695200e+02 1.317294711116425958e+02 1.024544864076211041e+02 4.940735778823851376e+01 1.337369694074508857e+02 -1.665464739986784934e+02 -1.913875322593856154e+01 -1.218090732299694139e+02 4.083841246115258627e+01 -9.705257732027108375e+01 8.136399277797261220e+01 -3.171722930417915975e+01 1.157314845422446759e+01 1.657866882626848337e+02 2.670351060550451905e+01 -2.462479247078309754e+02 -1.181036892364181483e+02 -7.785589371084188315e+01 1.477189722741124456e+02 1.171909269775787621e+01 -5.038894197290996857e+01 2.829378000397127835e+01 5.835797272436121830e+01 -3.692683944386264727e+01 1.004422630449796259e+02 -9.413081291008215601e+01 4.597881803526583866e+01 1.045789988067122351e+02 -3.322970370533322892e+01 -9.167736755016295547e+01 -1.060306790597837505e+02 1.118922297786510285e+02 -4.643304665727423952e+01 1.836315392227367909e+02 5.344592413576202716e+01 1.036442069544940665e+02 1.724356563890351310e+02 7.989999795180962039e+00 -1.161621786098095299e+02 -1.548077938517144219e+02 -1.066451653841943710e+02 3.973678914310591637e+01
-1.238413950152373211e+01 -4.440774036893860632e+00 9.447184310986710898e+01 -2.090270510877711558e+02 1.418318028064840632e+02 5.791523518643866453e+01 1.388468483349273015e+02 -1.178794465360179942e+02 -2.512832270418349889e+00 -2.194497745459936411e+01 -2.003026896725627637e+02 2.982654835690289019e+01 -1.671015155838183830e+01 1.116218744584977287e+02 -1.141948875792480038e+02 5.631809245198766689e+01 1.142941173837379125e+02 -4.194320298125946067e+01 -4.520029622261773739e+01 -2.457730281687302210e+01 5.634704781953551844e+01 5.751275716885265155e+01 2.961061331859295720e+01 -2.121259263705836986e+02 -4.700440299000897681e+01 8.357253131910279365e+01 9.052368156720522308e+00 -9.488766873195855212e+00 -6.068290321554358968e+01 -1.416979816270273673e+01 6.691104345503659090e+01 -1.326551046554593540e+02 -5.655670044278779329e+01 8.167539697966139656e+00 1.894308814130407939e+02 1.934828035036174754e+02 -2.937080255218786107e+01 5.098276278425991848e+01 -2.265105111756890444e-01 -1.273814938878185075e+02 8.753928206694583025e+01 9.779599038903262453e+01 9.898309999646801316e+01 1.063907356662884673e+01 5.643666404123039371e+01 4.388894859648850399e+01 3.545815589587583361e+01 2.681040582389610449e+01 1.005906893520766801e+02 8.181773222532531520e+01 5.979999714370461561e+01 1.487001980634941845e+02 2.261452292974080649e+02 1.784297432867377324e+02 -5.395530061064780369e+01 4.494374361326126888e+01 -5.860121817738275496e+01 5.141493986481268053e+01 -1.753616285850355325e+02 5.153657123132544626e+01 -1.867466286525583996e+02 -1.539141362462950724e+02 1.182282050951267038e+01 -8.470071751091712287e+00 1.546219265031646728e+02 -1.897596974800950420e+02 6.865778202512640860e+01 2.097131722688086484e+02 -6.783326241697317016e+00 -1.777780057347809475e+02 3.237755602594409510e+01 1.798650774074855576e+02 -5.576146859950337387e+01 -2.432628126280586400e+02 -9.358202505149668582e+01 8.174258054259148309e+00 -2.099457465640496139e+02 2.932651756448622038e+01 -1.637621043275102863e+02 -1.693219478391761754e+02 -5.223381653192085139e+01 1.390980709694329960e+02 6.335919631329531398e+01 9.702359551224978063e+00 -8.098974978030632599e+01 -3.888962300876708866e+01 5.818025317833738796e+01 -2.120357254551925337e+02 4.940170544532992380e+01 -6.839606275358053722e+01 -7.140202515319739973e+01 -1.614942752928819800e+02 5.936799216680052638e+01 8.464503271520518979e+01 -1.482662428739158997e+02 1.578879375172114976e+02 -3.641665347872122283e+01 -1.546337033924477211e+01 8.013925365775179444e+01 1.428903107034379900e+02 1.991084424068284164e+01 1.384305217108737907e+02 -1.694220128846705364e+01 -8.290149757491897731e+01 -1.791164179379446963e+01 9.236357468757233846e+01 4.227624461301993364e+01 9.196590714149650125e+01 8.871211749176870853e+01 -7.814472078957919621e+01 -1.597378994052693599e+02 1.156745657999796464e+02 5.098492622904846172e+01 1.531044877157500395e+01 2.873698105904351507e+01 -6.386291765635178308e+01 9.028165863900129295e+01 8.451660391761275548e+01 -1.294370742084953818e+01 -6.701895013076317298e+01 2.882869094812148347e+01 5.918667515339913088e+00 -5.779017691902110698e+01 1.595215118335148077e+02 -3.076128346142417769e+01 1.143756554865696842e+02 -6.591879237699353666e+01 3.611434496497202673e+01 -3.390264569170133768e+01 8.420867601160841787e+01 2.207344312904117700e+01 1.087626528286913299e+02 -1.092094316359234227e+02 6.996768935527482824e+01 1.161778337742519938e+02 -4.204407312689298948e+01 7.240486741434320805e+00 -1.209527386943778104e+01 1.099960850450258363e+02 3.502710574339454652e+00 1.587063689522945538e+02 -1.331505608786077346e+02 1.098118721351429627e+02 -8.590934255860432245e+01 9.026112460386649161e+01 -1.290948744344247814e+02 2.778693458317293619e+01 2.333056652480588866e+01 1.653277109231416020e+00 3.421426262734146917e+01 4.340197138477461181e+01 -1.163488654454654281e+01 1.032518179140217640e+01 1.018721560462913800e+02 1.199035421402473531e+02 -8.175554752661301450e+01 -5.102911076100568266e+01 4.458513265004168602e+01 1.413334817740062199e+00 -1.291748057255285858e+02 -5.202572574378903170e+01 -3.335740160612402860e+01 4.608875624411415117e+01 -6.176563579107197910e+01 2.159546439529232487e+01 1.513018498292829861e+02 -7.494452304554395994e+01 7.631315106393645920e+01 7.931216136163183705e+01 1.067730834776843629e+01 1.165473782469256037e+02 5.937271431699855384e+01 1.586903938153473916e+02 -3.273873059395703677e+01 1.062017026813656742e+02 5.251238271690903758e+01 -1.516771941317371741e+01 1.929584111728683240e+02 -1.311901720958456110e+02 4.624745850409627224e+01 -1.774315081581092670e+02 -7.961901906911189997e+01 3.885405341145229841e+01 -6.835378439027851982e+01 -1.474544993603278158e+02 1.887274375966948412e+02 -8.122085619324440131e+01 -4.498084014953684573e+01 -4.382277258355584593e+01 1.153181367955775869e+02 1.844801389638869011e+02 6.132876940953602229e+01 1.385425021549356757e+02 2.079429227819028085e+02 -1.494304376851375737e+00 1.542911765071755781e+02 6.715630136083619561e+01 1.803986162537611051e+02 -1.192261805784294211e+02 -1.118875311148112317e+01 6.038322022592177873e+00 1.799535005953382267e+02 -8.605355376555881719e+01 -5.738882945055488705e+01 -5.014280026611223917e+01 -1.270432250710492070e+02 4.433553679004807790e+00 -9.562260147397739729e+01 1.461377583559745688e+02 2.229170687287538044e+01 1.134544872672474902e+01 6.850949714141080449e+01 -4.635805116176609175e+00 1.109059735948824539e+02 -1.505750306095247595e+02 4.306379070294403277e+01 -1.617937808309863783e+02 1.112684725972751636e+02 9.111833248908891392e+01 -6.373310298183813671e+01 4.437559347893802908e+01 2.256654104678540023e+02 -2.889296626001765489e+01 3.945990541708343358e+01 -3.097386407080738024e+01 5.491379251030603115e+01 6.087323104812598018e+01 -5.966311580444268792e+00 9.652259639642453237e+01 9.608286803062267722e+01 -1.836782627866837743e+02 -1.451779755264905702e+02 -1.135676548238892281e+02 -8.911906783680834110e+00 -1.418606465852129759e+02 1.094738269696267565e+02 1.044982364367641310e+02 5.592304763660217048e+01 1.058030356613919132e+01 1.493519275746001256e+02 7.953018189908839020e+01 6.396434120482731345e+01 -9.620102412895928978e+01 1.444396109841522957e+02 -3.435227823506406430e+00 1.036060255114216488e+02 8.360557387166549503e+00 3.479684900119772095e+01 -7.165438208686806831e+01 -8.591015871663998382e+01 6.779242278022212531e+01 -3.683140951707341237e+00 1.383717627948086033e+02 -1.187354923826634767e+01 -2.682100390900342024e+00 4.340866007850333119e+01 2.140242271298248156e+01 1.338451939209641921e+02 1.394750219518529910e+01 3.394125655754488236e+01 -1.463407295918294437e+02 6.224598039282439998e+01 1.264081909981408245e+02 -1.658145525691200817e+01 -2.155951771224552260e+02 7.978694134679059857e+01 1.286561416543605390e+02 1.928309054311070270e+01 1.784507864943243192e+02 -4.099537217911708886e+00 4.041806320198024594e+01 -4.115797199586899779e+01 -1.306017341100848626e+02 5.280791280314800673e+01 -4.473031997388486047e+01 -7.621568304887662748e+01 3.881713363687835283e+01 -1.738674309376902443e+02 6.736607787787714585e+01 1.547458828943207152e+02 -9.519581422137683546e+01 1.627296553928905212e+02 -9.172237949902249454e+01 -5.590044744415867406e+00 -9.931194003786748326e+00 7.205943228936902756e+01 -4.383846719751791454e+01 -1.012188705399256605e+02 -8.324541144228152234e+01 1.369169621695060641e+02 5.550352360723884715e+01 -1.238025068385663161e+02 4.130813623361673237e+00 4.071462458526487183e+01 7.744250533120397506e+01 -3.782585432914538615e+01 5.619958529278729742e+01 -6.468382335309021869e+01 -1.521680673843102625e+02 -3.245706104878640019e+01 1.321327417535340487e+02 -1.063398015265674132e+02 -5.962784122221547634e+00 -1.525864347019754064e+02 -4.586218137268462058e+00 -1.367036860382724228e+02 3.089940252838525225e+01 5.647447619816251319e+01 -4.713825685665197796e+01 -7.712908275860732488e+01 5.291747461368959904e+00 6.968239660965150506e+01 -6.345555734743398091e+01 1.260627782167644995e+02 9.885791694465028456e+01 -1.194647056028457115e+02 -9.870554411292602026e+01 1.263888941334086411e+02 6.668513043005187058e+01 1.405149083556689789e+02 9.340918593078730225e+01 7.584258735679047447e+01 -5.636485969867308654e+01 -7.638500284551331276e+01 -7.199051908375764697e+01 1.910675725834886123e+02 2.863700392277325335e+01 -2.328865536800427805e+01 -6.392789297549185079e+01 -4.656206240620341674e+01 -1.225353779315987310e+02 -1.534319402476009664e+01 -1.632569818573267924e+02 1.163046170706676037e+02 4.274298602562245009e+01 -1.071544582061393243e+02 -4.504182255143036429e+01 1.113667116124488672e+02 -9.010473408215503355e+01 9.566359184831067353e+01 -1.102184726323821451e+02 -1.096438609240787088e+01 -8.882974252453736597e+01 8.349416717823396539e+01 -3.949363432392478757e+01 9.500108593959328829e+00 2.731660538441951758e+01 -1.177506977538400150e+02 1.161839130581724078e+01 4.500873232284750003e+01 -2.073817481284581277e+01 -6.391351441245758025e+01 1.884165015264682665e+02 8.039311316914960059e+01 4.376426159785318504e+01 -2.919220703719762611e+01 7.453455297044384054e+01 1.558168163087002540e+02 -8.569522765574596690e+01 1.947456450674644941e+02 -1.237346611062094155e+02 -1.709232578227717170e+02 1.410328423331766885e+02 -2.174908513209224452e+02 -8.468384813840865721e-01 -2.276680940730722966e+02 -1.420686587702240615e+02 6.672531071587719964e+01 -1.352971097285418978e+02 5.423778126016721046e+01 1.022509586415535239e+02 -1.489792845868147708e+02 -2.793491691578520175e+01 7.011048860205433186e+01 1.244480209936521504e+02 -1.730238761623597554e+02 8.135411661374349990e+01 -9.107103058346660873e+01 -9.134497217621378340e+00 -1.284827529331788298e+01 -7.393404439604576339e+01 -8.389463436839139376e+01 1.685807262712856698e+02 -2.020896096788727192e+01 1.270927944428735579e+00 1.210900296864201522e+02 -8.068619586236179941e+01 -3.201754271668092855e+01 -1.001860898333712697e+02 -4.539934299995132250e+01 4.763113628713377956e+00 5.520278051638637606e+01 -1.257476955139977264e+02 2.209198885881359615e+02 -5.018967190271047940e+01 1.142456152016371362e+02 -4.551386204405466884e+01 1.116534736970847064e+02 1.298513731543394272e+02 4.467723173936421688e+01 1.138539620466430193e+02 -4.033529497090687954e+01 1.306210740459356714e+02 -1.461051364809486586e+02 -6.105165004710924848e+01 -5.878551843413151801e+01 2.391486571659988414e+01 -1.515171212462057895e+02 6.772036970044190696e+01 -2.880448033468525537e+01 -7.716903569523334738e+01 8.362962532787199166e+01 -1.411177466326494141e+02 -8.521615323756925875e+01 -4.921367485008788378e+01 3.087749708456724207e+01 1.212120699440692420e+02 1.090736488991790196e+02 6.449352391580588062e+01 -1.418252866356909392e+00 1.633984837641832542e+02 1.144325847719963747e+02 -8.828456473265791260e+01 -7.291063775180393236e+01 5.130446320019363071e+01 9.254856462770463921e+00 9.150442572379871820e+01 1.557915004106114623e+02 6.594762206873674870e+01 2.287743593883104865e+01 -9.549391871945422849e+01 1.603838867511784372e+02 -1.061300980798582003e+02 -1.543166702615481256e+02 6.138373366880890103e+01 1.041261376464432402e+02 1.836691913761658768e+01 -1.296261169538211959e+02 2.771084928719972496e+01 3.956286951442215383e+01 -3.775955131538827336e-01 1.222142693181219926e+02 9.137538692102999960e+01 1.597448719150545315e+01 7.309666858887447916e+01 -9.971110608227958494e+01 -5.986414262500560746e+00 9.176091438771163666e+01 2.770816978700971944e+01 -6.064775989871434803e+01 1.847603140308356160e+02 2.155553066849494712e+02 -1.169526693379796569e+02 -2.578942640183323931e+01 -1.959056362929017325e+02 -6.729149304501116546e+01 1.458954976062556170e+02 3.100995532405876887e+00 -6.616988052556820321e+01 1.525926661534190885e+02 -5.820323741384189020e+01 -1.496841986003673526e+02 1.272581301197073316e+02 -6.256660256631369066e+01 3.221171631255679557e+01 8.040130179902654106e+01 1.286209180164249055e+01 -2.219613200667154160e+02 3.945616695822134545e+01 -5.788076493320368776e+00 8.397363035590410618e+01 -2.195526789788790367e+01 9.411038120460524681e+01 1.585950238172467763e+01 -7.880777825628551625e+01 -1.908950367243459922e+01 -1.632306738568124445e+02 1.070664148838487932e+02 2.355953427361883001e+01 -3.874168804645547226e+01 -4.822440210387240711e+01 -5.863790773777171950e+01 3.832744519159823682e+01 1.496609795954604749e+02 1.235619950133665128e+02 4.005741192479427326e+01 -1.842665365544413589e+02 -3.612995757489048998e+01 4.082170642273240446e+01 1.092281095518140006e+02 8.114974036956293446e+01 1.435645572855048968e+01 -1.731925494740384579e+02 1.225600276239229061e+02 -2.083240343852805552e+02 -1.916382357082598276e+02 -1.682512767075823312e+00 -6.867889753960723453e+01 -2.250257045215121821e+01 8.110452112821351989e+01 5.206234627576901630e+01 -1.035023423094957451e+02 -1.410586543823321222e+02 1.356213130806957068e+01 1.151624226887190048e+02 1.920970299130603820e+01 -5.280064269920438846e+01 -4.813544012901620306e+01 -1.083662019540271615e+01 1.502568225690161512e+02 2.081077634475472848e+01 -1.647332064369996658e+02 1.217302089548081199e+02 -6.339829952971115290e+01 -3.953946983295919537e+00 1.459854279582737320e+02 -4.953124599851162913e+01 -1.858802139591421110e+01 -1.041409104464676858e+02 -5.678789173988531225e+00 -2.259387663713063787e+01 1.247895105427080580e+02 1.137886358647271976e+02 6.406572885640960635e+01 6.208095438882522643e+01 -1.772718666736061621e+01 1.280802557161542836e+02 -1.069270732810174849e+02 -4.023245951377974805e+00 -8.631166438705962207e+01 1.488543203867043587e+02 6.912004215329395151e+01 4.894712333266694770e+01 7.794612636536619732e+00 -5.055554570698635786e+01 3.258641434476118093e+01 6.347716518680576847e+00 3.520423742347544405e+00 2.282414482072314144e+01 5.665503448926833130e+01 1.613817738047736725e+02 -3.686991705570716960e+01 -4.924331081166022983e+01 6.331537200975179758e+01 1.096159411610483687e+02 -1.215370367801232732e+01 8.718594240479139046e+01 9.872722598250453530e+01 1.998288318604519702e+02 -8.200965560943622279e+01 -1.162380760990137389e+02 -2.715875767417575659e+01 5.894382829357095233e+01 -9.619910850951423953e+00 1.017859027195719221e+02 3.531564806777037546e+01 -1.540958510818287550e+02 4.268373602483168838e+01 -8.476109254754297240e+01 -1.281764993120984286e+02 1.274333928750936735e+02 -7.207547168569168150e+01 5.609862339846181101e+01 1.052531934271292613e+02 -9.371648316079162555e+01 2.228770267931674098e+01 -6.830667586186507378e+01 3.817562848687264676e+01 -1.086080746338794825e+02 5.835457145388276956e+01 5.179167288062877361e+01 3.617267721181858242e+00 7.950298297824937777e+01 -1.446516965021163230e+02 7.226323954772699665e+01 -2.780106528452117942e+01 -1.587422144065732823e+02 8.883921621716231698e+01 2.309664802484493151e+01 -1.842261523621854451e+02 2.211160184793306200e+02 -5.132744516407664603e-01 9.879742766357539097e+01 -1.133018135276536498e+02 -1.824574896728419162e+02 -8.768334291334426212e+01 2.373475589675719366e+00 1.342064888110027141e+02 3.685544100133639756e+00 -8.981231075557431609e+01 4.726124138249675610e+01 1.287578998643889463e+02 6.101700764522496456e+01 -4.857182905815002982e+01 -5.558040268372430148e+01 7.939218377318037767e+01 2.883016555712678297e+01 -1.838042990458190502e+02 -1.947434073474769178e+01 1.587946331125362462e+02 9.278704422371082217e+01 -5.389229215432197861e+01 -1.050455732929282107e+02 -4.008186886494932111e+01 -4.517650601253640730e+01 -1.075263538975504787e+02 -1.728099362149847096e+01 -4.289341406567550763e+01 -1.067564306225767581e+02 -1.239932861337653947e+02 -2.535714298707348036e+01 -1.181006639781477503e+02 -1.258014704409490463e+02 -3.601551410143513721e+01 -5.195991937675904637e+01 -1.043512598397012852e+02 1.811705662108480226e+02 1.023154238771036972e+01 -2.736737169669041592e+01 -1.653278043370389483e+01 7.656462808519964369e+01 1.524032511817418012e+01 2.437589845186688109e+01 -2.062992295873672077e+01 -4.509652375287198822e+01 2.034076468155261352e+01 -1.415079696932188824e+02 -1.549060398684437700e+02 -8.791062613523016012e+01 -1.857317840632234720e+02 -8.719189743953319294e+01 8.342602155639856676e+01 5.975137934671452911e+01 -2.533871201901294512e+01 5.913450864022719600e+01 -1.524128790092753150e+02 -3.984025226575126055e+01 -1.130489828420741105e+02 -6.495107479877498236e+01 2.053879317465172392e+02 -1.997816424315128359e+02 1.997536809719427424e+02 2.426510525062223067e+01 -5.490591544683329772e+01 8.968948344152025243e+01 1.207470974168522559e+02 -5.049026038530604410e+01 -1.983372490454536035e+02 -1.450927143136531186e+02 9.955560018375066988e+01 8.150795067592768817e+01 -1.319114410400186728e+02 3.105571405077629521e+01 -3.864697234803259107e+01 -7.532852433536416470e+01 -2.766850331068906854e+01 -5.332985994748721481e+01 -8.408390109773816334e+01 -3.317188995228856641e+01 4.442178942027749322e+00 -3.174462542078220650e+01 -3.372847513622035387e-01 -1.389755157371058658e+01 8.943885735506937351e+01 1.237386248050979844e+02 1.279776751414981639e+01 1.636471874595159193e+01 -6.148408577652629248e+01 -1.908513468682645851e+02 3.293596327379642474e+01 -8.924044909188866370e+01 2.516124798151025743e+01 -7.859064381154670542e+00 1.064804629807013514e+00 7.051605554622614136e+01 1.186404400889269226e+02 -6.862194357229556374e+01 3.698210819786937265e+01 -1.877951069486097992e+02 9.442829349840092590e+00 6.695436730545593740e+00 -1.192976784050549384e+02 -3.279376920949137997e+01 -4.314370148304107033e+01 4.628572989152368145e+00 -9.949757539666805428e+01 2.632163841833088824e+01 -9.502062319037456462e+01 5.450444417835701216e+01 6.607838147885186686e+01 3.592659888245489697e+01 -2.823565541449995209e+01 1.046247469118756612e+02 5.948514064561311443e+01 7.787112532019612843e+01 -6.522693492045550556e+01 1.967454844893363841e+01 1.244276893934253110e+02 -5.693825972052430018e+01 -6.736522361772927958e+00 3.111630950725705347e+01 -1.249756031025900711e+02 9.514280168158089168e+01 8.714607117315497931e+01 -9.846210365773799822e+01 -8.010045740840159567e+01 -5.403656041086967576e+01 -4.444289243629224018e+01 -1.557973796275696259e+02 -1.321517936348523961e+02 -1.288602340675767550e+02 1.027535547258361106e+02 5.818245278296508616e+01 1.551365910188100656e+02 7.015974319475036580e+00 -8.326301479055112509e+01 1.825512173928586179e+01 1.343635118015658847e+01 -6.182138106040773806e+01 7.196913172082379617e+01 1.147244190204609566e+02 9.653090366382524934e+00 1.392476070637883936e+02 2.183345814820228625e+01 1.077683595651316324e+02 1.461813284819989711e+01 -2.018307977585049002e+02 2.121008431295429375e+02 -4.752469789524408839e+01 -1.447189275615857866e+02 -6.524111180492452888e+01 -4.156482065067758924e+01 4.006337172927332091e+01 2.475125637543938950e+01 4.424494973510785911e+01 -7.153944275766626504e+01 1.181982459043586857e+02 -8.329329353518342316e+01 -6.771828235976942167e+00 1.373945563741636704e+02 1.056816087117300071e+02 5.598914963379733223e+01 -1.706622821626626489e+02 2.450891065993085860e+01 1.352293975834193986e+02 2.255292629384537051e+01 9.394543077807897191e+01 1.023951124063388818e+02 -2.034743264770880842e+02 7.396643520834852836e+01 -5.551451674867004726e+01 -2.161674113036856397e+02 8.499817609551857345e+01 2.356284303871031227e+01 -1.165695218205239314e+02 -5.585769439959410931e+01 1.321769880482820554e+02 1.404134820759181821e+02 -7.212198223836676902e+01 -1.213261706425875843e+02 -7.910077197199029797e+01 -1.570866198837836691e+02 1.853276213635188796e+01 3.590964649234891226e+01 -1.609566348476864661e+01 -1.169698002742429388e+01 -8.446761172543821772e+01 -8.317479324316620648e+01 -2.323035534627538823e+01 1.257023111010258418e+02 1.276517081689122790e+02 7.596658335416654495e+01 9.090492053913581572e+01 -7.337744839219564597e+01 -1.687612103984913290e+02 -1.229117702375684118e+01 -2.152708118151817374e+01 -6.624718917108005201e+01 1.374490317936564843e+00 6.807095249476077470e+01 -4.930198746439997848e+01 2.306496845415460228e+01 7.380658740172584942e+01 6.534146109070066188e+01 1.030436972680641503e+02 -1.389925864694863833e+02 3.693037756469585986e+01 7.764059643649008535e+01 8.830477027747197383e+01 5.501023571602107154e+01 -9.620106373197408800e+01 1.275882977892233896e+02 1.188188864709866976e+02 8.933409992766000585e+01 9.462684953092342255e+01 -7.846389203666116430e+01 -1.383806074041147482e+01 -1.208276154579177231e+01 7.177610064805875822e+01 6.055336252201745850e+01 5.223508693659971414e+01 9.090172580565486271e+01 1.085946773768687308e+02 1.155616628259235767e+02 -6.037765828726625728e+01 7.513412251823322663e+01 6.077606500036699089e+01 -1.096557805767430835e+02 1.226529001243736303e+02 -9.332078607372221057e+00 -2.604059509414774354e+01 1.858444135915241020e+02 8.255596013842269087e+01 1.157875362433891127e+02 -1.346798757579979338e+02 -1.472480287859129646e+02 -1.433691141202691881e+02 -1.139948964621515870e+02 -4.134011955289994233e+01 1.024532486935626991e+02 -1.575428393156762183e+02 3.034496928122200643e+01 1.348564065195965895e+02 -5.547811568946010397e+01 -8.536527699311928075e+01 -3.286139626984228101e+01 1.270059435933947611e+02 2.125427552691300832e+02 -6.242862470182832624e+01 1.855344956078865692e+01 -2.588430596117166260e+01 6.410861327158374934e+01 5.636391426600076926e+01 -1.996254459915631969e+02 -8.302942993659443971e+01 1.288605197880503397e+02 1.309208503599750202e+02 8.854651614566415674e+01 -4.671365817614142912e+01 -7.099086537912043582e+01 -4.249571815885111903e+01 -1.655054785168781564e+02 6.664664396071773922e+01 -2.402361822055761209e+01 1.559432191868791051e+02 -2.620767763593886812e+01 -2.950058511021646268e+02 1.358192390379236087e+02 4.704263495014697583e+01 -1.105860601078292120e+02 -2.082686878732898350e+01 3.309643609139335041e+01 -1.948084690789048921e+02 -1.071578057784177958e+02 -1.028849720226325388e+02 -5.286984459684205717e+01 5.888035469045093606e+01 -1.546827335170960680e+02 1.011976640479837499e+02 -5.097285034247491353e+01 2.758784890006373836e+00 -1.251935792321248897e+02 -9.733281433467007560e+01 1.650145757817938375e+02 8.134067838338087597e+01 -3.963588287638430074e+01 3.484463008682259044e+01 -2.631588014622524696e+01 4.070061013012348639e+01 -9.822164918397973565e+01 9.292825836727672595e+01 4.739260932572483398e+01 -1.116275069343893165e+02 1.096194944478468472e+02 -4.609283863393692116e+01 9.380445371562773005e+01 -4.637815495963475598e+01 8.297359188051333945e+01 -1.440511208077167851e+02 1.340743762618870960e+02 2.324986341961738034e+01 9.457703193862043634e+01 1.225361278923728605e+02 -1.377936897628801489e+02 -8.071840507736465042e+01 -9.926240603276815477e+01 6.282237695554252355e+01 -1.610287030654204727e+02 1.424664565483298588e+02 1.337561504314009255e+02 4.977901092753039336e+01 -7.979804655782112377e+01 5.364901030384164926e+01 -1.009266929513119351e+02 -1.025066151083962573e+01 3.285848924920810532e+01 -1.727362165775621463e+02 -7.666348891692618395e+01 -1.272413900502383655e+01 9.606114219827138356e+01 -4.723006487035770817e+01 1.023000824995529427e+02 -6.047559397504208789e+01 -1.982253527091565104e+02 -1.007235011224107524e+02 -3.197572550728371610e+01 -5.659762586069404477e+01 2.829000021830773548e+01 4.841510434696248666e+01 5.949283239558443626e+00 2.395030011412108806e+01 -1.104950541022502506e+02 5.075534757051661927e+01 3.073022994634187910e+01 -6.790243033327342914e+01 8.758164921693305516e+00 5.314060815979740227e+01 -8.983510436022132239e+01 -5.191129831253686433e+01 -2.279357043750996681e+01 9.189407720633180077e+01 -1.614206018706677170e+01 3.955164582420052977e+00 -2.150069075333497040e+02 -8.952443410003131419e+01 9.325518327275084118e+01 -8.398471432960857896e+01 2.952878242765093830e+01 2.926501917167450628e+01 3.569759695451536174e+01 6.228242345754702569e+01 -1.672759090284350521e+02 1.357464812249072281e+02 7.693314535384908481e+01 -7.126444883728696666e+00 -7.617846368890043607e+01 1.054303017601585424e+02 5.855334176397030177e+01 -1.896706372919189221e+02 -4.748763856344306333e+01 -7.707066866411041417e+01 -4.882123902542039673e+01 -5.835028325250619474e+01 -9.332583786757056998e+01 -5.690823225650417783e+01 1.806520464905921131e+02 -1.609909549317820563e+02 6.172599963152874381e+01 2.617122446613507236e+01 -7.092619467250776211e+01 9.818595906919147964e+00 -3.721267105837436162e+01 3.252468090756301500e+00 -9.070797049389567235e+01 -1.863810848132818876e+02 1.735365516013771270e+01 3.950361171670284932e+01 -1.206637071402012040e+01 -8.409883080147277923e+00 -3.752218866284575682e+01 -1.791195189415065272e+02 -2.888256836162178587e+01 -6.164587679182543667e+01 1.312357434226849762e+01 -1.473843217092353441e+01 8.550304404215472687e+01 -5.947768654771126506e+01 -9.781209053961234190e+01 -3.364271403778094793e+01 -8.444262327599902918e+00 4.282315985172678552e+01 -2.085037739287430014e+01 -6.971481090662270219e+01 -1.499303619063242010e+01 1.889435123992238985e+01 4.482295852847148865e+01 -1.075390174999222239e+02 -1.311817405870794744e+02 2.173977675918980594e+02 -2.060278207492097522e+02 -7.163583967423852528e+01 -4.369686093106668068e+01 1.319800664424467413e+02 5.971674177331080102e+01 2.161338559105654156e+02 2.310460293154142448e+02 -5.888698635863638486e+01 1.221635531816400828e+02 -5.295230983969296545e+01 -3.854459807874157207e+01 -9.495420315624416219e+01 -7.536169150191705057e+01 -6.562226171671665043e+01 -8.406187978573491648e+01 -2.301445680360093036e+02 -2.556513032033037689e+02 1.271224402171265098e+02 -2.506757416483446477e+01 5.029442543467229854e+01 1.236282901530975806e+02
