# 
#                 ----------------------------------------------------
#                 Data from a 3D direct N-body simulation. 
# 
#                 rows are i-particle; 
#                 coumns are :mass, tag, x ,y, z, vx, vy, vz, ax, ay, az
# 
#                 NTHU, Computational Physics Lab
# 
#                 ----------------------------------------------------
#                 Time = 0
1.000000000000000000e+00 2.000000000000000000e+00 3.000000000000000000e+00 4.000000000000000000e+00 5.000000000000000000e+00 6.000000000000000000e+00 7.000000000000000000e+00 8.000000000000000000e+00 9.000000000000000000e+00 1.000000000000000000e+01 1.100000000000000000e+01 1.200000000000000000e+01 1.300000000000000000e+01 1.400000000000000000e+01 1.500000000000000000e+01 1.600000000000000000e+01 1.700000000000000000e+01 1.800000000000000000e+01 1.900000000000000000e+01 2.000000000000000000e+01 2.100000000000000000e+01 2.200000000000000000e+01 2.300000000000000000e+01 2.400000000000000000e+01 2.500000000000000000e+01 2.600000000000000000e+01 2.700000000000000000e+01 2.800000000000000000e+01 2.900000000000000000e+01 3.000000000000000000e+01 3.100000000000000000e+01 3.200000000000000000e+01 3.300000000000000000e+01 3.400000000000000000e+01 3.500000000000000000e+01 3.600000000000000000e+01 3.700000000000000000e+01 3.800000000000000000e+01 3.900000000000000000e+01 4.000000000000000000e+01 4.100000000000000000e+01 4.200000000000000000e+01 4.300000000000000000e+01 4.400000000000000000e+01 4.500000000000000000e+01 4.600000000000000000e+01 4.700000000000000000e+01 4.800000000000000000e+01 4.900000000000000000e+01 5.000000000000000000e+01 5.100000000000000000e+01 5.200000000000000000e+01 5.300000000000000000e+01 5.400000000000000000e+01 5.500000000000000000e+01 5.600000000000000000e+01 5.700000000000000000e+01 5.800000000000000000e+01 5.900000000000000000e+01 6.000000000000000000e+01 6.100000000000000000e+01 6.200000000000000000e+01 6.300000000000000000e+01 6.400000000000000000e+01 6.500000000000000000e+01 6.600000000000000000e+01 6.700000000000000000e+01 6.800000000000000000e+01 6.900000000000000000e+01 7.000000000000000000e+01 7.100000000000000000e+01 7.200000000000000000e+01 7.300000000000000000e+01 7.400000000000000000e+01 7.500000000000000000e+01 7.600000000000000000e+01 7.700000000000000000e+01 7.800000000000000000e+01 7.900000000000000000e+01 8.000000000000000000e+01 8.100000000000000000e+01 8.200000000000000000e+01 8.300000000000000000e+01 8.400000000000000000e+01 8.500000000000000000e+01 8.600000000000000000e+01 8.700000000000000000e+01 8.800000000000000000e+01 8.900000000000000000e+01 9.000000000000000000e+01 9.100000000000000000e+01 9.200000000000000000e+01 9.300000000000000000e+01 9.400000000000000000e+01 9.500000000000000000e+01 9.600000000000000000e+01 9.700000000000000000e+01 9.800000000000000000e+01 9.900000000000000000e+01 1.000000000000000000e+02 1.010000000000000000e+02 1.020000000000000000e+02 1.030000000000000000e+02 1.040000000000000000e+02 1.050000000000000000e+02 1.060000000000000000e+02 1.070000000000000000e+02 1.080000000000000000e+02 1.090000000000000000e+02 1.100000000000000000e+02 1.110000000000000000e+02 1.120000000000000000e+02 1.130000000000000000e+02 1.140000000000000000e+02 1.150000000000000000e+02 1.160000000000000000e+02 1.170000000000000000e+02 1.180000000000000000e+02 1.190000000000000000e+02 1.200000000000000000e+02 1.210000000000000000e+02 1.220000000000000000e+02 1.230000000000000000e+02 1.240000000000000000e+02 1.250000000000000000e+02 1.260000000000000000e+02 1.270000000000000000e+02 1.280000000000000000e+02 1.290000000000000000e+02 1.300000000000000000e+02 1.310000000000000000e+02 1.320000000000000000e+02 1.330000000000000000e+02 1.340000000000000000e+02 1.350000000000000000e+02 1.360000000000000000e+02 1.370000000000000000e+02 1.380000000000000000e+02 1.390000000000000000e+02 1.400000000000000000e+02 1.410000000000000000e+02 1.420000000000000000e+02 1.430000000000000000e+02 1.440000000000000000e+02 1.450000000000000000e+02 1.460000000000000000e+02 1.470000000000000000e+02 1.480000000000000000e+02 1.490000000000000000e+02 1.500000000000000000e+02 1.510000000000000000e+02 1.520000000000000000e+02 1.530000000000000000e+02 1.540000000000000000e+02 1.550000000000000000e+02 1.560000000000000000e+02 1.570000000000000000e+02 1.580000000000000000e+02 1.590000000000000000e+02 1.600000000000000000e+02 1.610000000000000000e+02 1.620000000000000000e+02 1.630000000000000000e+02 1.640000000000000000e+02 1.650000000000000000e+02 1.660000000000000000e+02 1.670000000000000000e+02 1.680000000000000000e+02 1.690000000000000000e+02 1.700000000000000000e+02 1.710000000000000000e+02 1.720000000000000000e+02 1.730000000000000000e+02 1.740000000000000000e+02 1.750000000000000000e+02 1.760000000000000000e+02 1.770000000000000000e+02 1.780000000000000000e+02 1.790000000000000000e+02 1.800000000000000000e+02 1.810000000000000000e+02 1.820000000000000000e+02 1.830000000000000000e+02 1.840000000000000000e+02 1.850000000000000000e+02 1.860000000000000000e+02 1.870000000000000000e+02 1.880000000000000000e+02 1.890000000000000000e+02 1.900000000000000000e+02 1.910000000000000000e+02 1.920000000000000000e+02 1.930000000000000000e+02 1.940000000000000000e+02 1.950000000000000000e+02 1.960000000000000000e+02 1.970000000000000000e+02 1.980000000000000000e+02 1.990000000000000000e+02 2.000000000000000000e+02 2.010000000000000000e+02 2.020000000000000000e+02 2.030000000000000000e+02 2.040000000000000000e+02 2.050000000000000000e+02 2.060000000000000000e+02 2.070000000000000000e+02 2.080000000000000000e+02 2.090000000000000000e+02 2.100000000000000000e+02 2.110000000000000000e+02 2.120000000000000000e+02 2.130000000000000000e+02 2.140000000000000000e+02 2.150000000000000000e+02 2.160000000000000000e+02 2.170000000000000000e+02 2.180000000000000000e+02 2.190000000000000000e+02 2.200000000000000000e+02 2.210000000000000000e+02 2.220000000000000000e+02 2.230000000000000000e+02 2.240000000000000000e+02 2.250000000000000000e+02 2.260000000000000000e+02 2.270000000000000000e+02 2.280000000000000000e+02 2.290000000000000000e+02 2.300000000000000000e+02 2.310000000000000000e+02 2.320000000000000000e+02 2.330000000000000000e+02 2.340000000000000000e+02 2.350000000000000000e+02 2.360000000000000000e+02 2.370000000000000000e+02 2.380000000000000000e+02 2.390000000000000000e+02 2.400000000000000000e+02 2.410000000000000000e+02 2.420000000000000000e+02 2.430000000000000000e+02 2.440000000000000000e+02 2.450000000000000000e+02 2.460000000000000000e+02 2.470000000000000000e+02 2.480000000000000000e+02 2.490000000000000000e+02 2.500000000000000000e+02 2.510000000000000000e+02 2.520000000000000000e+02 2.530000000000000000e+02 2.540000000000000000e+02 2.550000000000000000e+02 2.560000000000000000e+02 2.570000000000000000e+02 2.580000000000000000e+02 2.590000000000000000e+02 2.600000000000000000e+02 2.610000000000000000e+02 2.620000000000000000e+02 2.630000000000000000e+02 2.640000000000000000e+02 2.650000000000000000e+02 2.660000000000000000e+02 2.670000000000000000e+02 2.680000000000000000e+02 2.690000000000000000e+02 2.700000000000000000e+02 2.710000000000000000e+02 2.720000000000000000e+02 2.730000000000000000e+02 2.740000000000000000e+02 2.750000000000000000e+02 2.760000000000000000e+02 2.770000000000000000e+02 2.780000000000000000e+02 2.790000000000000000e+02 2.800000000000000000e+02 2.810000000000000000e+02 2.820000000000000000e+02 2.830000000000000000e+02 2.840000000000000000e+02 2.850000000000000000e+02 2.860000000000000000e+02 2.870000000000000000e+02 2.880000000000000000e+02 2.890000000000000000e+02 2.900000000000000000e+02 2.910000000000000000e+02 2.920000000000000000e+02 2.930000000000000000e+02 2.940000000000000000e+02 2.950000000000000000e+02 2.960000000000000000e+02 2.970000000000000000e+02 2.980000000000000000e+02 2.990000000000000000e+02 3.000000000000000000e+02 3.010000000000000000e+02 3.020000000000000000e+02 3.030000000000000000e+02 3.040000000000000000e+02 3.050000000000000000e+02 3.060000000000000000e+02 3.070000000000000000e+02 3.080000000000000000e+02 3.090000000000000000e+02 3.100000000000000000e+02 3.110000000000000000e+02 3.120000000000000000e+02 3.130000000000000000e+02 3.140000000000000000e+02 3.150000000000000000e+02 3.160000000000000000e+02 3.170000000000000000e+02 3.180000000000000000e+02 3.190000000000000000e+02 3.200000000000000000e+02 3.210000000000000000e+02 3.220000000000000000e+02 3.230000000000000000e+02 3.240000000000000000e+02 3.250000000000000000e+02 3.260000000000000000e+02 3.270000000000000000e+02 3.280000000000000000e+02 3.290000000000000000e+02 3.300000000000000000e+02 3.310000000000000000e+02 3.320000000000000000e+02 3.330000000000000000e+02 3.340000000000000000e+02 3.350000000000000000e+02 3.360000000000000000e+02 3.370000000000000000e+02 3.380000000000000000e+02 3.390000000000000000e+02 3.400000000000000000e+02 3.410000000000000000e+02 3.420000000000000000e+02 3.430000000000000000e+02 3.440000000000000000e+02 3.450000000000000000e+02 3.460000000000000000e+02 3.470000000000000000e+02 3.480000000000000000e+02 3.490000000000000000e+02 3.500000000000000000e+02 3.510000000000000000e+02 3.520000000000000000e+02 3.530000000000000000e+02 3.540000000000000000e+02 3.550000000000000000e+02 3.560000000000000000e+02 3.570000000000000000e+02 3.580000000000000000e+02 3.590000000000000000e+02 3.600000000000000000e+02 3.610000000000000000e+02 3.620000000000000000e+02 3.630000000000000000e+02 3.640000000000000000e+02 3.650000000000000000e+02 3.660000000000000000e+02 3.670000000000000000e+02 3.680000000000000000e+02 3.690000000000000000e+02 3.700000000000000000e+02 3.710000000000000000e+02 3.720000000000000000e+02 3.730000000000000000e+02 3.740000000000000000e+02 3.750000000000000000e+02 3.760000000000000000e+02 3.770000000000000000e+02 3.780000000000000000e+02 3.790000000000000000e+02 3.800000000000000000e+02 3.810000000000000000e+02 3.820000000000000000e+02 3.830000000000000000e+02 3.840000000000000000e+02 3.850000000000000000e+02 3.860000000000000000e+02 3.870000000000000000e+02 3.880000000000000000e+02 3.890000000000000000e+02 3.900000000000000000e+02 3.910000000000000000e+02 3.920000000000000000e+02 3.930000000000000000e+02 3.940000000000000000e+02 3.950000000000000000e+02 3.960000000000000000e+02 3.970000000000000000e+02 3.980000000000000000e+02 3.990000000000000000e+02 4.000000000000000000e+02 4.010000000000000000e+02 4.020000000000000000e+02 4.030000000000000000e+02 4.040000000000000000e+02 4.050000000000000000e+02 4.060000000000000000e+02 4.070000000000000000e+02 4.080000000000000000e+02 4.090000000000000000e+02 4.100000000000000000e+02 4.110000000000000000e+02 4.120000000000000000e+02 4.130000000000000000e+02 4.140000000000000000e+02 4.150000000000000000e+02 4.160000000000000000e+02 4.170000000000000000e+02 4.180000000000000000e+02 4.190000000000000000e+02 4.200000000000000000e+02 4.210000000000000000e+02 4.220000000000000000e+02 4.230000000000000000e+02 4.240000000000000000e+02 4.250000000000000000e+02 4.260000000000000000e+02 4.270000000000000000e+02 4.280000000000000000e+02 4.290000000000000000e+02 4.300000000000000000e+02 4.310000000000000000e+02 4.320000000000000000e+02 4.330000000000000000e+02 4.340000000000000000e+02 4.350000000000000000e+02 4.360000000000000000e+02 4.370000000000000000e+02 4.380000000000000000e+02 4.390000000000000000e+02 4.400000000000000000e+02 4.410000000000000000e+02 4.420000000000000000e+02 4.430000000000000000e+02 4.440000000000000000e+02 4.450000000000000000e+02 4.460000000000000000e+02 4.470000000000000000e+02 4.480000000000000000e+02 4.490000000000000000e+02 4.500000000000000000e+02 4.510000000000000000e+02 4.520000000000000000e+02 4.530000000000000000e+02 4.540000000000000000e+02 4.550000000000000000e+02 4.560000000000000000e+02 4.570000000000000000e+02 4.580000000000000000e+02 4.590000000000000000e+02 4.600000000000000000e+02 4.610000000000000000e+02 4.620000000000000000e+02 4.630000000000000000e+02 4.640000000000000000e+02 4.650000000000000000e+02 4.660000000000000000e+02 4.670000000000000000e+02 4.680000000000000000e+02 4.690000000000000000e+02 4.700000000000000000e+02 4.710000000000000000e+02 4.720000000000000000e+02 4.730000000000000000e+02 4.740000000000000000e+02 4.750000000000000000e+02 4.760000000000000000e+02 4.770000000000000000e+02 4.780000000000000000e+02 4.790000000000000000e+02 4.800000000000000000e+02 4.810000000000000000e+02 4.820000000000000000e+02 4.830000000000000000e+02 4.840000000000000000e+02 4.850000000000000000e+02 4.860000000000000000e+02 4.870000000000000000e+02 4.880000000000000000e+02 4.890000000000000000e+02 4.900000000000000000e+02 4.910000000000000000e+02 4.920000000000000000e+02 4.930000000000000000e+02 4.940000000000000000e+02 4.950000000000000000e+02 4.960000000000000000e+02 4.970000000000000000e+02 4.980000000000000000e+02 4.990000000000000000e+02 5.000000000000000000e+02 5.010000000000000000e+02 5.020000000000000000e+02 5.030000000000000000e+02 5.040000000000000000e+02 5.050000000000000000e+02 5.060000000000000000e+02 5.070000000000000000e+02 5.080000000000000000e+02 5.090000000000000000e+02 5.100000000000000000e+02 5.110000000000000000e+02 5.120000000000000000e+02 5.130000000000000000e+02 5.140000000000000000e+02 5.150000000000000000e+02 5.160000000000000000e+02 5.170000000000000000e+02 5.180000000000000000e+02 5.190000000000000000e+02 5.200000000000000000e+02 5.210000000000000000e+02 5.220000000000000000e+02 5.230000000000000000e+02 5.240000000000000000e+02 5.250000000000000000e+02 5.260000000000000000e+02 5.270000000000000000e+02 5.280000000000000000e+02 5.290000000000000000e+02 5.300000000000000000e+02 5.310000000000000000e+02 5.320000000000000000e+02 5.330000000000000000e+02 5.340000000000000000e+02 5.350000000000000000e+02 5.360000000000000000e+02 5.370000000000000000e+02 5.380000000000000000e+02 5.390000000000000000e+02 5.400000000000000000e+02 5.410000000000000000e+02 5.420000000000000000e+02 5.430000000000000000e+02 5.440000000000000000e+02 5.450000000000000000e+02 5.460000000000000000e+02 5.470000000000000000e+02 5.480000000000000000e+02 5.490000000000000000e+02 5.500000000000000000e+02 5.510000000000000000e+02 5.520000000000000000e+02 5.530000000000000000e+02 5.540000000000000000e+02 5.550000000000000000e+02 5.560000000000000000e+02 5.570000000000000000e+02 5.580000000000000000e+02 5.590000000000000000e+02 5.600000000000000000e+02 5.610000000000000000e+02 5.620000000000000000e+02 5.630000000000000000e+02 5.640000000000000000e+02 5.650000000000000000e+02 5.660000000000000000e+02 5.670000000000000000e+02 5.680000000000000000e+02 5.690000000000000000e+02 5.700000000000000000e+02 5.710000000000000000e+02 5.720000000000000000e+02 5.730000000000000000e+02 5.740000000000000000e+02 5.750000000000000000e+02 5.760000000000000000e+02 5.770000000000000000e+02 5.780000000000000000e+02 5.790000000000000000e+02 5.800000000000000000e+02 5.810000000000000000e+02 5.820000000000000000e+02 5.830000000000000000e+02 5.840000000000000000e+02 5.850000000000000000e+02 5.860000000000000000e+02 5.870000000000000000e+02 5.880000000000000000e+02 5.890000000000000000e+02 5.900000000000000000e+02 5.910000000000000000e+02 5.920000000000000000e+02 5.930000000000000000e+02 5.940000000000000000e+02 5.950000000000000000e+02 5.960000000000000000e+02 5.970000000000000000e+02 5.980000000000000000e+02 5.990000000000000000e+02 6.000000000000000000e+02 6.010000000000000000e+02 6.020000000000000000e+02 6.030000000000000000e+02 6.040000000000000000e+02 6.050000000000000000e+02 6.060000000000000000e+02 6.070000000000000000e+02 6.080000000000000000e+02 6.090000000000000000e+02 6.100000000000000000e+02 6.110000000000000000e+02 6.120000000000000000e+02 6.130000000000000000e+02 6.140000000000000000e+02 6.150000000000000000e+02 6.160000000000000000e+02 6.170000000000000000e+02 6.180000000000000000e+02 6.190000000000000000e+02 6.200000000000000000e+02 6.210000000000000000e+02 6.220000000000000000e+02 6.230000000000000000e+02 6.240000000000000000e+02 6.250000000000000000e+02 6.260000000000000000e+02 6.270000000000000000e+02 6.280000000000000000e+02 6.290000000000000000e+02 6.300000000000000000e+02 6.310000000000000000e+02 6.320000000000000000e+02 6.330000000000000000e+02 6.340000000000000000e+02 6.350000000000000000e+02 6.360000000000000000e+02 6.370000000000000000e+02 6.380000000000000000e+02 6.390000000000000000e+02 6.400000000000000000e+02 6.410000000000000000e+02 6.420000000000000000e+02 6.430000000000000000e+02 6.440000000000000000e+02 6.450000000000000000e+02 6.460000000000000000e+02 6.470000000000000000e+02 6.480000000000000000e+02 6.490000000000000000e+02 6.500000000000000000e+02 6.510000000000000000e+02 6.520000000000000000e+02 6.530000000000000000e+02 6.540000000000000000e+02 6.550000000000000000e+02 6.560000000000000000e+02 6.570000000000000000e+02 6.580000000000000000e+02 6.590000000000000000e+02 6.600000000000000000e+02 6.610000000000000000e+02 6.620000000000000000e+02 6.630000000000000000e+02 6.640000000000000000e+02 6.650000000000000000e+02 6.660000000000000000e+02 6.670000000000000000e+02 6.680000000000000000e+02 6.690000000000000000e+02 6.700000000000000000e+02 6.710000000000000000e+02 6.720000000000000000e+02 6.730000000000000000e+02 6.740000000000000000e+02 6.750000000000000000e+02 6.760000000000000000e+02 6.770000000000000000e+02 6.780000000000000000e+02 6.790000000000000000e+02 6.800000000000000000e+02 6.810000000000000000e+02 6.820000000000000000e+02 6.830000000000000000e+02 6.840000000000000000e+02 6.850000000000000000e+02 6.860000000000000000e+02 6.870000000000000000e+02 6.880000000000000000e+02 6.890000000000000000e+02 6.900000000000000000e+02 6.910000000000000000e+02 6.920000000000000000e+02 6.930000000000000000e+02 6.940000000000000000e+02 6.950000000000000000e+02 6.960000000000000000e+02 6.970000000000000000e+02 6.980000000000000000e+02 6.990000000000000000e+02 7.000000000000000000e+02 7.010000000000000000e+02 7.020000000000000000e+02 7.030000000000000000e+02 7.040000000000000000e+02 7.050000000000000000e+02 7.060000000000000000e+02 7.070000000000000000e+02 7.080000000000000000e+02 7.090000000000000000e+02 7.100000000000000000e+02 7.110000000000000000e+02 7.120000000000000000e+02 7.130000000000000000e+02 7.140000000000000000e+02 7.150000000000000000e+02 7.160000000000000000e+02 7.170000000000000000e+02 7.180000000000000000e+02 7.190000000000000000e+02 7.200000000000000000e+02 7.210000000000000000e+02 7.220000000000000000e+02 7.230000000000000000e+02 7.240000000000000000e+02 7.250000000000000000e+02 7.260000000000000000e+02 7.270000000000000000e+02 7.280000000000000000e+02 7.290000000000000000e+02 7.300000000000000000e+02 7.310000000000000000e+02 7.320000000000000000e+02 7.330000000000000000e+02 7.340000000000000000e+02 7.350000000000000000e+02 7.360000000000000000e+02 7.370000000000000000e+02 7.380000000000000000e+02 7.390000000000000000e+02 7.400000000000000000e+02 7.410000000000000000e+02 7.420000000000000000e+02 7.430000000000000000e+02 7.440000000000000000e+02 7.450000000000000000e+02 7.460000000000000000e+02 7.470000000000000000e+02 7.480000000000000000e+02 7.490000000000000000e+02 7.500000000000000000e+02 7.510000000000000000e+02 7.520000000000000000e+02 7.530000000000000000e+02 7.540000000000000000e+02 7.550000000000000000e+02 7.560000000000000000e+02 7.570000000000000000e+02 7.580000000000000000e+02 7.590000000000000000e+02 7.600000000000000000e+02 7.610000000000000000e+02 7.620000000000000000e+02 7.630000000000000000e+02 7.640000000000000000e+02 7.650000000000000000e+02 7.660000000000000000e+02 7.670000000000000000e+02 7.680000000000000000e+02 7.690000000000000000e+02 7.700000000000000000e+02 7.710000000000000000e+02 7.720000000000000000e+02 7.730000000000000000e+02 7.740000000000000000e+02 7.750000000000000000e+02 7.760000000000000000e+02 7.770000000000000000e+02 7.780000000000000000e+02 7.790000000000000000e+02 7.800000000000000000e+02 7.810000000000000000e+02 7.820000000000000000e+02 7.830000000000000000e+02 7.840000000000000000e+02 7.850000000000000000e+02 7.860000000000000000e+02 7.870000000000000000e+02 7.880000000000000000e+02 7.890000000000000000e+02 7.900000000000000000e+02 7.910000000000000000e+02 7.920000000000000000e+02 7.930000000000000000e+02 7.940000000000000000e+02 7.950000000000000000e+02 7.960000000000000000e+02 7.970000000000000000e+02 7.980000000000000000e+02 7.990000000000000000e+02 8.000000000000000000e+02 8.010000000000000000e+02 8.020000000000000000e+02 8.030000000000000000e+02 8.040000000000000000e+02 8.050000000000000000e+02 8.060000000000000000e+02 8.070000000000000000e+02 8.080000000000000000e+02 8.090000000000000000e+02 8.100000000000000000e+02 8.110000000000000000e+02 8.120000000000000000e+02 8.130000000000000000e+02 8.140000000000000000e+02 8.150000000000000000e+02 8.160000000000000000e+02 8.170000000000000000e+02 8.180000000000000000e+02 8.190000000000000000e+02 8.200000000000000000e+02 8.210000000000000000e+02 8.220000000000000000e+02 8.230000000000000000e+02 8.240000000000000000e+02 8.250000000000000000e+02 8.260000000000000000e+02 8.270000000000000000e+02 8.280000000000000000e+02 8.290000000000000000e+02 8.300000000000000000e+02 8.310000000000000000e+02 8.320000000000000000e+02 8.330000000000000000e+02 8.340000000000000000e+02 8.350000000000000000e+02 8.360000000000000000e+02 8.370000000000000000e+02 8.380000000000000000e+02 8.390000000000000000e+02 8.400000000000000000e+02 8.410000000000000000e+02 8.420000000000000000e+02 8.430000000000000000e+02 8.440000000000000000e+02 8.450000000000000000e+02 8.460000000000000000e+02 8.470000000000000000e+02 8.480000000000000000e+02 8.490000000000000000e+02 8.500000000000000000e+02 8.510000000000000000e+02 8.520000000000000000e+02 8.530000000000000000e+02 8.540000000000000000e+02 8.550000000000000000e+02 8.560000000000000000e+02 8.570000000000000000e+02 8.580000000000000000e+02 8.590000000000000000e+02 8.600000000000000000e+02 8.610000000000000000e+02 8.620000000000000000e+02 8.630000000000000000e+02 8.640000000000000000e+02 8.650000000000000000e+02 8.660000000000000000e+02 8.670000000000000000e+02 8.680000000000000000e+02 8.690000000000000000e+02 8.700000000000000000e+02 8.710000000000000000e+02 8.720000000000000000e+02 8.730000000000000000e+02 8.740000000000000000e+02 8.750000000000000000e+02 8.760000000000000000e+02 8.770000000000000000e+02 8.780000000000000000e+02 8.790000000000000000e+02 8.800000000000000000e+02 8.810000000000000000e+02 8.820000000000000000e+02 8.830000000000000000e+02 8.840000000000000000e+02 8.850000000000000000e+02 8.860000000000000000e+02 8.870000000000000000e+02 8.880000000000000000e+02 8.890000000000000000e+02 8.900000000000000000e+02 8.910000000000000000e+02 8.920000000000000000e+02 8.930000000000000000e+02 8.940000000000000000e+02 8.950000000000000000e+02 8.960000000000000000e+02 8.970000000000000000e+02 8.980000000000000000e+02 8.990000000000000000e+02 9.000000000000000000e+02 9.010000000000000000e+02 9.020000000000000000e+02 9.030000000000000000e+02 9.040000000000000000e+02 9.050000000000000000e+02 9.060000000000000000e+02 9.070000000000000000e+02 9.080000000000000000e+02 9.090000000000000000e+02 9.100000000000000000e+02 9.110000000000000000e+02 9.120000000000000000e+02 9.130000000000000000e+02 9.140000000000000000e+02 9.150000000000000000e+02 9.160000000000000000e+02 9.170000000000000000e+02 9.180000000000000000e+02 9.190000000000000000e+02 9.200000000000000000e+02 9.210000000000000000e+02 9.220000000000000000e+02 9.230000000000000000e+02 9.240000000000000000e+02 9.250000000000000000e+02 9.260000000000000000e+02 9.270000000000000000e+02 9.280000000000000000e+02 9.290000000000000000e+02 9.300000000000000000e+02 9.310000000000000000e+02 9.320000000000000000e+02 9.330000000000000000e+02 9.340000000000000000e+02 9.350000000000000000e+02 9.360000000000000000e+02 9.370000000000000000e+02 9.380000000000000000e+02 9.390000000000000000e+02 9.400000000000000000e+02 9.410000000000000000e+02 9.420000000000000000e+02 9.430000000000000000e+02 9.440000000000000000e+02 9.450000000000000000e+02 9.460000000000000000e+02 9.470000000000000000e+02 9.480000000000000000e+02 9.490000000000000000e+02 9.500000000000000000e+02 9.510000000000000000e+02 9.520000000000000000e+02 9.530000000000000000e+02 9.540000000000000000e+02 9.550000000000000000e+02 9.560000000000000000e+02 9.570000000000000000e+02 9.580000000000000000e+02 9.590000000000000000e+02 9.600000000000000000e+02 9.610000000000000000e+02 9.620000000000000000e+02 9.630000000000000000e+02 9.640000000000000000e+02 9.650000000000000000e+02 9.660000000000000000e+02 9.670000000000000000e+02 9.680000000000000000e+02 9.690000000000000000e+02 9.700000000000000000e+02 9.710000000000000000e+02 9.720000000000000000e+02 9.730000000000000000e+02 9.740000000000000000e+02 9.750000000000000000e+02 9.760000000000000000e+02 9.770000000000000000e+02 9.780000000000000000e+02 9.790000000000000000e+02 9.800000000000000000e+02 9.810000000000000000e+02 9.820000000000000000e+02 9.830000000000000000e+02 9.840000000000000000e+02 9.850000000000000000e+02 9.860000000000000000e+02 9.870000000000000000e+02 9.880000000000000000e+02 9.890000000000000000e+02 9.900000000000000000e+02 9.910000000000000000e+02 9.920000000000000000e+02 9.930000000000000000e+02 9.940000000000000000e+02 9.950000000000000000e+02 9.960000000000000000e+02 9.970000000000000000e+02 9.980000000000000000e+02 9.990000000000000000e+02 1.000000000000000000e+03
1.000000000000000021e-02 1.000000000000000021e-02 1.000000000000000021e-02 1.000000000000000021e-02 1.000000000000000021e-02 1.000000000000000021e-02 1.000000000000000021e-02 1.000000000000000021e-02 1.000000000000000021e-02 1.000000000000000021e-02 1.000000000000000021e-02 1.000000000000000021e-02 1.000000000000000021e-02 1.000000000000000021e-02 1.000000000000000021e-02 1.000000000000000021e-02 1.000000000000000021e-02 1.000000000000000021e-02 1.000000000000000021e-02 1.000000000000000021e-02 1.000000000000000021e-02 1.000000000000000021e-02 1.000000000000000021e-02 1.000000000000000021e-02 1.000000000000000021e-02 1.000000000000000021e-02 1.000000000000000021e-02 1.000000000000000021e-02 1.000000000000000021e-02 1.000000000000000021e-02 1.000000000000000021e-02 1.000000000000000021e-02 1.000000000000000021e-02 1.000000000000000021e-02 1.000000000000000021e-02 1.000000000000000021e-02 1.000000000000000021e-02 1.000000000000000021e-02 1.000000000000000021e-02 1.000000000000000021e-02 1.000000000000000021e-02 1.000000000000000021e-02 1.000000000000000021e-02 1.000000000000000021e-02 1.000000000000000021e-02 1.000000000000000021e-02 1.000000000000000021e-02 1.000000000000000021e-02 1.000000000000000021e-02 1.000000000000000021e-02 1.000000000000000021e-02 1.000000000000000021e-02 1.000000000000000021e-02 1.000000000000000021e-02 1.000000000000000021e-02 1.000000000000000021e-02 1.000000000000000021e-02 1.000000000000000021e-02 1.000000000000000021e-02 1.000000000000000021e-02 1.000000000000000021e-02 1.000000000000000021e-02 1.000000000000000021e-02 1.000000000000000021e-02 1.000000000000000021e-02 1.000000000000000021e-02 1.000000000000000021e-02 1.000000000000000021e-02 1.000000000000000021e-02 1.000000000000000021e-02 1.000000000000000021e-02 1.000000000000000021e-02 1.000000000000000021e-02 1.000000000000000021e-02 1.000000000000000021e-02 1.000000000000000021e-02 1.000000000000000021e-02 1.000000000000000021e-02 1.000000000000000021e-02 1.000000000000000021e-02 1.000000000000000021e-02 1.000000000000000021e-02 1.000000000000000021e-02 1.000000000000000021e-02 1.000000000000000021e-02 1.000000000000000021e-02 1.000000000000000021e-02 1.000000000000000021e-02 1.000000000000000021e-02 1.000000000000000021e-02 1.000000000000000021e-02 1.000000000000000021e-02 1.000000000000000021e-02 1.000000000000000021e-02 1.000000000000000021e-02 1.000000000000000021e-02 1.000000000000000021e-02 1.000000000000000021e-02 1.000000000000000021e-02 1.000000000000000021e-02 1.000000000000000021e-02 1.000000000000000021e-02 1.000000000000000021e-02 1.000000000000000021e-02 1.000000000000000021e-02 1.000000000000000021e-02 1.000000000000000021e-02 1.000000000000000021e-02 1.000000000000000021e-02 1.000000000000000021e-02 1.000000000000000021e-02 1.000000000000000021e-02 1.000000000000000021e-02 1.000000000000000021e-02 1.000000000000000021e-02 1.000000000000000021e-02 1.000000000000000021e-02 1.000000000000000021e-02 1.000000000000000021e-02 1.000000000000000021e-02 1.000000000000000021e-02 1.000000000000000021e-02 1.000000000000000021e-02 1.000000000000000021e-02 1.000000000000000021e-02 1.000000000000000021e-02 1.000000000000000021e-02 1.000000000000000021e-02 1.000000000000000021e-02 1.000000000000000021e-02 1.000000000000000021e-02 1.000000000000000021e-02 1.000000000000000021e-02 1.000000000000000021e-02 1.000000000000000021e-02 1.000000000000000021e-02 1.000000000000000021e-02 1.000000000000000021e-02 1.000000000000000021e-02 1.000000000000000021e-02 1.000000000000000021e-02 1.000000000000000021e-02 1.000000000000000021e-02 1.000000000000000021e-02 1.000000000000000021e-02 1.000000000000000021e-02 1.000000000000000021e-02 1.000000000000000021e-02 1.000000000000000021e-02 1.000000000000000021e-02 1.000000000000000021e-02 1.000000000000000021e-02 1.000000000000000021e-02 1.000000000000000021e-02 1.000000000000000021e-02 1.000000000000000021e-02 1.000000000000000021e-02 1.000000000000000021e-02 1.000000000000000021e-02 1.000000000000000021e-02 1.000000000000000021e-02 1.000000000000000021e-02 1.000000000000000021e-02 1.000000000000000021e-02 1.000000000000000021e-02 1.000000000000000021e-02 1.000000000000000021e-02 1.000000000000000021e-02 1.000000000000000021e-02 1.000000000000000021e-02 1.000000000000000021e-02 1.000000000000000021e-02 1.000000000000000021e-02 1.000000000000000021e-02 1.000000000000000021e-02 1.000000000000000021e-02 1.000000000000000021e-02 1.000000000000000021e-02 1.000000000000000021e-02 1.000000000000000021e-02 1.000000000000000021e-02 1.000000000000000021e-02 1.000000000000000021e-02 1.000000000000000021e-02 1.000000000000000021e-02 1.000000000000000021e-02 1.000000000000000021e-02 1.000000000000000021e-02 1.000000000000000021e-02 1.000000000000000021e-02 1.000000000000000021e-02 1.000000000000000021e-02 1.000000000000000021e-02 1.000000000000000021e-02 1.000000000000000021e-02 1.000000000000000021e-02 1.000000000000000021e-02 1.000000000000000021e-02 1.000000000000000021e-02 1.000000000000000021e-02 1.000000000000000021e-02 1.000000000000000021e-02 1.000000000000000021e-02 1.000000000000000021e-02 1.000000000000000021e-02 1.000000000000000021e-02 1.000000000000000021e-02 1.000000000000000021e-02 1.000000000000000021e-02 1.000000000000000021e-02 1.000000000000000021e-02 1.000000000000000021e-02 1.000000000000000021e-02 1.000000000000000021e-02 1.000000000000000021e-02 1.000000000000000021e-02 1.000000000000000021e-02 1.000000000000000021e-02 1.000000000000000021e-02 1.000000000000000021e-02 1.000000000000000021e-02 1.000000000000000021e-02 1.000000000000000021e-02 1.000000000000000021e-02 1.000000000000000021e-02 1.000000000000000021e-02 1.000000000000000021e-02 1.000000000000000021e-02 1.000000000000000021e-02 1.000000000000000021e-02 1.000000000000000021e-02 1.000000000000000021e-02 1.000000000000000021e-02 1.000000000000000021e-02 1.000000000000000021e-02 1.000000000000000021e-02 1.000000000000000021e-02 1.000000000000000021e-02 1.000000000000000021e-02 1.000000000000000021e-02 1.000000000000000021e-02 1.000000000000000021e-02 1.000000000000000021e-02 1.000000000000000021e-02 1.000000000000000021e-02 1.000000000000000021e-02 1.000000000000000021e-02 1.000000000000000021e-02 1.000000000000000021e-02 1.000000000000000021e-02 1.000000000000000021e-02 1.000000000000000021e-02 1.000000000000000021e-02 1.000000000000000021e-02 1.000000000000000021e-02 1.000000000000000021e-02 1.000000000000000021e-02 1.000000000000000021e-02 1.000000000000000021e-02 1.000000000000000021e-02 1.000000000000000021e-02 1.000000000000000021e-02 1.000000000000000021e-02 1.000000000000000021e-02 1.000000000000000021e-02 1.000000000000000021e-02 1.000000000000000021e-02 1.000000000000000021e-02 1.000000000000000021e-02 1.000000000000000021e-02 1.000000000000000021e-02 1.000000000000000021e-02 1.000000000000000021e-02 1.000000000000000021e-02 1.000000000000000021e-02 1.000000000000000021e-02 1.000000000000000021e-02 1.000000000000000021e-02 1.000000000000000021e-02 1.000000000000000021e-02 1.000000000000000021e-02 1.000000000000000021e-02 1.000000000000000021e-02 1.000000000000000021e-02 1.000000000000000021e-02 1.000000000000000021e-02 1.000000000000000021e-02 1.000000000000000021e-02 1.000000000000000021e-02 1.000000000000000021e-02 1.000000000000000021e-02 1.000000000000000021e-02 1.000000000000000021e-02 1.000000000000000021e-02 1.000000000000000021e-02 1.000000000000000021e-02 1.000000000000000021e-02 1.000000000000000021e-02 1.000000000000000021e-02 1.000000000000000021e-02 1.000000000000000021e-02 1.000000000000000021e-02 1.000000000000000021e-02 1.000000000000000021e-02 1.000000000000000021e-02 1.000000000000000021e-02 1.000000000000000021e-02 1.000000000000000021e-02 1.000000000000000021e-02 1.000000000000000021e-02 1.000000000000000021e-02 1.000000000000000021e-02 1.000000000000000021e-02 1.000000000000000021e-02 1.000000000000000021e-02 1.000000000000000021e-02 1.000000000000000021e-02 1.000000000000000021e-02 1.000000000000000021e-02 1.000000000000000021e-02 1.000000000000000021e-02 1.000000000000000021e-02 1.000000000000000021e-02 1.000000000000000021e-02 1.000000000000000021e-02 1.000000000000000021e-02 1.000000000000000021e-02 1.000000000000000021e-02 1.000000000000000021e-02 1.000000000000000021e-02 1.000000000000000021e-02 1.000000000000000021e-02 1.000000000000000021e-02 1.000000000000000021e-02 1.000000000000000021e-02 1.000000000000000021e-02 1.000000000000000021e-02 1.000000000000000021e-02 1.000000000000000021e-02 1.000000000000000021e-02 1.000000000000000021e-02 1.000000000000000021e-02 1.000000000000000021e-02 1.000000000000000021e-02 1.000000000000000021e-02 1.000000000000000021e-02 1.000000000000000021e-02 1.000000000000000021e-02 1.000000000000000021e-02 1.000000000000000021e-02 1.000000000000000021e-02 1.000000000000000021e-02 1.000000000000000021e-02 1.000000000000000021e-02 1.000000000000000021e-02 1.000000000000000021e-02 1.000000000000000021e-02 1.000000000000000021e-02 1.000000000000000021e-02 1.000000000000000021e-02 1.000000000000000021e-02 1.000000000000000021e-02 1.000000000000000021e-02 1.000000000000000021e-02 1.000000000000000021e-02 1.000000000000000021e-02 1.000000000000000021e-02 1.000000000000000021e-02 1.000000000000000021e-02 1.000000000000000021e-02 1.000000000000000021e-02 1.000000000000000021e-02 1.000000000000000021e-02 1.000000000000000021e-02 1.000000000000000021e-02 1.000000000000000021e-02 1.000000000000000021e-02 1.000000000000000021e-02 1.000000000000000021e-02 1.000000000000000021e-02 1.000000000000000021e-02 1.000000000000000021e-02 1.000000000000000021e-02 1.000000000000000021e-02 1.000000000000000021e-02 1.000000000000000021e-02 1.000000000000000021e-02 1.000000000000000021e-02 1.000000000000000021e-02 1.000000000000000021e-02 1.000000000000000021e-02 1.000000000000000021e-02 1.000000000000000021e-02 1.000000000000000021e-02 1.000000000000000021e-02 1.000000000000000021e-02 1.000000000000000021e-02 1.000000000000000021e-02 1.000000000000000021e-02 1.000000000000000021e-02 1.000000000000000021e-02 1.000000000000000021e-02 1.000000000000000021e-02 1.000000000000000021e-02 1.000000000000000021e-02 1.000000000000000021e-02 1.000000000000000021e-02 1.000000000000000021e-02 1.000000000000000021e-02 1.000000000000000021e-02 1.000000000000000021e-02 1.000000000000000021e-02 1.000000000000000021e-02 1.000000000000000021e-02 1.000000000000000021e-02 1.000000000000000021e-02 1.000000000000000021e-02 1.000000000000000021e-02 1.000000000000000021e-02 1.000000000000000021e-02 1.000000000000000021e-02 1.000000000000000021e-02 1.000000000000000021e-02 1.000000000000000021e-02 1.000000000000000021e-02 1.000000000000000021e-02 1.000000000000000021e-02 1.000000000000000021e-02 1.000000000000000021e-02 1.000000000000000021e-02 1.000000000000000021e-02 1.000000000000000021e-02 1.000000000000000021e-02 1.000000000000000021e-02 1.000000000000000021e-02 1.000000000000000021e-02 1.000000000000000021e-02 1.000000000000000021e-02 1.000000000000000021e-02 1.000000000000000021e-02 1.000000000000000021e-02 1.000000000000000021e-02 1.000000000000000021e-02 1.000000000000000021e-02 1.000000000000000021e-02 1.000000000000000021e-02 1.000000000000000021e-02 1.000000000000000021e-02 1.000000000000000021e-02 1.000000000000000021e-02 1.000000000000000021e-02 1.000000000000000021e-02 1.000000000000000021e-02 1.000000000000000021e-02 1.000000000000000021e-02 1.000000000000000021e-02 1.000000000000000021e-02 1.000000000000000021e-02 1.000000000000000021e-02 1.000000000000000021e-02 1.000000000000000021e-02 1.000000000000000021e-02 1.000000000000000021e-02 1.000000000000000021e-02 1.000000000000000021e-02 1.000000000000000021e-02 1.000000000000000021e-02 1.000000000000000021e-02 1.000000000000000021e-02 1.000000000000000021e-02 1.000000000000000021e-02 1.000000000000000021e-02 1.000000000000000021e-02 1.000000000000000021e-02 1.000000000000000021e-02 1.000000000000000021e-02 1.000000000000000021e-02 1.000000000000000021e-02 1.000000000000000021e-02 1.000000000000000021e-02 1.000000000000000021e-02 1.000000000000000021e-02 1.000000000000000021e-02 1.000000000000000021e-02 1.000000000000000021e-02 1.000000000000000021e-02 1.000000000000000021e-02 1.000000000000000021e-02 1.000000000000000021e-02 1.000000000000000021e-02 1.000000000000000021e-02 1.000000000000000021e-02 1.000000000000000021e-02 1.000000000000000021e-02 1.000000000000000021e-02 1.000000000000000021e-02 1.000000000000000021e-02 1.000000000000000021e-02 1.000000000000000021e-02 1.000000000000000021e-02 1.000000000000000021e-02 1.000000000000000021e-02 1.000000000000000021e-02 1.000000000000000021e-02 1.000000000000000021e-02 1.000000000000000021e-02 1.000000000000000021e-02 1.000000000000000021e-02 1.000000000000000021e-02 1.000000000000000021e-02 1.000000000000000021e-02 1.000000000000000021e-02 1.000000000000000021e-02 1.000000000000000021e-02 1.000000000000000021e-02 1.000000000000000021e-02 1.000000000000000021e-02 1.000000000000000021e-02 1.000000000000000021e-02 1.000000000000000021e-02 1.000000000000000021e-02 1.000000000000000021e-02 1.000000000000000021e-02 1.000000000000000021e-02 1.000000000000000021e-02 1.000000000000000021e-02 1.000000000000000021e-02 1.000000000000000021e-02 1.000000000000000021e-02 1.000000000000000021e-02 1.000000000000000021e-02 1.000000000000000021e-02 1.000000000000000021e-02 1.000000000000000021e-02 1.000000000000000021e-02 1.000000000000000021e-02 1.000000000000000021e-02 1.000000000000000021e-02 1.000000000000000021e-02 1.000000000000000021e-02 1.000000000000000021e-02 1.000000000000000021e-02 1.000000000000000021e-02 1.000000000000000021e-02 1.000000000000000021e-02 1.000000000000000021e-02 1.000000000000000021e-02 1.000000000000000021e-02 1.000000000000000021e-02 1.000000000000000021e-02 1.000000000000000021e-02 1.000000000000000021e-02 1.000000000000000021e-02 1.000000000000000021e-02 1.000000000000000021e-02 1.000000000000000021e-02 1.000000000000000021e-02 1.000000000000000021e-02 1.000000000000000021e-02 1.000000000000000021e-02 1.000000000000000021e-02 1.000000000000000021e-02 1.000000000000000021e-02 1.000000000000000021e-02 1.000000000000000021e-02 1.000000000000000021e-02 1.000000000000000021e-02 1.000000000000000021e-02 1.000000000000000021e-02 1.000000000000000021e-02 1.000000000000000021e-02 1.000000000000000021e-02 1.000000000000000021e-02 1.000000000000000021e-02 1.000000000000000021e-02 1.000000000000000021e-02 1.000000000000000021e-02 1.000000000000000021e-02 1.000000000000000021e-02 1.000000000000000021e-02 1.000000000000000021e-02 1.000000000000000021e-02 1.000000000000000021e-02 1.000000000000000021e-02 1.000000000000000021e-02 1.000000000000000021e-02 1.000000000000000021e-02 1.000000000000000021e-02 1.000000000000000021e-02 1.000000000000000021e-02 1.000000000000000021e-02 1.000000000000000021e-02 1.000000000000000021e-02 1.000000000000000021e-02 1.000000000000000021e-02 1.000000000000000021e-02 1.000000000000000021e-02 1.000000000000000021e-02 1.000000000000000021e-02 1.000000000000000021e-02 1.000000000000000021e-02 1.000000000000000021e-02 1.000000000000000021e-02 1.000000000000000021e-02 1.000000000000000021e-02 1.000000000000000021e-02 1.000000000000000021e-02 1.000000000000000021e-02 1.000000000000000021e-02 1.000000000000000021e-02 1.000000000000000021e-02 1.000000000000000021e-02 1.000000000000000021e-02 1.000000000000000021e-02 1.000000000000000021e-02 1.000000000000000021e-02 1.000000000000000021e-02 1.000000000000000021e-02 1.000000000000000021e-02 1.000000000000000021e-02 1.000000000000000021e-02 1.000000000000000021e-02 1.000000000000000021e-02 1.000000000000000021e-02 1.000000000000000021e-02 1.000000000000000021e-02 1.000000000000000021e-02 1.000000000000000021e-02 1.000000000000000021e-02 1.000000000000000021e-02 1.000000000000000021e-02 1.000000000000000021e-02 1.000000000000000021e-02 1.000000000000000021e-02 1.000000000000000021e-02 1.000000000000000021e-02 1.000000000000000021e-02 1.000000000000000021e-02 1.000000000000000021e-02 1.000000000000000021e-02 1.000000000000000021e-02 1.000000000000000021e-02 1.000000000000000021e-02 1.000000000000000021e-02 1.000000000000000021e-02 1.000000000000000021e-02 1.000000000000000021e-02 1.000000000000000021e-02 1.000000000000000021e-02 1.000000000000000021e-02 1.000000000000000021e-02 1.000000000000000021e-02 1.000000000000000021e-02 1.000000000000000021e-02 1.000000000000000021e-02 1.000000000000000021e-02 1.000000000000000021e-02 1.000000000000000021e-02 1.000000000000000021e-02 1.000000000000000021e-02 1.000000000000000021e-02 1.000000000000000021e-02 1.000000000000000021e-02 1.000000000000000021e-02 1.000000000000000021e-02 1.000000000000000021e-02 1.000000000000000021e-02 1.000000000000000021e-02 1.000000000000000021e-02 1.000000000000000021e-02 1.000000000000000021e-02 1.000000000000000021e-02 1.000000000000000021e-02 1.000000000000000021e-02 1.000000000000000021e-02 1.000000000000000021e-02 1.000000000000000021e-02 1.000000000000000021e-02 1.000000000000000021e-02 1.000000000000000021e-02 1.000000000000000021e-02 1.000000000000000021e-02 1.000000000000000021e-02 1.000000000000000021e-02 1.000000000000000021e-02 1.000000000000000021e-02 1.000000000000000021e-02 1.000000000000000021e-02 1.000000000000000021e-02 1.000000000000000021e-02 1.000000000000000021e-02 1.000000000000000021e-02 1.000000000000000021e-02 1.000000000000000021e-02 1.000000000000000021e-02 1.000000000000000021e-02 1.000000000000000021e-02 1.000000000000000021e-02 1.000000000000000021e-02 1.000000000000000021e-02 1.000000000000000021e-02 1.000000000000000021e-02 1.000000000000000021e-02 1.000000000000000021e-02 1.000000000000000021e-02 1.000000000000000021e-02 1.000000000000000021e-02 1.000000000000000021e-02 1.000000000000000021e-02 1.000000000000000021e-02 1.000000000000000021e-02 1.000000000000000021e-02 1.000000000000000021e-02 1.000000000000000021e-02 1.000000000000000021e-02 1.000000000000000021e-02 1.000000000000000021e-02 1.000000000000000021e-02 1.000000000000000021e-02 1.000000000000000021e-02 1.000000000000000021e-02 1.000000000000000021e-02 1.000000000000000021e-02 1.000000000000000021e-02 1.000000000000000021e-02 1.000000000000000021e-02 1.000000000000000021e-02 1.000000000000000021e-02 1.000000000000000021e-02 1.000000000000000021e-02 1.000000000000000021e-02 1.000000000000000021e-02 1.000000000000000021e-02 1.000000000000000021e-02 1.000000000000000021e-02 1.000000000000000021e-02 1.000000000000000021e-02 1.000000000000000021e-02 1.000000000000000021e-02 1.000000000000000021e-02 1.000000000000000021e-02 1.000000000000000021e-02 1.000000000000000021e-02 1.000000000000000021e-02 1.000000000000000021e-02 1.000000000000000021e-02 1.000000000000000021e-02 1.000000000000000021e-02 1.000000000000000021e-02 1.000000000000000021e-02 1.000000000000000021e-02 1.000000000000000021e-02 1.000000000000000021e-02 1.000000000000000021e-02 1.000000000000000021e-02 1.000000000000000021e-02 1.000000000000000021e-02 1.000000000000000021e-02 1.000000000000000021e-02 1.000000000000000021e-02 1.000000000000000021e-02 1.000000000000000021e-02 1.000000000000000021e-02 1.000000000000000021e-02 1.000000000000000021e-02 1.000000000000000021e-02 1.000000000000000021e-02 1.000000000000000021e-02 1.000000000000000021e-02 1.000000000000000021e-02 1.000000000000000021e-02 1.000000000000000021e-02 1.000000000000000021e-02 1.000000000000000021e-02 1.000000000000000021e-02 1.000000000000000021e-02 1.000000000000000021e-02 1.000000000000000021e-02 1.000000000000000021e-02 1.000000000000000021e-02 1.000000000000000021e-02 1.000000000000000021e-02 1.000000000000000021e-02 1.000000000000000021e-02 1.000000000000000021e-02 1.000000000000000021e-02 1.000000000000000021e-02 1.000000000000000021e-02 1.000000000000000021e-02 1.000000000000000021e-02 1.000000000000000021e-02 1.000000000000000021e-02 1.000000000000000021e-02 1.000000000000000021e-02 1.000000000000000021e-02 1.000000000000000021e-02 1.000000000000000021e-02 1.000000000000000021e-02 1.000000000000000021e-02 1.000000000000000021e-02 1.000000000000000021e-02 1.000000000000000021e-02 1.000000000000000021e-02 1.000000000000000021e-02 1.000000000000000021e-02 1.000000000000000021e-02 1.000000000000000021e-02 1.000000000000000021e-02 1.000000000000000021e-02 1.000000000000000021e-02 1.000000000000000021e-02 1.000000000000000021e-02 1.000000000000000021e-02 1.000000000000000021e-02 1.000000000000000021e-02 1.000000000000000021e-02 1.000000000000000021e-02 1.000000000000000021e-02 1.000000000000000021e-02 1.000000000000000021e-02 1.000000000000000021e-02 1.000000000000000021e-02 1.000000000000000021e-02 1.000000000000000021e-02 1.000000000000000021e-02 1.000000000000000021e-02 1.000000000000000021e-02 1.000000000000000021e-02 1.000000000000000021e-02 1.000000000000000021e-02 1.000000000000000021e-02 1.000000000000000021e-02 1.000000000000000021e-02 1.000000000000000021e-02 1.000000000000000021e-02 1.000000000000000021e-02 1.000000000000000021e-02 1.000000000000000021e-02 1.000000000000000021e-02 1.000000000000000021e-02 1.000000000000000021e-02 1.000000000000000021e-02 1.000000000000000021e-02 1.000000000000000021e-02 1.000000000000000021e-02 1.000000000000000021e-02 1.000000000000000021e-02 1.000000000000000021e-02 1.000000000000000021e-02 1.000000000000000021e-02 1.000000000000000021e-02 1.000000000000000021e-02 1.000000000000000021e-02 1.000000000000000021e-02 1.000000000000000021e-02 1.000000000000000021e-02 1.000000000000000021e-02 1.000000000000000021e-02 1.000000000000000021e-02 1.000000000000000021e-02 1.000000000000000021e-02 1.000000000000000021e-02 1.000000000000000021e-02 1.000000000000000021e-02 1.000000000000000021e-02 1.000000000000000021e-02 1.000000000000000021e-02 1.000000000000000021e-02 1.000000000000000021e-02 1.000000000000000021e-02 1.000000000000000021e-02 1.000000000000000021e-02 1.000000000000000021e-02 1.000000000000000021e-02 1.000000000000000021e-02 1.000000000000000021e-02 1.000000000000000021e-02 1.000000000000000021e-02 1.000000000000000021e-02 1.000000000000000021e-02 1.000000000000000021e-02 1.000000000000000021e-02 1.000000000000000021e-02 1.000000000000000021e-02 1.000000000000000021e-02 1.000000000000000021e-02 1.000000000000000021e-02 1.000000000000000021e-02 1.000000000000000021e-02 1.000000000000000021e-02 1.000000000000000021e-02 1.000000000000000021e-02 1.000000000000000021e-02 1.000000000000000021e-02 1.000000000000000021e-02 1.000000000000000021e-02 1.000000000000000021e-02 1.000000000000000021e-02 1.000000000000000021e-02 1.000000000000000021e-02 1.000000000000000021e-02 1.000000000000000021e-02 1.000000000000000021e-02 1.000000000000000021e-02 1.000000000000000021e-02 1.000000000000000021e-02 1.000000000000000021e-02 1.000000000000000021e-02 1.000000000000000021e-02 1.000000000000000021e-02 1.000000000000000021e-02 1.000000000000000021e-02 1.000000000000000021e-02 1.000000000000000021e-02 1.000000000000000021e-02 1.000000000000000021e-02 1.000000000000000021e-02 1.000000000000000021e-02 1.000000000000000021e-02 1.000000000000000021e-02 1.000000000000000021e-02 1.000000000000000021e-02 1.000000000000000021e-02 1.000000000000000021e-02 1.000000000000000021e-02 1.000000000000000021e-02 1.000000000000000021e-02 1.000000000000000021e-02 1.000000000000000021e-02 1.000000000000000021e-02 1.000000000000000021e-02 1.000000000000000021e-02 1.000000000000000021e-02 1.000000000000000021e-02 1.000000000000000021e-02 1.000000000000000021e-02 1.000000000000000021e-02 1.000000000000000021e-02 1.000000000000000021e-02 1.000000000000000021e-02 1.000000000000000021e-02 1.000000000000000021e-02 1.000000000000000021e-02 1.000000000000000021e-02 1.000000000000000021e-02 1.000000000000000021e-02 1.000000000000000021e-02 1.000000000000000021e-02 1.000000000000000021e-02 1.000000000000000021e-02 1.000000000000000021e-02 1.000000000000000021e-02 1.000000000000000021e-02 1.000000000000000021e-02 1.000000000000000021e-02 1.000000000000000021e-02 1.000000000000000021e-02 1.000000000000000021e-02 1.000000000000000021e-02 1.000000000000000021e-02 1.000000000000000021e-02 1.000000000000000021e-02 1.000000000000000021e-02 1.000000000000000021e-02 1.000000000000000021e-02 1.000000000000000021e-02 1.000000000000000021e-02 1.000000000000000021e-02 1.000000000000000021e-02 1.000000000000000021e-02 1.000000000000000021e-02 1.000000000000000021e-02 1.000000000000000021e-02 1.000000000000000021e-02 1.000000000000000021e-02 1.000000000000000021e-02 1.000000000000000021e-02 1.000000000000000021e-02 1.000000000000000021e-02 1.000000000000000021e-02 1.000000000000000021e-02 1.000000000000000021e-02 1.000000000000000021e-02 1.000000000000000021e-02 1.000000000000000021e-02 1.000000000000000021e-02 1.000000000000000021e-02 1.000000000000000021e-02 1.000000000000000021e-02 1.000000000000000021e-02 1.000000000000000021e-02 1.000000000000000021e-02 1.000000000000000021e-02 1.000000000000000021e-02 1.000000000000000021e-02 1.000000000000000021e-02 1.000000000000000021e-02 1.000000000000000021e-02 1.000000000000000021e-02 1.000000000000000021e-02
-1.037612024185578719e+02 1.579654300560429760e+02 3.652399219783358575e+01 -8.195051384925445603e+00 -8.176198877921518715e+01 -1.245483150502013636e+01 -1.935754993955167436e+02 6.819489106162490710e-01 -7.878606949891157285e+01 -1.329443405105462794e+01 -1.849402510040602010e+01 6.131186458003881512e+00 -1.660802601814534984e+00 1.561546069455209818e+02 7.877347441405881057e+01 -3.617551032683222445e+01 -4.924019615198992028e+01 7.372780418672125791e+01 3.056887533896214748e+01 -2.364281656948722343e+01 -7.335135150284307315e+01 -6.864539748898333471e+01 -1.281887288332578123e+01 2.692929001765525143e+01 -1.813958303459052672e+02 -9.184767959847907548e+01 -2.429526044657305661e+01 1.876222812261603394e+02 6.586078363319151663e+01 7.148922478704341188e+01 7.475435481695004114e+01 1.092860996008661489e+00 -7.393775212224745985e+01 1.932232863548696571e+02 -2.280254097218265485e+02 5.487558737284571464e+01 -1.117198016382663894e+02 -3.230590166079502268e+01 3.765220751104394470e+00 1.179574754599972124e+02 -1.143644023910759557e+02 -1.264651393770066257e+01 7.195002868297734722e+01 1.616324857030907935e+02 6.636230959120672424e+01 -6.359042799331798079e+01 3.826236147328538095e+01 -2.645724735413571338e+01 -6.149491962769931064e+01 1.457460790185374719e+02 -6.553066858378763015e+01 -4.845956139273391727e+01 -1.298273722710523259e+02 5.498013923640144185e+00 -4.700003680760512026e+01 3.602325143162384791e+01 -8.260835963169959939e+01 -4.657398436705030775e+01 -9.440644196341264660e+01 -1.447410023610033249e+02 1.803029703023348773e+01 4.232739545278027293e+01 -1.146448174700924909e+02 1.195207709769478122e+01 -7.374637407180371440e+01 4.574157055954651696e+01 1.552440923336120306e+02 -1.343469334857125830e+02 -4.028272876231736888e+01 6.754919893530229480e+00 2.750467406537243864e+00 3.948236516834880661e+01 7.818874952068676976e+01 6.527939529388588902e-01 -8.269416972477714012e+00 -6.515508368696610830e+01 7.282903891037770450e+01 -3.040516559544957431e+01 2.451373324427204281e+01 9.687035605021804940e+01 8.207664766349080310e+01 -3.984451842481909267e+01 5.371760258352287565e+01 1.372528389903628749e+02 1.082193505979383588e+02 -3.684856550468226910e+00 1.621437394507420606e+02 -1.038580550861646969e+02 3.840973637350183267e+00 -3.904917745373953863e+01 1.925311227866515367e+02 -1.976097892756723695e+01 2.723883586098818643e+00 -7.149127370705562612e+01 -6.675913357257147851e+00 -5.937829464196545359e+01 6.313511759608726237e+01 -8.805667982279013017e+01 6.398001959789100823e+01 -4.450722967596503565e+01 -4.629431946810480980e+01 -8.536031549917269956e+01 4.936280725770426869e+01 -5.086574155355755522e+01 -1.390252903905776805e+02 -7.394769932374154564e+01 -9.737634796577665952e+01 -1.463798230376251297e+02 1.265289914921851704e+02 -2.549353671009518862e+01 2.985346346227387926e+01 8.348125664187683981e+01 -9.682027034941326349e+01 5.299005376623163244e+01 -4.032093587788234146e+01 -6.471193070350169307e+01 -8.398194859204970442e+01 1.891061284020665312e+02 -5.281647113042836850e+01 -4.614245245435651555e+01 -4.385703772248368892e+01 7.483888190593189904e+01 -3.858448013706663460e+01 1.284068761440708784e+02 -4.655425787429997797e+01 5.138634433320860495e+01 4.231219944574369229e+00 -7.541977201196483804e+01 6.398990810175283883e+01 2.582967248173696930e+02 -8.577774081302689524e+01 4.417056690406769093e+01 -7.107523329576498838e+01 4.214089973228352903e+01 1.221969139841139480e+02 -4.795391745178010723e+01 1.364894387036179957e+01 -2.512531513934040461e+01 -9.498931286984060307e+01 -1.623463174800889774e+01 4.052364292651790656e+00 -7.259357825647053453e+00 -1.389788366108865070e+01 1.100517274923413282e+02 1.215294474683748120e+02 1.737672162488908612e+02 -2.836534118171601904e+02 3.558131298062141212e+01 -1.472940594143482151e+01 -5.807781089777478201e+01 1.680913056505064276e+02 7.088925231869433219e+01 -2.486600784113774942e+00 -1.080274257861096032e+02 -1.010655265052700891e+01 9.330997668213051099e+01 -1.252053635955109598e+02 -1.571521904928824256e+02 1.001252885058464415e+01 3.952220072761372194e+01 -5.693064979945412318e+01 3.920389418953777749e+01 -9.982974899792704093e+01 -1.410552562618768775e+02 1.963205188434718096e+01 4.529578068860077877e+01 4.524764559963603716e+00 -7.775521996489763410e+01 -8.727447093269316269e+01 -7.855639501453222806e+01 -8.168129383698305901e+01 1.185571475225280835e+01 5.298985479898381357e+01 1.087436672466671865e+02 7.409658721441924456e+01 8.357632769357201141e+01 1.003945354032985762e+02 -6.980304968157211931e+01 -7.702207162482289959e+01 6.586210430617714451e+01 6.413237846093032601e+01 5.532858485540201343e+01 -8.752284961979283295e+00 -8.510290154539710272e+01 5.048357458653492102e+01 -1.675502267811206991e+02 6.285168632411537715e+01 -4.159110300401691518e+01 -9.017486435914828746e+01 6.943885938910860034e+01 -1.609940596055680118e+01 -7.212305839746986180e+01 -5.373130815458570453e+01 -8.618169158201670399e+00 2.273506473919134692e+02 7.217482261312818537e+01 5.140183486696795967e+01 -9.729546279811496845e+01 1.390153231317715097e+02 1.034423705754871969e+00 -8.471030321064978352e+01 1.462036060900256302e+02 -1.445918133433034427e+02 1.481009068137015738e+01 -3.047912930861479097e+01 -2.085702528008771992e+02 -1.264428884686015806e+02 -8.272755068054647154e+01 -2.798546727657556943e+01 -1.130482732337768113e+02 5.465477281604020732e+01 6.168334422343015433e+01 -2.622442554035648499e+01 -9.472916351641987376e+01 1.072904413092794300e+02 1.120554329209654867e+02 4.383594273672758845e+01 1.665822983807586510e+01 2.481541898238937733e+02 4.140869043887823864e+01 -1.135403304187359197e+02 -4.283736444485007411e+01 -1.602449852463356024e+02 3.026649980189415601e+01 1.455066279322766434e+02 -1.407132116559565986e+02 1.251072970647769012e+02 -8.639677402179873411e+01 -1.802292627970603789e+01 -8.281398550567693473e-01 5.025948925954774182e+01 -1.096331364056239366e+01 -2.172429495860887982e+01 -1.778218729189260472e+01 -1.205570833962338639e+02 4.406055012173872143e+01 -2.880487127583777252e+01 -1.221920204345035188e+01 -1.020114272162052060e+01 2.148117129167625023e+02 1.657194524428315106e+02 2.211558565377607124e+02 1.253025573713647844e+02 -8.231116004681626919e+01 7.141063102083106173e+01 2.014229143970995395e+01 4.510973339801285675e+01 -3.764986857029563794e+01 2.428307158109875274e+02 -2.219742744069886342e+01 -1.300307018905129439e+02 -1.418984424097254582e+01 -4.361308138505772547e+01 -7.355579751504309627e+01 4.103193445942022777e+01 -1.113644715319395395e+01 1.730002754554486728e+02 8.773629920577062080e+01 3.886257187939518332e+01 9.313731117177695751e+01 9.012626236391639623e+01 -2.185874629138540826e+01 1.328054914180920605e+02 2.528422508853356376e+01 8.527975446305219975e+01 4.540386390732192723e+01 6.574921346272499356e+00 -1.100963240707890805e+02 -1.102753491778097015e+02 -8.569516054796191895e+01 -1.479654847311354438e+01 8.250536507577274392e+01 -2.910116917751989618e+01 9.407982450737431179e+01 4.171955647112912402e+01 -6.919520886364256285e+01 -2.846490192623097926e+01 -5.573064656480689649e+01 1.672463109266781345e+01 -4.400546202801360351e+01 -1.066086012150988012e+02 1.155851844377697546e+02 1.154782092034258625e+02 -7.518192042929655372e+01 5.079260338362787230e+00 -4.315298345276545433e+01 -3.092873695810190782e+01 -1.079054683930164593e+01 -2.975446737112739370e+01 4.239142069561316362e+01 -1.338162830302969724e+02 -5.032133014416732664e+01 -1.444303183653561860e+02 1.656206827386443194e+02 -1.914021974267483373e+01 5.597727895515200913e+01 1.129692946458786551e+01 1.372722131106513075e+02 4.235940496555129187e+01 3.389457817132457507e+01 1.467737192435193947e+02 -4.681542577462679589e+01 -9.282906575302335739e+01 2.592167747634276509e+01 -1.501408872124376330e+02 -5.075544636919904207e+01 9.725959077357006777e+01 -1.210200671728200490e+02 -3.452507707412519977e+01 8.668538318434522694e+01 -8.963048364918896027e+01 -8.489496556981397646e+01 -7.843613622940473817e+01 -6.050152161586349564e+01 2.365392343916290088e+02 1.881597182174527916e+02 9.770367834672380525e+01 -9.699063623517757549e+01 7.099389210766291569e+01 -6.291024713273712621e+01 -2.998815749618665194e+01 1.578387336775333161e+01 -3.069973145143868010e+01 -8.888920863044857867e+01 -2.746615344146734028e+00 1.394357478886603552e+01 1.032185656838140630e+02 -1.218489944263171054e+02 3.987940736356944171e+01 6.046871273570295102e+01 3.266583689488692244e+01 -8.588874061634840018e+01 -1.407934923076011557e+02 1.829377508327126236e+02 -1.684948408491901617e+01 2.385397868714026615e+01 1.483688709757932997e+02 2.523883058847312100e+01 2.623844922355188558e+01 -4.219360420623652885e+01 8.389997347701039132e+01 -1.290162170197165494e+02 -2.912930140686905744e+01 -5.811754424176568179e+00 -5.048772235037350953e+01 6.076754573173730023e+00 2.004974364905206130e+01 -3.385104337804060748e+01 1.292488503308553049e+01 2.021288152653318662e+02 -2.592864181834968562e+01 -2.652317290847640052e+01 -9.611907465419564289e+01 -1.527428195855419224e+00 -7.630781567037621471e+01 5.994234131982830505e+00 1.059735071313017443e+02 -4.915708812410436934e+01 5.700964376513987908e+00 -5.130222522711873978e+01 3.111053620755354299e+00 8.237636164234817215e+01 -1.094610565799412711e+02 -9.153931898065981443e+01 -9.696136330946046655e+01 6.736618907605920015e+01 8.177538612392753237e+01 -8.706416674080824691e+01 5.922858901116059371e+01 2.443696832259306362e+01 3.654963052098290177e+01 -1.674589332545123455e+01 8.632882149928271076e+01 7.524632842330323967e+01 -7.294080994565200626e+01 1.108069615521101348e+01 7.635982058959528729e+01 6.877582649387235847e+01 -1.883559372646883645e+01 2.355197398676199327e+01 -1.252433812290305610e+02 4.587250583174986218e+01 -3.097553215836055074e+01 -3.090977690619578055e+01 1.635600764813878527e+02 4.475802983336119922e+01 1.134959009066677567e+02 1.803892424451643421e+02 -1.299999046214664702e+02 1.408443241541105522e+02 -5.999249464712251267e+01 -1.276511667862255592e+02 7.772979897265547322e+01 -1.265614450302806233e+02 -2.713023933811844657e+01 5.323687401210862191e+01 7.557570139112328889e+00 -1.589008804600447036e+02 7.963358061185620329e+01 2.386076570577583311e+01 6.523276834548623526e+01 3.432349114645300858e+01 8.928768544612163183e+00 -6.337689234491479340e+01 1.092323129979496912e+02 5.147101134751318341e+01 -5.864971124185332485e+01 -9.561513104423070786e+01 3.670074801373639417e+01 2.436198157621659988e+01 7.784348606716781660e+01 1.736432658068331421e+02 -2.322153989970852450e+01 -1.040484787022500797e+02 -7.990060306961404990e+01 -4.845418496958216537e+01 -4.179782858169325266e+01 -1.385289014045553131e+02 -2.130054453419997174e+01 1.223521297398053491e+02 7.035595858617519127e+01 -1.155438653076176792e+02 -1.416716240525639421e+02 -6.425586359743464016e+01 -7.199468599281303227e+01 1.387143338868229705e+02 -1.609812482420761057e+02 8.178731634283619201e+01 -4.348678436500096112e+00 -4.065868984780748718e+01 1.252524285669014148e+01 8.601849713014136967e+01 4.673829798958897896e+01 1.304922727943924770e+02 -1.502738522424857592e+02 -7.644945912836891466e+01 2.400268699358730373e+01 3.957719104517094166e+01 1.945648638400777770e+02 1.373641366741252909e+02 6.192200409538761363e+01 6.807562256825356428e+01 -3.200170956953346746e+01 1.432775930603872325e+02 -1.694111404090142230e+02 -5.991831142890740836e+01 -5.067376748542355358e+01 -4.889556962005430307e+01 -9.744696029530740589e+01 -1.417388241098079149e+01 -6.477783596118986509e+01 6.715485917089434054e+01 -8.608811932460234573e+00 -5.475487259780126692e+01 -5.865548505960050107e+01 1.700939459442782606e+02 5.579164995738248223e+01 -1.300676214869176128e+01 1.972079095534539590e+02 -1.023212868768274433e+02 -3.333430163163900772e+01 6.322259922873626437e+01 -1.384213077968862449e-01 1.417977205240454808e+01 -1.181834447398433952e+02 1.663229442277287831e+02 -4.615131657444445779e+01 -2.533714249102306582e+01 -1.035133079995669760e+02 1.187547067325579775e+02 9.038001232159227527e+01 -7.310530402746907441e+01 -3.556545577164607863e+01 3.678636326774868337e+01 -1.427732509666540182e+02 -2.334692546704674743e-01 -7.045946468580079625e+01 7.223631294199930331e+00 -1.019068039732393487e+02 -1.494924940684810792e+02 -6.666393269075290107e+01 1.397389457544524305e+02 5.326668495767886213e+01 -8.453433883715324271e+01 8.401473153038136843e+01 3.220937908273076999e+01 8.332709888615501370e+01 -3.970083214492024837e+01 -7.919849763139690424e+01 1.611899283754034968e+02 3.919404866189633196e+01 2.725938591471257411e+01 -6.872995480637187882e+01 -3.986240252923996508e+01 8.918329116053417494e+00 -6.772623834805752807e+00 -1.627970616960300561e+02 -3.262312376718541884e+01 6.063289606822059596e+01 1.050227974573889327e+02 1.466592711381371998e+02 -1.252822466278899149e+01 8.436869529461368700e+01 1.485045807155121338e+02 5.965717324061118632e+01 1.388710588307630189e+02 1.512001694967915810e+01 1.235414141019538476e+02 -7.896110865063234030e+01 5.012621573549207454e+01 2.751442394826471372e+01 7.129086785553802486e+01 -9.983416417353755890e+01 1.861692137013325237e+02 -1.208206835000598431e+02 8.299753980322792302e+01 -1.007761723331612416e+02 4.338145875177532673e+01 1.297414271735662794e+01 8.510018319472304427e+01 -6.908246689564415988e+01 -7.084352429927118067e+01 -1.041467013460251501e+01 8.355881579676449178e+01 -2.775641900603309509e+01 -1.526506235672242617e+01 -1.840004515175774102e+01 4.435699524729305843e+00 9.192012233767346174e+01 -5.854409798740360316e+01 -2.520944018002609699e+00 -1.813737560931533892e+02 1.141533399451759578e+02 -1.167091580255539753e+02 -6.901100871594211128e+01 -2.195802365469302231e+01 -1.008908355284975187e+02 -4.964387219770011228e+01 -5.476325517755422112e+01 -1.842535978904987459e+01 1.272358403729620449e+02 5.050566589507047155e+01 9.378365605019311602e+01 -1.271395358405849692e+02 -1.294311191702457506e+02 -2.679293591700278512e+02 9.550302841462331571e+01 9.731325865368442862e+01 3.957981274120686521e+01 -3.972807865753550516e+01 -3.467100513399642381e+01 -1.716151429232233454e+02 1.364138637366200157e+02 -1.003177051857204845e+02 9.991834400970702745e+01 -1.486646134713277263e+02 -1.338932042861008220e+01 -5.173085518887096157e+01 -1.114222373485924464e+02 -4.307958717734054233e+01 -1.177069451250352472e+01 -8.660208177228753357e+01 -9.662040907145063784e+01 -1.155564253119579554e+01 6.648470906233197297e+01 -1.163936973199547396e+02 -1.459936603452543125e+01 -6.889352765025132896e+01 -1.227675210503549010e+02 6.090096645156412691e+00 8.877469014152619309e+01 1.547154752672630877e+02 -1.779151525660513400e+01 -4.302236927964236912e+01 -1.160915553132003311e+02 -1.530133972812843410e+02 9.707731029235057463e+01 -6.799285412483915536e+01 7.382054115923233439e+01 8.781121623000588627e+00 2.727948906983381860e+01 6.904392192555576457e+01 -7.931240225514613940e+01 7.735976717914657286e+01 1.078481522069375700e+02 1.474231329057229516e+02 -1.089471650272298149e+02 9.728252705685045498e+01 -4.473644029081327034e+01 -8.496935035078422516e+01 2.008512321676045076e+02 4.600486783908134925e+01 7.811221158953283350e+01 1.977856999915805147e+01 -5.930296601861240191e+01 -3.268827653447657156e+01 -1.968977442508632691e+02 9.887015615733818663e+01 7.622947723584601931e+01 -7.083306045506998316e+01 -6.837766786868709801e+01 1.358564140394901756e+02 9.457471211039450054e+01 4.784565410570253619e+01 7.115988233836060317e+01 -7.297432537573265598e+00 9.655519577781645069e+01 -9.697938628303140263e+01 1.743252720756619283e+02 -3.694794341312346830e+01 -1.141913336819702494e+02 -3.532976003533659792e+01 6.712796333434920371e+01 1.378530376253274881e+02 1.195653159540492183e+01 1.626565882848112778e+02 4.881093385940477702e+01 3.149630852444101947e+01 -1.041382685145672866e+02 4.187069255504095366e+01 -1.169066190859687140e+02 4.467634131394847685e+01 3.603763977498923055e+01 -1.154883521039870544e+02 -7.957859054140706689e+01 3.732353037515397887e+01 8.163418150152487840e+00 -2.168952204996131883e+01 3.922522885628083600e+01 -2.003174806127321972e+01 -5.903092277482095795e+01 -2.463442212478332749e+01 -2.094125986421840580e+01 -3.724937880380440447e+01 1.754213047390747704e+01 -7.539245544125715526e+01 1.112828950131227970e+02 -6.944727475172096831e+01 -3.859099453883670261e+00 6.149845780247897409e+01 3.601698547787187010e+00 1.495937042692865937e+01 1.495723373312621440e+01 -1.095545333565381156e+02 -4.111731572540715085e+00 6.084997178386212369e+01 -2.165159728815855544e+02 -7.946066213153076774e+01 -1.054015345807035260e+02 4.098778447030620953e+01 9.000351144976636419e+01 -8.587174631454172413e+01 -1.570559670873233244e+02 -1.732968886991919533e+02 1.864965044086974189e+01 -1.355351103294921415e+02 -5.927681486470453898e+00 1.380167457964643063e+02 -6.575378654587663796e+00 3.467550148670745358e+01 -9.229927013031660010e+01 7.455069407776873902e+01 -1.105911755543455826e+02 -1.442261971727147163e+01 -2.820316466105464315e+01 5.371502619042801285e+01 -8.196278909134143476e+00 9.845283973497761565e+01 -1.137634540897601738e+02 -4.665097362969238759e+01 8.080237501003095701e+01 6.158455602033481568e+01 -7.657544506554683039e+01 -5.065692906976513399e+01 -4.597331663139540581e+01 -2.692147253372265254e+02 1.799775737384644572e+02 7.067702732927203613e+01 -2.187375093432492079e+01 -2.758096093467187870e+01 3.858261897788677430e+01 -7.805524277597342575e+01 9.235739527954481787e+01 5.618877771227526807e+01 7.594288029339570301e+01 -7.803151016887974833e+01 -2.451826755341214081e+01 3.086851094598888778e+01 1.612016390686064682e+01 -3.977678917320780982e+01 1.465616932102441865e+02 -1.601125049790541155e+01 3.286608579013073239e+01 -2.131898730041825445e+02 -7.845492498637588596e+01 -6.777771061138311381e+01 2.135634456425119510e+01 1.011911113940422098e+02 -2.149037343213370548e+02 -1.733785285707061519e+02 2.053767822963266383e+02 -9.786632946199881999e+00 8.898014330348691203e+01 5.798037076096863984e+01 -5.125732532572728672e+01 -1.213976864361872146e+02 -8.818598555750139667e+01 -4.655146419615110176e+01 -3.464168181696806670e+01 -3.629731901748039746e+01 1.491244750690800913e+01 3.454613235759951806e+01 1.546887782405629252e+02 1.142739140257167207e+02 6.537108553509251685e+00 -4.109217042257922614e+00 -1.470629772387721630e+02 1.108889530494574984e+02 1.476006553587987753e+02 -9.592823325257795375e+01 6.830965620816084538e+01 1.504241729233414926e+00 5.095906193059198586e+01 1.161347657750610978e+02 6.574682152375112310e+01 -1.242647239640626537e+02 1.490745198710484232e+01 -2.724054078432426351e+01 1.033546828947453378e+01 -2.134861323276843947e+01 4.200418953480674134e+01 -2.417447818508842659e+02 1.679351903296164892e+02 6.687055656872523457e+00 1.478131481941896936e+02 -9.719026665478827098e+00 9.843438544303143090e+01 6.644456135126270624e+01 -3.890324312506191262e+01 2.783864031395165739e+01 -6.763453881564838355e+01 -8.265144756877030829e+01 -6.685372927097655804e+01 -2.977448910245612623e+01 4.192586135423328386e+01 1.022841068097923767e+02 2.640837922455076381e+01 5.781948785072300012e+01 -9.741011372267946911e+01 -1.274213693146410975e+02 -1.252876139786904375e+01 4.307628650113626634e+01 -4.216137091274966764e+01 8.798047713286494798e+01 5.166598595444506259e+01 -2.568156298145053640e+01 2.782840042702790129e+01 5.710786313624155497e+01 -6.701070400392526949e+01 -1.243391018913465160e+02 1.320759770058462550e+02 7.262261407781534395e+00 4.663099904581547861e+01 -1.389421699854569567e+02 -4.970524393789170148e+01 -3.782445390065379831e-01 -6.133703950874874522e+01 3.954673586039642696e+00 5.244135932934305089e+01 1.736591417441200065e+02 3.645798202803131005e+01 -1.020222317292744485e+01 6.737472413124110915e+01 -4.235161423949901405e+01 -1.015610463087069064e+02 -1.287795182489334707e+02 8.716335755264148943e+00 2.341190893818614427e+01 2.226396872536114557e+01 -5.305723639784800127e+01 1.126792066264285950e+02 -7.538906221653627426e+01 1.197265165066693555e+02 8.144834046306746700e+01 -6.069803774389739459e+01 -7.919175184926061206e+01 7.864223322318952114e+01 1.901083274799895406e+01 -4.908512166176358704e+01 -5.027158281507753657e+01 1.278223922323976183e+02 5.360235580013432610e+01 7.472575212385565635e+01 2.443809207542105000e+01 -3.926791315043610808e+01 1.003668663982597309e+02 -5.102896904345660545e+01 5.629495392287879874e-01 7.154548528837625554e+01 9.317368692990029899e+01 2.391168478870156378e+02 -1.639852600317620386e+02 1.505671965694684502e+02 -6.316992674252476547e+01 -1.426779028225184298e+01 -2.358602038395319767e+01 -1.940763618645117106e+01 -5.155525577954814054e+01 8.716534563376238509e+01 1.723669615968266839e+02 -1.112635245636247703e+02 2.899087891336083445e+01 -1.189637741908183131e+02 6.582439982916120869e+01 -4.167749126732119436e+01 -7.606891793261453927e+01 -5.062565620673525046e+01 3.870168256915791005e+01 1.816314829301762401e+01 -7.676157749518809226e+01 -1.324871619799055509e+02 1.950161020578277515e+01 1.481461190582760139e+02 1.343413647370297603e+01 1.716048828499791341e+02 7.004200460485471957e+00 1.266803016201759249e+02 -3.253851051943767914e+01 8.546994844562787819e+01 -6.725274094221985877e+01 -1.063230508232136629e+02 4.656667129646449865e+01 -5.462722198221666758e+01 -7.402946873559680796e+01 6.862906902534511744e+01 6.132073437954555395e+00 -8.886928705279768792e+01 -1.420736642973715220e+02 1.396013035967343114e+02 -8.416003746381913686e+01 -2.265475632452735866e+00 1.134182651842611733e+02 5.476102873235734592e+01 -9.280019553524435594e+01 1.009724106417355749e+01 2.665576621795497090e+02 5.035391801817883106e+01 -1.490929328135329968e+02 -4.515022950539169244e+01 -5.812720396612791518e+01 9.080587097151436637e+00 1.017826780524034689e+02 -9.797783447992122774e+01 2.046462874908096552e+01 1.235010225832539419e+02 1.776975534324238026e+01 -2.000871551195483846e+02 4.568600679616999116e+01 7.150708484596883352e+01 -1.289539124454283048e+01 3.104304923538034089e+01 1.974324486465636186e-01 2.142691548547125890e+01 2.627698639075463305e+01 1.097853032455506224e+02 9.294396444756381470e+01 1.488479946174038737e+01 1.412088242731355194e+02 -6.066938935376285968e+01 2.337611115037009313e+02 6.165950137947353227e+01 1.343732106664870969e+02 -2.080862671836473865e+01 8.540348110404340787e+01 -4.629622303546084794e+01 -1.387679985998410643e+02 2.477374331866687385e+01 8.996961213133448609e+01 -8.297550514985640291e+01 -9.930933634981289515e+01 -6.308964965027114147e+01 3.474371568952528122e+01 -1.082235522028628196e+02 7.079713055456571169e+01 2.655474746126450825e+01 -9.255101528640662423e+01 1.800406203961270251e+02 -1.114865137479495871e+01 -9.652737468738779114e+01 -1.275090253457024581e+01 -1.937861444694124557e+01 -1.329420889222662652e+02 -3.792930355781703611e+01 5.833901939467205011e+01 1.249975574217000229e+02 2.756583345152147047e+01 2.533508133483190861e+01 4.246751698582656331e+01 -3.382885405845776461e+01 -1.381123912572153642e+02 1.511042721893682739e+01 2.931508501889138785e+01 1.262645230315186069e+02 -9.331604553819882852e+00 -7.217318289530878417e+01 6.940758393122600012e+01 9.047902207327965796e-01 3.006328414752506717e+01 1.319679118784628997e+02 -1.682469503221832952e+02 -8.807441630410308164e+01 1.183006417993244241e+02 -1.988005096506140319e+02 -1.694705372762257127e+02 8.392199297285907278e+01 1.419092441454719165e+02 5.848032836479993790e+01 -4.151361150580000547e+00 1.434581987761833091e+02 -2.023483162697426110e+02 9.874536598856798264e+01 3.904761105909823016e+01 1.170962408969904089e+02 -1.737882685765654855e+02 9.806514245716694234e+01 -2.596350773070587081e+01 -1.231890834114526712e+02 -4.900535134740298560e+00 -8.512132917760105499e+01 -1.486804093793030290e+01 -4.062326955229723424e+00 -1.135283044978340286e+02 -1.136405701199637122e+02 -5.764449787035174211e+01 -1.187672104852117911e+02 1.851864525518552966e+02 -1.485544960930898526e+02 -4.625592138107020190e+01 1.590054601962963829e+02 3.127505119657751820e+01 -2.727761826620941292e+02 -1.172022956113242174e+02 3.269408220826418443e+01 5.038960826292890971e+01 7.815749063004530761e+00 -1.424233306932277685e+02 3.288284512919086922e+01 6.951848966600243429e+00 -6.849892527510840523e+01 1.868531245290746199e+02 1.866457182192914104e+02 4.023020100952760636e+00 -1.922061225020790687e+02 1.160788006239069006e+02 2.831550499305021162e+01 3.565789271826777185e+00 7.053171910019131019e+01 -1.912273908499946913e+02 -1.271665162015166288e+02 1.299208436710797514e+02 1.010602263258162026e+02 4.872224331811766262e+01 1.318933772409887126e+02 -1.642731467243450254e+02 -1.888864619515991095e+01 -1.201346090411873888e+02 4.030739873822565045e+01 -9.573145365346873348e+01 8.026264506892529482e+01 -3.129973949757136609e+01 1.141632008095483286e+01 1.635290449083157682e+02 2.635799649009853240e+01 -2.428881355335468868e+02 -1.165039622078955688e+02 -7.678896773994492264e+01 1.457047411647660908e+02 1.156109057415295105e+01 -4.972693737387783131e+01 2.788654804934926545e+01 5.754984292413094948e+01 -3.641060071442065293e+01 9.907070137976043611e+01 -9.285033474772322393e+01 4.535166932132366924e+01 1.031542352154713740e+02 -3.280260905523317660e+01 -9.042746420196262136e+01 -1.046003869648156837e+02 1.103670090679426607e+02 -4.580837009985543062e+01 1.811263741466050874e+02 5.271720072381601341e+01 1.022259936329808596e+02 1.701166253390103691e+02 7.878989720592559642e+00 -1.145900279404737176e+02 -1.526816025222375970e+02 -1.051812500454003754e+02 3.920746195258102063e+01
-1.220451043488350606e+01 -4.390991757153295261e+00 9.317408014458349896e+01 -2.061822675078967961e+02 1.398976395688259231e+02 5.711295051767426401e+01 1.369554881403907700e+02 -1.162754091559809950e+02 -2.472357317941320076e+00 -2.163978810141950149e+01 -1.975738574478124860e+02 2.940882649640322910e+01 -1.647934924166585802e+01 1.101042573644168101e+02 -1.126538626335698581e+02 5.555138009941990163e+01 1.127238298087346493e+02 -4.137537278862075141e+01 -4.455769296834569815e+01 -2.421837292194003410e+01 5.558798194547917149e+01 5.671036136584955756e+01 2.921369499520689672e+01 -2.092194331705090633e+02 -4.634044470740089139e+01 8.245114663122160437e+01 8.932383643118249950e+00 -9.368859535432889629e+00 -5.984867114372418229e+01 -1.399076564835966252e+01 6.599656880758377042e+01 -1.308404186994976897e+02 -5.580057411090342612e+01 8.047443762396632394e+00 1.868661714832997518e+02 1.908452316039602010e+02 -2.899373238210350223e+01 5.028508440076650032e+01 -2.179250129050214202e-01 -1.256325315494174930e+02 8.633657487584019918e+01 9.645002322165004216e+01 9.762567071413153030e+01 1.048739893225426023e+01 5.565806174301142306e+01 4.328556525586096626e+01 3.496973771312649859e+01 2.645640387616134959e+01 9.921036477861505887e+01 8.069172224260711346e+01 5.897176315302774441e+01 1.466716620055751150e+02 2.230965782558696731e+02 1.759938650127590449e+02 -5.322071966254014086e+01 4.432932310831559874e+01 -5.778888279251052040e+01 5.070036253602653176e+01 -1.729796921586721510e+02 5.083035259256850225e+01 -1.841796463832541235e+02 -1.518110528455314636e+02 1.166458353488437893e+01 -8.363434260500525852e+00 1.524981932909914235e+02 -1.871800010791750424e+02 6.771401716197809151e+01 2.068588832299083151e+02 -6.711346641616288800e+00 -1.753772534392698219e+02 3.191578140881866688e+01 1.773918003992478987e+02 -5.500252580374021960e+01 -2.399652228315860611e+02 -9.230340653358774716e+01 8.086367859826207649e+00 -2.070756097151173094e+02 2.894851491693220780e+01 -1.615227011426102877e+02 -1.669958244070763840e+02 -5.154400377897972163e+01 1.371786373316838308e+02 6.247361349037336709e+01 9.574279971028058611e+00 -7.989880959653031312e+01 -3.835522353014778929e+01 5.737712018969852323e+01 -2.091558110416135605e+02 4.872326586003286764e+01 -6.743597454423500892e+01 -7.043883482773520655e+01 -1.592850283379829079e+02 5.853702621531402173e+01 8.346749850253958414e+01 -1.462296476964862677e+02 1.557370252133878239e+02 -3.590963754339610148e+01 -1.525312295694999243e+01 7.906908134555908418e+01 1.409461579143597874e+02 1.965804545800062186e+01 1.365419849076497769e+02 -1.672424958898298186e+01 -8.176667064496723469e+01 -1.766226380875161439e+01 9.109299666824404085e+01 4.170106763720933429e+01 9.071501260066143857e+01 8.749801846135002847e+01 -7.709599951635817661e+01 -1.575644263801654859e+02 1.140972413534343843e+02 5.028595641615454070e+01 1.512628176072396080e+01 2.834288323445624158e+01 -6.299320691861748145e+01 8.904862255902155255e+01 8.337536319440684451e+01 -1.278588041599608260e+01 -6.611216162880675995e+01 2.841377340984794841e+01 5.841989962136898029e+00 -5.698553835449868643e+01 1.573614213064949467e+02 -3.028888841854420733e+01 1.128142190293788900e+02 -6.501222661091090060e+01 3.562248243186439822e+01 -3.342455355232026903e+01 8.306823704435659295e+01 2.176694182403091204e+01 1.072807256842015846e+02 -1.077308711806397667e+02 6.901323971917459232e+01 1.145818561484729230e+02 -4.146047330737749803e+01 7.162759383439970762e+00 -1.196605734210901062e+01 1.085075556420869134e+02 3.489397354372353988e+00 1.565142499972320138e+02 -1.313295877760446047e+02 1.082963250645101994e+02 -8.471016726275767894e+01 8.904236377887578158e+01 -1.273290354409039651e+02 2.740193309321645287e+01 2.301616581218853952e+01 1.618406205775210882e+00 3.374592235101232518e+01 4.283845034853519707e+01 -1.145889456202969647e+01 1.021445056155961950e+01 1.004779075985568113e+02 1.182516792172500715e+02 -8.064836314480828605e+01 -5.031235037382793962e+01 4.395958992879829452e+01 1.385449979859535441e+00 -1.274155199477693685e+02 -5.133033917769088816e+01 -3.288272234191123289e+01 4.544706979356844556e+01 -6.090401960430875050e+01 2.129191454226634406e+01 1.492306122803745154e+02 -7.390895470438904624e+01 7.528355551408733959e+01 7.821381314086880820e+01 1.054809481624694634e+01 1.149543956185149511e+02 5.855817386613166065e+01 1.565146333752476266e+02 -3.231297689549695917e+01 1.047375794791342827e+02 5.180035352133176474e+01 -1.495450074544077168e+01 1.903219554069788728e+02 -1.293874343496855488e+02 4.562110713669565598e+01 -1.750130322811271526e+02 -7.852799640566588835e+01 3.833206110591986970e+01 -6.742591813127498312e+01 -1.454317080726402480e+02 1.861615423537772074e+02 -8.011411273323265902e+01 -4.437016690590963464e+01 -4.322407614091659411e+01 1.137490940582692502e+02 1.819631523893397684e+02 6.049070692802072102e+01 1.366543114575781033e+02 2.051182636219932931e+02 -1.463873220727291313e+00 1.521759954612615786e+02 6.623888321302915472e+01 1.779402342865382707e+02 -1.176126891249611504e+02 -1.102335811757584239e+01 5.963459677615488452e+00 1.774931861681311887e+02 -8.486376811721282820e+01 -5.662708280735299837e+01 -4.945250457617844120e+01 -1.253362826855372845e+02 4.376389337908217492e+00 -9.431440096785343030e+01 1.441712097419395775e+02 2.197844904926664711e+01 1.118305674800802940e+01 6.757396447709832898e+01 -4.563291048929518645e+00 1.094136729357733202e+02 -1.485353878877090779e+02 4.248569306770122722e+01 -1.595662651452938974e+02 1.097518338468432120e+02 8.990465784372815961e+01 -6.285252060569698784e+01 4.378467905561213058e+01 2.225921576698301294e+02 -2.850684256558918150e+01 3.891847025249716552e+01 -3.055478789335712619e+01 5.416856240539611633e+01 6.003381764363140860e+01 -5.890206358435301937e+00 9.519456075951751473e+01 9.475041138547730668e+01 -1.811706759047957291e+02 -1.431955407439595547e+02 -1.120306651927747197e+02 -8.780458119800737649e+00 -1.399138547355302933e+02 1.079823261198211100e+02 1.030622540502299813e+02 5.517276522812329631e+01 1.043761155438584787e+01 1.473087762525646554e+02 7.844399582753243294e+01 6.309828796463028766e+01 -9.487182718852423591e+01 1.424997965978432148e+02 -3.398995815268578635e+00 1.022050851136099254e+02 8.248862655650064823e+00 3.432117138286797342e+01 -7.066674180310047859e+01 -8.473042689596232435e+01 6.686915971921779089e+01 -3.644658254141778464e+00 1.364600839479340664e+02 -1.170440397405129929e+01 -2.640457938040496000e+00 4.281661330421080436e+01 2.110345750338241544e+01 1.320174945020809787e+02 1.377865817806058502e+01 3.348323790370459108e+01 -1.443317755650979279e+02 6.138350504499292981e+01 1.246736057473149373e+02 -1.632572803762993985e+01 -2.126422723964796546e+02 7.869286549008840836e+01 1.269061233232554855e+02 1.904161614697222404e+01 1.760316770116423299e+02 -4.082579748618771376e+00 3.985708109792548015e+01 -4.061049808792761695e+01 -1.288027806455936854e+02 5.210013215758135630e+01 -4.412496033598959144e+01 -7.515176761150344475e+01 3.829184601276562461e+01 -1.714829444274046466e+02 6.642008074665464790e+01 1.526569353159370337e+02 -9.389292566276746754e+01 1.605256850110754954e+02 -9.044805099613714106e+01 -5.505837003175988897e+00 -9.805407923486646027e+00 7.109096139745581411e+01 -4.325678828597337144e+01 -9.982446128131414298e+01 -8.212847230475634319e+01 1.350562177566531545e+02 5.474952262235277800e+01 -1.221455908613967267e+02 4.066270546121906193e+00 4.014941912442995431e+01 7.638096115200821146e+01 -3.730735037346978089e+01 5.541807194750959553e+01 -6.380096009477843921e+01 -1.500717682403632409e+02 -3.200994725162221499e+01 1.303194789245627021e+02 -1.049020377577188015e+02 -5.869230464793549373e+00 -1.504775989319974485e+02 -4.547409215331199128e+00 -1.348369709415842692e+02 3.049360462680239081e+01 5.572902850205897352e+01 -4.649157086590383159e+01 -7.606397421554483174e+01 5.223317030240459680e+00 6.873319093857780615e+01 -6.258733585378504216e+01 1.243266600755001718e+02 9.752512671322460847e+01 -1.178281533942862325e+02 -9.735870213718536093e+01 1.246567685996411399e+02 6.575899721846066370e+01 1.385950288875382910e+02 9.206231749731297498e+01 7.478981691057029479e+01 -5.559712385854199113e+01 -7.532496282435643309e+01 -7.099375295996965463e+01 1.884400977890402942e+02 2.826776318998419057e+01 -2.297558373957615174e+01 -6.303243349065236600e+01 -4.589226823109011377e+01 -1.208619353259962992e+02 -1.511988010291524631e+01 -1.610276771167096683e+02 1.147069282712322149e+02 4.214280332648252880e+01 -1.056751286795388296e+02 -4.443157162400284932e+01 1.098350639522611800e+02 -8.884754676453057698e+01 9.435695105511159397e+01 -1.087168092592672508e+02 -1.081865526687844792e+01 -8.761344898111597956e+01 8.236261872936533734e+01 -3.894913903567135804e+01 9.347219289742390913e+00 2.695152680198201267e+01 -1.161309164633498341e+02 1.145762182032520116e+01 4.440641182199366455e+01 -2.043368974473711219e+01 -6.303704008889724975e+01 1.858646170550964598e+02 7.929698121347158235e+01 4.315311598957131878e+01 -2.878875112468165653e+01 7.350158809897303058e+01 1.536869435193675599e+02 -8.450227146627703689e+01 1.920892828810674757e+02 -1.220433683637095044e+02 -1.685732735766054020e+02 1.390771201850222667e+02 -2.145202629704816957e+02 -8.189555465040313509e-01 -2.245553078764451413e+02 -1.401092269558807288e+02 6.581861968900494730e+01 -1.334303748168554193e+02 5.348960163552808922e+01 1.008751961490794287e+02 -1.469221648039666661e+02 -2.753634446932930047e+01 6.915709559502255388e+01 1.227381009626124069e+02 -1.706706541442589469e+02 8.025456553371954271e+01 -8.983123211023479371e+01 -8.999995628784871471e+00 -1.265956729855763818e+01 -7.291527322615755224e+01 -8.273678526331342198e+01 1.662768061123944676e+02 -1.994582547467056344e+01 1.260520395694703533e+00 1.194418047820346089e+02 -7.960438435949441782e+01 -3.158188639964822642e+01 -9.883320399938965295e+01 -4.477327509824595353e+01 4.685980204618925171e+00 5.443787814997423880e+01 -1.240289234692051679e+02 2.179040289474450560e+02 -4.949536250320843322e+01 1.126618064756963093e+02 -4.488893011753067697e+01 1.101111655705222745e+02 1.280988653523628216e+02 4.404308063241123961e+01 1.122785848070505352e+02 -3.978283918600654090e+01 1.288312724340019315e+02 -1.441224464255969053e+02 -6.021781834989155158e+01 -5.798009247894059826e+01 2.360426977449602859e+01 -1.494375956861149461e+02 6.678805097482505460e+01 -2.841218981498828811e+01 -7.611222354822410807e+01 8.247418402128283788e+01 -1.391883844599305178e+02 -8.405733830051032385e+01 -4.855900143557129667e+01 3.045081446582400631e+01 1.195462541065134303e+02 1.075645105717017174e+02 6.359587155193571562e+01 -1.381223834167818243e+00 1.611826090825266817e+02 1.128673692269307622e+02 -8.709590684521741366e+01 -7.189558457697850713e+01 5.050827361875143140e+01 9.113006482468335889e+00 9.025362947600730479e+01 1.536914796803746128e+02 6.505293385676036166e+01 2.258661733916333958e+01 -9.420270860471029550e+01 1.581813075802794515e+02 -1.046755796235809299e+02 -1.522072760379849683e+02 6.055096343459329233e+01 1.027145614829404536e+02 1.812526911577321442e+01 -1.278606481202200769e+02 2.732285808106897207e+01 3.901478805419265683e+01 -3.900166489237196221e-01 1.205550815576036428e+02 9.019382384787091667e+01 1.575942221227877127e+01 7.209957432183141179e+01 -9.832209641004310186e+01 -5.926240288920817001e+00 9.051745072400329661e+01 2.733439356121728636e+01 -5.981803924082552726e+01 1.822552369042288660e+02 2.126226579117892186e+02 -1.153361854624496203e+02 -2.544818281371945901e+01 -1.932140414722719868e+02 -6.637278383077608623e+01 1.438819691487028933e+02 3.042618131659798220e+00 -6.526757275117155643e+01 1.504934293022467955e+02 -5.739565046828752060e+01 -1.476445905800521530e+02 1.255230609858885060e+02 -6.169722283048914591e+01 3.179467174171999844e+01 7.929093771922150324e+01 1.269202237878348072e+01 -2.189382616949714588e+02 3.893095604482396510e+01 -5.725228820237883376e+00 8.284120199361611014e+01 -2.165742022546294265e+01 9.280111168696146251e+01 1.565515334005754511e+01 -7.770257424147519032e+01 -1.883303258480172815e+01 -1.610106671901851314e+02 1.055983591870478193e+02 2.324353220533771847e+01 -3.820673853500134243e+01 -4.755924112662486891e+01 -5.785591439692563398e+01 3.781513829805182780e+01 1.476214460430301756e+02 1.218709525800017275e+02 3.949932127390382419e+01 -1.817527063534073761e+02 -3.563760913746645542e+01 4.026930553049525940e+01 1.077263928391612495e+02 8.002419218558969760e+01 1.415266627735642757e+01 -1.708156486049367970e+02 1.208647029054755961e+02 -2.054685607691318125e+02 -1.890166762656926949e+02 -1.651232924531940816e+00 -6.773570107733993950e+01 -2.221206011927270296e+01 7.998920731313749855e+01 5.134814785353753308e+01 -1.020752503053874705e+02 -1.391376407023811907e+02 1.337048371794855939e+01 1.135842462927747789e+02 1.893168938915229305e+01 -5.207738686204543654e+01 -4.749307796205552989e+01 -1.066046951412895361e+01 1.481997690442971702e+02 2.052068049381193404e+01 -1.625061178040341758e+02 1.200935948488891825e+02 -6.254876436577777099e+01 -3.898879123208141007e+00 1.439908293666773318e+02 -4.884206783752566849e+01 -1.833951269994995315e+01 -1.027186363047055124e+02 -5.597209124806702185e+00 -2.227977888728930367e+01 1.230678616417518327e+02 1.122201351197925021e+02 6.318976746835259206e+01 6.124763260426097133e+01 -1.748212694782425203e+01 1.263055892239803626e+02 -1.054749366838544091e+02 -3.964170654790409642e+00 -8.513049749340687811e+01 1.467942064708948635e+02 6.816826617122757170e+01 4.826456770644854544e+01 7.676235122986711623e+00 -4.987578680356359939e+01 3.213915716452244453e+01 6.249206086562921314e+00 3.496120907653818222e+00 2.250365166584944276e+01 5.587865025158750143e+01 1.591749760704309438e+02 -3.638057673425871741e+01 -4.856187377103408664e+01 6.245257741422759779e+01 1.081114622283784854e+02 -1.199042923278503281e+01 8.600669472956229811e+01 9.740526810002175750e+01 1.971143998555687347e+02 -8.088427054041747510e+01 -1.146386859296574698e+02 -2.679163096159922475e+01 5.814985325904138591e+01 -9.489333796203675675e+00 1.003927169018308945e+02 3.484002533239375055e+01 -1.519875300007272472e+02 4.209730057947025728e+01 -8.360221250965641104e+01 -1.264218143818911813e+02 1.256937935652104699e+02 -7.110340422760404522e+01 5.534863092681254670e+01 1.037970882244645452e+02 -9.241798972688488334e+01 2.199589103311151206e+01 -6.736984635328057891e+01 3.766599088823365804e+01 -1.071502884814682659e+02 5.757187585405641528e+01 5.109364528443815345e+01 3.546379860898149161e+00 7.840144771445567073e+01 -1.426553967764566266e+02 7.127149662244842432e+01 -2.744838981120099675e+01 -1.565764771843011260e+02 8.764234111636461932e+01 2.279429613989518444e+01 -1.816913637623089244e+02 2.181159900112284049e+02 -5.094602234161964560e-01 9.744397028039239217e+01 -1.117521329239066432e+02 -1.799639615821746474e+02 -8.648752261135922481e+01 2.351757124286318668e+00 1.323601543904275673e+02 3.616874158961968178e+00 -8.859045565215517115e+01 4.659313681012347530e+01 1.269983575451759918e+02 6.017408235196874244e+01 -4.789776895281171676e+01 -5.482481844076399824e+01 7.830618829416000892e+01 2.842199707523070984e+01 -1.813114077467083973e+02 -1.920699033509222886e+01 1.566200187064690397e+02 9.150323933866556558e+01 -5.316447602346097767e+01 -1.036107298861407884e+02 -3.952999769150080311e+01 -4.455999372082676047e+01 -1.060560030058338299e+02 -1.702535953031022942e+01 -4.230530666980835264e+01 -1.053003213861861127e+02 -1.223186133369777622e+02 -2.502393415022817180e+01 -1.164957017600190170e+02 -1.241074785499285866e+02 -3.552382488938219041e+01 -5.123949985100098559e+01 -1.029402725222147410e+02 1.786848776351055506e+02 1.008709085295052610e+01 -2.698853694329400454e+01 -1.630097710589243221e+01 7.551455687018840024e+01 1.503630280607126224e+01 2.404101581245925701e+01 -2.032625338143411042e+01 -4.450131309367068155e+01 2.005720932011410440e+01 -1.395741533940427814e+02 -1.527728826567949625e+02 -8.668026112138117867e+01 -1.831815493276420455e+02 -8.598746875628930297e+01 8.226151950891126319e+01 5.893417996717808904e+01 -2.498484152483994336e+01 5.832086428857096649e+01 -1.503322586965873597e+02 -3.931963538308468031e+01 -1.115043490718355770e+02 -6.405603080768857183e+01 2.025913079019492216e+02 -1.970370418333119460e+02 1.970072780222474762e+02 2.391743560381788569e+01 -5.413870508257723912e+01 8.843680280740427690e+01 1.190859655397470362e+02 -4.979443197126508380e+01 -1.956292473652545993e+02 -1.430972616206506416e+02 9.819495385404835019e+01 8.038626352839744982e+01 -1.300898109406718390e+02 3.061811272452198907e+01 -3.812690500120034898e+01 -7.429444272746819422e+01 -2.728993423611675340e+01 -5.259015346302384586e+01 -8.291901607960220133e+01 -3.272749696900462624e+01 4.401445138108418753e+00 -3.128788547556547783e+01 -3.211932939645885665e-01 -1.368818307988704142e+01 8.819204061263639005e+01 1.220534308656670106e+02 1.261757761863957938e+01 1.614598627123337948e+01 -6.065547758782403776e+01 -1.882487040477279834e+02 3.248093127907575450e+01 -8.800562113363413630e+01 2.482148235314670259e+01 -7.726426190439507735e+00 1.067799936319429932e+00 6.959036356179159100e+01 1.170168626796237135e+02 -6.769061881650269186e+01 3.647440534337681584e+01 -1.852441409344957890e+02 9.320971890876410981e+00 6.575218719833525682e+00 -1.176666178865924905e+02 -3.233604697398926930e+01 -4.255204997077803597e+01 4.561184276173062990e+00 -9.812705268563841798e+01 2.595763628643298304e+01 -9.371188680270508087e+01 5.372951987465501844e+01 6.518267418423521065e+01 3.544162325492985843e+01 -2.784669321002242981e+01 1.032017036517095647e+02 5.868174636171993086e+01 7.680857463104679539e+01 -6.434091661000496742e+01 1.938620311123585438e+01 1.227175283192018185e+02 -5.616851723586515277e+01 -6.646704658073623762e+00 3.068753636820619590e+01 -1.232764011910341964e+02 9.383403015360190125e+01 8.595480062334476656e+01 -9.713418368530108182e+01 -7.900283115986574956e+01 -5.330542468537393574e+01 -4.386660491326701816e+01 -1.536480570635107767e+02 -1.303361484569972220e+02 -1.271079377416784695e+02 1.013515877092127795e+02 5.740318715562496266e+01 1.530287897697073731e+02 6.925098100810735957e+00 -8.210456911240289912e+01 1.801749262210146441e+01 1.325086452247515645e+01 -6.100085365762446088e+01 7.098868437020854572e+01 1.131589685860857486e+02 9.507704398089998676e+00 1.373261632991567751e+02 2.152657097275248432e+01 1.062919955492449589e+02 1.440737659034408757e+01 -1.990798405075042581e+02 2.092080875283836292e+02 -4.687591213608323670e+01 -1.427215449819910305e+02 -6.435041580989602039e+01 -4.097097142886060084e+01 3.953895428050285688e+01 2.442011885547309902e+01 4.365663916355654806e+01 -7.055571532255916622e+01 1.165987865792940141e+02 -8.216550803901782274e+01 -6.681089002357217588e+00 1.355096618827597013e+02 1.042272756546803549e+02 5.524149046448961542e+01 -1.683400718843569166e+02 2.417475480249120778e+01 1.333740086757732684e+02 2.224075200632096028e+01 9.266321609016358707e+01 1.009913921555024388e+02 -2.007253641989276787e+02 7.295569027573985466e+01 -5.475505350330190879e+01 -2.132238304599107153e+02 8.383832337848726013e+01 2.323527232149150379e+01 -1.149707207117637182e+02 -5.508929405480558472e+01 1.303478423056984354e+02 1.385011978746246086e+02 -7.115246498279223886e+01 -1.196700290166075291e+02 -7.801359644626447221e+01 -1.549294051577337257e+02 1.828384192712634615e+01 3.543068996456592146e+01 -1.589627074936589146e+01 -1.154081001100087356e+01 -8.333084617350307610e+01 -8.201856427844599295e+01 -2.292011437587317957e+01 1.239882123784690151e+02 1.258837916859132662e+02 7.491856526338241906e+01 8.966855432414678262e+01 -7.234468514356700553e+01 -1.664687738908378947e+02 -1.210790815237942120e+01 -2.121196448955726055e+01 -6.535053793245387510e+01 1.350261873368716836e+00 6.712771404302208111e+01 -4.861860190473968402e+01 2.277169240795540262e+01 7.279548948385760809e+01 6.444677472754986525e+01 1.016373479200268832e+02 -1.370733897198068973e+02 3.641957616779627926e+01 7.657315805512649831e+01 8.709014465932919791e+01 5.424451642976178078e+01 -9.487627759072181277e+01 1.258281609795933207e+02 1.171943734016212630e+02 8.811151220561949060e+01 9.332810413751329293e+01 -7.737869436718155214e+01 -1.364249318016707591e+01 -1.192528110819027276e+01 7.078032475951299318e+01 5.972303602033549907e+01 5.153553806996791309e+01 8.964263153939531037e+01 1.071134003309515350e+02 1.140010716740989238e+02 -5.952155065069451467e+01 7.410739793281997834e+01 5.993345632387885757e+01 -1.081501492120114705e+02 1.209684946591930981e+02 -9.198027296224577043e+00 -2.568715237218281899e+01 1.833096559319364758e+02 8.143912511118392672e+01 1.142138107739073831e+02 -1.328474877536891938e+02 -1.452434573456810085e+02 -1.413850032225500968e+02 -1.124294189468691201e+02 -4.077542056459320463e+01 1.010346870070887775e+02 -1.554001237672795241e+02 2.992082468793261540e+01 1.330128496360105430e+02 -5.472659334997341318e+01 -8.419587051862683325e+01 -3.242143726547494964e+01 1.252609889520521875e+02 2.096341185771836138e+02 -6.159825796484292226e+01 1.830424270474141935e+01 -2.552359295650378002e+01 6.323773115337173323e+01 5.558624531187934537e+01 -1.969080769886754467e+02 -8.190203276833926793e+01 1.271128575420386682e+02 1.291357558684779008e+02 8.734008943348348453e+01 -4.609086006164474725e+01 -7.001628272002675146e+01 -4.190446761045429014e+01 -1.632712625229582102e+02 6.572893677241636112e+01 -2.368772096622288714e+01 1.538153671035481409e+02 -2.585749249879637901e+01 -2.910107870247686037e+02 1.339641793902512745e+02 4.637303430766936430e+01 -1.090702973373657159e+02 -2.055740544106700440e+01 3.264015028900593052e+01 -1.921600429926881759e+02 -1.056878572857965963e+02 -1.015011120873445662e+02 -5.213189291999905350e+01 5.806745521845164859e+01 -1.525848338026170552e+02 9.980115718291298776e+01 -5.027972456881875019e+01 2.727822880416298279e+00 -1.234851938677092278e+02 -9.603169084614792439e+01 1.627572554501617788e+02 8.023191897649334692e+01 -3.909355013162718251e+01 3.435701409678696194e+01 -2.595110984325361869e+01 4.017210971304663047e+01 -9.688140134737376741e+01 9.168877643070624117e+01 4.673784218519047329e+01 -1.100969420189194778e+02 1.081173769920201693e+02 -4.545047720841319006e+01 9.251649007173524808e+01 -4.573843133631851998e+01 8.182947596309061566e+01 -1.420715937324353035e+02 1.322490367708624319e+02 2.292721216447797872e+01 9.329063706704272363e+01 1.208635329006729364e+02 -1.359113584250617066e+02 -7.961629617869101594e+01 -9.790584977156352409e+01 6.195707659198191664e+01 -1.588259680751821179e+02 1.405398038160156773e+02 1.319074205672761195e+02 4.909260070434030609e+01 -7.870539390634618826e+01 5.291859187661299302e+01 -9.955895542412640964e+01 -1.009927168429342004e+01 3.240062916101173585e+01 -1.703675017133852521e+02 -7.560143089875062117e+01 -1.254930419311154743e+01 9.473331539886740416e+01 -4.658670555792003398e+01 1.009145775075372740e+02 -5.963821216751684062e+01 -1.954934485985746733e+02 -9.933862929743462189e+01 -3.151861542296586549e+01 -5.581491193489097213e+01 2.789542238287877041e+01 4.776752703811468592e+01 5.861613740706258291e+00 2.365295296826529281e+01 -1.090026463786591080e+02 5.007913655815323040e+01 3.031277349443724134e+01 -6.695921522268029946e+01 8.647427243919587170e+00 5.243851158718728556e+01 -8.860161784223802783e+01 -5.121063435944799380e+01 -2.249451281408633818e+01 9.062791391730016244e+01 -1.592269511508007440e+01 3.902171328961563379e+00 -2.120988253691980390e+02 -8.829419936465396290e+01 9.198828114691795577e+01 -8.281220038399389693e+01 2.912359035202647206e+01 2.886200387352648988e+01 3.519575534248699000e+01 6.143006728393398674e+01 -1.649916892882253308e+02 1.339004105090855319e+02 7.591189892040475229e+01 -7.038829443640385541e+00 -7.513737129820735561e+01 1.039702989167644347e+02 5.775578478395272697e+01 -1.870973554322929431e+02 -4.683430541645697787e+01 -7.602913629675911977e+01 -4.813998996622347448e+01 -5.754023895700932201e+01 -9.203231525786769396e+01 -5.612597635410698160e+01 1.782024424851799154e+02 -1.587770299261235607e+02 6.087622299625229516e+01 2.581582893587001593e+01 -6.996412450921091875e+01 9.690803940224011370e+00 -3.671355614747304941e+01 3.212737157065445270e+00 -8.947917211824295691e+01 -1.838486146170667723e+02 1.711783501460949353e+01 3.895715525858273054e+01 -1.190013089445739070e+01 -8.271670117173524517e+00 -3.700938183527735958e+01 -1.766640470604047835e+02 -2.848103065340899320e+01 -6.080016030640671687e+01 1.293178959462992061e+01 -1.454005477760103737e+01 8.435424886179656312e+01 -5.866802909049756209e+01 -9.647126774676753769e+01 -3.316449385567654673e+01 -8.314796859788028627e+00 4.221225461387335542e+01 -2.055605851062204081e+01 -6.879581974697158842e+01 -1.479201907848153930e+01 1.862699344554342673e+01 4.421080914890983138e+01 -1.060594258273884662e+02 -1.293860991431698437e+02 2.144351640890788815e+02 -2.032229035301144222e+02 -7.064699699992303294e+01 -4.309033808420344513e+01 1.301726437011904807e+02 5.889883083934087438e+01 2.132102548381825784e+02 2.278993315010566789e+02 -5.809460058021640094e+01 1.204845963564654738e+02 -5.226112056956083052e+01 -3.802360085689505098e+01 -9.364541206000183138e+01 -7.433113425282847686e+01 -6.471427243102152715e+01 -8.292662570746151118e+01 -2.270084761232033657e+02 -2.521489600120200976e+02 1.253791746926971058e+02 -2.473100980588822395e+01 4.961049294321315273e+01 1.219608789948139247e+02
