# 
#                 ----------------------------------------------------
#                 Data from a 3D direct N-body simulation. 
# 
#                 rows are i-particle; 
#                 coumns are :mass, tag, x ,y, z, vx, vy, vz, ax, ay, az
# 
#                 NTHU, Computational Physics Lab
# 
#                 ----------------------------------------------------
#                 Time = 2.6999999999999864
1.000000000000000000e+00 2.000000000000000000e+00 3.000000000000000000e+00 4.000000000000000000e+00 5.000000000000000000e+00 6.000000000000000000e+00 7.000000000000000000e+00 8.000000000000000000e+00 9.000000000000000000e+00 1.000000000000000000e+01 1.100000000000000000e+01 1.200000000000000000e+01 1.300000000000000000e+01 1.400000000000000000e+01 1.500000000000000000e+01 1.600000000000000000e+01 1.700000000000000000e+01 1.800000000000000000e+01 1.900000000000000000e+01 2.000000000000000000e+01 2.100000000000000000e+01 2.200000000000000000e+01 2.300000000000000000e+01 2.400000000000000000e+01 2.500000000000000000e+01 2.600000000000000000e+01 2.700000000000000000e+01 2.800000000000000000e+01 2.900000000000000000e+01 3.000000000000000000e+01 3.100000000000000000e+01 3.200000000000000000e+01 3.300000000000000000e+01 3.400000000000000000e+01 3.500000000000000000e+01 3.600000000000000000e+01 3.700000000000000000e+01 3.800000000000000000e+01 3.900000000000000000e+01 4.000000000000000000e+01 4.100000000000000000e+01 4.200000000000000000e+01 4.300000000000000000e+01 4.400000000000000000e+01 4.500000000000000000e+01 4.600000000000000000e+01 4.700000000000000000e+01 4.800000000000000000e+01 4.900000000000000000e+01 5.000000000000000000e+01 5.100000000000000000e+01 5.200000000000000000e+01 5.300000000000000000e+01 5.400000000000000000e+01 5.500000000000000000e+01 5.600000000000000000e+01 5.700000000000000000e+01 5.800000000000000000e+01 5.900000000000000000e+01 6.000000000000000000e+01 6.100000000000000000e+01 6.200000000000000000e+01 6.300000000000000000e+01 6.400000000000000000e+01 6.500000000000000000e+01 6.600000000000000000e+01 6.700000000000000000e+01 6.800000000000000000e+01 6.900000000000000000e+01 7.000000000000000000e+01 7.100000000000000000e+01 7.200000000000000000e+01 7.300000000000000000e+01 7.400000000000000000e+01 7.500000000000000000e+01 7.600000000000000000e+01 7.700000000000000000e+01 7.800000000000000000e+01 7.900000000000000000e+01 8.000000000000000000e+01 8.100000000000000000e+01 8.200000000000000000e+01 8.300000000000000000e+01 8.400000000000000000e+01 8.500000000000000000e+01 8.600000000000000000e+01 8.700000000000000000e+01 8.800000000000000000e+01 8.900000000000000000e+01 9.000000000000000000e+01 9.100000000000000000e+01 9.200000000000000000e+01 9.300000000000000000e+01 9.400000000000000000e+01 9.500000000000000000e+01 9.600000000000000000e+01 9.700000000000000000e+01 9.800000000000000000e+01 9.900000000000000000e+01 1.000000000000000000e+02 1.010000000000000000e+02 1.020000000000000000e+02 1.030000000000000000e+02 1.040000000000000000e+02 1.050000000000000000e+02 1.060000000000000000e+02 1.070000000000000000e+02 1.080000000000000000e+02 1.090000000000000000e+02 1.100000000000000000e+02 1.110000000000000000e+02 1.120000000000000000e+02 1.130000000000000000e+02 1.140000000000000000e+02 1.150000000000000000e+02 1.160000000000000000e+02 1.170000000000000000e+02 1.180000000000000000e+02 1.190000000000000000e+02 1.200000000000000000e+02 1.210000000000000000e+02 1.220000000000000000e+02 1.230000000000000000e+02 1.240000000000000000e+02 1.250000000000000000e+02 1.260000000000000000e+02 1.270000000000000000e+02 1.280000000000000000e+02 1.290000000000000000e+02 1.300000000000000000e+02 1.310000000000000000e+02 1.320000000000000000e+02 1.330000000000000000e+02 1.340000000000000000e+02 1.350000000000000000e+02 1.360000000000000000e+02 1.370000000000000000e+02 1.380000000000000000e+02 1.390000000000000000e+02 1.400000000000000000e+02 1.410000000000000000e+02 1.420000000000000000e+02 1.430000000000000000e+02 1.440000000000000000e+02 1.450000000000000000e+02 1.460000000000000000e+02 1.470000000000000000e+02 1.480000000000000000e+02 1.490000000000000000e+02 1.500000000000000000e+02 1.510000000000000000e+02 1.520000000000000000e+02 1.530000000000000000e+02 1.540000000000000000e+02 1.550000000000000000e+02 1.560000000000000000e+02 1.570000000000000000e+02 1.580000000000000000e+02 1.590000000000000000e+02 1.600000000000000000e+02 1.610000000000000000e+02 1.620000000000000000e+02 1.630000000000000000e+02 1.640000000000000000e+02 1.650000000000000000e+02 1.660000000000000000e+02 1.670000000000000000e+02 1.680000000000000000e+02 1.690000000000000000e+02 1.700000000000000000e+02 1.710000000000000000e+02 1.720000000000000000e+02 1.730000000000000000e+02 1.740000000000000000e+02 1.750000000000000000e+02 1.760000000000000000e+02 1.770000000000000000e+02 1.780000000000000000e+02 1.790000000000000000e+02 1.800000000000000000e+02 1.810000000000000000e+02 1.820000000000000000e+02 1.830000000000000000e+02 1.840000000000000000e+02 1.850000000000000000e+02 1.860000000000000000e+02 1.870000000000000000e+02 1.880000000000000000e+02 1.890000000000000000e+02 1.900000000000000000e+02 1.910000000000000000e+02 1.920000000000000000e+02 1.930000000000000000e+02 1.940000000000000000e+02 1.950000000000000000e+02 1.960000000000000000e+02 1.970000000000000000e+02 1.980000000000000000e+02 1.990000000000000000e+02 2.000000000000000000e+02 2.010000000000000000e+02 2.020000000000000000e+02 2.030000000000000000e+02 2.040000000000000000e+02 2.050000000000000000e+02 2.060000000000000000e+02 2.070000000000000000e+02 2.080000000000000000e+02 2.090000000000000000e+02 2.100000000000000000e+02 2.110000000000000000e+02 2.120000000000000000e+02 2.130000000000000000e+02 2.140000000000000000e+02 2.150000000000000000e+02 2.160000000000000000e+02 2.170000000000000000e+02 2.180000000000000000e+02 2.190000000000000000e+02 2.200000000000000000e+02 2.210000000000000000e+02 2.220000000000000000e+02 2.230000000000000000e+02 2.240000000000000000e+02 2.250000000000000000e+02 2.260000000000000000e+02 2.270000000000000000e+02 2.280000000000000000e+02 2.290000000000000000e+02 2.300000000000000000e+02 2.310000000000000000e+02 2.320000000000000000e+02 2.330000000000000000e+02 2.340000000000000000e+02 2.350000000000000000e+02 2.360000000000000000e+02 2.370000000000000000e+02 2.380000000000000000e+02 2.390000000000000000e+02 2.400000000000000000e+02 2.410000000000000000e+02 2.420000000000000000e+02 2.430000000000000000e+02 2.440000000000000000e+02 2.450000000000000000e+02 2.460000000000000000e+02 2.470000000000000000e+02 2.480000000000000000e+02 2.490000000000000000e+02 2.500000000000000000e+02 2.510000000000000000e+02 2.520000000000000000e+02 2.530000000000000000e+02 2.540000000000000000e+02 2.550000000000000000e+02 2.560000000000000000e+02 2.570000000000000000e+02 2.580000000000000000e+02 2.590000000000000000e+02 2.600000000000000000e+02 2.610000000000000000e+02 2.620000000000000000e+02 2.630000000000000000e+02 2.640000000000000000e+02 2.650000000000000000e+02 2.660000000000000000e+02 2.670000000000000000e+02 2.680000000000000000e+02 2.690000000000000000e+02 2.700000000000000000e+02 2.710000000000000000e+02 2.720000000000000000e+02 2.730000000000000000e+02 2.740000000000000000e+02 2.750000000000000000e+02 2.760000000000000000e+02 2.770000000000000000e+02 2.780000000000000000e+02 2.790000000000000000e+02 2.800000000000000000e+02 2.810000000000000000e+02 2.820000000000000000e+02 2.830000000000000000e+02 2.840000000000000000e+02 2.850000000000000000e+02 2.860000000000000000e+02 2.870000000000000000e+02 2.880000000000000000e+02 2.890000000000000000e+02 2.900000000000000000e+02 2.910000000000000000e+02 2.920000000000000000e+02 2.930000000000000000e+02 2.940000000000000000e+02 2.950000000000000000e+02 2.960000000000000000e+02 2.970000000000000000e+02 2.980000000000000000e+02 2.990000000000000000e+02 3.000000000000000000e+02 3.010000000000000000e+02 3.020000000000000000e+02 3.030000000000000000e+02 3.040000000000000000e+02 3.050000000000000000e+02 3.060000000000000000e+02 3.070000000000000000e+02 3.080000000000000000e+02 3.090000000000000000e+02 3.100000000000000000e+02 3.110000000000000000e+02 3.120000000000000000e+02 3.130000000000000000e+02 3.140000000000000000e+02 3.150000000000000000e+02 3.160000000000000000e+02 3.170000000000000000e+02 3.180000000000000000e+02 3.190000000000000000e+02 3.200000000000000000e+02 3.210000000000000000e+02 3.220000000000000000e+02 3.230000000000000000e+02 3.240000000000000000e+02 3.250000000000000000e+02 3.260000000000000000e+02 3.270000000000000000e+02 3.280000000000000000e+02 3.290000000000000000e+02 3.300000000000000000e+02 3.310000000000000000e+02 3.320000000000000000e+02 3.330000000000000000e+02 3.340000000000000000e+02 3.350000000000000000e+02 3.360000000000000000e+02 3.370000000000000000e+02 3.380000000000000000e+02 3.390000000000000000e+02 3.400000000000000000e+02 3.410000000000000000e+02 3.420000000000000000e+02 3.430000000000000000e+02 3.440000000000000000e+02 3.450000000000000000e+02 3.460000000000000000e+02 3.470000000000000000e+02 3.480000000000000000e+02 3.490000000000000000e+02 3.500000000000000000e+02 3.510000000000000000e+02 3.520000000000000000e+02 3.530000000000000000e+02 3.540000000000000000e+02 3.550000000000000000e+02 3.560000000000000000e+02 3.570000000000000000e+02 3.580000000000000000e+02 3.590000000000000000e+02 3.600000000000000000e+02 3.610000000000000000e+02 3.620000000000000000e+02 3.630000000000000000e+02 3.640000000000000000e+02 3.650000000000000000e+02 3.660000000000000000e+02 3.670000000000000000e+02 3.680000000000000000e+02 3.690000000000000000e+02 3.700000000000000000e+02 3.710000000000000000e+02 3.720000000000000000e+02 3.730000000000000000e+02 3.740000000000000000e+02 3.750000000000000000e+02 3.760000000000000000e+02 3.770000000000000000e+02 3.780000000000000000e+02 3.790000000000000000e+02 3.800000000000000000e+02 3.810000000000000000e+02 3.820000000000000000e+02 3.830000000000000000e+02 3.840000000000000000e+02 3.850000000000000000e+02 3.860000000000000000e+02 3.870000000000000000e+02 3.880000000000000000e+02 3.890000000000000000e+02 3.900000000000000000e+02 3.910000000000000000e+02 3.920000000000000000e+02 3.930000000000000000e+02 3.940000000000000000e+02 3.950000000000000000e+02 3.960000000000000000e+02 3.970000000000000000e+02 3.980000000000000000e+02 3.990000000000000000e+02 4.000000000000000000e+02 4.010000000000000000e+02 4.020000000000000000e+02 4.030000000000000000e+02 4.040000000000000000e+02 4.050000000000000000e+02 4.060000000000000000e+02 4.070000000000000000e+02 4.080000000000000000e+02 4.090000000000000000e+02 4.100000000000000000e+02 4.110000000000000000e+02 4.120000000000000000e+02 4.130000000000000000e+02 4.140000000000000000e+02 4.150000000000000000e+02 4.160000000000000000e+02 4.170000000000000000e+02 4.180000000000000000e+02 4.190000000000000000e+02 4.200000000000000000e+02 4.210000000000000000e+02 4.220000000000000000e+02 4.230000000000000000e+02 4.240000000000000000e+02 4.250000000000000000e+02 4.260000000000000000e+02 4.270000000000000000e+02 4.280000000000000000e+02 4.290000000000000000e+02 4.300000000000000000e+02 4.310000000000000000e+02 4.320000000000000000e+02 4.330000000000000000e+02 4.340000000000000000e+02 4.350000000000000000e+02 4.360000000000000000e+02 4.370000000000000000e+02 4.380000000000000000e+02 4.390000000000000000e+02 4.400000000000000000e+02 4.410000000000000000e+02 4.420000000000000000e+02 4.430000000000000000e+02 4.440000000000000000e+02 4.450000000000000000e+02 4.460000000000000000e+02 4.470000000000000000e+02 4.480000000000000000e+02 4.490000000000000000e+02 4.500000000000000000e+02 4.510000000000000000e+02 4.520000000000000000e+02 4.530000000000000000e+02 4.540000000000000000e+02 4.550000000000000000e+02 4.560000000000000000e+02 4.570000000000000000e+02 4.580000000000000000e+02 4.590000000000000000e+02 4.600000000000000000e+02 4.610000000000000000e+02 4.620000000000000000e+02 4.630000000000000000e+02 4.640000000000000000e+02 4.650000000000000000e+02 4.660000000000000000e+02 4.670000000000000000e+02 4.680000000000000000e+02 4.690000000000000000e+02 4.700000000000000000e+02 4.710000000000000000e+02 4.720000000000000000e+02 4.730000000000000000e+02 4.740000000000000000e+02 4.750000000000000000e+02 4.760000000000000000e+02 4.770000000000000000e+02 4.780000000000000000e+02 4.790000000000000000e+02 4.800000000000000000e+02 4.810000000000000000e+02 4.820000000000000000e+02 4.830000000000000000e+02 4.840000000000000000e+02 4.850000000000000000e+02 4.860000000000000000e+02 4.870000000000000000e+02 4.880000000000000000e+02 4.890000000000000000e+02 4.900000000000000000e+02 4.910000000000000000e+02 4.920000000000000000e+02 4.930000000000000000e+02 4.940000000000000000e+02 4.950000000000000000e+02 4.960000000000000000e+02 4.970000000000000000e+02 4.980000000000000000e+02 4.990000000000000000e+02 5.000000000000000000e+02 5.010000000000000000e+02 5.020000000000000000e+02 5.030000000000000000e+02 5.040000000000000000e+02 5.050000000000000000e+02 5.060000000000000000e+02 5.070000000000000000e+02 5.080000000000000000e+02 5.090000000000000000e+02 5.100000000000000000e+02 5.110000000000000000e+02 5.120000000000000000e+02 5.130000000000000000e+02 5.140000000000000000e+02 5.150000000000000000e+02 5.160000000000000000e+02 5.170000000000000000e+02 5.180000000000000000e+02 5.190000000000000000e+02 5.200000000000000000e+02 5.210000000000000000e+02 5.220000000000000000e+02 5.230000000000000000e+02 5.240000000000000000e+02 5.250000000000000000e+02 5.260000000000000000e+02 5.270000000000000000e+02 5.280000000000000000e+02 5.290000000000000000e+02 5.300000000000000000e+02 5.310000000000000000e+02 5.320000000000000000e+02 5.330000000000000000e+02 5.340000000000000000e+02 5.350000000000000000e+02 5.360000000000000000e+02 5.370000000000000000e+02 5.380000000000000000e+02 5.390000000000000000e+02 5.400000000000000000e+02 5.410000000000000000e+02 5.420000000000000000e+02 5.430000000000000000e+02 5.440000000000000000e+02 5.450000000000000000e+02 5.460000000000000000e+02 5.470000000000000000e+02 5.480000000000000000e+02 5.490000000000000000e+02 5.500000000000000000e+02 5.510000000000000000e+02 5.520000000000000000e+02 5.530000000000000000e+02 5.540000000000000000e+02 5.550000000000000000e+02 5.560000000000000000e+02 5.570000000000000000e+02 5.580000000000000000e+02 5.590000000000000000e+02 5.600000000000000000e+02 5.610000000000000000e+02 5.620000000000000000e+02 5.630000000000000000e+02 5.640000000000000000e+02 5.650000000000000000e+02 5.660000000000000000e+02 5.670000000000000000e+02 5.680000000000000000e+02 5.690000000000000000e+02 5.700000000000000000e+02 5.710000000000000000e+02 5.720000000000000000e+02 5.730000000000000000e+02 5.740000000000000000e+02 5.750000000000000000e+02 5.760000000000000000e+02 5.770000000000000000e+02 5.780000000000000000e+02 5.790000000000000000e+02 5.800000000000000000e+02 5.810000000000000000e+02 5.820000000000000000e+02 5.830000000000000000e+02 5.840000000000000000e+02 5.850000000000000000e+02 5.860000000000000000e+02 5.870000000000000000e+02 5.880000000000000000e+02 5.890000000000000000e+02 5.900000000000000000e+02 5.910000000000000000e+02 5.920000000000000000e+02 5.930000000000000000e+02 5.940000000000000000e+02 5.950000000000000000e+02 5.960000000000000000e+02 5.970000000000000000e+02 5.980000000000000000e+02 5.990000000000000000e+02 6.000000000000000000e+02 6.010000000000000000e+02 6.020000000000000000e+02 6.030000000000000000e+02 6.040000000000000000e+02 6.050000000000000000e+02 6.060000000000000000e+02 6.070000000000000000e+02 6.080000000000000000e+02 6.090000000000000000e+02 6.100000000000000000e+02 6.110000000000000000e+02 6.120000000000000000e+02 6.130000000000000000e+02 6.140000000000000000e+02 6.150000000000000000e+02 6.160000000000000000e+02 6.170000000000000000e+02 6.180000000000000000e+02 6.190000000000000000e+02 6.200000000000000000e+02 6.210000000000000000e+02 6.220000000000000000e+02 6.230000000000000000e+02 6.240000000000000000e+02 6.250000000000000000e+02 6.260000000000000000e+02 6.270000000000000000e+02 6.280000000000000000e+02 6.290000000000000000e+02 6.300000000000000000e+02 6.310000000000000000e+02 6.320000000000000000e+02 6.330000000000000000e+02 6.340000000000000000e+02 6.350000000000000000e+02 6.360000000000000000e+02 6.370000000000000000e+02 6.380000000000000000e+02 6.390000000000000000e+02 6.400000000000000000e+02 6.410000000000000000e+02 6.420000000000000000e+02 6.430000000000000000e+02 6.440000000000000000e+02 6.450000000000000000e+02 6.460000000000000000e+02 6.470000000000000000e+02 6.480000000000000000e+02 6.490000000000000000e+02 6.500000000000000000e+02 6.510000000000000000e+02 6.520000000000000000e+02 6.530000000000000000e+02 6.540000000000000000e+02 6.550000000000000000e+02 6.560000000000000000e+02 6.570000000000000000e+02 6.580000000000000000e+02 6.590000000000000000e+02 6.600000000000000000e+02 6.610000000000000000e+02 6.620000000000000000e+02 6.630000000000000000e+02 6.640000000000000000e+02 6.650000000000000000e+02 6.660000000000000000e+02 6.670000000000000000e+02 6.680000000000000000e+02 6.690000000000000000e+02 6.700000000000000000e+02 6.710000000000000000e+02 6.720000000000000000e+02 6.730000000000000000e+02 6.740000000000000000e+02 6.750000000000000000e+02 6.760000000000000000e+02 6.770000000000000000e+02 6.780000000000000000e+02 6.790000000000000000e+02 6.800000000000000000e+02 6.810000000000000000e+02 6.820000000000000000e+02 6.830000000000000000e+02 6.840000000000000000e+02 6.850000000000000000e+02 6.860000000000000000e+02 6.870000000000000000e+02 6.880000000000000000e+02 6.890000000000000000e+02 6.900000000000000000e+02 6.910000000000000000e+02 6.920000000000000000e+02 6.930000000000000000e+02 6.940000000000000000e+02 6.950000000000000000e+02 6.960000000000000000e+02 6.970000000000000000e+02 6.980000000000000000e+02 6.990000000000000000e+02 7.000000000000000000e+02 7.010000000000000000e+02 7.020000000000000000e+02 7.030000000000000000e+02 7.040000000000000000e+02 7.050000000000000000e+02 7.060000000000000000e+02 7.070000000000000000e+02 7.080000000000000000e+02 7.090000000000000000e+02 7.100000000000000000e+02 7.110000000000000000e+02 7.120000000000000000e+02 7.130000000000000000e+02 7.140000000000000000e+02 7.150000000000000000e+02 7.160000000000000000e+02 7.170000000000000000e+02 7.180000000000000000e+02 7.190000000000000000e+02 7.200000000000000000e+02 7.210000000000000000e+02 7.220000000000000000e+02 7.230000000000000000e+02 7.240000000000000000e+02 7.250000000000000000e+02 7.260000000000000000e+02 7.270000000000000000e+02 7.280000000000000000e+02 7.290000000000000000e+02 7.300000000000000000e+02 7.310000000000000000e+02 7.320000000000000000e+02 7.330000000000000000e+02 7.340000000000000000e+02 7.350000000000000000e+02 7.360000000000000000e+02 7.370000000000000000e+02 7.380000000000000000e+02 7.390000000000000000e+02 7.400000000000000000e+02 7.410000000000000000e+02 7.420000000000000000e+02 7.430000000000000000e+02 7.440000000000000000e+02 7.450000000000000000e+02 7.460000000000000000e+02 7.470000000000000000e+02 7.480000000000000000e+02 7.490000000000000000e+02 7.500000000000000000e+02 7.510000000000000000e+02 7.520000000000000000e+02 7.530000000000000000e+02 7.540000000000000000e+02 7.550000000000000000e+02 7.560000000000000000e+02 7.570000000000000000e+02 7.580000000000000000e+02 7.590000000000000000e+02 7.600000000000000000e+02 7.610000000000000000e+02 7.620000000000000000e+02 7.630000000000000000e+02 7.640000000000000000e+02 7.650000000000000000e+02 7.660000000000000000e+02 7.670000000000000000e+02 7.680000000000000000e+02 7.690000000000000000e+02 7.700000000000000000e+02 7.710000000000000000e+02 7.720000000000000000e+02 7.730000000000000000e+02 7.740000000000000000e+02 7.750000000000000000e+02 7.760000000000000000e+02 7.770000000000000000e+02 7.780000000000000000e+02 7.790000000000000000e+02 7.800000000000000000e+02 7.810000000000000000e+02 7.820000000000000000e+02 7.830000000000000000e+02 7.840000000000000000e+02 7.850000000000000000e+02 7.860000000000000000e+02 7.870000000000000000e+02 7.880000000000000000e+02 7.890000000000000000e+02 7.900000000000000000e+02 7.910000000000000000e+02 7.920000000000000000e+02 7.930000000000000000e+02 7.940000000000000000e+02 7.950000000000000000e+02 7.960000000000000000e+02 7.970000000000000000e+02 7.980000000000000000e+02 7.990000000000000000e+02 8.000000000000000000e+02 8.010000000000000000e+02 8.020000000000000000e+02 8.030000000000000000e+02 8.040000000000000000e+02 8.050000000000000000e+02 8.060000000000000000e+02 8.070000000000000000e+02 8.080000000000000000e+02 8.090000000000000000e+02 8.100000000000000000e+02 8.110000000000000000e+02 8.120000000000000000e+02 8.130000000000000000e+02 8.140000000000000000e+02 8.150000000000000000e+02 8.160000000000000000e+02 8.170000000000000000e+02 8.180000000000000000e+02 8.190000000000000000e+02 8.200000000000000000e+02 8.210000000000000000e+02 8.220000000000000000e+02 8.230000000000000000e+02 8.240000000000000000e+02 8.250000000000000000e+02 8.260000000000000000e+02 8.270000000000000000e+02 8.280000000000000000e+02 8.290000000000000000e+02 8.300000000000000000e+02 8.310000000000000000e+02 8.320000000000000000e+02 8.330000000000000000e+02 8.340000000000000000e+02 8.350000000000000000e+02 8.360000000000000000e+02 8.370000000000000000e+02 8.380000000000000000e+02 8.390000000000000000e+02 8.400000000000000000e+02 8.410000000000000000e+02 8.420000000000000000e+02 8.430000000000000000e+02 8.440000000000000000e+02 8.450000000000000000e+02 8.460000000000000000e+02 8.470000000000000000e+02 8.480000000000000000e+02 8.490000000000000000e+02 8.500000000000000000e+02 8.510000000000000000e+02 8.520000000000000000e+02 8.530000000000000000e+02 8.540000000000000000e+02 8.550000000000000000e+02 8.560000000000000000e+02 8.570000000000000000e+02 8.580000000000000000e+02 8.590000000000000000e+02 8.600000000000000000e+02 8.610000000000000000e+02 8.620000000000000000e+02 8.630000000000000000e+02 8.640000000000000000e+02 8.650000000000000000e+02 8.660000000000000000e+02 8.670000000000000000e+02 8.680000000000000000e+02 8.690000000000000000e+02 8.700000000000000000e+02 8.710000000000000000e+02 8.720000000000000000e+02 8.730000000000000000e+02 8.740000000000000000e+02 8.750000000000000000e+02 8.760000000000000000e+02 8.770000000000000000e+02 8.780000000000000000e+02 8.790000000000000000e+02 8.800000000000000000e+02 8.810000000000000000e+02 8.820000000000000000e+02 8.830000000000000000e+02 8.840000000000000000e+02 8.850000000000000000e+02 8.860000000000000000e+02 8.870000000000000000e+02 8.880000000000000000e+02 8.890000000000000000e+02 8.900000000000000000e+02 8.910000000000000000e+02 8.920000000000000000e+02 8.930000000000000000e+02 8.940000000000000000e+02 8.950000000000000000e+02 8.960000000000000000e+02 8.970000000000000000e+02 8.980000000000000000e+02 8.990000000000000000e+02 9.000000000000000000e+02 9.010000000000000000e+02 9.020000000000000000e+02 9.030000000000000000e+02 9.040000000000000000e+02 9.050000000000000000e+02 9.060000000000000000e+02 9.070000000000000000e+02 9.080000000000000000e+02 9.090000000000000000e+02 9.100000000000000000e+02 9.110000000000000000e+02 9.120000000000000000e+02 9.130000000000000000e+02 9.140000000000000000e+02 9.150000000000000000e+02 9.160000000000000000e+02 9.170000000000000000e+02 9.180000000000000000e+02 9.190000000000000000e+02 9.200000000000000000e+02 9.210000000000000000e+02 9.220000000000000000e+02 9.230000000000000000e+02 9.240000000000000000e+02 9.250000000000000000e+02 9.260000000000000000e+02 9.270000000000000000e+02 9.280000000000000000e+02 9.290000000000000000e+02 9.300000000000000000e+02 9.310000000000000000e+02 9.320000000000000000e+02 9.330000000000000000e+02 9.340000000000000000e+02 9.350000000000000000e+02 9.360000000000000000e+02 9.370000000000000000e+02 9.380000000000000000e+02 9.390000000000000000e+02 9.400000000000000000e+02 9.410000000000000000e+02 9.420000000000000000e+02 9.430000000000000000e+02 9.440000000000000000e+02 9.450000000000000000e+02 9.460000000000000000e+02 9.470000000000000000e+02 9.480000000000000000e+02 9.490000000000000000e+02 9.500000000000000000e+02 9.510000000000000000e+02 9.520000000000000000e+02 9.530000000000000000e+02 9.540000000000000000e+02 9.550000000000000000e+02 9.560000000000000000e+02 9.570000000000000000e+02 9.580000000000000000e+02 9.590000000000000000e+02 9.600000000000000000e+02 9.610000000000000000e+02 9.620000000000000000e+02 9.630000000000000000e+02 9.640000000000000000e+02 9.650000000000000000e+02 9.660000000000000000e+02 9.670000000000000000e+02 9.680000000000000000e+02 9.690000000000000000e+02 9.700000000000000000e+02 9.710000000000000000e+02 9.720000000000000000e+02 9.730000000000000000e+02 9.740000000000000000e+02 9.750000000000000000e+02 9.760000000000000000e+02 9.770000000000000000e+02 9.780000000000000000e+02 9.790000000000000000e+02 9.800000000000000000e+02 9.810000000000000000e+02 9.820000000000000000e+02 9.830000000000000000e+02 9.840000000000000000e+02 9.850000000000000000e+02 9.860000000000000000e+02 9.870000000000000000e+02 9.880000000000000000e+02 9.890000000000000000e+02 9.900000000000000000e+02 9.910000000000000000e+02 9.920000000000000000e+02 9.930000000000000000e+02 9.940000000000000000e+02 9.950000000000000000e+02 9.960000000000000000e+02 9.970000000000000000e+02 9.980000000000000000e+02 9.990000000000000000e+02 1.000000000000000000e+03
1.000000000000000021e-02 1.000000000000000021e-02 1.000000000000000021e-02 1.000000000000000021e-02 1.000000000000000021e-02 1.000000000000000021e-02 1.000000000000000021e-02 1.000000000000000021e-02 1.000000000000000021e-02 1.000000000000000021e-02 1.000000000000000021e-02 1.000000000000000021e-02 1.000000000000000021e-02 1.000000000000000021e-02 1.000000000000000021e-02 1.000000000000000021e-02 1.000000000000000021e-02 1.000000000000000021e-02 1.000000000000000021e-02 1.000000000000000021e-02 1.000000000000000021e-02 1.000000000000000021e-02 1.000000000000000021e-02 1.000000000000000021e-02 1.000000000000000021e-02 1.000000000000000021e-02 1.000000000000000021e-02 1.000000000000000021e-02 1.000000000000000021e-02 1.000000000000000021e-02 1.000000000000000021e-02 1.000000000000000021e-02 1.000000000000000021e-02 1.000000000000000021e-02 1.000000000000000021e-02 1.000000000000000021e-02 1.000000000000000021e-02 1.000000000000000021e-02 1.000000000000000021e-02 1.000000000000000021e-02 1.000000000000000021e-02 1.000000000000000021e-02 1.000000000000000021e-02 1.000000000000000021e-02 1.000000000000000021e-02 1.000000000000000021e-02 1.000000000000000021e-02 1.000000000000000021e-02 1.000000000000000021e-02 1.000000000000000021e-02 1.000000000000000021e-02 1.000000000000000021e-02 1.000000000000000021e-02 1.000000000000000021e-02 1.000000000000000021e-02 1.000000000000000021e-02 1.000000000000000021e-02 1.000000000000000021e-02 1.000000000000000021e-02 1.000000000000000021e-02 1.000000000000000021e-02 1.000000000000000021e-02 1.000000000000000021e-02 1.000000000000000021e-02 1.000000000000000021e-02 1.000000000000000021e-02 1.000000000000000021e-02 1.000000000000000021e-02 1.000000000000000021e-02 1.000000000000000021e-02 1.000000000000000021e-02 1.000000000000000021e-02 1.000000000000000021e-02 1.000000000000000021e-02 1.000000000000000021e-02 1.000000000000000021e-02 1.000000000000000021e-02 1.000000000000000021e-02 1.000000000000000021e-02 1.000000000000000021e-02 1.000000000000000021e-02 1.000000000000000021e-02 1.000000000000000021e-02 1.000000000000000021e-02 1.000000000000000021e-02 1.000000000000000021e-02 1.000000000000000021e-02 1.000000000000000021e-02 1.000000000000000021e-02 1.000000000000000021e-02 1.000000000000000021e-02 1.000000000000000021e-02 1.000000000000000021e-02 1.000000000000000021e-02 1.000000000000000021e-02 1.000000000000000021e-02 1.000000000000000021e-02 1.000000000000000021e-02 1.000000000000000021e-02 1.000000000000000021e-02 1.000000000000000021e-02 1.000000000000000021e-02 1.000000000000000021e-02 1.000000000000000021e-02 1.000000000000000021e-02 1.000000000000000021e-02 1.000000000000000021e-02 1.000000000000000021e-02 1.000000000000000021e-02 1.000000000000000021e-02 1.000000000000000021e-02 1.000000000000000021e-02 1.000000000000000021e-02 1.000000000000000021e-02 1.000000000000000021e-02 1.000000000000000021e-02 1.000000000000000021e-02 1.000000000000000021e-02 1.000000000000000021e-02 1.000000000000000021e-02 1.000000000000000021e-02 1.000000000000000021e-02 1.000000000000000021e-02 1.000000000000000021e-02 1.000000000000000021e-02 1.000000000000000021e-02 1.000000000000000021e-02 1.000000000000000021e-02 1.000000000000000021e-02 1.000000000000000021e-02 1.000000000000000021e-02 1.000000000000000021e-02 1.000000000000000021e-02 1.000000000000000021e-02 1.000000000000000021e-02 1.000000000000000021e-02 1.000000000000000021e-02 1.000000000000000021e-02 1.000000000000000021e-02 1.000000000000000021e-02 1.000000000000000021e-02 1.000000000000000021e-02 1.000000000000000021e-02 1.000000000000000021e-02 1.000000000000000021e-02 1.000000000000000021e-02 1.000000000000000021e-02 1.000000000000000021e-02 1.000000000000000021e-02 1.000000000000000021e-02 1.000000000000000021e-02 1.000000000000000021e-02 1.000000000000000021e-02 1.000000000000000021e-02 1.000000000000000021e-02 1.000000000000000021e-02 1.000000000000000021e-02 1.000000000000000021e-02 1.000000000000000021e-02 1.000000000000000021e-02 1.000000000000000021e-02 1.000000000000000021e-02 1.000000000000000021e-02 1.000000000000000021e-02 1.000000000000000021e-02 1.000000000000000021e-02 1.000000000000000021e-02 1.000000000000000021e-02 1.000000000000000021e-02 1.000000000000000021e-02 1.000000000000000021e-02 1.000000000000000021e-02 1.000000000000000021e-02 1.000000000000000021e-02 1.000000000000000021e-02 1.000000000000000021e-02 1.000000000000000021e-02 1.000000000000000021e-02 1.000000000000000021e-02 1.000000000000000021e-02 1.000000000000000021e-02 1.000000000000000021e-02 1.000000000000000021e-02 1.000000000000000021e-02 1.000000000000000021e-02 1.000000000000000021e-02 1.000000000000000021e-02 1.000000000000000021e-02 1.000000000000000021e-02 1.000000000000000021e-02 1.000000000000000021e-02 1.000000000000000021e-02 1.000000000000000021e-02 1.000000000000000021e-02 1.000000000000000021e-02 1.000000000000000021e-02 1.000000000000000021e-02 1.000000000000000021e-02 1.000000000000000021e-02 1.000000000000000021e-02 1.000000000000000021e-02 1.000000000000000021e-02 1.000000000000000021e-02 1.000000000000000021e-02 1.000000000000000021e-02 1.000000000000000021e-02 1.000000000000000021e-02 1.000000000000000021e-02 1.000000000000000021e-02 1.000000000000000021e-02 1.000000000000000021e-02 1.000000000000000021e-02 1.000000000000000021e-02 1.000000000000000021e-02 1.000000000000000021e-02 1.000000000000000021e-02 1.000000000000000021e-02 1.000000000000000021e-02 1.000000000000000021e-02 1.000000000000000021e-02 1.000000000000000021e-02 1.000000000000000021e-02 1.000000000000000021e-02 1.000000000000000021e-02 1.000000000000000021e-02 1.000000000000000021e-02 1.000000000000000021e-02 1.000000000000000021e-02 1.000000000000000021e-02 1.000000000000000021e-02 1.000000000000000021e-02 1.000000000000000021e-02 1.000000000000000021e-02 1.000000000000000021e-02 1.000000000000000021e-02 1.000000000000000021e-02 1.000000000000000021e-02 1.000000000000000021e-02 1.000000000000000021e-02 1.000000000000000021e-02 1.000000000000000021e-02 1.000000000000000021e-02 1.000000000000000021e-02 1.000000000000000021e-02 1.000000000000000021e-02 1.000000000000000021e-02 1.000000000000000021e-02 1.000000000000000021e-02 1.000000000000000021e-02 1.000000000000000021e-02 1.000000000000000021e-02 1.000000000000000021e-02 1.000000000000000021e-02 1.000000000000000021e-02 1.000000000000000021e-02 1.000000000000000021e-02 1.000000000000000021e-02 1.000000000000000021e-02 1.000000000000000021e-02 1.000000000000000021e-02 1.000000000000000021e-02 1.000000000000000021e-02 1.000000000000000021e-02 1.000000000000000021e-02 1.000000000000000021e-02 1.000000000000000021e-02 1.000000000000000021e-02 1.000000000000000021e-02 1.000000000000000021e-02 1.000000000000000021e-02 1.000000000000000021e-02 1.000000000000000021e-02 1.000000000000000021e-02 1.000000000000000021e-02 1.000000000000000021e-02 1.000000000000000021e-02 1.000000000000000021e-02 1.000000000000000021e-02 1.000000000000000021e-02 1.000000000000000021e-02 1.000000000000000021e-02 1.000000000000000021e-02 1.000000000000000021e-02 1.000000000000000021e-02 1.000000000000000021e-02 1.000000000000000021e-02 1.000000000000000021e-02 1.000000000000000021e-02 1.000000000000000021e-02 1.000000000000000021e-02 1.000000000000000021e-02 1.000000000000000021e-02 1.000000000000000021e-02 1.000000000000000021e-02 1.000000000000000021e-02 1.000000000000000021e-02 1.000000000000000021e-02 1.000000000000000021e-02 1.000000000000000021e-02 1.000000000000000021e-02 1.000000000000000021e-02 1.000000000000000021e-02 1.000000000000000021e-02 1.000000000000000021e-02 1.000000000000000021e-02 1.000000000000000021e-02 1.000000000000000021e-02 1.000000000000000021e-02 1.000000000000000021e-02 1.000000000000000021e-02 1.000000000000000021e-02 1.000000000000000021e-02 1.000000000000000021e-02 1.000000000000000021e-02 1.000000000000000021e-02 1.000000000000000021e-02 1.000000000000000021e-02 1.000000000000000021e-02 1.000000000000000021e-02 1.000000000000000021e-02 1.000000000000000021e-02 1.000000000000000021e-02 1.000000000000000021e-02 1.000000000000000021e-02 1.000000000000000021e-02 1.000000000000000021e-02 1.000000000000000021e-02 1.000000000000000021e-02 1.000000000000000021e-02 1.000000000000000021e-02 1.000000000000000021e-02 1.000000000000000021e-02 1.000000000000000021e-02 1.000000000000000021e-02 1.000000000000000021e-02 1.000000000000000021e-02 1.000000000000000021e-02 1.000000000000000021e-02 1.000000000000000021e-02 1.000000000000000021e-02 1.000000000000000021e-02 1.000000000000000021e-02 1.000000000000000021e-02 1.000000000000000021e-02 1.000000000000000021e-02 1.000000000000000021e-02 1.000000000000000021e-02 1.000000000000000021e-02 1.000000000000000021e-02 1.000000000000000021e-02 1.000000000000000021e-02 1.000000000000000021e-02 1.000000000000000021e-02 1.000000000000000021e-02 1.000000000000000021e-02 1.000000000000000021e-02 1.000000000000000021e-02 1.000000000000000021e-02 1.000000000000000021e-02 1.000000000000000021e-02 1.000000000000000021e-02 1.000000000000000021e-02 1.000000000000000021e-02 1.000000000000000021e-02 1.000000000000000021e-02 1.000000000000000021e-02 1.000000000000000021e-02 1.000000000000000021e-02 1.000000000000000021e-02 1.000000000000000021e-02 1.000000000000000021e-02 1.000000000000000021e-02 1.000000000000000021e-02 1.000000000000000021e-02 1.000000000000000021e-02 1.000000000000000021e-02 1.000000000000000021e-02 1.000000000000000021e-02 1.000000000000000021e-02 1.000000000000000021e-02 1.000000000000000021e-02 1.000000000000000021e-02 1.000000000000000021e-02 1.000000000000000021e-02 1.000000000000000021e-02 1.000000000000000021e-02 1.000000000000000021e-02 1.000000000000000021e-02 1.000000000000000021e-02 1.000000000000000021e-02 1.000000000000000021e-02 1.000000000000000021e-02 1.000000000000000021e-02 1.000000000000000021e-02 1.000000000000000021e-02 1.000000000000000021e-02 1.000000000000000021e-02 1.000000000000000021e-02 1.000000000000000021e-02 1.000000000000000021e-02 1.000000000000000021e-02 1.000000000000000021e-02 1.000000000000000021e-02 1.000000000000000021e-02 1.000000000000000021e-02 1.000000000000000021e-02 1.000000000000000021e-02 1.000000000000000021e-02 1.000000000000000021e-02 1.000000000000000021e-02 1.000000000000000021e-02 1.000000000000000021e-02 1.000000000000000021e-02 1.000000000000000021e-02 1.000000000000000021e-02 1.000000000000000021e-02 1.000000000000000021e-02 1.000000000000000021e-02 1.000000000000000021e-02 1.000000000000000021e-02 1.000000000000000021e-02 1.000000000000000021e-02 1.000000000000000021e-02 1.000000000000000021e-02 1.000000000000000021e-02 1.000000000000000021e-02 1.000000000000000021e-02 1.000000000000000021e-02 1.000000000000000021e-02 1.000000000000000021e-02 1.000000000000000021e-02 1.000000000000000021e-02 1.000000000000000021e-02 1.000000000000000021e-02 1.000000000000000021e-02 1.000000000000000021e-02 1.000000000000000021e-02 1.000000000000000021e-02 1.000000000000000021e-02 1.000000000000000021e-02 1.000000000000000021e-02 1.000000000000000021e-02 1.000000000000000021e-02 1.000000000000000021e-02 1.000000000000000021e-02 1.000000000000000021e-02 1.000000000000000021e-02 1.000000000000000021e-02 1.000000000000000021e-02 1.000000000000000021e-02 1.000000000000000021e-02 1.000000000000000021e-02 1.000000000000000021e-02 1.000000000000000021e-02 1.000000000000000021e-02 1.000000000000000021e-02 1.000000000000000021e-02 1.000000000000000021e-02 1.000000000000000021e-02 1.000000000000000021e-02 1.000000000000000021e-02 1.000000000000000021e-02 1.000000000000000021e-02 1.000000000000000021e-02 1.000000000000000021e-02 1.000000000000000021e-02 1.000000000000000021e-02 1.000000000000000021e-02 1.000000000000000021e-02 1.000000000000000021e-02 1.000000000000000021e-02 1.000000000000000021e-02 1.000000000000000021e-02 1.000000000000000021e-02 1.000000000000000021e-02 1.000000000000000021e-02 1.000000000000000021e-02 1.000000000000000021e-02 1.000000000000000021e-02 1.000000000000000021e-02 1.000000000000000021e-02 1.000000000000000021e-02 1.000000000000000021e-02 1.000000000000000021e-02 1.000000000000000021e-02 1.000000000000000021e-02 1.000000000000000021e-02 1.000000000000000021e-02 1.000000000000000021e-02 1.000000000000000021e-02 1.000000000000000021e-02 1.000000000000000021e-02 1.000000000000000021e-02 1.000000000000000021e-02 1.000000000000000021e-02 1.000000000000000021e-02 1.000000000000000021e-02 1.000000000000000021e-02 1.000000000000000021e-02 1.000000000000000021e-02 1.000000000000000021e-02 1.000000000000000021e-02 1.000000000000000021e-02 1.000000000000000021e-02 1.000000000000000021e-02 1.000000000000000021e-02 1.000000000000000021e-02 1.000000000000000021e-02 1.000000000000000021e-02 1.000000000000000021e-02 1.000000000000000021e-02 1.000000000000000021e-02 1.000000000000000021e-02 1.000000000000000021e-02 1.000000000000000021e-02 1.000000000000000021e-02 1.000000000000000021e-02 1.000000000000000021e-02 1.000000000000000021e-02 1.000000000000000021e-02 1.000000000000000021e-02 1.000000000000000021e-02 1.000000000000000021e-02 1.000000000000000021e-02 1.000000000000000021e-02 1.000000000000000021e-02 1.000000000000000021e-02 1.000000000000000021e-02 1.000000000000000021e-02 1.000000000000000021e-02 1.000000000000000021e-02 1.000000000000000021e-02 1.000000000000000021e-02 1.000000000000000021e-02 1.000000000000000021e-02 1.000000000000000021e-02 1.000000000000000021e-02 1.000000000000000021e-02 1.000000000000000021e-02 1.000000000000000021e-02 1.000000000000000021e-02 1.000000000000000021e-02 1.000000000000000021e-02 1.000000000000000021e-02 1.000000000000000021e-02 1.000000000000000021e-02 1.000000000000000021e-02 1.000000000000000021e-02 1.000000000000000021e-02 1.000000000000000021e-02 1.000000000000000021e-02 1.000000000000000021e-02 1.000000000000000021e-02 1.000000000000000021e-02 1.000000000000000021e-02 1.000000000000000021e-02 1.000000000000000021e-02 1.000000000000000021e-02 1.000000000000000021e-02 1.000000000000000021e-02 1.000000000000000021e-02 1.000000000000000021e-02 1.000000000000000021e-02 1.000000000000000021e-02 1.000000000000000021e-02 1.000000000000000021e-02 1.000000000000000021e-02 1.000000000000000021e-02 1.000000000000000021e-02 1.000000000000000021e-02 1.000000000000000021e-02 1.000000000000000021e-02 1.000000000000000021e-02 1.000000000000000021e-02 1.000000000000000021e-02 1.000000000000000021e-02 1.000000000000000021e-02 1.000000000000000021e-02 1.000000000000000021e-02 1.000000000000000021e-02 1.000000000000000021e-02 1.000000000000000021e-02 1.000000000000000021e-02 1.000000000000000021e-02 1.000000000000000021e-02 1.000000000000000021e-02 1.000000000000000021e-02 1.000000000000000021e-02 1.000000000000000021e-02 1.000000000000000021e-02 1.000000000000000021e-02 1.000000000000000021e-02 1.000000000000000021e-02 1.000000000000000021e-02 1.000000000000000021e-02 1.000000000000000021e-02 1.000000000000000021e-02 1.000000000000000021e-02 1.000000000000000021e-02 1.000000000000000021e-02 1.000000000000000021e-02 1.000000000000000021e-02 1.000000000000000021e-02 1.000000000000000021e-02 1.000000000000000021e-02 1.000000000000000021e-02 1.000000000000000021e-02 1.000000000000000021e-02 1.000000000000000021e-02 1.000000000000000021e-02 1.000000000000000021e-02 1.000000000000000021e-02 1.000000000000000021e-02 1.000000000000000021e-02 1.000000000000000021e-02 1.000000000000000021e-02 1.000000000000000021e-02 1.000000000000000021e-02 1.000000000000000021e-02 1.000000000000000021e-02 1.000000000000000021e-02 1.000000000000000021e-02 1.000000000000000021e-02 1.000000000000000021e-02 1.000000000000000021e-02 1.000000000000000021e-02 1.000000000000000021e-02 1.000000000000000021e-02 1.000000000000000021e-02 1.000000000000000021e-02 1.000000000000000021e-02 1.000000000000000021e-02 1.000000000000000021e-02 1.000000000000000021e-02 1.000000000000000021e-02 1.000000000000000021e-02 1.000000000000000021e-02 1.000000000000000021e-02 1.000000000000000021e-02 1.000000000000000021e-02 1.000000000000000021e-02 1.000000000000000021e-02 1.000000000000000021e-02 1.000000000000000021e-02 1.000000000000000021e-02 1.000000000000000021e-02 1.000000000000000021e-02 1.000000000000000021e-02 1.000000000000000021e-02 1.000000000000000021e-02 1.000000000000000021e-02 1.000000000000000021e-02 1.000000000000000021e-02 1.000000000000000021e-02 1.000000000000000021e-02 1.000000000000000021e-02 1.000000000000000021e-02 1.000000000000000021e-02 1.000000000000000021e-02 1.000000000000000021e-02 1.000000000000000021e-02 1.000000000000000021e-02 1.000000000000000021e-02 1.000000000000000021e-02 1.000000000000000021e-02 1.000000000000000021e-02 1.000000000000000021e-02 1.000000000000000021e-02 1.000000000000000021e-02 1.000000000000000021e-02 1.000000000000000021e-02 1.000000000000000021e-02 1.000000000000000021e-02 1.000000000000000021e-02 1.000000000000000021e-02 1.000000000000000021e-02 1.000000000000000021e-02 1.000000000000000021e-02 1.000000000000000021e-02 1.000000000000000021e-02 1.000000000000000021e-02 1.000000000000000021e-02 1.000000000000000021e-02 1.000000000000000021e-02 1.000000000000000021e-02 1.000000000000000021e-02 1.000000000000000021e-02 1.000000000000000021e-02 1.000000000000000021e-02 1.000000000000000021e-02 1.000000000000000021e-02 1.000000000000000021e-02 1.000000000000000021e-02 1.000000000000000021e-02 1.000000000000000021e-02 1.000000000000000021e-02 1.000000000000000021e-02 1.000000000000000021e-02 1.000000000000000021e-02 1.000000000000000021e-02 1.000000000000000021e-02 1.000000000000000021e-02 1.000000000000000021e-02 1.000000000000000021e-02 1.000000000000000021e-02 1.000000000000000021e-02 1.000000000000000021e-02 1.000000000000000021e-02 1.000000000000000021e-02 1.000000000000000021e-02 1.000000000000000021e-02 1.000000000000000021e-02 1.000000000000000021e-02 1.000000000000000021e-02 1.000000000000000021e-02 1.000000000000000021e-02 1.000000000000000021e-02 1.000000000000000021e-02 1.000000000000000021e-02 1.000000000000000021e-02 1.000000000000000021e-02 1.000000000000000021e-02 1.000000000000000021e-02 1.000000000000000021e-02 1.000000000000000021e-02 1.000000000000000021e-02 1.000000000000000021e-02 1.000000000000000021e-02 1.000000000000000021e-02 1.000000000000000021e-02 1.000000000000000021e-02 1.000000000000000021e-02 1.000000000000000021e-02 1.000000000000000021e-02 1.000000000000000021e-02 1.000000000000000021e-02 1.000000000000000021e-02 1.000000000000000021e-02 1.000000000000000021e-02 1.000000000000000021e-02 1.000000000000000021e-02 1.000000000000000021e-02 1.000000000000000021e-02 1.000000000000000021e-02 1.000000000000000021e-02 1.000000000000000021e-02 1.000000000000000021e-02 1.000000000000000021e-02 1.000000000000000021e-02 1.000000000000000021e-02 1.000000000000000021e-02 1.000000000000000021e-02 1.000000000000000021e-02 1.000000000000000021e-02 1.000000000000000021e-02 1.000000000000000021e-02 1.000000000000000021e-02 1.000000000000000021e-02 1.000000000000000021e-02 1.000000000000000021e-02 1.000000000000000021e-02 1.000000000000000021e-02 1.000000000000000021e-02 1.000000000000000021e-02 1.000000000000000021e-02 1.000000000000000021e-02 1.000000000000000021e-02 1.000000000000000021e-02 1.000000000000000021e-02 1.000000000000000021e-02 1.000000000000000021e-02 1.000000000000000021e-02 1.000000000000000021e-02 1.000000000000000021e-02 1.000000000000000021e-02 1.000000000000000021e-02 1.000000000000000021e-02 1.000000000000000021e-02 1.000000000000000021e-02 1.000000000000000021e-02 1.000000000000000021e-02 1.000000000000000021e-02 1.000000000000000021e-02 1.000000000000000021e-02 1.000000000000000021e-02 1.000000000000000021e-02 1.000000000000000021e-02 1.000000000000000021e-02 1.000000000000000021e-02 1.000000000000000021e-02 1.000000000000000021e-02 1.000000000000000021e-02 1.000000000000000021e-02 1.000000000000000021e-02 1.000000000000000021e-02 1.000000000000000021e-02 1.000000000000000021e-02 1.000000000000000021e-02 1.000000000000000021e-02 1.000000000000000021e-02 1.000000000000000021e-02 1.000000000000000021e-02 1.000000000000000021e-02 1.000000000000000021e-02 1.000000000000000021e-02 1.000000000000000021e-02 1.000000000000000021e-02 1.000000000000000021e-02 1.000000000000000021e-02 1.000000000000000021e-02 1.000000000000000021e-02 1.000000000000000021e-02 1.000000000000000021e-02 1.000000000000000021e-02 1.000000000000000021e-02 1.000000000000000021e-02 1.000000000000000021e-02 1.000000000000000021e-02 1.000000000000000021e-02 1.000000000000000021e-02 1.000000000000000021e-02 1.000000000000000021e-02 1.000000000000000021e-02 1.000000000000000021e-02 1.000000000000000021e-02 1.000000000000000021e-02 1.000000000000000021e-02 1.000000000000000021e-02 1.000000000000000021e-02 1.000000000000000021e-02 1.000000000000000021e-02 1.000000000000000021e-02 1.000000000000000021e-02 1.000000000000000021e-02 1.000000000000000021e-02 1.000000000000000021e-02 1.000000000000000021e-02 1.000000000000000021e-02 1.000000000000000021e-02 1.000000000000000021e-02 1.000000000000000021e-02 1.000000000000000021e-02 1.000000000000000021e-02 1.000000000000000021e-02 1.000000000000000021e-02 1.000000000000000021e-02 1.000000000000000021e-02 1.000000000000000021e-02 1.000000000000000021e-02 1.000000000000000021e-02 1.000000000000000021e-02 1.000000000000000021e-02 1.000000000000000021e-02 1.000000000000000021e-02 1.000000000000000021e-02 1.000000000000000021e-02 1.000000000000000021e-02 1.000000000000000021e-02 1.000000000000000021e-02 1.000000000000000021e-02 1.000000000000000021e-02 1.000000000000000021e-02 1.000000000000000021e-02 1.000000000000000021e-02 1.000000000000000021e-02 1.000000000000000021e-02 1.000000000000000021e-02 1.000000000000000021e-02 1.000000000000000021e-02 1.000000000000000021e-02 1.000000000000000021e-02 1.000000000000000021e-02 1.000000000000000021e-02 1.000000000000000021e-02 1.000000000000000021e-02 1.000000000000000021e-02 1.000000000000000021e-02 1.000000000000000021e-02 1.000000000000000021e-02 1.000000000000000021e-02 1.000000000000000021e-02 1.000000000000000021e-02 1.000000000000000021e-02 1.000000000000000021e-02 1.000000000000000021e-02 1.000000000000000021e-02 1.000000000000000021e-02 1.000000000000000021e-02 1.000000000000000021e-02 1.000000000000000021e-02 1.000000000000000021e-02 1.000000000000000021e-02 1.000000000000000021e-02 1.000000000000000021e-02 1.000000000000000021e-02 1.000000000000000021e-02 1.000000000000000021e-02 1.000000000000000021e-02 1.000000000000000021e-02 1.000000000000000021e-02 1.000000000000000021e-02 1.000000000000000021e-02 1.000000000000000021e-02 1.000000000000000021e-02 1.000000000000000021e-02 1.000000000000000021e-02 1.000000000000000021e-02 1.000000000000000021e-02 1.000000000000000021e-02 1.000000000000000021e-02 1.000000000000000021e-02 1.000000000000000021e-02 1.000000000000000021e-02 1.000000000000000021e-02 1.000000000000000021e-02 1.000000000000000021e-02 1.000000000000000021e-02 1.000000000000000021e-02 1.000000000000000021e-02 1.000000000000000021e-02 1.000000000000000021e-02 1.000000000000000021e-02 1.000000000000000021e-02 1.000000000000000021e-02 1.000000000000000021e-02 1.000000000000000021e-02 1.000000000000000021e-02 1.000000000000000021e-02 1.000000000000000021e-02 1.000000000000000021e-02 1.000000000000000021e-02 1.000000000000000021e-02 1.000000000000000021e-02 1.000000000000000021e-02 1.000000000000000021e-02 1.000000000000000021e-02 1.000000000000000021e-02 1.000000000000000021e-02 1.000000000000000021e-02 1.000000000000000021e-02 1.000000000000000021e-02 1.000000000000000021e-02 1.000000000000000021e-02 1.000000000000000021e-02 1.000000000000000021e-02 1.000000000000000021e-02 1.000000000000000021e-02 1.000000000000000021e-02 1.000000000000000021e-02 1.000000000000000021e-02 1.000000000000000021e-02 1.000000000000000021e-02 1.000000000000000021e-02 1.000000000000000021e-02 1.000000000000000021e-02 1.000000000000000021e-02 1.000000000000000021e-02 1.000000000000000021e-02 1.000000000000000021e-02 1.000000000000000021e-02 1.000000000000000021e-02 1.000000000000000021e-02 1.000000000000000021e-02 1.000000000000000021e-02 1.000000000000000021e-02 1.000000000000000021e-02 1.000000000000000021e-02 1.000000000000000021e-02 1.000000000000000021e-02 1.000000000000000021e-02 1.000000000000000021e-02 1.000000000000000021e-02 1.000000000000000021e-02 1.000000000000000021e-02 1.000000000000000021e-02 1.000000000000000021e-02 1.000000000000000021e-02 1.000000000000000021e-02 1.000000000000000021e-02 1.000000000000000021e-02 1.000000000000000021e-02 1.000000000000000021e-02 1.000000000000000021e-02 1.000000000000000021e-02 1.000000000000000021e-02 1.000000000000000021e-02 1.000000000000000021e-02 1.000000000000000021e-02 1.000000000000000021e-02 1.000000000000000021e-02 1.000000000000000021e-02 1.000000000000000021e-02 1.000000000000000021e-02 1.000000000000000021e-02 1.000000000000000021e-02 1.000000000000000021e-02 1.000000000000000021e-02 1.000000000000000021e-02 1.000000000000000021e-02 1.000000000000000021e-02
-1.073297410371737755e+02 1.632774698564114999e+02 3.780843772366814193e+01 -8.490099462424566923e+00 -8.455555830008853491e+01 -1.288241587990892079e+01 -2.001219791907164449e+02 6.847933087628231830e-01 -8.149867433589636789e+01 -1.363762570200803204e+01 -1.910582499159533043e+01 6.308605015870678123e+00 -1.715977711727844746e+00 1.614721234170027913e+02 8.144549759201271399e+01 -3.736666698709576906e+01 -5.086490498379451708e+01 7.623709106419372006e+01 3.159906105517557862e+01 -2.443265025230294185e+01 -7.586481564804728350e+01 -7.100574306718625905e+01 -1.327001648863514127e+01 2.784557269187661532e+01 -1.875797762359713374e+02 -9.499591397748754673e+01 -2.511526055024291537e+01 1.940291450076034039e+02 6.810259588326874791e+01 7.388264492050674903e+01 7.728754805576575393e+01 1.134843431744316788e+00 -7.636101956489288511e+01 1.997247510253008613e+02 -2.357178689965324736e+02 5.668431650897482399e+01 -1.155744639408855221e+02 -3.339275008197575545e+01 3.888097104453933195e+00 1.219629792481402859e+02 -1.182707288956311089e+02 -1.310509237116645842e+01 7.442490948885510704e+01 1.671082498156422105e+02 6.864741427705736498e+01 -6.579934440629075709e+01 3.961704023366857541e+01 -2.733826208890735288e+01 -6.358634155903177287e+01 1.507102555555639753e+02 -6.783548123583801726e+01 -5.013231692000469053e+01 -1.341760926300914036e+02 5.615447777773232119e+00 -4.861956921442504154e+01 3.723368943204047099e+01 -8.541101149556516248e+01 -4.817102071469373925e+01 -9.761408241405763420e+01 -1.496454582338213015e+02 1.868319678546307472e+01 4.371644279721373749e+01 -1.185308187068582697e+02 1.236708226304379998e+01 -7.628915622868647972e+01 4.729016167235263168e+01 1.604628176217485134e+02 -1.388937457031968563e+02 -4.167087360279624164e+01 6.957199236484870930e+00 2.832587741663016523e+00 4.081224996567769381e+01 8.084652481705850846e+01 7.552297933191788326e-01 -8.513744381940165695e+00 -6.739044733295533263e+01 7.532158609807993344e+01 -3.148831193426826758e+01 2.533111066054150839e+01 1.001490622926631318e+02 8.489797398097492476e+01 -4.118061953125635455e+01 5.559228869344897817e+01 1.419268890154643543e+02 1.118867468422080691e+02 -3.839733583522576321e+00 1.676820201226379936e+02 -1.073744213887806325e+02 4.005093683979462860e+00 -4.037553213371694483e+01 1.990990232395345458e+02 -2.043240290345361387e+01 2.796714362866161707e+00 -7.392122087316970180e+01 -6.887701856534272693e+00 -6.142876518794809471e+01 6.526422252023083104e+01 -9.103885739181644965e+01 6.609077229763593664e+01 -4.599617392273097494e+01 -4.788640854283697479e+01 -8.825361865613545831e+01 5.107445312583372043e+01 -5.263330888992241086e+01 -1.437596417957272195e+02 -7.648366252366207618e+01 -1.007007034304590860e+02 -1.513636798068989435e+02 1.308524135554904433e+02 -2.641201898233636669e+01 3.085420065669084266e+01 8.632308088098719168e+01 -1.001505786143066814e+02 5.481727273994419392e+01 -4.169913955482152090e+01 -6.683772150521645017e+01 -8.678822966180122478e+01 1.956121116171993890e+02 -5.462019000925332790e+01 -4.768289234926297127e+01 -4.539708397185560074e+01 7.739469998224068092e+01 -3.988257261808711718e+01 1.328083108141200626e+02 -4.808217810839036588e+01 5.309183300545053186e+01 4.374223951159569523e+00 -7.804513298881154526e+01 6.620670568039402326e+01 2.670714276286118434e+02 -8.865145068293907116e+01 4.569702399534627091e+01 -7.345139603677900197e+01 4.356588773537103521e+01 1.263377890486713824e+02 -4.953478614322407481e+01 1.408431891825869720e+01 -2.595603697109715213e+01 -9.819377490827432098e+01 -1.672887486185934236e+01 4.157759553622178750e+00 -7.517441099195737664e+00 -1.438413570493927729e+01 1.138281267856963694e+02 1.256081244560644024e+02 1.796338319924103359e+02 -2.932160689477651090e+02 3.679805170479852450e+01 -1.520432801931040601e+01 -6.005753768711276308e+01 1.737740764791154220e+02 7.335284633823614797e+01 -2.533496046060061957e+00 -1.117138691745100658e+02 -1.047486020490596204e+01 9.646667616462876538e+01 -1.294851541557445103e+02 -1.625028235512330639e+02 1.035019331619795047e+01 4.088016859853984641e+01 -5.884305981912377348e+01 4.052914745460380885e+01 -1.032252846565842077e+02 -1.458658628843099905e+02 2.032413808382015930e+01 4.683784387556605822e+01 4.658170983071733495e+00 -8.044768657095667663e+01 -9.025098013545240860e+01 -8.127313795277351005e+01 -8.445466961945621165e+01 1.222628673191996818e+01 5.481211908974896829e+01 1.124317255395235975e+02 7.663546240173037916e+01 8.640641749093630608e+01 1.037714185716084216e+02 -7.219139719692583412e+01 -7.965636805651115537e+01 6.810249570744943526e+01 6.623311923544999047e+01 5.721342954424265770e+01 -9.060708692706997525e+00 -8.800280581361117527e+01 5.218961459702209282e+01 -1.731479245026633293e+02 6.496438020155959236e+01 -4.303599931149663149e+01 -9.325790058979487185e+01 7.179374531909519419e+01 -1.661684452923723754e+01 -7.460594742006978208e+01 -5.558770817264021957e+01 -8.887472521273997117e+00 2.350389867709628504e+02 7.453681125081311620e+01 5.313621316963974550e+01 -1.006318795768118690e+02 1.437158772086382044e+02 1.044642172177818518e+00 -8.760765061573253831e+01 1.511319628324121993e+02 -1.495047357405467778e+02 1.530873104646073024e+01 -3.154265483090392763e+01 -2.156225614657566325e+02 -1.307960584407788929e+02 -8.555711656255461151e+01 -2.885010438912007302e+01 -1.169283696001299688e+02 5.653538116282142312e+01 6.376748618177437322e+01 -2.708668941337899838e+01 -9.789835320650006167e+01 1.109431019527133913e+02 1.159123491628816112e+02 4.533304995466416898e+01 1.718656447892387007e+01 2.565413046597183211e+02 4.283464762185171537e+01 -1.173201174339491644e+02 -4.426219767164382546e+01 -1.657229284700818539e+02 3.129237193714804377e+01 1.504882934442753424e+02 -1.455824485011171987e+02 1.293608877923790317e+02 -8.933345404894268427e+01 -1.860507044431573576e+01 -8.064806595531351929e-01 5.194802742896845160e+01 -1.136204343341120726e+01 -2.243144502713571242e+01 -1.846664883554563374e+01 -1.245770065164665112e+02 4.558133896958431563e+01 -2.980473194229795553e+01 -1.268572907669738292e+01 -1.053979742647121043e+01 2.220908472896795161e+02 1.712881378189475186e+02 2.286536900785300759e+02 1.295513992229629423e+02 -8.510072969279555366e+01 7.386760913890641689e+01 2.079638667754126047e+01 4.670173985002248429e+01 -3.898199260638542540e+01 2.510864666182468738e+02 -2.293131315913093715e+01 -1.344372569122013772e+02 -1.468586309861355588e+01 -4.507803124430746067e+01 -7.607641775209900459e+01 4.243087615119555522e+01 -1.151603227241198191e+01 1.788792549157755616e+02 9.078282220968145566e+01 4.019322991132510481e+01 9.634720368721805528e+01 9.308176342338984455e+01 -2.260472402458547592e+01 1.373255877413171220e+02 2.610501372837637746e+01 8.814622543116257702e+01 4.691461160841659961e+01 6.808117725779020191e+00 -1.138536497921908932e+02 -1.139879250314074142e+02 -8.858255768060324442e+01 -1.530795385434044853e+01 8.529351223413223693e+01 -3.012023306785242127e+01 9.727910816924570270e+01 4.311955049868328871e+01 -7.154490030537833434e+01 -2.945262986304747699e+01 -5.763340115252864848e+01 1.728636495161465092e+01 -4.553452810845269028e+01 -1.102292156268184726e+02 1.195343356453445267e+02 1.193871436494186895e+02 -7.770676892979483341e+01 5.298766165899602143e+00 -4.460060273233254691e+01 -3.202356833906321043e+01 -1.115759239693665350e+01 -3.074355778810490136e+01 4.378786095522693245e+01 -1.383102125015647061e+02 -5.200601650481333849e+01 -1.493605014501740982e+02 1.712469840025105441e+02 -1.983625184455713963e+01 5.791438031252927487e+01 1.170156745000376652e+01 1.419496058375680150e+02 4.383776582684087941e+01 3.508076117927265614e+01 1.517377190909282660e+02 -4.841050530764686499e+01 -9.594932741864684544e+01 2.675631123323816496e+01 -1.552449936149615723e+02 -5.247154723380220531e+01 1.005333032225696002e+02 -1.252632842070266008e+02 -3.570663702960248997e+01 8.964560843244142063e+01 -9.272777280044945769e+01 -8.782883409260861640e+01 -8.112733971880190609e+01 -6.260885701657120705e+01 2.445558898784330495e+02 1.945658161485023641e+02 1.010660505019703379e+02 -1.003031830856802884e+02 7.343805993627366036e+01 -6.499072046255488999e+01 -3.086353087048460608e+01 1.630820960618262561e+01 -3.167759982854959588e+01 -9.193668356816310450e+01 -2.770257710038524834e+00 1.445678434073925978e+01 1.066991607438241516e+02 -1.259810370904513661e+02 4.116227738306573514e+01 6.250846726142177090e+01 3.381042779027161771e+01 -8.879633942434578842e+01 -1.455370479487476132e+02 1.891959960970304451e+02 -1.743323290212964594e+01 2.466625692299861683e+01 1.533478722440080446e+02 2.610155811327359032e+01 2.714213902485116847e+01 -4.361000830866105105e+01 8.672975725234392996e+01 -1.334083917124067682e+02 -3.012968575273310634e+01 -6.006215212620591437e+00 -5.222476858383206633e+01 6.189440312786667064e+00 2.077537086664140986e+01 -3.500181337681145521e+01 1.336455023250475449e+01 2.089926225522916354e+02 -2.679755817912396054e+01 -2.739171025188885622e+01 -9.938704719197977511e+01 -1.594817110764963797e+00 -7.891918212390757503e+01 6.224032921653570583e+00 1.095617075096735817e+02 -5.083940660764605468e+01 5.902290827754185898e+00 -5.306561429127160778e+01 3.233518279838166531e+00 8.519818738750805664e+01 -1.131971261174787884e+02 -9.463058062214061295e+01 -1.002396961104586808e+02 6.969985050772855573e+01 8.456579837850856052e+01 -9.009111976303010749e+01 6.121170840430831106e+01 2.524844011476001526e+01 3.779512413528666315e+01 -1.732905484981179001e+01 8.925194620962750491e+01 7.784256056953546477e+01 -7.545282846357028461e+01 1.150869326510844282e+01 7.898764926065948089e+01 7.114149801585183752e+01 -1.945341719472981623e+01 2.437566693810441976e+01 -1.295090138770176225e+02 4.741459400730475693e+01 -3.202023541479547220e+01 -3.193162530152261525e+01 1.691410767851481296e+02 4.630475270098014562e+01 1.173850321361162230e+02 1.865183938199706972e+02 -1.344522935822738248e+02 1.456195335715653698e+02 -6.198278988564406689e+01 -1.319904545590423197e+02 8.038723850754900013e+01 -1.309060587088808347e+02 -2.804595265547389715e+01 5.507277471876189878e+01 7.849560541597502272e+00 -1.642582825279095005e+02 8.230873840883192827e+01 2.465354623175241500e+01 6.746704648702156248e+01 3.546490746635914348e+01 9.242010450344412931e+00 -6.554151604409059928e+01 1.129873240231602836e+02 5.321898860580219548e+01 -6.065836489301157997e+01 -9.887202669328617333e+01 3.798828684261478372e+01 2.513933862037688627e+01 8.047857148780765613e+01 1.795051572170646352e+02 -2.403335999775472587e+01 -1.075808862941080832e+02 -8.267842762078123542e+01 -5.011062538113977638e+01 -4.327283313130633502e+01 -1.432677374604201930e+02 -2.200304399819817647e+01 1.264902576773519485e+02 7.277090254412405557e+01 -1.194875762583373984e+02 -1.464200758535548061e+02 -6.647158885346385659e+01 -7.450182815711086448e+01 1.433779699585130061e+02 -1.664561585550535483e+02 8.453943196622293499e+01 -4.497939793163063804e+00 -4.202816507400267199e+01 1.296941969428933028e+01 8.898298958900615219e+01 4.837285232944409330e+01 1.349408484342101531e+02 -1.553843748906322730e+02 -7.905602859646897684e+01 2.478467246131922863e+01 4.093398016255589056e+01 2.012287614938305467e+02 1.420283687133447188e+02 6.400541063222635785e+01 7.039636858893371141e+01 -3.322382440427704609e+01 1.481923265122584326e+02 -1.751358465118831305e+02 -6.193057518989731847e+01 -5.240610627078161343e+01 -5.056341153396289911e+01 -1.007977604725234642e+02 -1.464414488133302683e+01 -6.699763718157616665e+01 6.946506888379686018e+01 -8.920821468683804767e+00 -5.666530631672792850e+01 -6.072818156794532030e+01 1.758972344757927146e+02 5.764704057272331994e+01 -1.341771479228723685e+01 2.039160333631223523e+02 -1.057794669851019620e+02 -3.448089934340848828e+01 6.536904528869553133e+01 -1.357469287381070366e-01 1.462738103617693319e+01 -1.221482024280214631e+02 1.719792483665725626e+02 -4.776583257767325108e+01 -2.624395421911410864e+01 -1.070494182401546226e+02 1.228013795731495037e+02 9.350500005538290793e+01 -7.561441553012912209e+01 -3.672058595635139966e+01 3.801629538918167839e+01 -1.476590113778055695e+02 -1.979922433587380515e-01 -7.286028028435177362e+01 7.489713383655679735e+00 -1.054076131059433408e+02 -1.545902439610247256e+02 -6.892742604316867983e+01 1.444834642070913731e+02 5.511949699413256809e+01 -8.739042875836517510e+01 8.690257345760456076e+01 3.333704504400430579e+01 8.611894672239985482e+01 -4.104833772325429209e+01 -8.191913237719489871e+01 1.666605403971013288e+02 4.055636420013023979e+01 2.819692979241941444e+01 -7.109280982360834855e+01 -4.121615904016181986e+01 9.260292483397346786e+00 -6.989490082050475728e+00 -1.683229114124466150e+02 -3.371641374351615639e+01 6.270837454558875379e+01 1.086288267469656006e+02 1.516186497152851302e+02 -1.293717580642423748e+01 8.723306682488794195e+01 1.535240011054251852e+02 6.169965819040115917e+01 1.436786661857098579e+02 1.563083699913147484e+01 1.277300191227189430e+02 -8.164163139370161559e+01 5.185780823937376027e+01 2.848386931747363704e+01 7.372925941148092477e+01 -1.032231200451250430e+02 1.924588992155317442e+02 -1.250108326275370132e+02 8.579426507125030810e+01 -1.042621799964269513e+02 4.483177085924268113e+01 1.340673968623793222e+01 8.801911596638386470e+01 -7.146356871063937888e+01 -7.326233280379490509e+01 -1.079744167760162732e+01 8.641155349984960310e+01 -2.869819308736025221e+01 -1.579911666091020273e+01 -1.903056050519311881e+01 4.589380568952570627e+00 9.507772910925140764e+01 -6.057558138991076646e+01 -2.617067228916794885e+00 -1.875587067315266552e+02 1.179798757185956219e+02 -1.206789292937772160e+02 -7.137567979521503503e+01 -2.272580727648619714e+01 -1.043109356343350669e+02 -5.134973790451916642e+01 -5.661207863876597202e+01 -1.903164955492158938e+01 1.316099825641124426e+02 5.222855479058870998e+01 9.700365192723918994e+01 -1.314787435565736189e+02 -1.338623374208209498e+02 -2.769626444543434332e+02 9.872707624375777868e+01 1.006792989875589797e+02 4.089259739729677534e+01 -4.103916227199788835e+01 -3.589851078100206649e+01 -1.774462558254744238e+02 1.411199496895777656e+02 -1.037595328200364122e+02 1.033328565275955384e+02 -1.537815626233853550e+02 -1.383673555858956661e+01 -5.349956107463050614e+01 -1.152229885638352158e+02 -4.454537670637940039e+01 -1.212721231184499970e+01 -8.954569612415247093e+01 -9.995845340948892499e+01 -1.194477385904184352e+01 6.877598987248093465e+01 -1.203979940530650481e+02 -1.511700898585765707e+01 -7.125959249397074302e+01 -1.269778451538240205e+02 6.363071601231856000e+00 9.188531700834951721e+01 1.599860269399835317e+02 -1.841496250047287830e+01 -4.450396601969629984e+01 -1.200338382779450939e+02 -1.581934036552438556e+02 1.003617622282155253e+02 -7.032312965133823468e+01 7.636841245416349011e+01 9.086338767942779171e+00 2.824367224834396239e+01 7.140863136041221537e+01 -8.198608085114447874e+01 7.997889663629916868e+01 1.115135226295612512e+02 1.523746603285525225e+02 -1.127119000273639529e+02 1.005776067357473380e+02 -4.623701510941879889e+01 -8.785276492278536864e+01 2.076435081678924348e+02 4.760742970125584606e+01 8.076402218983891146e+01 2.051420811539934519e+01 -6.123953086761272147e+01 -3.380172755143886576e+01 -2.035745205990824900e+02 1.022200669074760242e+02 7.884045671304268410e+01 -7.324383556235540027e+01 -7.073787226308766662e+01 1.404825920989444228e+02 9.779054423085376868e+01 4.946571762968721941e+01 7.359703181709180342e+01 -7.587709479215996922e+00 9.984539284669362758e+01 -1.002354647033315587e+02 1.803045161187580163e+02 -3.820425943982846206e+01 -1.180592331401614103e+02 -3.649393238305916043e+01 6.941628574946503250e+01 1.425559170919472649e+02 1.242500641180487797e+01 1.681929288129800852e+02 5.049142893203615046e+01 3.255002147655914513e+01 -1.076974577580450472e+02 4.332513053141328641e+01 -1.209320842612280700e+02 4.617581886842194194e+01 3.731943364183721457e+01 -1.193887584782588789e+02 -8.228587019196469043e+01 3.857253012581929141e+01 8.442361269902706411e+00 -2.245269379840737756e+01 4.053376265674317125e+01 -2.071035996615693264e+01 -6.104522119756502718e+01 -2.539788460311094909e+01 -2.168758128727040102e+01 -3.852771124025086635e+01 1.815355781950686165e+01 -7.792816674665610321e+01 1.150855328638977539e+02 -7.186079705625166980e+01 -4.059163254704578172e+00 6.350892759592935732e+01 3.745646730325993712e+00 1.545092176792484118e+01 1.545521951502044189e+01 -1.133115301735507643e+02 -4.262317817567375933e+00 6.293300714809430474e+01 -2.239129062527004521e+02 -8.213860499800716752e+01 -1.090270396029569611e+02 4.237805093434619153e+01 9.308406961349464837e+01 -8.878578446267395918e+01 -1.624217305701516523e+02 -1.791703134852933488e+02 1.930226590222160965e+01 -1.401823396885868078e+02 -6.122034393442865152e+00 1.427264282365978545e+02 -6.832287717479193390e+00 3.587761426666045139e+01 -9.550073331997676007e+01 7.709384277121482398e+01 -1.143867047891402535e+02 -1.489287283796351780e+01 -2.919681830502226205e+01 5.553130365924686629e+01 -8.513358202543541253e+00 1.018256017015548167e+02 -1.176185948876657932e+02 -4.823896273279313363e+01 8.346046892434141284e+01 6.368073854091629471e+01 -7.921785854405375460e+01 -5.236408170751948887e+01 -4.751247334874626915e+01 -2.783409695325977964e+02 1.860917625642338749e+02 7.311909020257728287e+01 -2.264707048817439272e+01 -2.851273290021657303e+01 3.989773498502778182e+01 -8.076710503721827195e+01 9.554019901064727094e+01 5.807424212949327114e+01 7.861627768603739241e+01 -8.069794263515802868e+01 -2.541496004835565259e+01 3.195426165217894265e+01 1.667183824783165846e+01 -4.110397216546736843e+01 1.515055115690111336e+02 -1.656889676353219798e+01 3.396115464683678198e+01 -2.204013804169986770e+02 -8.115402398016027519e+01 -7.010733967001567635e+01 2.207441853943510424e+01 1.046427984534557254e+02 -2.221388450507171228e+02 -1.792652270118179558e+02 2.123971106871333632e+02 -1.012381159058124247e+01 9.203423245607280023e+01 6.001902380882132348e+01 -5.302731098425061163e+01 -1.255324825344283681e+02 -9.118879760678986202e+01 -4.814873698793118706e+01 -3.584497100269433645e+01 -3.752765329204664368e+01 1.545389135526684221e+01 3.566554213258848449e+01 1.599079220872081635e+02 1.181152360738309710e+02 6.708276387447816624e+00 -4.228588033216785114e+00 -1.521102468762338162e+02 1.146582219426809672e+02 1.526437092007505498e+02 -9.915050878699319981e+01 7.064232249745815295e+01 1.616752948319475358e+00 5.265231580680273282e+01 1.201361067570530849e+02 6.798255213003186270e+01 -1.284659906674650642e+02 1.544067713594630575e+01 -2.816453151315049652e+01 1.068280049786919150e+01 -2.213127721727570574e+01 4.345022934213504584e+01 -2.498725126029603700e+02 1.736817102676540401e+02 6.957342417178359106e+00 1.528612733179437555e+02 -1.008439678746217893e+01 1.018173322417330411e+02 6.871353035250146490e+01 -4.026226052704545566e+01 2.874473653927150707e+01 -6.990552160895491340e+01 -8.543793643291088813e+01 -6.916019994182899211e+01 -3.078197812035010728e+01 4.336948161943212909e+01 1.057886217113091050e+02 2.733633640014530286e+01 5.973025170784999460e+01 -1.007178642434177220e+02 -1.317655590672051176e+02 -1.295634952384259897e+01 4.456663293100741186e+01 -4.366220398150738191e+01 9.093087151648434485e+01 5.340039001175468059e+01 -2.656806871465791886e+01 2.878491535178672223e+01 5.903197486838044483e+01 -6.931506553124158643e+01 -1.285812943900677396e+02 1.366060319366859233e+02 7.512935442803958530e+00 4.822707809486026775e+01 -1.436579749392089411e+02 -5.139496794585571848e+01 -4.150999799117462974e-01 -6.335418375876874109e+01 4.099612521449333968e+00 5.421058162888873966e+01 1.795537452357606298e+02 3.769128127345724266e+01 -1.055442669803846201e+01 6.961821260855748505e+01 -4.380671476105667494e+01 -1.050162284250341429e+02 -1.331749962074945302e+02 9.023053926835746807e+00 2.420928939037532146e+01 2.298707894672052632e+01 -5.485683978887764312e+01 1.165241307224987395e+02 -7.796516903921826724e+01 1.238026957464724234e+02 8.422633094588337599e+01 -6.276525386685315766e+01 -8.182208411753512678e+01 8.129766014765452553e+01 1.970729784017222030e+01 -5.072172190632500133e+01 -5.198903117594505829e+01 1.320952645316032772e+02 5.539133153973854462e+01 7.722337646370523601e+01 2.526545718117420236e+01 -4.062907288115677318e+01 1.038126120111493691e+02 -5.275244503120481454e+01 5.540653972042814956e-01 7.399952825027193626e+01 9.631716425195847364e+01 2.471571822905557383e+02 -1.694880851065176159e+02 1.556838195148612272e+02 -6.535224062187816685e+01 -1.474308905927128954e+01 -2.432593857013999639e+01 -2.006715280000409507e+01 -5.335336489850091368e+01 9.006479464852283456e+01 1.782470210055672624e+02 -1.150643703062909822e+02 2.997443932858469395e+01 -1.230042834808068761e+02 6.805648768725481546e+01 -4.311994217069572244e+01 -7.861237154691106355e+01 -5.231880371846234112e+01 3.999402902426039930e+01 1.880042993098843596e+01 -7.939789178401369441e+01 -1.370086272786873565e+02 2.017316257981003602e+01 1.531876856406261140e+02 1.388999459064980435e+01 1.774455816692655219e+02 7.250671058170349959e+00 1.309790619640132547e+02 -3.365566324519490138e+01 8.834047484822234253e+01 -6.954728611012554040e+01 -1.099447287700121478e+02 4.815102686501285234e+01 -5.650343410033706704e+01 -7.653400292850594155e+01 7.100772567987000627e+01 6.314451689445577998e+00 -9.192253452033261851e+01 -1.468805604521119506e+02 1.443288172357035819e+02 -8.702506378251352714e+01 -2.317206335951400131e+00 1.172610062068800687e+02 5.664783066876531592e+01 -9.594062403805708072e+01 1.041190721827122623e+01 2.756187653809338940e+02 5.209129992397170383e+01 -1.541873203729693955e+02 -4.667291680653143260e+01 -6.013824535723711762e+01 9.404507057089789512e+00 1.052425224193211477e+02 -1.012858727225936661e+02 2.113570166415890128e+01 1.277212710741058999e+02 1.837881880171154592e+01 -2.068783304111344705e+02 4.728727947440295765e+01 7.393222356871159207e+01 -1.331692519251843621e+01 3.211278550719782743e+01 1.723994085701834322e-01 2.210306693483694218e+01 2.717037623704185378e+01 1.134904615647586610e+02 9.606683987905130095e+01 1.531829822231497928e+01 1.460052262762181385e+02 -6.272761209390081660e+01 2.416820738735706868e+02 6.373551784142301102e+01 1.388936400383213652e+02 -2.152311286445399929e+01 8.828179117314550695e+01 -4.795215486825664897e+01 -1.434668164709005964e+02 2.563967972513600202e+01 9.309721085124120066e+01 -8.582880989517040859e+01 -1.026723470207814870e+02 -6.522626768304716904e+01 3.589805957908946965e+01 -1.119339110517485949e+02 7.322538924685591155e+01 2.748547908954626351e+01 -9.569197400065371539e+01 1.861781971710102823e+02 -1.152953964041238955e+01 -9.977902590780006165e+01 -1.315350677490994435e+01 -2.003533651823069306e+01 -1.374686366477749573e+02 -3.923327388951393146e+01 6.030982764851314215e+01 1.292195301593162640e+02 2.847822302340125589e+01 2.621727812615975495e+01 4.391163356839365406e+01 -3.501442301067629614e+01 -1.427768700818201069e+02 1.558611749120388623e+01 3.034674546855065103e+01 1.305274940261298866e+02 -9.692769832414700915e+00 -7.464026828970182237e+01 7.177337722130458531e+01 9.549695645068002614e-01 3.118786772169195842e+01 1.365065035141576004e+02 -1.740225574630550227e+02 -9.105791298014548829e+01 1.223144814834535197e+02 -2.055603547817865717e+02 -1.752327185834520265e+02 8.673888638737057022e+01 1.467320497079093968e+02 6.043336758467971492e+01 -4.267943949397568382e+00 1.483766909457816041e+02 -2.091831227425419968e+02 1.021016027969960049e+02 4.037799815606105369e+01 1.210795635956383194e+02 -1.796956803120934012e+02 1.014646527575193602e+02 -2.689284055416833397e+01 -1.273837413972442931e+02 -5.070654204670408838e+00 -8.802981190316810967e+01 -1.545050852554979670e+01 -4.146681628899281158e+00 -1.173840635008686490e+02 -1.175021829344956075e+02 -5.961315866900354621e+01 -1.228229306940656045e+02 1.914971812061990022e+02 -1.535245089749508338e+02 -4.781574920047366817e+01 1.644044020215945920e+02 3.233204562311783548e+01 -2.820355846703406542e+02 -1.211408294786489961e+02 3.382466091759087590e+01 5.208657059369175357e+01 8.133792003716855845e+00 -1.472968181677189818e+02 3.400207352542615524e+01 7.154825480164692664e+00 -7.082423779425418786e+01 1.931773506417426631e+02 1.930124080971048954e+02 4.144599527492519364e+00 -1.987160947871425378e+02 1.200344119132756475e+02 2.929704448258689098e+01 3.636709863096109885e+00 7.296769942058610070e+01 -1.977039837073781143e+02 -1.315047943179337437e+02 1.343602949185057298e+02 1.044825336987315012e+02 5.040394010463031549e+01 1.364186222429539725e+02 -1.698532215300717496e+02 -1.950257109568527270e+01 -1.242447372389798232e+02 4.161074602111276732e+01 -9.897426580475432445e+01 8.296601218798929267e+01 -3.232448122554006886e+01 1.180128423580210395e+01 1.690706250379874120e+02 2.720608761188929137e+01 -2.511349109945926443e+02 -1.204306304773150060e+02 -7.940784615104902855e+01 1.506488443838274236e+02 1.194892155802541645e+01 -5.135187528367265486e+01 2.888613417540351591e+01 5.953346846075376675e+01 -3.767777431276062572e+01 1.024373281024652016e+02 -9.599340490000912496e+01 4.689104858692009969e+01 1.066514150869947599e+02 -3.385089906255184644e+01 -9.349546165939382547e+01 -1.081111812020744765e+02 1.141107824965080795e+02 -4.734170098203544086e+01 1.872755074443530816e+02 5.450594555832176269e+01 1.057071361160554659e+02 1.758088226229281474e+02 8.151470521962217219e+00 -1.184489404986699981e+02 -1.579005147485278258e+02 -1.087745648383485815e+02 4.050669991817737525e+01
-1.264543876214746732e+01 -4.513186939536855569e+00 9.635956658339888747e+01 -2.131649855013453418e+02 1.446452144782721518e+02 5.908225535340031342e+01 1.415979557057570162e+02 -1.202126598095458547e+02 -2.571713373115824819e+00 -2.238889515748542536e+01 -2.042719850013527321e+02 3.043417589204018725e+01 -1.704589344258748085e+01 1.138293624611855677e+02 -1.164364491010144889e+02 5.743337098528631657e+01 1.165782369309204967e+02 -4.276918341940292123e+01 -4.613504865579470504e+01 -2.509942798396551566e+01 5.745117006888788325e+01 5.867994603945745524e+01 3.018798168578396712e+01 -2.163536243747283265e+02 -4.797018637169039579e+01 8.520370409108566889e+01 9.226897892992719008e+00 -9.663186417485910340e+00 -6.189636594015136239e+01 -1.443016426450621559e+01 6.824123037840833206e+01 -1.352947051135441257e+02 -5.765653025657034192e+01 8.342225130201571304e+00 1.931614025374096286e+02 1.973193459246269015e+02 -2.991928319958511651e+01 5.199760361353537519e+01 -2.390233050424200867e-01 -1.299254876797910185e+02 8.928872499740235469e+01 9.975380222938434827e+01 1.009575909760135772e+02 1.085969421011349745e+01 5.756920273706445101e+01 4.476660350877401129e+01 3.616866219692082751e+01 2.732535978662338749e+01 1.025984948936231689e+02 8.345558956815422391e+01 6.100477473850271792e+01 1.516508455249353915e+02 2.305796690265768518e+02 1.819729174750571019e+02 -5.502382453820388974e+01 4.583746820150270906e+01 -5.978283274007053905e+01 5.245435389709236773e+01 -1.788263427383388091e+02 5.256382017044484201e+01 -1.904805228788173963e+02 -1.569732752255850983e+02 1.205299303491715079e+01 -8.625183514947547536e+00 1.577110818596761703e+02 -1.935120943924587777e+02 7.003055782454737255e+01 2.138649305370415448e+02 -6.888062414068068406e+00 -1.812700167097895587e+02 3.304928947245909399e+01 1.834626865826163566e+02 -5.686539939978906233e+01 -2.480593333752607634e+02 -9.544192470409070950e+01 8.302107085576231782e+00 -2.141205583215574677e+02 2.987638052737169048e+01 -1.670195207631011840e+02 -1.727054729913710958e+02 -5.323720248321770754e+01 1.418900838701808880e+02 6.464737882949665959e+01 9.888655517323442723e+00 -8.257659585313064099e+01 -3.966695310864123769e+01 5.934847295044365723e+01 -2.162247701584828690e+02 5.038846471849011266e+01 -6.979265808014837091e+01 -7.280305689416341863e+01 -1.647078355283310032e+02 6.057679871975366837e+01 8.635790018744786778e+01 -1.512286516648415500e+02 1.610166655636645885e+02 -3.715414722158791960e+01 -1.576919663187765508e+01 8.169589309372776142e+01 1.457182490417364988e+02 2.027851669407997193e+01 1.411775563929529085e+02 -1.725924377779989172e+01 -8.455219846209116952e+01 -1.827439405973499476e+01 9.421173250856122650e+01 4.311291166896190674e+01 9.378542924466221109e+01 9.047811013051052953e+01 -7.967016062689567946e+01 -1.628993962593457638e+02 1.179689362116829727e+02 5.200155656264898596e+01 1.557835281734178601e+01 2.931022967830300985e+01 -6.512801759728417039e+01 9.207522947642503652e+01 8.617662436865560949e+01 -1.317330256612108563e+01 -6.833798305799969341e+01 2.943225374152388341e+01 6.030196055504153385e+00 -5.896058464332091376e+01 1.626635348568141239e+02 -3.144839564143899935e+01 1.166469103876758879e+02 -6.723745968418474206e+01 3.682976640863653728e+01 -3.459812672119848997e+01 8.586751550193005755e+01 2.251928599509627560e+01 1.109183376211896217e+02 -1.113601784451850847e+02 7.135600304752196621e+01 1.184993257281523285e+02 -4.289299571405091172e+01 7.353519380226033242e+00 -1.228317996731793649e+01 1.121612876610545015e+02 3.521812413064081770e+00 1.618950102754389206e+02 -1.357993591204677841e+02 1.120163915738411475e+02 -8.765364152386447927e+01 9.203392051360445691e+01 -1.316634253987386387e+02 2.834694145137390109e+01 2.378784389700469859e+01 1.704254128808943669e+00 3.489550495432145993e+01 4.422144500225540042e+01 -1.189090134544745681e+01 1.048617298991418068e+01 1.039002201790511037e+02 1.223063662599179935e+02 -8.336603060103411167e+01 -5.207172102721875717e+01 4.549504533934699424e+01 1.453887988325255343e+00 -1.317338956100925600e+02 -5.303723700294123944e+01 -3.404788222922134366e+01 4.702217229257519193e+01 -6.301893665418577228e+01 2.203699551862556660e+01 1.543146648554258888e+02 -7.645085145030419937e+01 7.781079506796500311e+01 8.090983802178718065e+01 1.086527319991767193e+01 1.188645284123103920e+02 6.055747784596707106e+01 1.618552152485649742e+02 -3.335801533487008186e+01 1.083314204616905130e+02 5.354809288595293282e+01 -1.547788302232760849e+01 1.967933560303352749e+02 -1.338124212487629165e+02 4.715852791523749943e+01 -1.809493677462990036e+02 -8.120602294707224189e+01 3.961330448409643168e+01 -6.970346416638248854e+01 -1.503967948036541600e+02 1.924597099444250432e+02 -8.283071200666587686e+01 -4.586919953797050198e+01 -4.469365232552186029e+01 1.176004656976214022e+02 1.881413235660768066e+02 6.254780678754416812e+01 1.412891041435687782e+02 2.120516496795728187e+02 -1.538574280167335440e+00 1.573678861614505138e+02 6.849075726461228442e+01 1.839745340137338872e+02 -1.215731411424865911e+02 -1.142931774258075350e+01 6.147213046144440085e+00 1.835322205900428969e+02 -8.778422655975114708e+01 -5.849684273871812934e+01 -5.114686422609585037e+01 -1.295260926211234391e+02 4.516723275342902078e+00 -9.752551914958429791e+01 1.489982947266053372e+02 2.274735564393575160e+01 1.158168770796787328e+01 6.987031285963277583e+01 -4.741342923591629344e+00 1.130766655640762366e+02 -1.535418465273774586e+02 4.390467442537752873e+01 -1.650338738331613797e+02 1.134745678284835435e+02 9.288369391493149863e+01 -6.501400639004123150e+01 4.523512394829452887e+01 2.301356938879919198e+02 -2.945461792434941373e+01 4.024747181641846083e+01 -3.158340009284473382e+01 5.599781541450140310e+01 6.209424426663245811e+01 -6.077006460510705033e+00 9.845442205550860137e+01 9.802111306655511669e+01 -1.873257478119693076e+02 -1.480616159253742126e+02 -1.158033614062083103e+02 -9.103080655899409734e+00 -1.446924250508450882e+02 1.116433460086945644e+02 1.065870109897378057e+02 5.701441984088386761e+01 1.078784494370301239e+01 1.523238346167529187e+02 8.111006816018580423e+01 6.522407688218558519e+01 -9.813446094102357620e+01 1.472612571874205685e+02 -3.487968960960435183e+00 1.056438444593836721e+02 8.522989521839694049e+00 3.548882668790299988e+01 -7.309096841796295507e+01 -8.762622684029479103e+01 6.913538489572930246e+01 -3.739128044649433491e+00 1.411525067600194348e+02 -1.211959836619527131e+01 -2.742681020333672226e+00 4.426999498486293305e+01 2.183728971094922855e+01 1.365037963159604715e+02 1.419307391538163543e+01 3.460744631876033139e+01 -1.492629710486975227e+02 6.350052677960236025e+01 1.289313064157873328e+02 -1.695370410628369484e+01 -2.198903972241447775e+02 8.137844762972291335e+01 1.312017807969628507e+02 1.963433848780810109e+01 1.819695758143610078e+02 -4.124194938061053861e+00 4.123403423626334785e+01 -4.195432860882849724e+01 -1.332184643309722674e+02 5.383745142492017521e+01 -4.561090963999362913e+01 -7.776331623825383588e+01 3.958119809381135212e+01 -1.773358232502764054e+02 6.874221874770260854e+01 1.577845026323292643e+02 -9.709101369924597691e+01 1.659355261676189457e+02 -9.357610192499249990e+01 -5.712585410020975196e+00 -1.011415662606089327e+01 7.346815588022464283e+01 -4.468458933512704334e+01 -1.032472429613586229e+02 -8.487010595029450144e+01 1.396236310827794966e+02 5.660031420391881340e+01 -1.262125923077890235e+02 4.224683627134462327e+00 4.153697339546954481e+01 7.898662471811063313e+01 -3.858002604619287723e+01 5.733638097723293470e+01 -6.596802957481031626e+01 -1.552173559812373185e+02 -3.310745978905868014e+01 1.347702717082474919e+02 -1.084312382050388806e+02 -6.098788845140283854e+00 -1.556539590321970934e+02 -4.642667032797293203e+00 -1.394190208769583137e+02 3.148967767630053771e+01 5.755885708084411334e+01 -4.807896672269301064e+01 -7.867843382180727474e+01 5.391294200544327175e+00 7.106317382013789086e+01 -6.471851968929311738e+01 1.285881426462495938e+02 1.007965573144116291e+02 -1.218451933875546445e+02 -1.006646952159617996e+02 1.289084187112961217e+02 6.803233472201577570e+01 1.433075524383785648e+02 9.536860760170959850e+01 7.737400923947842557e+01 -5.748168971701741725e+01 -7.792695265037666275e+01 -7.344048097610672698e+01 1.948894816364289966e+02 2.917409266464896689e+01 -2.374403933462257754e+01 -6.523044611505541468e+01 -4.753639006454544358e+01 -1.249695389531319449e+02 -1.566805242655087405e+01 -1.664996515210427503e+02 1.186285774533104558e+02 4.361609105863698232e+01 -1.093062960924217890e+02 -4.592951836047493686e+01 1.135946700036777059e+02 -9.193345748519075755e+01 9.756426782000177411e+01 -1.124027927690232076e+02 -1.117639023319931901e+01 -9.059911276302835859e+01 8.514011104426327847e+01 -4.028572138357399268e+01 9.722490145234131020e+00 2.784755973890534975e+01 -1.201068233949175692e+02 1.185224575154451188e+01 4.588484813119578121e+01 -2.118113649618791783e+01 -6.518853517239162443e+01 1.921284479720632703e+02 8.198761955904716103e+01 4.465322373431772718e+01 -2.977911346696444639e+01 7.603709688694681290e+01 1.589148671911612780e+02 -8.743052895661163859e+01 1.986095940509988509e+02 -1.261948697192742657e+02 -1.743415108475639386e+02 1.438776480423184125e+02 -2.218118075761921091e+02 -8.875043054453547464e-01 -2.321958434276091907e+02 -1.449188734564053505e+02 6.804422381536934950e+01 -1.380124276934228931e+02 5.532610052483726548e+01 1.042521218046989588e+02 -1.519715816835612543e+02 -2.851470132225900400e+01 7.149729569045470612e+01 1.269352821400213429e+02 -1.764468600336846009e+02 8.295348949635388180e+01 -9.287447279774227127e+01 -9.330089740779849095e+00 -1.312260093692141538e+01 -7.541594535959433188e+01 -8.557890652599833459e+01 1.719320182313702503e+02 -2.059173298172721900e+01 1.286049580909337076e+00 1.234875307123865298e+02 -8.225975464987627106e+01 -3.265123115225667760e+01 -1.021540278027949427e+02 -4.631004991916769598e+01 4.875324671280604427e+00 5.631542501306500981e+01 -1.282478198496002051e+02 2.253066704336796988e+02 -5.119960323217905795e+01 1.165494614493248520e+02 -4.642292021193917151e+01 1.138968842052577202e+02 1.324005573675929668e+02 4.559971900333093231e+01 1.161455315447803827e+02 -4.113893657427806971e+01 1.332245427646012388e+02 -1.489891760860936074e+02 -6.226455479736483056e+01 -5.995710218965255933e+01 2.436667359518984100e+01 -1.545419906520832285e+02 6.907655087845363084e+01 -2.937505082027671577e+01 -7.870630397117864163e+01 8.531031199056741343e+01 -1.439241542052307068e+02 -8.690178517391017010e+01 -5.016598657818783380e+01 3.149816327547312511e+01 1.236352128076970018e+02 1.112688292483489647e+02 6.579927625866763208e+01 -1.472284637384842165e+00 1.666217365868315028e+02 1.167093645676627744e+02 -9.001358094549526356e+01 -7.438717448742401928e+01 5.246262507910987694e+01 9.461169774606469574e+00 9.332384663026633120e+01 1.588461614599039819e+02 6.724905178380340942e+01 2.330051958216709096e+01 -9.737214328367704752e+01 1.635878018638544233e+02 -1.082458290951442450e+02 -1.573849742004742325e+02 6.259508860274029018e+01 1.061794148290130977e+02 1.871844680797696014e+01 -1.321942036959177074e+02 2.827521761815555479e+01 4.036010278744343083e+01 -3.595292626917471757e-01 1.246277510366999763e+02 9.309390011520504515e+01 1.628731205799845583e+01 7.454703210300132810e+01 -1.017315848183172875e+02 -6.073937313411631678e+00 9.356970524461664240e+01 2.825176598243690052e+01 -6.185466508894246829e+01 1.884041773854823418e+02 2.198210636793876347e+02 -1.193040201362049402e+02 -2.628581527906017001e+01 -1.998208159343700459e+02 -6.862783639755708975e+01 1.488245092254775841e+02 3.185930971732552131e+00 -6.748237588344807136e+01 1.556462285330479745e+02 -5.937799826722803687e+01 -1.526510621156120919e+02 1.297819529803117007e+02 -6.383118602027365540e+01 3.281832071806326923e+01 8.201649721763976686e+01 1.310955077517037637e+01 -2.263586200377444300e+02 4.022013204006591991e+01 -5.879319363022585954e+00 8.562087703483751966e+01 -2.238851017430485513e+01 9.601489843935692647e+01 1.615674871769923371e+01 -8.041539354842601028e+01 -1.946256027376375997e+01 -1.664598937933910179e+02 1.092019166260246976e+02 2.401931979385024007e+01 -3.951984027576254732e+01 -4.919157157324939789e+01 -5.977540204375613087e+01 3.907267861235071393e+01 1.526276996646735995e+02 1.260218198532022598e+02 4.086926702516417720e+01 -1.879231345603894283e+02 -3.684614377439225308e+01 4.162523862910173733e+01 1.114124676119938471e+02 8.278697579793065131e+01 1.465291314487884300e+01 -1.766499745917809037e+02 1.250260993112641188e+02 -2.124775973805075466e+02 -1.954515608508297078e+02 -1.728032136568728561e+00 -7.005094571457141228e+01 -2.292515947475949289e+01 8.272687133710803664e+01 5.310125777847638062e+01 -1.055782373632544733e+02 -1.438529582071570587e+02 1.384087639898868893e+01 1.174580718216586916e+02 1.961411478374888517e+01 -5.385278227431942355e+01 -4.906981542608448166e+01 -1.109292464900432407e+01 1.532490023953232310e+02 2.123272435332500052e+01 -1.679726318967958321e+02 1.241108166323456743e+02 -6.463401729774234639e+01 -4.034086143743182973e+00 1.488867958240470841e+02 -5.053374862668886180e+01 -1.894953145385590076e+01 -1.062097996283659285e+02 -5.797443901413136480e+00 -2.305078730573509205e+01 1.272938667954196177e+02 1.160702710404452489e+02 6.533986669846210305e+01 6.329316371763059124e+01 -1.808368396174550696e+01 1.306616987835728878e+02 -1.090393830360026897e+02 -4.109183983133325668e+00 -8.802980349401606475e+01 1.518510218551660103e+02 7.050447853659319719e+01 4.993996214329873595e+01 7.966818972334817950e+00 -5.154470665145555586e+01 3.323701218548735881e+01 6.490964635959142193e+00 3.555745609522089179e+00 2.329033841152362783e+01 5.778434889212907422e+01 1.645917900436145089e+02 -3.758173855065980717e+01 -5.023454948311358237e+01 6.457040928076476405e+01 1.118043604709226884e+02 -1.239119965888725794e+01 8.890114121087621868e+01 1.006501328076944759e+02 2.037772161367874162e+02 -8.364665059042704343e+01 -1.185646107139709358e+02 -2.769277509321916497e+01 6.009875003529739246e+01 -9.809878001198290676e+00 1.038125206546008457e+02 3.600741905931185727e+01 -1.571626157515705984e+02 4.353677903370910940e+01 -8.644684792749356461e+01 -1.307288560854007358e+02 1.299638386245947004e+02 -7.348943957789390424e+01 5.718956023778289932e+01 1.073713029672761792e+02 -9.560534219090766328e+01 2.271214186118550771e+01 -6.966947539505574127e+01 3.891698124123011837e+01 -1.107285739838509926e+02 5.949309199267473502e+01 5.280706790625359304e+01 3.720358836886544118e+00 8.110534061616755253e+01 -1.475555474287512254e+02 7.370575385380344358e+01 -2.831407894012285098e+01 -1.618924820918628029e+02 9.058022269981020713e+01 2.353647549147036244e+01 -1.879132197904461634e+02 2.254797804989133851e+02 -5.187855732710430212e-01 1.007661692977423087e+02 -1.155559545041894438e+02 -1.860845488579363405e+02 -8.942280254148319329e+01 2.405082549510248580e+00 1.368921987781955352e+02 3.785362328248246921e+00 -9.158963913842231364e+01 4.823302680981440460e+01 1.313173152640910075e+02 6.224311785774775529e+01 -4.955231671828892814e+01 -5.667951528049106713e+01 8.097197773436708701e+01 2.942387838912167197e+01 -1.874304117273261170e+02 -1.986324492405569941e+01 1.619578288112187749e+02 9.465448567728182638e+01 -5.495094136106470017e+01 -1.071327333991482647e+02 -4.088463711330037142e+01 -4.607330196953752477e+01 -1.096651237584975291e+02 -1.765287574553797256e+01 -4.374887278132821677e+01 -1.088744868282768437e+02 -1.264291741801744706e+02 -2.584184178239687313e+01 -1.204352364508576017e+02 -1.282655677833815275e+02 -3.673071146003299248e+01 -5.300785091288472017e+01 -1.064036537333296906e+02 1.847862775070968553e+02 1.044161553762455696e+01 -2.791847313633913075e+01 -1.687000006664527518e+01 7.809207542599220631e+01 1.553724470508702282e+01 2.486303979626520899e+01 -2.107162571342205126e+01 -4.596236454827167961e+01 2.075330318929136553e+01 -1.443209279827418072e+02 -1.580089727085257039e+02 -8.970029089404310696e+01 -1.894414049901223791e+02 -8.894391347473862197e+01 8.511987738799176384e+01 6.094012469002223753e+01 -2.585352045446890656e+01 6.031806829227625144e+01 -1.554392640075140832e+02 -4.059751701861703310e+01 -1.152958400868650273e+02 -6.625307009526497382e+01 2.094558702003093345e+02 -2.037739205938426039e+02 2.037485998144835264e+02 2.477090047260478656e+01 -5.602193578587789347e+01 9.151166185251265972e+01 1.231634442507944129e+02 -5.150241616009258649e+01 -2.022762794321596118e+02 -1.479952849938607358e+02 1.015348150204440145e+02 8.313962413671831087e+01 -1.345611845322306976e+02 3.169224955613762518e+01 -3.940347625838252554e+01 -7.683275616287856735e+01 -2.821921569343897218e+01 -5.440585115091984392e+01 -8.577834960049203517e+01 -3.381829154018975458e+01 4.501558401975578327e+00 -3.240901104572612468e+01 -3.606776221598698706e-01 -1.420207354869359051e+01 9.125246613949634877e+01 1.261899415324349860e+02 1.305987182202479069e+01 1.668288758569352126e+01 -6.268939618794843227e+01 -1.946370948018462457e+02 3.359787228456594477e+01 -9.103666873142073257e+01 2.565547906411864787e+01 -8.052011679265543620e+00 1.060410297685314029e+00 7.186255594413688641e+01 1.210020277990615369e+02 -6.997663483405936802e+01 3.772062789872500588e+01 -1.915056627949759047e+02 9.620095078910448905e+00 6.870026478859121433e+00 -1.216701884159591458e+02 -3.345953630152281022e+01 -4.400434745323313024e+01 4.726581966862452688e+00 -1.014911674471612315e+02 2.685103531308808655e+01 -9.692437440279952909e+01 5.563166135698604364e+01 6.738128740733387190e+01 3.663215937441165693e+01 -2.880146490365135037e+01 1.066947175048666736e+02 6.065372939453224888e+01 7.941672543655494110e+01 -6.651572456220874585e+01 2.009397041096533343e+01 1.269152508645071720e+02 -5.805788453201058275e+01 -6.867180543847180019e+00 3.174000623573977720e+01 -1.274472366510463530e+02 9.704653792021849767e+01 8.887897557209073796e+01 -1.003936327098599577e+02 -8.169703886777055857e+01 -5.510011659368012715e+01 -4.528117042010571680e+01 -1.589237687774548249e+02 -1.347929145614751008e+02 -1.314091485065043798e+02 1.047928021052306491e+02 5.931595492656830970e+01 1.582025468319380082e+02 7.148222684252272252e+00 -8.494814422783802854e+01 1.860080669575848589e+01 1.370616786295416745e+01 -6.301493195303413586e+01 7.339531153927535456e+01 1.170015221477080729e+02 9.864542142372462408e+00 1.420425645812864275e+02 2.227984671144148265e+01 1.099158553690899396e+02 1.492469554928871389e+01 -2.058323012373589336e+02 2.163085967488591166e+02 -4.846845746888993034e+01 -1.476243522595929107e+02 -6.653674072662074934e+01 -4.242861786337507368e+01 4.082617742952331241e+01 2.523296948683826812e+01 4.510059926429332222e+01 -7.297035849960091980e+01 1.205248453239718174e+02 -8.493381732163325637e+01 -6.903821481148338712e+00 1.401363400123119618e+02 1.077970786437299751e+02 5.707670715395073557e+01 -1.740401289152867434e+02 2.499507729060200489e+01 1.379282871295154393e+02 2.300702924531901772e+01 9.581058134952409944e+01 1.044369536835219350e+02 -2.074729147506409106e+02 7.543664071499118506e+01 -5.661926144144264583e+01 -2.204490890892066659e+02 8.668531312019949553e+01 2.403933618442826869e+01 -1.188951968779189912e+02 -5.697541124855338524e+01 1.348377063191707634e+02 1.431950466363755083e+02 -7.353227954501086572e+01 -1.237351781036811218e+02 -8.068216201592643699e+01 -1.602245207316087772e+02 1.889484533970870572e+01 3.660633444001820891e+01 -1.638572002951523743e+01 -1.192415994147271974e+01 -8.612114219665626536e+01 -8.485668107046298303e+01 -2.368159726838506884e+01 1.281955966461095784e+02 1.302232796818315990e+02 7.749104021216481897e+01 9.270335610364887202e+01 -7.487970804470258201e+01 -1.720957351997627427e+02 -1.255774532063991167e+01 -2.198544426277117481e+01 -6.755151561541745764e+01 1.409690386924971062e+00 6.944300985779604218e+01 -5.029606285335470517e+01 2.349154265359636540e+01 7.527730792651105673e+01 6.664286869356533316e+01 1.050894333821275950e+02 -1.417843158008622027e+02 3.767338490351346536e+01 7.919320712271714058e+01 9.007160080131149016e+01 5.612403507356098942e+01 -9.812809449121418481e+01 1.301486006518813667e+02 1.211819528505309762e+02 9.111246875248038180e+01 9.651601209144433824e+01 -8.004243142792618926e+01 -1.412251302045475398e+01 -1.231182109129346536e+01 7.322457033391040682e+01 6.176115808145166142e+01 5.325263278754237461e+01 9.273316621082329902e+01 1.107493339011210480e+02 1.178316980009697232e+02 -6.162298478998014417e+01 7.662761081219714754e+01 6.200165392143446752e+01 -1.118459490909802554e+02 1.251030553272630073e+02 -9.527077355133213743e+00 -2.655471022667235559e+01 1.895314184253621477e+02 8.418056024621718336e+01 1.180766321736261233e+02 -1.373452767252536546e+02 -1.501638593364480414e+02 -1.462551964378198761e+02 -1.162720396407402319e+02 -4.216143676459339673e+01 1.045166889580619909e+02 -1.606595851412989475e+02 3.096192815467991721e+01 1.375380161475202385e+02 -5.657131052528174564e+01 -8.706626974551038245e+01 -3.350133066855857322e+01 1.295441472306531807e+02 2.167735785278992751e+02 -6.363645069156905265e+01 1.891595760564917583e+01 -2.640900752117548933e+01 6.537539554902490124e+01 5.749509022793952795e+01 -2.035780634545760108e+02 -8.466932361633200799e+01 1.314026816152182846e+02 1.335174382486695492e+02 9.030137916172823509e+01 -4.761957961420089447e+01 -7.240848089818670985e+01 -4.335575930263483002e+01 -1.687553108635710259e+02 6.798152317106423936e+01 -2.451221291966961857e+01 1.590383585750895747e+02 -2.671704070193558067e+01 -3.008169134353254321e+02 1.385175660118993619e+02 4.801665476545587552e+01 -1.127908748290598453e+02 -2.121893081130763292e+01 3.376017232314963934e+01 -1.986608142762661373e+02 -1.092959784618358299e+02 -1.048979215998510597e+02 -5.394330414869533996e+01 6.006279699521886073e+01 -1.577342953077248353e+02 1.032290508013540489e+02 -5.198107405730031871e+01 2.803800444717762907e+00 -1.276785821652981667e+02 -9.922548209406541275e+01 1.682980822678497645e+02 8.295346862134704224e+01 -4.042479765463252761e+01 3.555386911040965003e+01 -2.684646785209924502e+01 4.146936790674538997e+01 -1.001711241122677620e+02 9.473107543288158183e+01 4.834536062405144463e+01 -1.138538271325144535e+02 1.118044363873699183e+02 -4.702720826295256984e+01 9.567794889779897005e+01 -4.730882899125857932e+01 8.463779488086218805e+01 -1.469305026769231972e+02 1.367295144408595604e+02 2.371919487162765350e+01 9.644821157515521293e+01 1.249691322698225235e+02 -1.405317136551135491e+02 -8.232151851913140206e+01 -1.012356300835264165e+02 6.408104072401178541e+01 -1.642327850171585908e+02 1.452688767699687844e+02 1.364453318596202109e+02 5.077755121371577474e+01 -8.138741566348019774e+01 5.471149725925932472e+01 -1.029162378842168835e+02 -1.047086506110534110e+01 3.352447667478418936e+01 -1.761816824702819702e+02 -7.820839398833581413e+01 -1.297848011234785304e+01 9.799259906802694786e+01 -4.816588701609025236e+01 1.043154416516917564e+02 -6.169363518686323289e+01 -2.021991138184758938e+02 -1.027379029330443103e+02 -3.264063469965240927e+01 -5.773614208448010032e+01 2.886402402040891957e+01 4.935669002524497273e+01 6.076803504448153426e+00 2.438280848169209847e+01 -1.126659250483077841e+02 5.173893455502225436e+01 3.133744796965392609e+01 -6.927446744921394384e+01 8.919259856663890318e+00 5.416190492110508359e+01 -9.162927800673799084e+01 -5.293047005079844780e+01 -2.322858813605681050e+01 9.373582699759451486e+01 -1.646114253333989197e+01 4.032247593307366706e+00 -2.192368947887469801e+02 -9.131395111932133091e+01 9.509805221234219630e+01 -8.569020992700711759e+01 3.011818828308933504e+01 2.985125839575458784e+01 3.642756954886969822e+01 6.352226263443476739e+01 -1.705984731665303684e+02 1.384317798542022331e+02 7.841867032793612680e+01 -7.253887106110501470e+00 -7.769280529667946666e+01 1.075539789532245436e+02 5.971347379082220641e+01 -1.934136550658165277e+02 -4.843797258463419553e+01 -7.858564474561360669e+01 -4.981221957701271208e+01 -5.952857701106406552e+01 -9.520739027250274944e+01 -5.804605973432019539e+01 1.842151660772806565e+02 -1.642112901098245743e+02 6.296208018519845240e+01 2.668816826715436363e+01 -7.232561165445555673e+01 1.000447450367982150e+01 -3.793866829227591353e+01 3.310264765460503078e+00 -9.249538287704632467e+01 -1.900647901537371069e+02 1.769663602574676275e+01 4.029847028885350824e+01 -1.230816305822422052e+01 -8.610921701230212832e+00 -3.826809419971660020e+01 -1.826911979088230282e+02 -2.946665131067491927e+01 -6.287605386254151085e+01 1.340253748775614362e+01 -1.502697272042254184e+01 8.717408848616197758e+01 -6.065537438138863990e+01 -9.976242090762092118e+01 -3.433833279496669633e+01 -8.632582609553089981e+00 4.371180105450838482e+01 -2.127849940775060489e+01 -7.105153856465423701e+01 -1.528542588809259861e+01 1.928324582261983977e+01 4.571338750778429727e+01 -1.096912005336489244e+02 -1.337936698538076143e+02 2.217070763108843607e+02 -2.101077993263557460e+02 -7.307419475846036505e+01 -4.457911053321264205e+01 1.346091313143238324e+02 6.090646549689888190e+01 2.203864414324517327e+02 2.356231114159011497e+02 -6.003956993211427573e+01 1.246057396091490403e+02 -5.395771742264893334e+01 -3.930244319236297912e+01 -9.685797153835126494e+01 -7.686071616558629671e+01 -6.694301162584984866e+01 -8.571316996584782544e+01 -2.347061900499469402e+02 -2.607456999248171883e+02 1.296580836348739751e+02 -2.555713649308028579e+01 5.128927069584048581e+01 1.260537022126641489e+02
