# 
#                 ----------------------------------------------------
#                 Data from a 3D direct N-body simulation. 
# 
#                 rows are i-particle; 
#                 coumns are :mass, tag, x ,y, z, vx, vy, vz, ax, ay, az
# 
#                 NTHU, Computational Physics Lab
# 
#                 ----------------------------------------------------
#                 Time = 3.099999999999978
1.000000000000000000e+00 2.000000000000000000e+00 3.000000000000000000e+00 4.000000000000000000e+00 5.000000000000000000e+00 6.000000000000000000e+00 7.000000000000000000e+00 8.000000000000000000e+00 9.000000000000000000e+00 1.000000000000000000e+01 1.100000000000000000e+01 1.200000000000000000e+01 1.300000000000000000e+01 1.400000000000000000e+01 1.500000000000000000e+01 1.600000000000000000e+01 1.700000000000000000e+01 1.800000000000000000e+01 1.900000000000000000e+01 2.000000000000000000e+01 2.100000000000000000e+01 2.200000000000000000e+01 2.300000000000000000e+01 2.400000000000000000e+01 2.500000000000000000e+01 2.600000000000000000e+01 2.700000000000000000e+01 2.800000000000000000e+01 2.900000000000000000e+01 3.000000000000000000e+01 3.100000000000000000e+01 3.200000000000000000e+01 3.300000000000000000e+01 3.400000000000000000e+01 3.500000000000000000e+01 3.600000000000000000e+01 3.700000000000000000e+01 3.800000000000000000e+01 3.900000000000000000e+01 4.000000000000000000e+01 4.100000000000000000e+01 4.200000000000000000e+01 4.300000000000000000e+01 4.400000000000000000e+01 4.500000000000000000e+01 4.600000000000000000e+01 4.700000000000000000e+01 4.800000000000000000e+01 4.900000000000000000e+01 5.000000000000000000e+01 5.100000000000000000e+01 5.200000000000000000e+01 5.300000000000000000e+01 5.400000000000000000e+01 5.500000000000000000e+01 5.600000000000000000e+01 5.700000000000000000e+01 5.800000000000000000e+01 5.900000000000000000e+01 6.000000000000000000e+01 6.100000000000000000e+01 6.200000000000000000e+01 6.300000000000000000e+01 6.400000000000000000e+01 6.500000000000000000e+01 6.600000000000000000e+01 6.700000000000000000e+01 6.800000000000000000e+01 6.900000000000000000e+01 7.000000000000000000e+01 7.100000000000000000e+01 7.200000000000000000e+01 7.300000000000000000e+01 7.400000000000000000e+01 7.500000000000000000e+01 7.600000000000000000e+01 7.700000000000000000e+01 7.800000000000000000e+01 7.900000000000000000e+01 8.000000000000000000e+01 8.100000000000000000e+01 8.200000000000000000e+01 8.300000000000000000e+01 8.400000000000000000e+01 8.500000000000000000e+01 8.600000000000000000e+01 8.700000000000000000e+01 8.800000000000000000e+01 8.900000000000000000e+01 9.000000000000000000e+01 9.100000000000000000e+01 9.200000000000000000e+01 9.300000000000000000e+01 9.400000000000000000e+01 9.500000000000000000e+01 9.600000000000000000e+01 9.700000000000000000e+01 9.800000000000000000e+01 9.900000000000000000e+01 1.000000000000000000e+02 1.010000000000000000e+02 1.020000000000000000e+02 1.030000000000000000e+02 1.040000000000000000e+02 1.050000000000000000e+02 1.060000000000000000e+02 1.070000000000000000e+02 1.080000000000000000e+02 1.090000000000000000e+02 1.100000000000000000e+02 1.110000000000000000e+02 1.120000000000000000e+02 1.130000000000000000e+02 1.140000000000000000e+02 1.150000000000000000e+02 1.160000000000000000e+02 1.170000000000000000e+02 1.180000000000000000e+02 1.190000000000000000e+02 1.200000000000000000e+02 1.210000000000000000e+02 1.220000000000000000e+02 1.230000000000000000e+02 1.240000000000000000e+02 1.250000000000000000e+02 1.260000000000000000e+02 1.270000000000000000e+02 1.280000000000000000e+02 1.290000000000000000e+02 1.300000000000000000e+02 1.310000000000000000e+02 1.320000000000000000e+02 1.330000000000000000e+02 1.340000000000000000e+02 1.350000000000000000e+02 1.360000000000000000e+02 1.370000000000000000e+02 1.380000000000000000e+02 1.390000000000000000e+02 1.400000000000000000e+02 1.410000000000000000e+02 1.420000000000000000e+02 1.430000000000000000e+02 1.440000000000000000e+02 1.450000000000000000e+02 1.460000000000000000e+02 1.470000000000000000e+02 1.480000000000000000e+02 1.490000000000000000e+02 1.500000000000000000e+02 1.510000000000000000e+02 1.520000000000000000e+02 1.530000000000000000e+02 1.540000000000000000e+02 1.550000000000000000e+02 1.560000000000000000e+02 1.570000000000000000e+02 1.580000000000000000e+02 1.590000000000000000e+02 1.600000000000000000e+02 1.610000000000000000e+02 1.620000000000000000e+02 1.630000000000000000e+02 1.640000000000000000e+02 1.650000000000000000e+02 1.660000000000000000e+02 1.670000000000000000e+02 1.680000000000000000e+02 1.690000000000000000e+02 1.700000000000000000e+02 1.710000000000000000e+02 1.720000000000000000e+02 1.730000000000000000e+02 1.740000000000000000e+02 1.750000000000000000e+02 1.760000000000000000e+02 1.770000000000000000e+02 1.780000000000000000e+02 1.790000000000000000e+02 1.800000000000000000e+02 1.810000000000000000e+02 1.820000000000000000e+02 1.830000000000000000e+02 1.840000000000000000e+02 1.850000000000000000e+02 1.860000000000000000e+02 1.870000000000000000e+02 1.880000000000000000e+02 1.890000000000000000e+02 1.900000000000000000e+02 1.910000000000000000e+02 1.920000000000000000e+02 1.930000000000000000e+02 1.940000000000000000e+02 1.950000000000000000e+02 1.960000000000000000e+02 1.970000000000000000e+02 1.980000000000000000e+02 1.990000000000000000e+02 2.000000000000000000e+02 2.010000000000000000e+02 2.020000000000000000e+02 2.030000000000000000e+02 2.040000000000000000e+02 2.050000000000000000e+02 2.060000000000000000e+02 2.070000000000000000e+02 2.080000000000000000e+02 2.090000000000000000e+02 2.100000000000000000e+02 2.110000000000000000e+02 2.120000000000000000e+02 2.130000000000000000e+02 2.140000000000000000e+02 2.150000000000000000e+02 2.160000000000000000e+02 2.170000000000000000e+02 2.180000000000000000e+02 2.190000000000000000e+02 2.200000000000000000e+02 2.210000000000000000e+02 2.220000000000000000e+02 2.230000000000000000e+02 2.240000000000000000e+02 2.250000000000000000e+02 2.260000000000000000e+02 2.270000000000000000e+02 2.280000000000000000e+02 2.290000000000000000e+02 2.300000000000000000e+02 2.310000000000000000e+02 2.320000000000000000e+02 2.330000000000000000e+02 2.340000000000000000e+02 2.350000000000000000e+02 2.360000000000000000e+02 2.370000000000000000e+02 2.380000000000000000e+02 2.390000000000000000e+02 2.400000000000000000e+02 2.410000000000000000e+02 2.420000000000000000e+02 2.430000000000000000e+02 2.440000000000000000e+02 2.450000000000000000e+02 2.460000000000000000e+02 2.470000000000000000e+02 2.480000000000000000e+02 2.490000000000000000e+02 2.500000000000000000e+02 2.510000000000000000e+02 2.520000000000000000e+02 2.530000000000000000e+02 2.540000000000000000e+02 2.550000000000000000e+02 2.560000000000000000e+02 2.570000000000000000e+02 2.580000000000000000e+02 2.590000000000000000e+02 2.600000000000000000e+02 2.610000000000000000e+02 2.620000000000000000e+02 2.630000000000000000e+02 2.640000000000000000e+02 2.650000000000000000e+02 2.660000000000000000e+02 2.670000000000000000e+02 2.680000000000000000e+02 2.690000000000000000e+02 2.700000000000000000e+02 2.710000000000000000e+02 2.720000000000000000e+02 2.730000000000000000e+02 2.740000000000000000e+02 2.750000000000000000e+02 2.760000000000000000e+02 2.770000000000000000e+02 2.780000000000000000e+02 2.790000000000000000e+02 2.800000000000000000e+02 2.810000000000000000e+02 2.820000000000000000e+02 2.830000000000000000e+02 2.840000000000000000e+02 2.850000000000000000e+02 2.860000000000000000e+02 2.870000000000000000e+02 2.880000000000000000e+02 2.890000000000000000e+02 2.900000000000000000e+02 2.910000000000000000e+02 2.920000000000000000e+02 2.930000000000000000e+02 2.940000000000000000e+02 2.950000000000000000e+02 2.960000000000000000e+02 2.970000000000000000e+02 2.980000000000000000e+02 2.990000000000000000e+02 3.000000000000000000e+02 3.010000000000000000e+02 3.020000000000000000e+02 3.030000000000000000e+02 3.040000000000000000e+02 3.050000000000000000e+02 3.060000000000000000e+02 3.070000000000000000e+02 3.080000000000000000e+02 3.090000000000000000e+02 3.100000000000000000e+02 3.110000000000000000e+02 3.120000000000000000e+02 3.130000000000000000e+02 3.140000000000000000e+02 3.150000000000000000e+02 3.160000000000000000e+02 3.170000000000000000e+02 3.180000000000000000e+02 3.190000000000000000e+02 3.200000000000000000e+02 3.210000000000000000e+02 3.220000000000000000e+02 3.230000000000000000e+02 3.240000000000000000e+02 3.250000000000000000e+02 3.260000000000000000e+02 3.270000000000000000e+02 3.280000000000000000e+02 3.290000000000000000e+02 3.300000000000000000e+02 3.310000000000000000e+02 3.320000000000000000e+02 3.330000000000000000e+02 3.340000000000000000e+02 3.350000000000000000e+02 3.360000000000000000e+02 3.370000000000000000e+02 3.380000000000000000e+02 3.390000000000000000e+02 3.400000000000000000e+02 3.410000000000000000e+02 3.420000000000000000e+02 3.430000000000000000e+02 3.440000000000000000e+02 3.450000000000000000e+02 3.460000000000000000e+02 3.470000000000000000e+02 3.480000000000000000e+02 3.490000000000000000e+02 3.500000000000000000e+02 3.510000000000000000e+02 3.520000000000000000e+02 3.530000000000000000e+02 3.540000000000000000e+02 3.550000000000000000e+02 3.560000000000000000e+02 3.570000000000000000e+02 3.580000000000000000e+02 3.590000000000000000e+02 3.600000000000000000e+02 3.610000000000000000e+02 3.620000000000000000e+02 3.630000000000000000e+02 3.640000000000000000e+02 3.650000000000000000e+02 3.660000000000000000e+02 3.670000000000000000e+02 3.680000000000000000e+02 3.690000000000000000e+02 3.700000000000000000e+02 3.710000000000000000e+02 3.720000000000000000e+02 3.730000000000000000e+02 3.740000000000000000e+02 3.750000000000000000e+02 3.760000000000000000e+02 3.770000000000000000e+02 3.780000000000000000e+02 3.790000000000000000e+02 3.800000000000000000e+02 3.810000000000000000e+02 3.820000000000000000e+02 3.830000000000000000e+02 3.840000000000000000e+02 3.850000000000000000e+02 3.860000000000000000e+02 3.870000000000000000e+02 3.880000000000000000e+02 3.890000000000000000e+02 3.900000000000000000e+02 3.910000000000000000e+02 3.920000000000000000e+02 3.930000000000000000e+02 3.940000000000000000e+02 3.950000000000000000e+02 3.960000000000000000e+02 3.970000000000000000e+02 3.980000000000000000e+02 3.990000000000000000e+02 4.000000000000000000e+02 4.010000000000000000e+02 4.020000000000000000e+02 4.030000000000000000e+02 4.040000000000000000e+02 4.050000000000000000e+02 4.060000000000000000e+02 4.070000000000000000e+02 4.080000000000000000e+02 4.090000000000000000e+02 4.100000000000000000e+02 4.110000000000000000e+02 4.120000000000000000e+02 4.130000000000000000e+02 4.140000000000000000e+02 4.150000000000000000e+02 4.160000000000000000e+02 4.170000000000000000e+02 4.180000000000000000e+02 4.190000000000000000e+02 4.200000000000000000e+02 4.210000000000000000e+02 4.220000000000000000e+02 4.230000000000000000e+02 4.240000000000000000e+02 4.250000000000000000e+02 4.260000000000000000e+02 4.270000000000000000e+02 4.280000000000000000e+02 4.290000000000000000e+02 4.300000000000000000e+02 4.310000000000000000e+02 4.320000000000000000e+02 4.330000000000000000e+02 4.340000000000000000e+02 4.350000000000000000e+02 4.360000000000000000e+02 4.370000000000000000e+02 4.380000000000000000e+02 4.390000000000000000e+02 4.400000000000000000e+02 4.410000000000000000e+02 4.420000000000000000e+02 4.430000000000000000e+02 4.440000000000000000e+02 4.450000000000000000e+02 4.460000000000000000e+02 4.470000000000000000e+02 4.480000000000000000e+02 4.490000000000000000e+02 4.500000000000000000e+02 4.510000000000000000e+02 4.520000000000000000e+02 4.530000000000000000e+02 4.540000000000000000e+02 4.550000000000000000e+02 4.560000000000000000e+02 4.570000000000000000e+02 4.580000000000000000e+02 4.590000000000000000e+02 4.600000000000000000e+02 4.610000000000000000e+02 4.620000000000000000e+02 4.630000000000000000e+02 4.640000000000000000e+02 4.650000000000000000e+02 4.660000000000000000e+02 4.670000000000000000e+02 4.680000000000000000e+02 4.690000000000000000e+02 4.700000000000000000e+02 4.710000000000000000e+02 4.720000000000000000e+02 4.730000000000000000e+02 4.740000000000000000e+02 4.750000000000000000e+02 4.760000000000000000e+02 4.770000000000000000e+02 4.780000000000000000e+02 4.790000000000000000e+02 4.800000000000000000e+02 4.810000000000000000e+02 4.820000000000000000e+02 4.830000000000000000e+02 4.840000000000000000e+02 4.850000000000000000e+02 4.860000000000000000e+02 4.870000000000000000e+02 4.880000000000000000e+02 4.890000000000000000e+02 4.900000000000000000e+02 4.910000000000000000e+02 4.920000000000000000e+02 4.930000000000000000e+02 4.940000000000000000e+02 4.950000000000000000e+02 4.960000000000000000e+02 4.970000000000000000e+02 4.980000000000000000e+02 4.990000000000000000e+02 5.000000000000000000e+02 5.010000000000000000e+02 5.020000000000000000e+02 5.030000000000000000e+02 5.040000000000000000e+02 5.050000000000000000e+02 5.060000000000000000e+02 5.070000000000000000e+02 5.080000000000000000e+02 5.090000000000000000e+02 5.100000000000000000e+02 5.110000000000000000e+02 5.120000000000000000e+02 5.130000000000000000e+02 5.140000000000000000e+02 5.150000000000000000e+02 5.160000000000000000e+02 5.170000000000000000e+02 5.180000000000000000e+02 5.190000000000000000e+02 5.200000000000000000e+02 5.210000000000000000e+02 5.220000000000000000e+02 5.230000000000000000e+02 5.240000000000000000e+02 5.250000000000000000e+02 5.260000000000000000e+02 5.270000000000000000e+02 5.280000000000000000e+02 5.290000000000000000e+02 5.300000000000000000e+02 5.310000000000000000e+02 5.320000000000000000e+02 5.330000000000000000e+02 5.340000000000000000e+02 5.350000000000000000e+02 5.360000000000000000e+02 5.370000000000000000e+02 5.380000000000000000e+02 5.390000000000000000e+02 5.400000000000000000e+02 5.410000000000000000e+02 5.420000000000000000e+02 5.430000000000000000e+02 5.440000000000000000e+02 5.450000000000000000e+02 5.460000000000000000e+02 5.470000000000000000e+02 5.480000000000000000e+02 5.490000000000000000e+02 5.500000000000000000e+02 5.510000000000000000e+02 5.520000000000000000e+02 5.530000000000000000e+02 5.540000000000000000e+02 5.550000000000000000e+02 5.560000000000000000e+02 5.570000000000000000e+02 5.580000000000000000e+02 5.590000000000000000e+02 5.600000000000000000e+02 5.610000000000000000e+02 5.620000000000000000e+02 5.630000000000000000e+02 5.640000000000000000e+02 5.650000000000000000e+02 5.660000000000000000e+02 5.670000000000000000e+02 5.680000000000000000e+02 5.690000000000000000e+02 5.700000000000000000e+02 5.710000000000000000e+02 5.720000000000000000e+02 5.730000000000000000e+02 5.740000000000000000e+02 5.750000000000000000e+02 5.760000000000000000e+02 5.770000000000000000e+02 5.780000000000000000e+02 5.790000000000000000e+02 5.800000000000000000e+02 5.810000000000000000e+02 5.820000000000000000e+02 5.830000000000000000e+02 5.840000000000000000e+02 5.850000000000000000e+02 5.860000000000000000e+02 5.870000000000000000e+02 5.880000000000000000e+02 5.890000000000000000e+02 5.900000000000000000e+02 5.910000000000000000e+02 5.920000000000000000e+02 5.930000000000000000e+02 5.940000000000000000e+02 5.950000000000000000e+02 5.960000000000000000e+02 5.970000000000000000e+02 5.980000000000000000e+02 5.990000000000000000e+02 6.000000000000000000e+02 6.010000000000000000e+02 6.020000000000000000e+02 6.030000000000000000e+02 6.040000000000000000e+02 6.050000000000000000e+02 6.060000000000000000e+02 6.070000000000000000e+02 6.080000000000000000e+02 6.090000000000000000e+02 6.100000000000000000e+02 6.110000000000000000e+02 6.120000000000000000e+02 6.130000000000000000e+02 6.140000000000000000e+02 6.150000000000000000e+02 6.160000000000000000e+02 6.170000000000000000e+02 6.180000000000000000e+02 6.190000000000000000e+02 6.200000000000000000e+02 6.210000000000000000e+02 6.220000000000000000e+02 6.230000000000000000e+02 6.240000000000000000e+02 6.250000000000000000e+02 6.260000000000000000e+02 6.270000000000000000e+02 6.280000000000000000e+02 6.290000000000000000e+02 6.300000000000000000e+02 6.310000000000000000e+02 6.320000000000000000e+02 6.330000000000000000e+02 6.340000000000000000e+02 6.350000000000000000e+02 6.360000000000000000e+02 6.370000000000000000e+02 6.380000000000000000e+02 6.390000000000000000e+02 6.400000000000000000e+02 6.410000000000000000e+02 6.420000000000000000e+02 6.430000000000000000e+02 6.440000000000000000e+02 6.450000000000000000e+02 6.460000000000000000e+02 6.470000000000000000e+02 6.480000000000000000e+02 6.490000000000000000e+02 6.500000000000000000e+02 6.510000000000000000e+02 6.520000000000000000e+02 6.530000000000000000e+02 6.540000000000000000e+02 6.550000000000000000e+02 6.560000000000000000e+02 6.570000000000000000e+02 6.580000000000000000e+02 6.590000000000000000e+02 6.600000000000000000e+02 6.610000000000000000e+02 6.620000000000000000e+02 6.630000000000000000e+02 6.640000000000000000e+02 6.650000000000000000e+02 6.660000000000000000e+02 6.670000000000000000e+02 6.680000000000000000e+02 6.690000000000000000e+02 6.700000000000000000e+02 6.710000000000000000e+02 6.720000000000000000e+02 6.730000000000000000e+02 6.740000000000000000e+02 6.750000000000000000e+02 6.760000000000000000e+02 6.770000000000000000e+02 6.780000000000000000e+02 6.790000000000000000e+02 6.800000000000000000e+02 6.810000000000000000e+02 6.820000000000000000e+02 6.830000000000000000e+02 6.840000000000000000e+02 6.850000000000000000e+02 6.860000000000000000e+02 6.870000000000000000e+02 6.880000000000000000e+02 6.890000000000000000e+02 6.900000000000000000e+02 6.910000000000000000e+02 6.920000000000000000e+02 6.930000000000000000e+02 6.940000000000000000e+02 6.950000000000000000e+02 6.960000000000000000e+02 6.970000000000000000e+02 6.980000000000000000e+02 6.990000000000000000e+02 7.000000000000000000e+02 7.010000000000000000e+02 7.020000000000000000e+02 7.030000000000000000e+02 7.040000000000000000e+02 7.050000000000000000e+02 7.060000000000000000e+02 7.070000000000000000e+02 7.080000000000000000e+02 7.090000000000000000e+02 7.100000000000000000e+02 7.110000000000000000e+02 7.120000000000000000e+02 7.130000000000000000e+02 7.140000000000000000e+02 7.150000000000000000e+02 7.160000000000000000e+02 7.170000000000000000e+02 7.180000000000000000e+02 7.190000000000000000e+02 7.200000000000000000e+02 7.210000000000000000e+02 7.220000000000000000e+02 7.230000000000000000e+02 7.240000000000000000e+02 7.250000000000000000e+02 7.260000000000000000e+02 7.270000000000000000e+02 7.280000000000000000e+02 7.290000000000000000e+02 7.300000000000000000e+02 7.310000000000000000e+02 7.320000000000000000e+02 7.330000000000000000e+02 7.340000000000000000e+02 7.350000000000000000e+02 7.360000000000000000e+02 7.370000000000000000e+02 7.380000000000000000e+02 7.390000000000000000e+02 7.400000000000000000e+02 7.410000000000000000e+02 7.420000000000000000e+02 7.430000000000000000e+02 7.440000000000000000e+02 7.450000000000000000e+02 7.460000000000000000e+02 7.470000000000000000e+02 7.480000000000000000e+02 7.490000000000000000e+02 7.500000000000000000e+02 7.510000000000000000e+02 7.520000000000000000e+02 7.530000000000000000e+02 7.540000000000000000e+02 7.550000000000000000e+02 7.560000000000000000e+02 7.570000000000000000e+02 7.580000000000000000e+02 7.590000000000000000e+02 7.600000000000000000e+02 7.610000000000000000e+02 7.620000000000000000e+02 7.630000000000000000e+02 7.640000000000000000e+02 7.650000000000000000e+02 7.660000000000000000e+02 7.670000000000000000e+02 7.680000000000000000e+02 7.690000000000000000e+02 7.700000000000000000e+02 7.710000000000000000e+02 7.720000000000000000e+02 7.730000000000000000e+02 7.740000000000000000e+02 7.750000000000000000e+02 7.760000000000000000e+02 7.770000000000000000e+02 7.780000000000000000e+02 7.790000000000000000e+02 7.800000000000000000e+02 7.810000000000000000e+02 7.820000000000000000e+02 7.830000000000000000e+02 7.840000000000000000e+02 7.850000000000000000e+02 7.860000000000000000e+02 7.870000000000000000e+02 7.880000000000000000e+02 7.890000000000000000e+02 7.900000000000000000e+02 7.910000000000000000e+02 7.920000000000000000e+02 7.930000000000000000e+02 7.940000000000000000e+02 7.950000000000000000e+02 7.960000000000000000e+02 7.970000000000000000e+02 7.980000000000000000e+02 7.990000000000000000e+02 8.000000000000000000e+02 8.010000000000000000e+02 8.020000000000000000e+02 8.030000000000000000e+02 8.040000000000000000e+02 8.050000000000000000e+02 8.060000000000000000e+02 8.070000000000000000e+02 8.080000000000000000e+02 8.090000000000000000e+02 8.100000000000000000e+02 8.110000000000000000e+02 8.120000000000000000e+02 8.130000000000000000e+02 8.140000000000000000e+02 8.150000000000000000e+02 8.160000000000000000e+02 8.170000000000000000e+02 8.180000000000000000e+02 8.190000000000000000e+02 8.200000000000000000e+02 8.210000000000000000e+02 8.220000000000000000e+02 8.230000000000000000e+02 8.240000000000000000e+02 8.250000000000000000e+02 8.260000000000000000e+02 8.270000000000000000e+02 8.280000000000000000e+02 8.290000000000000000e+02 8.300000000000000000e+02 8.310000000000000000e+02 8.320000000000000000e+02 8.330000000000000000e+02 8.340000000000000000e+02 8.350000000000000000e+02 8.360000000000000000e+02 8.370000000000000000e+02 8.380000000000000000e+02 8.390000000000000000e+02 8.400000000000000000e+02 8.410000000000000000e+02 8.420000000000000000e+02 8.430000000000000000e+02 8.440000000000000000e+02 8.450000000000000000e+02 8.460000000000000000e+02 8.470000000000000000e+02 8.480000000000000000e+02 8.490000000000000000e+02 8.500000000000000000e+02 8.510000000000000000e+02 8.520000000000000000e+02 8.530000000000000000e+02 8.540000000000000000e+02 8.550000000000000000e+02 8.560000000000000000e+02 8.570000000000000000e+02 8.580000000000000000e+02 8.590000000000000000e+02 8.600000000000000000e+02 8.610000000000000000e+02 8.620000000000000000e+02 8.630000000000000000e+02 8.640000000000000000e+02 8.650000000000000000e+02 8.660000000000000000e+02 8.670000000000000000e+02 8.680000000000000000e+02 8.690000000000000000e+02 8.700000000000000000e+02 8.710000000000000000e+02 8.720000000000000000e+02 8.730000000000000000e+02 8.740000000000000000e+02 8.750000000000000000e+02 8.760000000000000000e+02 8.770000000000000000e+02 8.780000000000000000e+02 8.790000000000000000e+02 8.800000000000000000e+02 8.810000000000000000e+02 8.820000000000000000e+02 8.830000000000000000e+02 8.840000000000000000e+02 8.850000000000000000e+02 8.860000000000000000e+02 8.870000000000000000e+02 8.880000000000000000e+02 8.890000000000000000e+02 8.900000000000000000e+02 8.910000000000000000e+02 8.920000000000000000e+02 8.930000000000000000e+02 8.940000000000000000e+02 8.950000000000000000e+02 8.960000000000000000e+02 8.970000000000000000e+02 8.980000000000000000e+02 8.990000000000000000e+02 9.000000000000000000e+02 9.010000000000000000e+02 9.020000000000000000e+02 9.030000000000000000e+02 9.040000000000000000e+02 9.050000000000000000e+02 9.060000000000000000e+02 9.070000000000000000e+02 9.080000000000000000e+02 9.090000000000000000e+02 9.100000000000000000e+02 9.110000000000000000e+02 9.120000000000000000e+02 9.130000000000000000e+02 9.140000000000000000e+02 9.150000000000000000e+02 9.160000000000000000e+02 9.170000000000000000e+02 9.180000000000000000e+02 9.190000000000000000e+02 9.200000000000000000e+02 9.210000000000000000e+02 9.220000000000000000e+02 9.230000000000000000e+02 9.240000000000000000e+02 9.250000000000000000e+02 9.260000000000000000e+02 9.270000000000000000e+02 9.280000000000000000e+02 9.290000000000000000e+02 9.300000000000000000e+02 9.310000000000000000e+02 9.320000000000000000e+02 9.330000000000000000e+02 9.340000000000000000e+02 9.350000000000000000e+02 9.360000000000000000e+02 9.370000000000000000e+02 9.380000000000000000e+02 9.390000000000000000e+02 9.400000000000000000e+02 9.410000000000000000e+02 9.420000000000000000e+02 9.430000000000000000e+02 9.440000000000000000e+02 9.450000000000000000e+02 9.460000000000000000e+02 9.470000000000000000e+02 9.480000000000000000e+02 9.490000000000000000e+02 9.500000000000000000e+02 9.510000000000000000e+02 9.520000000000000000e+02 9.530000000000000000e+02 9.540000000000000000e+02 9.550000000000000000e+02 9.560000000000000000e+02 9.570000000000000000e+02 9.580000000000000000e+02 9.590000000000000000e+02 9.600000000000000000e+02 9.610000000000000000e+02 9.620000000000000000e+02 9.630000000000000000e+02 9.640000000000000000e+02 9.650000000000000000e+02 9.660000000000000000e+02 9.670000000000000000e+02 9.680000000000000000e+02 9.690000000000000000e+02 9.700000000000000000e+02 9.710000000000000000e+02 9.720000000000000000e+02 9.730000000000000000e+02 9.740000000000000000e+02 9.750000000000000000e+02 9.760000000000000000e+02 9.770000000000000000e+02 9.780000000000000000e+02 9.790000000000000000e+02 9.800000000000000000e+02 9.810000000000000000e+02 9.820000000000000000e+02 9.830000000000000000e+02 9.840000000000000000e+02 9.850000000000000000e+02 9.860000000000000000e+02 9.870000000000000000e+02 9.880000000000000000e+02 9.890000000000000000e+02 9.900000000000000000e+02 9.910000000000000000e+02 9.920000000000000000e+02 9.930000000000000000e+02 9.940000000000000000e+02 9.950000000000000000e+02 9.960000000000000000e+02 9.970000000000000000e+02 9.980000000000000000e+02 9.990000000000000000e+02 1.000000000000000000e+03
1.000000000000000021e-02 1.000000000000000021e-02 1.000000000000000021e-02 1.000000000000000021e-02 1.000000000000000021e-02 1.000000000000000021e-02 1.000000000000000021e-02 1.000000000000000021e-02 1.000000000000000021e-02 1.000000000000000021e-02 1.000000000000000021e-02 1.000000000000000021e-02 1.000000000000000021e-02 1.000000000000000021e-02 1.000000000000000021e-02 1.000000000000000021e-02 1.000000000000000021e-02 1.000000000000000021e-02 1.000000000000000021e-02 1.000000000000000021e-02 1.000000000000000021e-02 1.000000000000000021e-02 1.000000000000000021e-02 1.000000000000000021e-02 1.000000000000000021e-02 1.000000000000000021e-02 1.000000000000000021e-02 1.000000000000000021e-02 1.000000000000000021e-02 1.000000000000000021e-02 1.000000000000000021e-02 1.000000000000000021e-02 1.000000000000000021e-02 1.000000000000000021e-02 1.000000000000000021e-02 1.000000000000000021e-02 1.000000000000000021e-02 1.000000000000000021e-02 1.000000000000000021e-02 1.000000000000000021e-02 1.000000000000000021e-02 1.000000000000000021e-02 1.000000000000000021e-02 1.000000000000000021e-02 1.000000000000000021e-02 1.000000000000000021e-02 1.000000000000000021e-02 1.000000000000000021e-02 1.000000000000000021e-02 1.000000000000000021e-02 1.000000000000000021e-02 1.000000000000000021e-02 1.000000000000000021e-02 1.000000000000000021e-02 1.000000000000000021e-02 1.000000000000000021e-02 1.000000000000000021e-02 1.000000000000000021e-02 1.000000000000000021e-02 1.000000000000000021e-02 1.000000000000000021e-02 1.000000000000000021e-02 1.000000000000000021e-02 1.000000000000000021e-02 1.000000000000000021e-02 1.000000000000000021e-02 1.000000000000000021e-02 1.000000000000000021e-02 1.000000000000000021e-02 1.000000000000000021e-02 1.000000000000000021e-02 1.000000000000000021e-02 1.000000000000000021e-02 1.000000000000000021e-02 1.000000000000000021e-02 1.000000000000000021e-02 1.000000000000000021e-02 1.000000000000000021e-02 1.000000000000000021e-02 1.000000000000000021e-02 1.000000000000000021e-02 1.000000000000000021e-02 1.000000000000000021e-02 1.000000000000000021e-02 1.000000000000000021e-02 1.000000000000000021e-02 1.000000000000000021e-02 1.000000000000000021e-02 1.000000000000000021e-02 1.000000000000000021e-02 1.000000000000000021e-02 1.000000000000000021e-02 1.000000000000000021e-02 1.000000000000000021e-02 1.000000000000000021e-02 1.000000000000000021e-02 1.000000000000000021e-02 1.000000000000000021e-02 1.000000000000000021e-02 1.000000000000000021e-02 1.000000000000000021e-02 1.000000000000000021e-02 1.000000000000000021e-02 1.000000000000000021e-02 1.000000000000000021e-02 1.000000000000000021e-02 1.000000000000000021e-02 1.000000000000000021e-02 1.000000000000000021e-02 1.000000000000000021e-02 1.000000000000000021e-02 1.000000000000000021e-02 1.000000000000000021e-02 1.000000000000000021e-02 1.000000000000000021e-02 1.000000000000000021e-02 1.000000000000000021e-02 1.000000000000000021e-02 1.000000000000000021e-02 1.000000000000000021e-02 1.000000000000000021e-02 1.000000000000000021e-02 1.000000000000000021e-02 1.000000000000000021e-02 1.000000000000000021e-02 1.000000000000000021e-02 1.000000000000000021e-02 1.000000000000000021e-02 1.000000000000000021e-02 1.000000000000000021e-02 1.000000000000000021e-02 1.000000000000000021e-02 1.000000000000000021e-02 1.000000000000000021e-02 1.000000000000000021e-02 1.000000000000000021e-02 1.000000000000000021e-02 1.000000000000000021e-02 1.000000000000000021e-02 1.000000000000000021e-02 1.000000000000000021e-02 1.000000000000000021e-02 1.000000000000000021e-02 1.000000000000000021e-02 1.000000000000000021e-02 1.000000000000000021e-02 1.000000000000000021e-02 1.000000000000000021e-02 1.000000000000000021e-02 1.000000000000000021e-02 1.000000000000000021e-02 1.000000000000000021e-02 1.000000000000000021e-02 1.000000000000000021e-02 1.000000000000000021e-02 1.000000000000000021e-02 1.000000000000000021e-02 1.000000000000000021e-02 1.000000000000000021e-02 1.000000000000000021e-02 1.000000000000000021e-02 1.000000000000000021e-02 1.000000000000000021e-02 1.000000000000000021e-02 1.000000000000000021e-02 1.000000000000000021e-02 1.000000000000000021e-02 1.000000000000000021e-02 1.000000000000000021e-02 1.000000000000000021e-02 1.000000000000000021e-02 1.000000000000000021e-02 1.000000000000000021e-02 1.000000000000000021e-02 1.000000000000000021e-02 1.000000000000000021e-02 1.000000000000000021e-02 1.000000000000000021e-02 1.000000000000000021e-02 1.000000000000000021e-02 1.000000000000000021e-02 1.000000000000000021e-02 1.000000000000000021e-02 1.000000000000000021e-02 1.000000000000000021e-02 1.000000000000000021e-02 1.000000000000000021e-02 1.000000000000000021e-02 1.000000000000000021e-02 1.000000000000000021e-02 1.000000000000000021e-02 1.000000000000000021e-02 1.000000000000000021e-02 1.000000000000000021e-02 1.000000000000000021e-02 1.000000000000000021e-02 1.000000000000000021e-02 1.000000000000000021e-02 1.000000000000000021e-02 1.000000000000000021e-02 1.000000000000000021e-02 1.000000000000000021e-02 1.000000000000000021e-02 1.000000000000000021e-02 1.000000000000000021e-02 1.000000000000000021e-02 1.000000000000000021e-02 1.000000000000000021e-02 1.000000000000000021e-02 1.000000000000000021e-02 1.000000000000000021e-02 1.000000000000000021e-02 1.000000000000000021e-02 1.000000000000000021e-02 1.000000000000000021e-02 1.000000000000000021e-02 1.000000000000000021e-02 1.000000000000000021e-02 1.000000000000000021e-02 1.000000000000000021e-02 1.000000000000000021e-02 1.000000000000000021e-02 1.000000000000000021e-02 1.000000000000000021e-02 1.000000000000000021e-02 1.000000000000000021e-02 1.000000000000000021e-02 1.000000000000000021e-02 1.000000000000000021e-02 1.000000000000000021e-02 1.000000000000000021e-02 1.000000000000000021e-02 1.000000000000000021e-02 1.000000000000000021e-02 1.000000000000000021e-02 1.000000000000000021e-02 1.000000000000000021e-02 1.000000000000000021e-02 1.000000000000000021e-02 1.000000000000000021e-02 1.000000000000000021e-02 1.000000000000000021e-02 1.000000000000000021e-02 1.000000000000000021e-02 1.000000000000000021e-02 1.000000000000000021e-02 1.000000000000000021e-02 1.000000000000000021e-02 1.000000000000000021e-02 1.000000000000000021e-02 1.000000000000000021e-02 1.000000000000000021e-02 1.000000000000000021e-02 1.000000000000000021e-02 1.000000000000000021e-02 1.000000000000000021e-02 1.000000000000000021e-02 1.000000000000000021e-02 1.000000000000000021e-02 1.000000000000000021e-02 1.000000000000000021e-02 1.000000000000000021e-02 1.000000000000000021e-02 1.000000000000000021e-02 1.000000000000000021e-02 1.000000000000000021e-02 1.000000000000000021e-02 1.000000000000000021e-02 1.000000000000000021e-02 1.000000000000000021e-02 1.000000000000000021e-02 1.000000000000000021e-02 1.000000000000000021e-02 1.000000000000000021e-02 1.000000000000000021e-02 1.000000000000000021e-02 1.000000000000000021e-02 1.000000000000000021e-02 1.000000000000000021e-02 1.000000000000000021e-02 1.000000000000000021e-02 1.000000000000000021e-02 1.000000000000000021e-02 1.000000000000000021e-02 1.000000000000000021e-02 1.000000000000000021e-02 1.000000000000000021e-02 1.000000000000000021e-02 1.000000000000000021e-02 1.000000000000000021e-02 1.000000000000000021e-02 1.000000000000000021e-02 1.000000000000000021e-02 1.000000000000000021e-02 1.000000000000000021e-02 1.000000000000000021e-02 1.000000000000000021e-02 1.000000000000000021e-02 1.000000000000000021e-02 1.000000000000000021e-02 1.000000000000000021e-02 1.000000000000000021e-02 1.000000000000000021e-02 1.000000000000000021e-02 1.000000000000000021e-02 1.000000000000000021e-02 1.000000000000000021e-02 1.000000000000000021e-02 1.000000000000000021e-02 1.000000000000000021e-02 1.000000000000000021e-02 1.000000000000000021e-02 1.000000000000000021e-02 1.000000000000000021e-02 1.000000000000000021e-02 1.000000000000000021e-02 1.000000000000000021e-02 1.000000000000000021e-02 1.000000000000000021e-02 1.000000000000000021e-02 1.000000000000000021e-02 1.000000000000000021e-02 1.000000000000000021e-02 1.000000000000000021e-02 1.000000000000000021e-02 1.000000000000000021e-02 1.000000000000000021e-02 1.000000000000000021e-02 1.000000000000000021e-02 1.000000000000000021e-02 1.000000000000000021e-02 1.000000000000000021e-02 1.000000000000000021e-02 1.000000000000000021e-02 1.000000000000000021e-02 1.000000000000000021e-02 1.000000000000000021e-02 1.000000000000000021e-02 1.000000000000000021e-02 1.000000000000000021e-02 1.000000000000000021e-02 1.000000000000000021e-02 1.000000000000000021e-02 1.000000000000000021e-02 1.000000000000000021e-02 1.000000000000000021e-02 1.000000000000000021e-02 1.000000000000000021e-02 1.000000000000000021e-02 1.000000000000000021e-02 1.000000000000000021e-02 1.000000000000000021e-02 1.000000000000000021e-02 1.000000000000000021e-02 1.000000000000000021e-02 1.000000000000000021e-02 1.000000000000000021e-02 1.000000000000000021e-02 1.000000000000000021e-02 1.000000000000000021e-02 1.000000000000000021e-02 1.000000000000000021e-02 1.000000000000000021e-02 1.000000000000000021e-02 1.000000000000000021e-02 1.000000000000000021e-02 1.000000000000000021e-02 1.000000000000000021e-02 1.000000000000000021e-02 1.000000000000000021e-02 1.000000000000000021e-02 1.000000000000000021e-02 1.000000000000000021e-02 1.000000000000000021e-02 1.000000000000000021e-02 1.000000000000000021e-02 1.000000000000000021e-02 1.000000000000000021e-02 1.000000000000000021e-02 1.000000000000000021e-02 1.000000000000000021e-02 1.000000000000000021e-02 1.000000000000000021e-02 1.000000000000000021e-02 1.000000000000000021e-02 1.000000000000000021e-02 1.000000000000000021e-02 1.000000000000000021e-02 1.000000000000000021e-02 1.000000000000000021e-02 1.000000000000000021e-02 1.000000000000000021e-02 1.000000000000000021e-02 1.000000000000000021e-02 1.000000000000000021e-02 1.000000000000000021e-02 1.000000000000000021e-02 1.000000000000000021e-02 1.000000000000000021e-02 1.000000000000000021e-02 1.000000000000000021e-02 1.000000000000000021e-02 1.000000000000000021e-02 1.000000000000000021e-02 1.000000000000000021e-02 1.000000000000000021e-02 1.000000000000000021e-02 1.000000000000000021e-02 1.000000000000000021e-02 1.000000000000000021e-02 1.000000000000000021e-02 1.000000000000000021e-02 1.000000000000000021e-02 1.000000000000000021e-02 1.000000000000000021e-02 1.000000000000000021e-02 1.000000000000000021e-02 1.000000000000000021e-02 1.000000000000000021e-02 1.000000000000000021e-02 1.000000000000000021e-02 1.000000000000000021e-02 1.000000000000000021e-02 1.000000000000000021e-02 1.000000000000000021e-02 1.000000000000000021e-02 1.000000000000000021e-02 1.000000000000000021e-02 1.000000000000000021e-02 1.000000000000000021e-02 1.000000000000000021e-02 1.000000000000000021e-02 1.000000000000000021e-02 1.000000000000000021e-02 1.000000000000000021e-02 1.000000000000000021e-02 1.000000000000000021e-02 1.000000000000000021e-02 1.000000000000000021e-02 1.000000000000000021e-02 1.000000000000000021e-02 1.000000000000000021e-02 1.000000000000000021e-02 1.000000000000000021e-02 1.000000000000000021e-02 1.000000000000000021e-02 1.000000000000000021e-02 1.000000000000000021e-02 1.000000000000000021e-02 1.000000000000000021e-02 1.000000000000000021e-02 1.000000000000000021e-02 1.000000000000000021e-02 1.000000000000000021e-02 1.000000000000000021e-02 1.000000000000000021e-02 1.000000000000000021e-02 1.000000000000000021e-02 1.000000000000000021e-02 1.000000000000000021e-02 1.000000000000000021e-02 1.000000000000000021e-02 1.000000000000000021e-02 1.000000000000000021e-02 1.000000000000000021e-02 1.000000000000000021e-02 1.000000000000000021e-02 1.000000000000000021e-02 1.000000000000000021e-02 1.000000000000000021e-02 1.000000000000000021e-02 1.000000000000000021e-02 1.000000000000000021e-02 1.000000000000000021e-02 1.000000000000000021e-02 1.000000000000000021e-02 1.000000000000000021e-02 1.000000000000000021e-02 1.000000000000000021e-02 1.000000000000000021e-02 1.000000000000000021e-02 1.000000000000000021e-02 1.000000000000000021e-02 1.000000000000000021e-02 1.000000000000000021e-02 1.000000000000000021e-02 1.000000000000000021e-02 1.000000000000000021e-02 1.000000000000000021e-02 1.000000000000000021e-02 1.000000000000000021e-02 1.000000000000000021e-02 1.000000000000000021e-02 1.000000000000000021e-02 1.000000000000000021e-02 1.000000000000000021e-02 1.000000000000000021e-02 1.000000000000000021e-02 1.000000000000000021e-02 1.000000000000000021e-02 1.000000000000000021e-02 1.000000000000000021e-02 1.000000000000000021e-02 1.000000000000000021e-02 1.000000000000000021e-02 1.000000000000000021e-02 1.000000000000000021e-02 1.000000000000000021e-02 1.000000000000000021e-02 1.000000000000000021e-02 1.000000000000000021e-02 1.000000000000000021e-02 1.000000000000000021e-02 1.000000000000000021e-02 1.000000000000000021e-02 1.000000000000000021e-02 1.000000000000000021e-02 1.000000000000000021e-02 1.000000000000000021e-02 1.000000000000000021e-02 1.000000000000000021e-02 1.000000000000000021e-02 1.000000000000000021e-02 1.000000000000000021e-02 1.000000000000000021e-02 1.000000000000000021e-02 1.000000000000000021e-02 1.000000000000000021e-02 1.000000000000000021e-02 1.000000000000000021e-02 1.000000000000000021e-02 1.000000000000000021e-02 1.000000000000000021e-02 1.000000000000000021e-02 1.000000000000000021e-02 1.000000000000000021e-02 1.000000000000000021e-02 1.000000000000000021e-02 1.000000000000000021e-02 1.000000000000000021e-02 1.000000000000000021e-02 1.000000000000000021e-02 1.000000000000000021e-02 1.000000000000000021e-02 1.000000000000000021e-02 1.000000000000000021e-02 1.000000000000000021e-02 1.000000000000000021e-02 1.000000000000000021e-02 1.000000000000000021e-02 1.000000000000000021e-02 1.000000000000000021e-02 1.000000000000000021e-02 1.000000000000000021e-02 1.000000000000000021e-02 1.000000000000000021e-02 1.000000000000000021e-02 1.000000000000000021e-02 1.000000000000000021e-02 1.000000000000000021e-02 1.000000000000000021e-02 1.000000000000000021e-02 1.000000000000000021e-02 1.000000000000000021e-02 1.000000000000000021e-02 1.000000000000000021e-02 1.000000000000000021e-02 1.000000000000000021e-02 1.000000000000000021e-02 1.000000000000000021e-02 1.000000000000000021e-02 1.000000000000000021e-02 1.000000000000000021e-02 1.000000000000000021e-02 1.000000000000000021e-02 1.000000000000000021e-02 1.000000000000000021e-02 1.000000000000000021e-02 1.000000000000000021e-02 1.000000000000000021e-02 1.000000000000000021e-02 1.000000000000000021e-02 1.000000000000000021e-02 1.000000000000000021e-02 1.000000000000000021e-02 1.000000000000000021e-02 1.000000000000000021e-02 1.000000000000000021e-02 1.000000000000000021e-02 1.000000000000000021e-02 1.000000000000000021e-02 1.000000000000000021e-02 1.000000000000000021e-02 1.000000000000000021e-02 1.000000000000000021e-02 1.000000000000000021e-02 1.000000000000000021e-02 1.000000000000000021e-02 1.000000000000000021e-02 1.000000000000000021e-02 1.000000000000000021e-02 1.000000000000000021e-02 1.000000000000000021e-02 1.000000000000000021e-02 1.000000000000000021e-02 1.000000000000000021e-02 1.000000000000000021e-02 1.000000000000000021e-02 1.000000000000000021e-02 1.000000000000000021e-02 1.000000000000000021e-02 1.000000000000000021e-02 1.000000000000000021e-02 1.000000000000000021e-02 1.000000000000000021e-02 1.000000000000000021e-02 1.000000000000000021e-02 1.000000000000000021e-02 1.000000000000000021e-02 1.000000000000000021e-02 1.000000000000000021e-02 1.000000000000000021e-02 1.000000000000000021e-02 1.000000000000000021e-02 1.000000000000000021e-02 1.000000000000000021e-02 1.000000000000000021e-02 1.000000000000000021e-02 1.000000000000000021e-02 1.000000000000000021e-02 1.000000000000000021e-02 1.000000000000000021e-02 1.000000000000000021e-02 1.000000000000000021e-02 1.000000000000000021e-02 1.000000000000000021e-02 1.000000000000000021e-02 1.000000000000000021e-02 1.000000000000000021e-02 1.000000000000000021e-02 1.000000000000000021e-02 1.000000000000000021e-02 1.000000000000000021e-02 1.000000000000000021e-02 1.000000000000000021e-02 1.000000000000000021e-02 1.000000000000000021e-02 1.000000000000000021e-02 1.000000000000000021e-02 1.000000000000000021e-02 1.000000000000000021e-02 1.000000000000000021e-02 1.000000000000000021e-02 1.000000000000000021e-02 1.000000000000000021e-02 1.000000000000000021e-02 1.000000000000000021e-02 1.000000000000000021e-02 1.000000000000000021e-02 1.000000000000000021e-02 1.000000000000000021e-02 1.000000000000000021e-02 1.000000000000000021e-02 1.000000000000000021e-02 1.000000000000000021e-02 1.000000000000000021e-02 1.000000000000000021e-02 1.000000000000000021e-02 1.000000000000000021e-02 1.000000000000000021e-02 1.000000000000000021e-02 1.000000000000000021e-02 1.000000000000000021e-02 1.000000000000000021e-02 1.000000000000000021e-02 1.000000000000000021e-02 1.000000000000000021e-02 1.000000000000000021e-02 1.000000000000000021e-02 1.000000000000000021e-02 1.000000000000000021e-02 1.000000000000000021e-02 1.000000000000000021e-02 1.000000000000000021e-02 1.000000000000000021e-02 1.000000000000000021e-02 1.000000000000000021e-02 1.000000000000000021e-02 1.000000000000000021e-02 1.000000000000000021e-02 1.000000000000000021e-02 1.000000000000000021e-02 1.000000000000000021e-02 1.000000000000000021e-02 1.000000000000000021e-02 1.000000000000000021e-02 1.000000000000000021e-02 1.000000000000000021e-02 1.000000000000000021e-02 1.000000000000000021e-02 1.000000000000000021e-02 1.000000000000000021e-02 1.000000000000000021e-02 1.000000000000000021e-02 1.000000000000000021e-02 1.000000000000000021e-02 1.000000000000000021e-02 1.000000000000000021e-02 1.000000000000000021e-02 1.000000000000000021e-02 1.000000000000000021e-02 1.000000000000000021e-02 1.000000000000000021e-02 1.000000000000000021e-02 1.000000000000000021e-02 1.000000000000000021e-02 1.000000000000000021e-02 1.000000000000000021e-02 1.000000000000000021e-02 1.000000000000000021e-02 1.000000000000000021e-02 1.000000000000000021e-02 1.000000000000000021e-02 1.000000000000000021e-02 1.000000000000000021e-02 1.000000000000000021e-02 1.000000000000000021e-02 1.000000000000000021e-02 1.000000000000000021e-02 1.000000000000000021e-02 1.000000000000000021e-02 1.000000000000000021e-02 1.000000000000000021e-02 1.000000000000000021e-02 1.000000000000000021e-02 1.000000000000000021e-02 1.000000000000000021e-02 1.000000000000000021e-02 1.000000000000000021e-02 1.000000000000000021e-02 1.000000000000000021e-02 1.000000000000000021e-02 1.000000000000000021e-02 1.000000000000000021e-02 1.000000000000000021e-02 1.000000000000000021e-02 1.000000000000000021e-02 1.000000000000000021e-02 1.000000000000000021e-02 1.000000000000000021e-02 1.000000000000000021e-02 1.000000000000000021e-02 1.000000000000000021e-02 1.000000000000000021e-02 1.000000000000000021e-02 1.000000000000000021e-02 1.000000000000000021e-02 1.000000000000000021e-02 1.000000000000000021e-02 1.000000000000000021e-02 1.000000000000000021e-02 1.000000000000000021e-02 1.000000000000000021e-02 1.000000000000000021e-02 1.000000000000000021e-02 1.000000000000000021e-02 1.000000000000000021e-02 1.000000000000000021e-02 1.000000000000000021e-02 1.000000000000000021e-02 1.000000000000000021e-02 1.000000000000000021e-02 1.000000000000000021e-02 1.000000000000000021e-02 1.000000000000000021e-02 1.000000000000000021e-02 1.000000000000000021e-02 1.000000000000000021e-02 1.000000000000000021e-02 1.000000000000000021e-02 1.000000000000000021e-02 1.000000000000000021e-02 1.000000000000000021e-02 1.000000000000000021e-02 1.000000000000000021e-02 1.000000000000000021e-02 1.000000000000000021e-02 1.000000000000000021e-02 1.000000000000000021e-02 1.000000000000000021e-02 1.000000000000000021e-02 1.000000000000000021e-02 1.000000000000000021e-02 1.000000000000000021e-02 1.000000000000000021e-02 1.000000000000000021e-02 1.000000000000000021e-02 1.000000000000000021e-02 1.000000000000000021e-02 1.000000000000000021e-02 1.000000000000000021e-02 1.000000000000000021e-02 1.000000000000000021e-02 1.000000000000000021e-02 1.000000000000000021e-02 1.000000000000000021e-02 1.000000000000000021e-02 1.000000000000000021e-02 1.000000000000000021e-02 1.000000000000000021e-02 1.000000000000000021e-02 1.000000000000000021e-02 1.000000000000000021e-02 1.000000000000000021e-02 1.000000000000000021e-02 1.000000000000000021e-02 1.000000000000000021e-02 1.000000000000000021e-02 1.000000000000000021e-02 1.000000000000000021e-02 1.000000000000000021e-02 1.000000000000000021e-02 1.000000000000000021e-02 1.000000000000000021e-02 1.000000000000000021e-02 1.000000000000000021e-02 1.000000000000000021e-02 1.000000000000000021e-02 1.000000000000000021e-02 1.000000000000000021e-02 1.000000000000000021e-02 1.000000000000000021e-02 1.000000000000000021e-02 1.000000000000000021e-02 1.000000000000000021e-02 1.000000000000000021e-02 1.000000000000000021e-02 1.000000000000000021e-02 1.000000000000000021e-02 1.000000000000000021e-02 1.000000000000000021e-02 1.000000000000000021e-02 1.000000000000000021e-02 1.000000000000000021e-02 1.000000000000000021e-02 1.000000000000000021e-02 1.000000000000000021e-02 1.000000000000000021e-02 1.000000000000000021e-02 1.000000000000000021e-02 1.000000000000000021e-02 1.000000000000000021e-02 1.000000000000000021e-02 1.000000000000000021e-02 1.000000000000000021e-02 1.000000000000000021e-02 1.000000000000000021e-02 1.000000000000000021e-02 1.000000000000000021e-02 1.000000000000000021e-02 1.000000000000000021e-02 1.000000000000000021e-02 1.000000000000000021e-02 1.000000000000000021e-02 1.000000000000000021e-02 1.000000000000000021e-02 1.000000000000000021e-02 1.000000000000000021e-02 1.000000000000000021e-02 1.000000000000000021e-02 1.000000000000000021e-02 1.000000000000000021e-02 1.000000000000000021e-02 1.000000000000000021e-02 1.000000000000000021e-02 1.000000000000000021e-02 1.000000000000000021e-02 1.000000000000000021e-02 1.000000000000000021e-02 1.000000000000000021e-02 1.000000000000000021e-02 1.000000000000000021e-02 1.000000000000000021e-02 1.000000000000000021e-02 1.000000000000000021e-02 1.000000000000000021e-02 1.000000000000000021e-02 1.000000000000000021e-02 1.000000000000000021e-02 1.000000000000000021e-02 1.000000000000000021e-02 1.000000000000000021e-02 1.000000000000000021e-02 1.000000000000000021e-02 1.000000000000000021e-02 1.000000000000000021e-02 1.000000000000000021e-02 1.000000000000000021e-02 1.000000000000000021e-02 1.000000000000000021e-02 1.000000000000000021e-02 1.000000000000000021e-02 1.000000000000000021e-02 1.000000000000000021e-02 1.000000000000000021e-02 1.000000000000000021e-02 1.000000000000000021e-02 1.000000000000000021e-02 1.000000000000000021e-02 1.000000000000000021e-02 1.000000000000000021e-02 1.000000000000000021e-02 1.000000000000000021e-02 1.000000000000000021e-02 1.000000000000000021e-02 1.000000000000000021e-02 1.000000000000000021e-02 1.000000000000000021e-02 1.000000000000000021e-02 1.000000000000000021e-02 1.000000000000000021e-02 1.000000000000000021e-02 1.000000000000000021e-02 1.000000000000000021e-02 1.000000000000000021e-02 1.000000000000000021e-02 1.000000000000000021e-02 1.000000000000000021e-02 1.000000000000000021e-02 1.000000000000000021e-02 1.000000000000000021e-02 1.000000000000000021e-02 1.000000000000000021e-02 1.000000000000000021e-02 1.000000000000000021e-02 1.000000000000000021e-02 1.000000000000000021e-02 1.000000000000000021e-02 1.000000000000000021e-02 1.000000000000000021e-02 1.000000000000000021e-02 1.000000000000000021e-02 1.000000000000000021e-02 1.000000000000000021e-02 1.000000000000000021e-02 1.000000000000000021e-02 1.000000000000000021e-02 1.000000000000000021e-02 1.000000000000000021e-02 1.000000000000000021e-02 1.000000000000000021e-02 1.000000000000000021e-02 1.000000000000000021e-02 1.000000000000000021e-02 1.000000000000000021e-02 1.000000000000000021e-02 1.000000000000000021e-02 1.000000000000000021e-02 1.000000000000000021e-02 1.000000000000000021e-02 1.000000000000000021e-02 1.000000000000000021e-02 1.000000000000000021e-02 1.000000000000000021e-02 1.000000000000000021e-02 1.000000000000000021e-02 1.000000000000000021e-02 1.000000000000000021e-02 1.000000000000000021e-02 1.000000000000000021e-02 1.000000000000000021e-02 1.000000000000000021e-02 1.000000000000000021e-02 1.000000000000000021e-02 1.000000000000000021e-02 1.000000000000000021e-02 1.000000000000000021e-02 1.000000000000000021e-02 1.000000000000000021e-02 1.000000000000000021e-02 1.000000000000000021e-02 1.000000000000000021e-02 1.000000000000000021e-02 1.000000000000000021e-02 1.000000000000000021e-02 1.000000000000000021e-02 1.000000000000000021e-02 1.000000000000000021e-02 1.000000000000000021e-02 1.000000000000000021e-02 1.000000000000000021e-02 1.000000000000000021e-02 1.000000000000000021e-02 1.000000000000000021e-02 1.000000000000000021e-02 1.000000000000000021e-02 1.000000000000000021e-02 1.000000000000000021e-02 1.000000000000000021e-02 1.000000000000000021e-02
-1.078584368629173582e+02 1.640644615941661755e+02 3.799873562032168905e+01 -8.533812442592171976e+00 -8.496943755816653265e+01 -1.294576430878798767e+01 -2.010918459029909400e+02 6.852175898243019203e-01 -8.190055557739441383e+01 -1.368847104351633703e+01 -1.919646460181536796e+01 6.334889698968098060e+00 -1.724145479351922639e+00 1.622599249246386819e+02 8.184136831387958466e+01 -3.754314851567509947e+01 -5.110560901909339293e+01 7.660885749084866347e+01 3.175169232860884705e+01 -2.454966472600544947e+01 -7.623719688333946465e+01 -7.135543488664448830e+01 -1.333684834701589317e+01 2.798131983125428590e+01 -1.884959404172352890e+02 -9.546234808773067471e+01 -2.523674992604606260e+01 1.949783325286520039e+02 6.843472966914069389e+01 7.423723212544976491e+01 7.766286123691581622e+01 1.141064656799627430e+00 -7.672004776936347525e+01 2.006879511078365397e+02 -2.368575047547318491e+02 5.695228128474499130e+01 -1.161455495956287649e+02 -3.355376713119910903e+01 3.906303675766420902e+00 1.225564041694463668e+02 -1.188494630280553253e+02 -1.317302873701540555e+01 7.479157867029097417e+01 1.679194935118130445e+02 6.898595958221800117e+01 -6.612659482457297599e+01 3.981775976011480367e+01 -2.746879440525965776e+01 -6.389619529319559632e+01 1.514457045844664265e+02 -6.817694215309948902e+01 -5.038012531236599756e+01 -1.348203537480749503e+02 5.632847037107041821e+00 -4.885951762441501955e+01 3.741301935992562022e+01 -8.582623271443985402e+01 -4.840761812383318841e+01 -9.808930274532207250e+01 -1.503720842930967478e+02 1.877992044344882316e+01 4.392223707606171956e+01 -1.191065504702793163e+02 1.242856718326312837e+01 -7.666587731712279208e+01 4.751959060522930400e+01 1.612359828983672116e+02 -1.395673610268564744e+02 -4.187655437713384288e+01 6.987176247540221041e+00 2.844761614408549910e+00 4.100927641785333577e+01 8.124028283951705021e+01 7.704047494299098853e-01 -8.549941473557275629e+00 -6.772161416506148157e+01 7.569085880521103604e+01 -3.164880965244757149e+01 2.545220288679491460e+01 1.006348092822527320e+02 8.531595571793492638e+01 -4.137857083651969958e+01 5.587002581414921565e+01 1.426193636928168189e+02 1.124300753979197935e+02 -3.862675836065928792e+00 1.685025317396311095e+02 -1.078953752432818476e+02 4.029415007350653610e+00 -4.057204741993567865e+01 2.000720691090121761e+02 -2.053187571376922094e+01 2.807505458512698393e+00 -7.428121587224735833e+01 -6.919078661520959628e+00 -6.173255799651680320e+01 6.557966505969361037e+01 -9.148068408443202770e+01 6.640348154672992109e+01 -4.621676285582564958e+01 -4.812228838105806261e+01 -8.868227484407296402e+01 5.132804571469954880e+01 -5.289518854939763770e+01 -1.444610522037076237e+02 -7.685936880686200823e+01 -1.011932276530161090e+02 -1.521020467538733385e+02 1.314929353650847190e+02 -2.654810660678780465e+01 3.100245583457091669e+01 8.674412181605097771e+01 -1.006439937960228121e+02 5.508798657593493431e+01 -4.190332338542562951e+01 -6.715266543858884063e+01 -8.720398850718963502e+01 1.965759863585913081e+02 -5.488741993147139908e+01 -4.791109951292420988e+01 -4.562524761509810389e+01 7.777335368024142781e+01 -4.007489012873008960e+01 1.334603900738027846e+02 -4.830855576768505699e+01 5.334450957081224942e+01 4.395409806056897573e+00 -7.843409506947396892e+01 6.653511810114544289e+01 2.683714018373440240e+02 -8.907720789405500739e+01 4.592318771233769326e+01 -7.380343922756102870e+01 4.377700885340650672e+01 1.269512694355941562e+02 -4.976900246593679356e+01 1.414882725537046149e+01 -2.607910331690743533e+01 -9.866852190462654448e+01 -1.680202590147530373e+01 4.173376743655674126e+00 -7.555676132212473917e+00 -1.445617692278728228e+01 1.143876178382687101e+02 1.262123944639495221e+02 1.805029810806467481e+02 -2.946327769513326871e+02 3.697830972155807672e+01 -1.527474520257978519e+01 -6.035085381292575590e+01 1.746159403111974484e+02 7.371784676121406221e+01 -2.540459593742019795e+00 -1.122600326037792087e+02 -1.052942038967633209e+01 9.693435382005667122e+01 -1.301192246517510682e+02 -1.632955277247754395e+02 1.040022520041266496e+01 4.108137791125090388e+01 -5.912639154317502488e+01 4.072549066148846464e+01 -1.037283405018417568e+02 -1.465785765174583446e+02 2.042667805792782332e+01 4.706631234624838100e+01 4.677941489824352317e+00 -8.084658574422908828e+01 -9.069197097211595349e+01 -8.167565748874120857e+01 -8.486555761910231865e+01 1.228118926931709431e+01 5.508209179601188765e+01 1.129781251040020607e+02 7.701160782853425246e+01 8.682571707628899560e+01 1.042717246924753454e+02 -7.254523476585474384e+01 -8.004665005758104712e+01 6.843443053082810934e+01 6.654434823628972140e+01 5.749268607882289217e+01 -9.106383263302651798e+00 -8.843243978630516722e+01 5.244237229534019207e+01 -1.739772269752197076e+02 6.527738350378633925e+01 -4.325005774376548828e+01 -9.371467293887164374e+01 7.214262280894936907e+01 -1.669350893951940051e+01 -7.497380828270689790e+01 -5.586274380875729406e+01 -8.927372455034781495e+00 2.361780253302425763e+02 7.488674381542313085e+01 5.339317942977598364e+01 -1.011261834094865435e+02 1.444122765774394281e+02 1.046163647239989336e+00 -8.803689348471688447e+01 1.518621101969854692e+02 -1.502326084626205329e+02 1.538260149113161646e+01 -3.170023127158007981e+01 -2.166673671845079241e+02 -1.314410135992861228e+02 -8.597633848859463512e+01 -2.897820196124361303e+01 -1.175032183955631382e+02 5.681403145068188110e+01 6.407626449359746346e+01 -2.721439416787867671e+01 -9.836787416429908149e+01 1.114842567034273628e+02 1.164837670047276106e+02 4.555485141696234308e+01 1.726482347942076956e+01 2.577838499455365877e+02 4.304592282447961082e+01 -1.178801117788899973e+02 -4.447328646889346970e+01 -1.665345122378410565e+02 3.144436887625647614e+01 1.512263529305512009e+02 -1.463038489693190911e+02 1.299910784580586665e+02 -8.976854723793580604e+01 -1.869132032368507979e+01 -8.032580700730725942e-01 5.219819079487454161e+01 -1.142112839540794411e+01 -2.253620802600361728e+01 -1.856807082859198488e+01 -1.251725690292771986e+02 4.580666106428420647e+01 -2.995286332587647848e+01 -1.275484944980064839e+01 -1.058993916081917774e+01 2.231692574042230319e+02 1.721131408554766438e+02 2.297645063275055293e+02 1.301808881148552359e+02 -8.551401744114789949e+01 7.423163515363501119e+01 2.089328902568913904e+01 4.693760160796951197e+01 -3.917935803048280263e+01 2.523095632125217662e+02 -2.304003891736161336e+01 -1.350901186126089044e+02 -1.475934900469336064e+01 -4.529506418006873503e+01 -7.644988355994148321e+01 4.263814629451705684e+01 -1.157226079167977062e+01 1.797502546303579436e+02 9.123418074953134749e+01 4.039039471346874421e+01 9.682276524058615053e+01 9.351962994742787316e+01 -2.271524188255229859e+01 1.379952667285132861e+02 2.622662917191603782e+01 8.857089698110381448e+01 4.713844355529489150e+01 6.842681824641828392e+00 -1.144103386006647298e+02 -1.145379559438241444e+02 -8.901032595699712147e+01 -1.538374099094280112e+01 8.570659442570217834e+01 -3.027121824301260844e+01 9.775310741910548984e+01 4.332696772136546315e+01 -7.189303265018246236e+01 -2.959896934865403040e+01 -5.791529462904805570e+01 1.736960986541159357e+01 -4.576106591615223351e+01 -1.107656257608435908e+02 1.201194177634148872e+02 1.199662708741593917e+02 -7.808084241322934815e+01 5.331293277424341781e+00 -4.481509021790864722e+01 -3.218577114329566058e+01 -1.121197783114329738e+01 -3.089008619778378062e+01 4.399475154014109535e+01 -1.389760292376004145e+02 -5.225560296519611825e+01 -1.500909327306335115e+02 1.720805990297489529e+02 -1.993937453650287850e+01 5.820140423221282333e+01 1.176152347941640564e+01 1.426425840652666750e+02 4.405680508041955790e+01 3.525651799234337602e+01 1.524731389339342513e+02 -4.864681790566688591e+01 -9.641163589944032708e+01 2.687995868749521833e+01 -1.560011755504523592e+02 -5.272579368944261091e+01 1.010183302456059380e+02 -1.258919498512584312e+02 -3.588169821705326967e+01 9.008418009956841388e+01 -9.318666252985651965e+01 -8.826350886806731921e+01 -8.152607025495910875e+01 -6.292107927587660043e+01 2.457435675046222912e+02 1.955148917071585117e+02 1.015641986849718705e+02 -1.007939440260431212e+02 7.380018912270121234e+01 -6.529894624709393725e+01 -3.099316683641887593e+01 1.638590556998506287e+01 -3.182247840007509154e+01 -9.238817833653172329e+01 -2.773752158662958767e+00 1.453282180682208846e+01 1.072148349295284646e+02 -1.265932084805370295e+02 4.135233279799132333e+01 6.281068081768092526e+01 3.397999233515186290e+01 -8.922711544156558716e+01 -1.462398114054709595e+02 1.901231718688936780e+02 -1.751971055524061072e+01 2.478660693795260528e+01 1.540855199871377579e+02 2.622939937024048973e+01 2.727602656369602840e+01 -4.381986702361010799e+01 8.714901230496961659e+01 -1.340591273692735967e+02 -3.027789174915030301e+01 -6.035024751403767596e+00 -5.248213409169635213e+01 6.206130969550967436e+00 2.088287950269633697e+01 -3.517229752399820342e+01 1.342969153052924014e+01 2.100095058573152471e+02 -2.692628895967294511e+01 -2.752038276315566989e+01 -9.987119946352656541e+01 -1.604795636143127480e+00 -7.930606588386862654e+01 6.258095450977920748e+00 1.100933275731442791e+02 -5.108864213927641629e+01 5.932124448603941502e+00 -5.332686166068957334e+01 3.251667949240131250e+00 8.561625595790773957e+01 -1.137506532986118799e+02 -9.508855894352919336e+01 -1.007253861925344296e+02 7.004558535079915771e+01 8.497921387102211099e+01 -9.053959152653449394e+01 6.150551171877805245e+01 2.536867334056858780e+01 3.797963682136535368e+01 -1.741545152679144337e+01 8.968503792830452426e+01 7.822721469800909233e+01 -7.582500720662629590e+01 1.157210109969570055e+01 7.937697558318285473e+01 7.149199956435914771e+01 -1.954493976211282202e+01 2.449767272735133972e+01 -1.301409939131822284e+02 4.764306519467646694e+01 -3.217501482808318514e+01 -3.208302145160006091e+01 1.699679228067963948e+02 4.653391872851958766e+01 1.179612437797828619e+02 1.874264467634572213e+02 -1.351119357753643442e+02 1.463270287873796747e+02 -6.227767810109352098e+01 -1.326333390380800665e+02 8.078095610553826589e+01 -1.315497175902822846e+02 -2.818159976937146283e+01 5.534476164611169935e+01 7.892828803853289443e+00 -1.650519985723821037e+02 8.270509340920150976e+01 2.477100221980531813e+01 6.779806978637242310e+01 3.563402132409009226e+01 9.288410778270199231e+00 -6.586222539642584195e+01 1.135436544388706466e+02 5.347797846751144846e+01 -6.095596406707258552e+01 -9.935455603299801908e+01 3.817904987439997910e+01 2.525450956347481224e+01 8.086898353503194414e+01 1.803736135142407306e+02 -2.415362078773628340e+01 -1.081042390991074029e+02 -8.308998804960164364e+01 -5.035604209308120716e+01 -4.349136957836677198e+01 -1.439698255119871533e+02 -2.210711802543180582e+01 1.271033102789059370e+02 7.312869687253019890e+01 -1.200718602816109950e+02 -1.471235922069327557e+02 -6.679987244341455721e+01 -7.487327317604592736e+01 1.440689073170709946e+02 -1.672672821854766880e+02 8.494716764371341355e+01 -4.520059068889471732e+00 -4.223106657638944483e+01 1.303523958930871274e+01 8.942219307024443253e+01 4.861502544861939867e+01 1.355999224482067973e+02 -1.561415364368937162e+02 -7.944220720349619569e+01 2.490053400597755839e+01 4.113499591427204649e+01 2.022160443043358100e+02 1.427193926834385707e+02 6.431409255048832563e+01 7.074020421354562416e+01 -3.340498456139170713e+01 1.489204692967509800e+02 -1.759839896728489634e+02 -6.222872185185832450e+01 -5.266277431372431295e+01 -5.081050156777565263e+01 -1.012942385267502061e+02 -1.471380495369664132e+01 -6.732651187092261580e+01 6.980733148963643941e+01 -8.967053012062388362e+00 -5.694836561715613499e+01 -6.103525594644525398e+01 1.767570131573155834e+02 5.792189949861140263e+01 -1.347858609251104411e+01 2.049098778366121962e+02 -1.062918124096345878e+02 -3.465078160476188174e+01 6.568705369176410613e+01 -1.353603226528388159e-01 1.469369487268717833e+01 -1.227356209894285968e+02 1.728172650955784491e+02 -4.800504044497335343e+01 -2.637830088932267714e+01 -1.075733175230623573e+02 1.234009655699053241e+02 9.396799701314103004e+01 -7.598615291353688406e+01 -3.689173092624972838e+01 3.819850655648576776e+01 -1.483828690841429818e+02 -1.927173284342132975e-01 -7.321597294496022812e+01 7.529133736280772204e+00 -1.059262610945190204e+02 -1.553455098250314848e+02 -6.926269563399920060e+01 1.451863884824017532e+02 5.539402747808459537e+01 -8.781358200565472316e+01 8.733041560679842519e+01 3.350413139079624614e+01 8.653257163010027853e+01 -4.124799255724419567e+01 -8.232222445418103973e+01 1.674710324165638724e+02 4.075819528114021040e+01 2.833583330756225749e+01 -7.144287895478611006e+01 -4.141672530003835817e+01 9.310959338540095942e+00 -7.021624427083041908e+00 -1.691415995036878712e+02 -3.387840348917585231e+01 6.301587822352174584e+01 1.091630850787686313e+02 1.523534096636910533e+02 -1.299776517432388445e+01 8.765744269000890654e+01 1.542676730027857843e+02 6.200226571418029664e+01 1.443909348859345130e+02 1.570651681990106319e+01 1.283505827360403941e+02 -8.203877272963542566e+01 5.211437752886867969e+01 2.862749435836071754e+01 7.409050461606794613e+01 -1.037252066609840710e+02 1.933907280789445906e+02 -1.256316427001783751e+02 8.620861331707935449e+01 -1.047786598413162693e+02 4.504666525823758860e+01 1.347083214480254121e+01 8.845157578973167745e+01 -7.181635666749004088e+01 -7.362068405286535722e+01 -1.085415601168919686e+01 8.683420692221676518e+01 -2.883772671272779320e+01 -1.587823940707826509e+01 -1.912396849224488449e+01 4.612137442449354197e+00 9.554555738395245612e+01 -6.087656295217121283e+01 -2.631311205177816248e+00 -1.884750393909455966e+02 1.185468053727193194e+02 -1.212670688662612548e+02 -7.172614750363567282e+01 -2.283956636039722454e+01 -1.048176452669554379e+02 -5.160247910733633603e+01 -5.688600327250362199e+01 -1.912147903168563801e+01 1.322580411403722565e+02 5.248381522756678663e+01 9.748071410285503191e+01 -1.321216311290129681e+02 -1.345188528232939120e+02 -2.783009236154539963e+02 9.920472641999334940e+01 1.011779834548235755e+02 4.108708986026821464e+01 -4.123341483720251688e+01 -3.608037630611089952e+01 -1.783101497178821262e+02 1.418171821062703089e+02 -1.042694692320775829e+02 1.038387656327548996e+02 -1.545396828429787206e+02 -1.390302184988915180e+01 -5.376160826698671258e+01 -1.157860805729395963e+02 -4.476254279545933912e+01 -1.218003967478358973e+01 -8.998182023331884238e+01 -1.004530005941308559e+02 -1.200242391034833034e+01 6.911546181309208237e+01 -1.209912631221810955e+02 -1.519370299777646061e+01 -7.161015458284839497e+01 -1.276016277213500132e+02 6.403522100122910565e+00 9.234616703660420001e+01 1.607668932494077296e+02 -1.850732867977322371e+01 -4.472347341060501691e+01 -1.206179120233788922e+02 -1.589608490359264010e+02 1.008483689563615684e+02 -7.066838133744434458e+01 7.674590283828693771e+01 9.131565334598892747e+00 2.838651474737388725e+01 7.175899562365712825e+01 -8.238220228554057201e+01 8.036694234637162992e+01 1.120565628522667225e+02 1.531082555835197354e+02 -1.132696975841171394e+02 1.010657922741867765e+02 -4.645934043485067377e+01 -8.827996866598894599e+01 2.086497862534747583e+02 4.784484759085525951e+01 8.115691683290266667e+01 2.062320248196942174e+01 -6.152644097510988530e+01 -3.396669043060469306e+01 -2.045637028513083067e+02 1.027163617636598190e+02 7.922730046077235500e+01 -7.360100526965082679e+01 -7.108756329667774310e+01 1.411679724211968221e+02 9.826699336341731339e+01 4.970575323078347907e+01 7.395811727237563105e+01 -7.630718822189028749e+00 1.003328776122462784e+02 -1.007178837495760177e+02 1.811903613728671587e+02 -3.839039617177602537e+01 -1.186322704209887036e+02 -3.666640780517441556e+01 6.975531630058225119e+01 1.432526707317098271e+02 1.249440505799318757e+01 1.690131519184056970e+02 5.074040269191294072e+01 3.270613650876276068e+01 -1.082247723756342168e+02 4.354062605054851076e+01 -1.215284743841496038e+02 4.639797536784332976e+01 3.750936148140534954e+01 -1.199666213519347480e+02 -8.268694772101001433e+01 3.875761285780273369e+01 8.483690301725813399e+00 -2.256576171512522677e+01 4.072764197893121008e+01 -2.081091292180470020e+01 -6.134365091526147040e+01 -2.551097164598541767e+01 -2.179815754348214440e+01 -3.871711686719955736e+01 1.824415435374008254e+01 -7.830384739264484040e+01 1.156489251175187860e+02 -7.221837851193242841e+01 -4.088802531284867925e+00 6.380678446792519054e+01 3.766969506098897469e+00 1.552374321294598403e+01 1.552899149486185237e+01 -1.138681534184266582e+02 -4.284629245430609856e+00 6.324160390423915601e+01 -2.250087777452957027e+02 -8.253535529649977320e+01 -1.095641766796843370e+02 4.258399374271181870e+01 9.354049682358102302e+01 -8.921752649575714145e+01 -1.632166796869573204e+02 -1.800404850047845287e+02 1.939895925697243584e+01 -1.408708559815406716e+02 -6.150824154738463001e+00 1.434241886796828283e+02 -6.870353820967993741e+00 3.605580649709840912e+01 -9.597507235532462744e+01 7.747063199829044322e+01 -1.149490213909699747e+02 -1.496254275323407867e+01 -2.934403590389975136e+01 5.580040530032855628e+01 -8.560335161982859375e+00 1.023253004149546541e+02 -1.181897452128767583e+02 -4.847423244857331781e+01 8.385427930725920476e+01 6.399130712458224934e+01 -7.960935498013451195e+01 -5.261700513507177135e+01 -4.774051728245459003e+01 -2.796930219946395368e+02 1.869975992599833035e+02 7.348093728773183386e+01 -2.276163074874220626e+01 -2.865077630036559952e+01 4.009249441490072741e+01 -8.116888069628198821e+01 9.601174248884920814e+01 5.835358164129750946e+01 7.901235550277992559e+01 -8.109299883958969701e+01 -2.554788656951672365e+01 3.211512166924262601e+01 1.675356879854357572e+01 -4.130060591930959646e+01 1.522379682361863331e+02 -1.665152618870529366e+01 3.412339806245513785e+01 -2.214697815586629304e+02 -8.155392523647913094e+01 -7.045249872599636376e+01 2.218079918819732654e+01 1.051541844379708692e+02 -2.232107415103393748e+02 -1.801373503813880177e+02 2.134371855991176687e+02 -1.017377213209845621e+01 9.248671773152183562e+01 6.032107909237329579e+01 -5.328956190721677899e+01 -1.261450905720334674e+02 -9.163369366288020501e+01 -4.838539230591459273e+01 -3.602324060851291421e+01 -3.770992946589431227e+01 1.553411237972352943e+01 3.583140693601448135e+01 1.606811592197932441e+02 1.186843340413444707e+02 6.733597381890158218e+00 -4.246281146276503549e+00 -1.528580376337185101e+02 1.152166662288498173e+02 1.533908745333305035e+02 -9.962790073836676186e+01 7.098791314928591589e+01 1.633445483872760562e+00 5.290318434022652383e+01 1.207289339282842064e+02 6.831377360045988212e+01 -1.290884428351361066e+02 1.551967438211933192e+01 -2.830142113707026397e+01 1.073419450954811794e+01 -2.224724717265632279e+01 4.366447874867489531e+01 -2.510766356645431756e+02 1.745330843657915239e+02 6.997370308415457707e+00 1.536091817888940909e+02 -1.013853339813969967e+01 1.023185377009385917e+02 6.904969073006665781e+01 -4.046361906301105194e+01 2.887898313778712023e+01 -7.024193721031153359e+01 -8.585077946201000998e+01 -6.950191450654767777e+01 -3.093117712605194924e+01 4.358334086663126783e+01 1.063078120362784773e+02 2.747382847998835587e+01 6.001333892871354436e+01 -1.012079112856874019e+02 -1.324091629689424110e+02 -1.301971197151908122e+01 4.478743227681019334e+01 -4.388455782295535101e+01 9.136798148756379589e+01 5.365735410302993813e+01 -2.669940914003157317e+01 2.892662768802108175e+01 5.931703166735093191e+01 -6.965646857045653917e+01 -1.292097927758205742e+02 1.372771612778497285e+02 7.550074487971657256e+00 4.846356007416500233e+01 -1.443566448267961562e+02 -5.164531653579653181e+01 -4.205673275545153134e-01 -6.365302175968331966e+01 4.121093320324725084e+00 5.447269291368961319e+01 1.804270414458408993e+02 3.787400731624732941e+01 -1.060660773447693828e+01 6.995059184914532580e+01 -4.402229569265936249e+01 -1.055281204734587988e+02 -1.338262114942485255e+02 9.068488358180983866e+00 2.432742149210935168e+01 2.309420436624879613e+01 -5.512346313761579353e+01 1.170937764322198973e+02 -7.834684097114096346e+01 1.244066046555153378e+02 8.463790683067225018e+01 -6.307156666761618879e+01 -8.221177495446771388e+01 8.169104313229419745e+01 1.981047538064747471e+01 -5.096418659484326952e+01 -5.224347807514149622e+01 1.327283101003573904e+02 5.565640280887191693e+01 7.759340152622738174e+01 2.538803184147670322e+01 -4.083074666496448657e+01 1.043231216376162536e+02 -5.300779083878419584e+01 5.527385349463000974e-01 7.436311326182411108e+01 9.678289011417136578e+01 2.483483686428627095e+02 -1.703033402746280274e+02 1.564418669700889666e+02 -6.567556690005208964e+01 -1.481351580869564089e+01 -2.443556098093033668e+01 -2.016487284509193856e+01 -5.361976404477318425e+01 9.049435188995585122e+01 1.791181661101230986e+02 -1.156274811663385407e+02 3.012015374066679030e+01 -1.236028945367231699e+02 6.838719792337604986e+01 -4.333365820220604547e+01 -7.898919333051487968e+01 -5.256963554572782726e+01 4.018549955969385934e+01 1.889483657321031274e+01 -7.978847863783099115e+01 -1.376784982163468669e+02 2.027266751416930646e+01 1.539346034855316816e+02 1.395751471026743218e+01 1.783108899023829963e+02 7.287193759089385381e+00 1.316159415081305895e+02 -3.382117264902885978e+01 8.876576925629220227e+01 -6.988723371902004544e+01 -1.104812918911482171e+02 4.838575973925007645e+01 -5.678139563668094780e+01 -7.690505668833915820e+01 7.136014251035740585e+01 6.341472209480599531e+00 -9.237487886448941765e+01 -1.475927242023589088e+02 1.450292172016401651e+02 -8.744953400667678522e+01 -2.324878739560467977e+00 1.178303230495933178e+02 5.692736823311673788e+01 -9.640589740009521336e+01 1.045853042924058407e+01 2.769611705371424932e+02 5.234869287933472037e+01 -1.549420620301300460e+02 -4.689852162502909039e+01 -6.043618901797987064e+01 9.452510145259102714e+00 1.057551175625083459e+02 -1.017759643601260535e+02 2.123512828889291271e+01 1.283465159061045426e+02 1.846907196664309225e+01 -2.078844572653076455e+02 4.752450987773436708e+01 7.429151973809736376e+01 -1.337937121698556453e+01 3.227127749739691609e+01 1.686960421990395254e-01 2.220322597728729619e+01 2.730273295044189297e+01 1.140394039077972366e+02 9.652951453151396777e+01 1.538252653127394609e+01 1.467158366965103653e+02 -6.303253982719848381e+01 2.428555638604111380e+02 6.404307485776843123e+01 1.395631105382653061e+02 -2.162896605046483600e+01 8.870823252807394965e+01 -4.819749021758459406e+01 -1.441629559042208371e+02 2.576797754848049493e+01 9.356057600136021790e+01 -8.625153606882905422e+01 -1.031705763249327674e+02 -6.554282171905573762e+01 3.606907384620802759e+01 -1.124836381234905645e+02 7.358514700770732020e+01 2.762338296374592161e+01 -9.615731871919699358e+01 1.870874935796320813e+02 -1.158596759282713329e+01 -1.002607621923237673e+02 -1.321315946441137967e+01 -2.013264255437217187e+01 -1.381392458237328924e+02 -3.942645867529091674e+01 6.060180838961905181e+01 1.298450331814836431e+02 2.861340519840565477e+01 2.634797747356501318e+01 4.412558137427291882e+01 -3.519008295202319658e+01 -1.434679400963589160e+02 1.565664983180668202e+01 3.049958410970010547e+01 1.311590637731687252e+02 -9.746275487415642758e+00 -7.500577198523974687e+01 7.212389606187592506e+01 9.624061686350851019e-01 3.135447553190680381e+01 1.371791518713141329e+02 -1.748782323171903954e+02 -9.149993747233575903e+01 1.229091440633520875e+02 -2.065618374384059734e+02 -1.760863936015749687e+02 8.715621605170264274e+01 1.474465618681256558e+02 6.072271327841752964e+01 -4.285219430074037383e+00 1.491053859058742717e+02 -2.101957184071206655e+02 1.025988478793825607e+02 4.057510282033248927e+01 1.216697158084715937e+02 -1.805708655894894434e+02 1.019683045954083838e+02 -2.703052710424558924e+01 -1.280052125790521131e+02 -5.095874676933236813e+00 -8.846072582686819885e+01 -1.553680412284655787e+01 -4.159180886179218106e+00 -1.179553032327631001e+02 -1.180742940097830314e+02 -5.990482761207397289e+01 -1.234237966182477493e+02 1.924321197977889426e+02 -1.542608228303941189e+02 -4.804684947054425947e+01 1.652042606895654160e+02 3.248864357437560102e+01 -2.834073640083558416e+02 -1.217243371020783229e+02 3.399217206655973911e+01 5.233798488060892140e+01 8.180922037505181876e+00 -1.480188302888675196e+02 3.416789094686288308e+01 7.184898159285308950e+00 -7.116874568693462777e+01 1.941142976386372254e+02 1.939556473213044114e+02 4.162609932520632050e+00 -1.996805681494139719e+02 1.206204452025987734e+02 2.944246689965325103e+01 3.647217883431978613e+00 7.332859991739289285e+01 -1.986634964282591227e+02 -1.321475253912097969e+02 1.350180176520846942e+02 1.049895514128192389e+02 5.065309509118387155e+01 1.370890470448225358e+02 -1.706799246050861996e+02 -1.959353022752648243e+01 -1.248536676297118646e+02 4.180382037440200804e+01 -9.945469768164599600e+01 8.336652771013956453e+01 -3.247629309436417344e+01 1.185832211829326432e+01 1.698916258185192873e+02 2.733173383668993850e+01 -2.523566612150898720e+02 -1.210123776173961261e+02 -7.979584510432678712e+01 1.513813270997582094e+02 1.200638014074654691e+01 -5.159261177669463905e+01 2.903422574594805639e+01 5.982734856717324590e+01 -3.786551564620499732e+01 1.029361063293808485e+02 -9.645906702947871736e+01 4.711910879796631235e+01 1.071695250920694917e+02 -3.400619185390719679e+01 -9.394999472776848393e+01 -1.086313206847060826e+02 1.146654296928136176e+02 -4.756887067980126460e+01 1.881865160644409798e+02 5.477096174110180016e+01 1.062228816629976080e+02 1.766521196261171838e+02 8.191838479088117353e+00 -1.190206304143343061e+02 -1.586737092246596035e+02 -1.093069269917135244e+02 4.069917407569173662e+01
-1.271076730011774991e+01 -4.531290581347863444e+00 9.683150977000670423e+01 -2.141994812672441242e+02 1.453485824356271223e+02 5.937402134012430821e+01 1.422857394071968145e+02 -1.207959754043630198e+02 -2.586435173235593687e+00 -2.249987564369173398e+01 -2.052643241465383426e+02 3.058608855516664349e+01 -1.712983421899051706e+01 1.143812425759102354e+02 -1.169968522405653601e+02 5.771220154600482743e+01 1.171492785140429760e+02 -4.297568676338254789e+01 -4.636874701728730486e+01 -2.522996744366679778e+01 5.772720539762497793e+01 5.897175547608831181e+01 3.033232967220910936e+01 -2.174105617887578035e+02 -4.821163689019380882e+01 8.561150951868738446e+01 9.270531564401549574e+00 -9.706792904561995172e+00 -6.219973780568431465e+01 -1.449524769168704630e+01 6.857378468874266275e+01 -1.359546155630969793e+02 -5.793148947503622992e+01 8.385896572735836330e+00 1.940940389482807120e+02 1.982784949256088964e+02 -3.005640606009943383e+01 5.225132030096856539e+01 -2.421559712229717221e-01 -1.305614948960919719e+02 8.972609487367994063e+01 1.002432626714150814e+02 1.014512224593228922e+02 1.091484991038580787e+01 5.785234215307627892e+01 4.498601840325130041e+01 3.634630315779833865e+01 2.745410587562549054e+01 1.031004572229925174e+02 8.386505835275666243e+01 6.130598244111226336e+01 1.523885163484882810e+02 2.316882858620307672e+02 1.828587251984126567e+02 -5.529096317646421710e+01 4.606090332696618361e+01 -6.007824284720760488e+01 5.271421260922636520e+01 -1.796925356009485881e+02 5.282063636477603552e+01 -1.914140148191968365e+02 -1.577380795712591635e+02 1.211053791363714893e+01 -8.663961941155765345e+00 1.584833867270025394e+02 -1.944502137020569421e+02 7.037375663359672728e+01 2.149028818611316183e+02 -6.914253405150356357e+00 -1.821430208393595649e+02 3.321723387636065894e+01 1.843621096947953220e+02 -5.714138463824208714e+01 -2.492584683524238471e+02 -9.590691602767957136e+01 8.334070905748387048e+00 -2.151642734016330394e+02 3.001385368300382339e+01 -1.678338934204490442e+02 -1.735513674364815699e+02 -5.348805292194172267e+01 1.425881068529519098e+02 6.496943565428806266e+01 9.935229219265815814e+00 -8.297331173866687948e+01 -3.986128956971180770e+01 5.964053264751956362e+01 -2.172720454679431725e+02 5.063514340121929536e+01 -7.014182552004092486e+01 -7.315331981681833895e+01 -1.655112454687268837e+02 6.087902357760257388e+01 8.678613339689985651e+01 -1.519692698450095349e+02 1.617988707365080359e+02 -3.733852354960293951e+01 -1.584565535621532462e+01 8.208505748829718129e+01 1.464252480315154230e+02 2.037042851609169247e+01 1.418643280689659889e+02 -1.733850834259726881e+01 -8.496488153346042793e+01 -1.836508585540764216e+01 9.467377996766418846e+01 4.332208674370016865e+01 9.424031683530641601e+01 9.091961378014154604e+01 -8.005152537607622776e+01 -1.636897851900839385e+02 1.185425433130509560e+02 5.225570453609759625e+01 1.564533332805643440e+01 2.945354461482868658e+01 -6.544430451639141211e+01 9.252363371390012503e+01 8.659163560719194663e+01 -1.323070648168611996e+01 -6.866775362653716286e+01 2.958315277415222155e+01 6.058077748960223552e+00 -5.925319097029584725e+01 1.634490538207609802e+02 -3.162017218238192129e+01 1.172147375599340080e+02 -6.756713124217154132e+01 3.700861906206732499e+01 -3.477201035210229918e+01 8.628222883571451973e+01 2.263075085846665857e+01 1.114572867371761049e+02 -1.118978856207467913e+02 7.170308568650246173e+01 1.190797113471112567e+02 -4.310523541123811953e+01 7.381772958960523212e+00 -1.233014840767304499e+01 1.127026007017126261e+02 3.526540181977352972e+00 1.626921894979325884e+02 -1.364615785514878041e+02 1.125675371928287802e+02 -8.808972421326002689e+01 9.247712903423459352e+01 -1.323055735883359318e+02 2.848694401760726436e+01 2.390215735930324215e+01 1.717044873281784234e+00 3.506581918274399357e+01 4.442627816717320854e+01 -1.195490982992274631e+01 1.052640778124775878e+01 1.044072481998375537e+02 1.229070929485532275e+02 -8.376865733679984771e+01 -5.233238257348107680e+01 4.572252933751823889e+01 1.464025080231095011e+00 -1.323736913171811125e+02 -5.329012198592361216e+01 -3.422050925649853070e+01 4.725553606189165379e+01 -6.333226926132412160e+01 2.214737902978210116e+01 1.550678877234275603e+02 -7.682744207098458844e+01 7.818521517297797629e+01 8.130927150533214842e+01 1.091226761344866603e+01 1.194438312249797036e+02 6.085366470902345526e+01 1.626464348659187067e+02 -3.351283771978295789e+01 1.088638650718218628e+02 5.380702609158786487e+01 -1.555542887606310565e+01 1.977521103162550844e+02 -1.344679989136629956e+02 4.738629759412562947e+01 -1.818288464492375738e+02 -8.160278507932446246e+01 3.980311536064800038e+01 -7.004089424638382866e+01 -1.511323783524244107e+02 1.933927890622896086e+02 -8.323318449325225288e+01 -4.609130888240773061e+01 -4.491138101042721331e+01 1.181710632549300328e+02 1.890566401551995739e+02 6.285257287777285740e+01 1.419757804353496056e+02 2.130788551941395781e+02 -1.549642912224417302e+00 1.581370785126028977e+02 6.882437657036506096e+01 1.848685296249857970e+02 -1.221598928179740113e+02 -1.148945707961161489e+01 6.174435858943844835e+00 1.844269151849923389e+02 -8.821690838831747783e+01 -5.877384931864145301e+01 -5.139787978101406196e+01 -1.301468171400485119e+02 4.537519542284758955e+00 -9.800126311741730945e+01 1.497134472375176699e+02 2.286126802477610909e+01 1.164075335879644868e+01 7.021052417364910525e+01 -4.767738856339204467e+00 1.136193517161272410e+02 -1.542835618526140706e+02 4.411489795554247451e+01 -1.658439097190142490e+02 1.140261051941890855e+02 9.332503724780247012e+01 -6.533424241305209534e+01 4.545000992948440199e+01 2.312532823520062664e+02 -2.959503394216540428e+01 4.044436781414611204e+01 -3.173577882515422033e+01 5.626883045469123346e+01 6.239950628840534819e+01 -6.104679516898531944e+00 9.893740327506634458e+01 9.850569712136636724e+01 -1.882376345980192696e+02 -1.487825438738923935e+02 -1.163623034316822924e+02 -9.150869687832546617e+00 -1.454003843366258764e+02 1.121857371587937422e+02 1.071092177813125232e+02 5.728727235305306209e+01 1.083972829425979789e+01 1.530668205093074050e+02 8.150503626494153764e+01 6.553901475160267864e+01 -9.861783087163441053e+01 1.479666864240958546e+02 -3.501161484041356076e+00 1.061533149854681142e+02 8.563591570138578746e+00 3.566183608881875244e+01 -7.345011836789664983e+01 -8.805526094528853776e+01 6.947113161339851217e+01 -3.753127024131547973e+00 1.418477144663881973e+02 -1.218111419146645424e+01 -2.757827968501199933e+00 4.448536037448160130e+01 2.194600799840567973e+01 1.371684704749238222e+02 1.425446327200995533e+01 3.477399029141235332e+01 -1.499935542640911308e+02 6.381417002503286540e+01 1.295621001305391360e+02 -1.704681647693719171e+01 -2.209642177680020723e+02 8.177634647293750447e+01 1.318382191539757002e+02 1.972215271911394652e+01 1.828492884164469956e+02 -4.130357951846372444e+00 4.143802649774652025e+01 -4.215342334089681486e+01 -1.338726596404829934e+02 5.409484321604173118e+01 -4.583106905056822455e+01 -7.815024616440769023e+01 3.977221599233082827e+01 -1.782029300523228983e+02 6.908628009941534742e+01 1.585441847273970666e+02 -9.756482960628405010e+01 1.667370111348047317e+02 -9.403956024755024146e+01 -5.743230839192391635e+00 -1.015989746759725065e+01 7.382034378961233756e+01 -4.489612777694370038e+01 -1.037543614897642072e+02 -8.527628970511284479e+01 1.403003220641025450e+02 5.687452298200908274e+01 -1.268151183489829350e+02 4.248149167448690200e+00 4.174260272275461148e+01 7.937266456629289735e+01 -3.876856613650578254e+01 5.762058875302514593e+01 -6.628908863222527259e+01 -1.559797009128615457e+02 -3.327006875338104663e+01 1.354296644420735447e+02 -1.089541233489723595e+02 -6.132776654306465680e+00 -1.564208630128628954e+02 -4.656779170879284280e+00 -1.400978749761614495e+02 3.163725073414542877e+01 5.782996908546792980e+01 -4.831415785977451094e+01 -7.906579006194164094e+01 5.416182967751877797e+00 7.140838875799579455e+01 -6.503427736950817462e+01 1.292195021249881108e+02 1.012812239781391526e+02 -1.224403240386240412e+02 -1.011545025033650518e+02 1.295383124166151561e+02 6.836915414365886079e+01 1.440057301189296197e+02 9.585851990460017191e+01 7.775688626812494419e+01 -5.776091944965103409e+01 -7.831245338815459434e+01 -7.380299314995879456e+01 1.958449819217300671e+02 2.930836688971971427e+01 -2.385788660945276618e+01 -6.555609643629453842e+01 -4.777998671747519666e+01 -1.255780905366124500e+02 -1.574927390627586732e+01 -1.673103269890838760e+02 1.192095764681084376e+02 4.383438752868612909e+01 -1.098442710613049798e+02 -4.615145282728873610e+01 1.141516789566213106e+02 -9.239065410707610226e+01 9.803945622928308978e+01 -1.129488877224296175e+02 -1.122939705203380001e+01 -9.104149431819378435e+01 8.555160696256345432e+01 -4.048376013321357192e+01 9.778084997901077102e+00 2.798028587613352514e+01 -1.206958692751635311e+02 1.191071080768495705e+01 4.610387947617043380e+01 -2.129189035728902724e+01 -6.550731723294558151e+01 1.930564552373153333e+02 8.238627006998567026e+01 4.487546846826955971e+01 -2.992585116882862906e+01 7.641274181776721264e+01 1.596893896540079538e+02 -8.786437094228672606e+01 1.995756082791640154e+02 -1.268099483090287691e+02 -1.751960910834124832e+02 1.445888709401619963e+02 -2.228920647795640946e+02 -8.976905360115524646e-01 -2.333277916558119216e+02 -1.456314509615605743e+02 6.837396832825376691e+01 -1.386912693060735364e+02 5.559819079669503594e+01 1.047524223901121587e+02 -1.527196781418894318e+02 -2.865965509315964965e+01 7.184400714888681705e+01 1.275571163108579924e+02 -1.773026268518097766e+02 8.335333737314408609e+01 -9.332535121721323890e+01 -9.378979516254796422e+00 -1.319115455509472135e+01 -7.578642998752130211e+01 -8.599999767410999141e+01 1.727698656803905806e+02 -2.068743129150481863e+01 1.289826982681821832e+00 1.240869209333249330e+02 -8.265314701265234021e+01 -3.280965443971480511e+01 -1.026460310861692591e+02 -4.653773793834717765e+01 4.903380600642017306e+00 5.659359690776454954e+01 -1.288728676082201048e+02 2.264033797702097388e+02 -5.145209096319702269e+01 1.171254455158798322e+02 -4.665019673499198660e+01 1.144577464411591166e+02 1.330378682469117848e+02 4.583035627199438267e+01 1.167184440946668502e+02 -4.133985953171288230e+01 1.338754316998106901e+02 -1.497102088942880300e+02 -6.256779156606985737e+01 -6.025000808203272129e+01 2.447963132614091819e+01 -1.552982269518219880e+02 6.941561084223317835e+01 -2.951768721427389153e+01 -7.909063673238567560e+01 8.573049172838527454e+01 -1.446257674141567122e+02 -8.732320812797024701e+01 -5.040407526085738965e+01 3.165333648880665862e+01 1.242410234230268031e+02 1.118176369909614749e+02 6.612572812175969261e+01 -1.485823821665021915e+00 1.674275791226408785e+02 1.172785780420097979e+02 -9.044584569130262253e+01 -7.475632597610226071e+01 5.275217783032348251e+01 9.512745597755495552e+00 9.377871646604664591e+01 1.596098421461042562e+02 6.757442097312585361e+01 2.340630398592697148e+01 -9.784171759787913913e+01 1.643888101542929974e+02 -1.087747741004309461e+02 -1.581520671837660643e+02 6.289793687183511395e+01 1.066927477441727063e+02 1.880633538867696686e+01 -1.328362492262992305e+02 2.841631286280333413e+01 4.055941543014830586e+01 -3.550128480267684128e-01 1.252311426715709501e+02 9.352351043953606791e+01 1.636551882933069635e+01 7.490963103427942826e+01 -1.022367227550946183e+02 -6.095817689603404865e+00 9.402192395406655123e+01 2.838765084258503180e+01 -6.215639839861811566e+01 1.893151639494840310e+02 2.208875184643119667e+02 -1.198918762430557337e+02 -2.640991874304661380e+01 -2.007996347910965653e+02 -6.896192928088652252e+01 1.495568061146247771e+02 3.207168967181217578e+00 -6.781050833924611254e+01 1.564096420531847116e+02 -5.967170450618349520e+01 -1.533928070472151433e+02 1.304129242091578078e+02 -6.414733751630188863e+01 3.296997076423854622e+01 8.242031753618805112e+01 1.317143115943334308e+01 -2.274579674441781947e+02 4.041112727565719354e+01 -5.902098743638613421e+00 8.603270280277340021e+01 -2.249682243545332838e+01 9.649105029622616314e+01 1.623106237230125615e+01 -8.081730564848894005e+01 -1.955582582097675726e+01 -1.672672203120996528e+02 1.097358187885367187e+02 2.413429262701849609e+01 -3.971438625076138607e+01 -4.943330588234751843e+01 -6.005978455133783456e+01 3.925899775347910747e+01 1.533694024134902918e+02 1.266367989597824533e+02 4.107224650793327214e+01 -1.888373053157095285e+02 -3.702519807319503542e+01 4.182612888114057625e+01 1.119585648622692560e+02 8.319629808632143408e+01 1.472703407051505486e+01 -1.775143515819019058e+02 1.256426433728218228e+02 -2.135160146390861087e+02 -1.964049188104117150e+02 -1.739415847124565762e+00 -7.039398054455907072e+01 -2.303081188648813438e+01 8.313247253083581256e+01 5.336099962779388761e+01 -1.060972335772409991e+02 -1.445515525954422174e+02 1.391055992945824649e+01 1.180320057322700791e+02 1.971522289288885332e+01 -5.411584077378896751e+01 -4.930341471481978033e+01 -1.115701615749359377e+01 1.539970655920111824e+02 2.133820964486197624e+01 -1.687824925797366973e+02 1.247059826478301829e+02 -6.494295219545995224e+01 -4.054128222585211994e+00 1.496121618965288462e+02 -5.078438541505703796e+01 -1.903991670261142488e+01 -1.067270448343245306e+02 -5.827106258324221244e+00 -2.316502242941574963e+01 1.279199810785544997e+02 1.166407121953433546e+02 6.565840341019622883e+01 6.359623496790376151e+01 -1.817281673788367158e+01 1.313070794298743351e+02 -1.095674805188607337e+02 -4.130670361060659879e+00 -8.845935235181991629e+01 1.526002282917276602e+02 7.085059394869641380e+01 5.018817736948737007e+01 8.009874326060346661e+00 -5.179206990515502440e+01 3.339966921664933608e+01 6.526769435558973598e+00 3.564571091683076620e+00 2.340689071275243549e+01 5.806668260992690733e+01 1.653943172989974641e+02 -3.775970396893451664e+01 -5.048236955320289354e+01 6.488418002122845962e+01 1.123514808816669017e+02 -1.245057471676962635e+01 8.932992828087584769e+01 1.011308632008461785e+02 2.047643337892248496e+02 -8.405591219516261958e+01 -1.191462712533378294e+02 -2.782628214509135134e+01 6.038748931149605426e+01 -9.857376454521753928e+00 1.043192119803470064e+02 3.618035390340156709e+01 -1.579293278312200641e+02 4.375004807925677142e+01 -8.686830693969787376e+01 -1.313669611064377136e+02 1.305964716258842770e+02 -7.384294084492479726e+01 5.746230145517716181e+01 1.079008553469712837e+02 -9.607758245982307699e+01 2.281824909208983598e+01 -7.001020027889528308e+01 3.910233058920918836e+01 -1.112587138295407669e+02 5.977773191535756325e+01 5.306093145411626466e+01 3.746128279328387656e+00 8.150595252248098177e+01 -1.482815358444628941e+02 7.406637869944314900e+01 -2.844233797301899358e+01 -1.626800678695003626e+02 9.101549189557249520e+01 2.364644010033121191e+01 -1.888350050965706259e+02 2.265707362092477410e+02 -5.201566951141312067e-01 1.012583684851170460e+02 -1.161195005983110491e+02 -1.869913333792115964e+02 -8.985768273638365145e+01 2.412987282348718843e+00 1.375636502119183717e+02 3.810304838127203997e+00 -9.203398650694991545e+01 4.847597260248006279e+01 1.319571837315471328e+02 6.254965210132208853e+01 -4.979744525743698347e+01 -5.695430798853709575e+01 8.136695580096693448e+01 2.957230898976526490e+01 -1.883369559579815586e+02 -1.996047656499498757e+01 1.627486494374242625e+02 9.512136208020463357e+01 -5.521560500604485355e+01 -1.076545442112325190e+02 -4.108533757215082005e+01 -4.629751013255181391e+01 -1.101998302563197427e+02 -1.774585544281705296e+01 -4.396274284543606825e+01 -1.094040151604296796e+02 -1.270381463262344113e+02 -2.596302225727957236e+01 -1.210188943356411642e+02 -1.288816118169243907e+02 -3.690951316097167023e+01 -5.326984258097647285e+01 -1.069167609937273937e+02 1.856902349805239112e+02 1.049412689960657197e+01 -2.805626097258201668e+01 -1.695431410857336019e+01 7.847395006369234238e+01 1.561150368561201773e+01 2.498483222047171637e+01 -2.118205169648904374e+01 -4.617883922619656545e+01 2.085645484320371068e+01 -1.450241918463782156e+02 -1.587847345663922169e+02 -9.014771477001546884e+01 -1.903688441663839512e+02 -8.938193904905487841e+01 8.554334781740784877e+01 6.123732755071236511e+01 -2.598223842689725416e+01 6.061397210238006039e+01 -1.561958653446844210e+02 -4.078683389442563367e+01 -1.158575755553407731e+02 -6.657858940449330021e+01 2.104728768239183410e+02 -2.047720139178653085e+02 2.047473567633345226e+02 2.489736580677492839e+01 -5.630095495880378564e+01 9.196722406672421357e+01 1.237675588849287607e+02 -5.175546262093349270e+01 -2.032610584839480907e+02 -1.487209446363878271e+02 1.020296354882476209e+02 8.354756567005453860e+01 -1.352236384162189040e+02 3.185138783601340506e+01 -3.959260987298314660e+01 -7.720883454118722966e+01 -2.835690579736902350e+01 -5.467485875638902826e+01 -8.620197441571325214e+01 -3.397989406889768560e+01 4.516427349060310625e+00 -3.257511404891950235e+01 -3.665235156270983952e-01 -1.427820142641145473e+01 9.170587869222724464e+01 1.268027933761071608e+02 1.312539967433887789e+01 1.676243213871874715e+01 -6.299073501704405231e+01 -1.955835472518154461e+02 3.376335750513995038e+01 -9.148574282075067288e+01 2.577904155986558266e+01 -8.100251935822678107e+00 1.059304921693596135e+00 7.219918817961354307e+01 1.215924284400732347e+02 -7.031531434302240768e+01 3.790526559572257526e+01 -1.924333126122208455e+02 9.664414836429392253e+00 6.913624007874479283e+00 -1.222633264484463069e+02 -3.362597615321376310e+01 -4.421952013262597347e+01 4.751082209454297711e+00 -1.019895843130746158e+02 2.698337335480580634e+01 -9.740033658825417717e+01 5.591347550154415558e+01 6.770702451157899304e+01 3.680857506944942514e+01 -2.894292564692569769e+01 1.072122263192704139e+02 6.094587932793333351e+01 7.980313839800439268e+01 -6.683792843417619167e+01 2.019882780434576475e+01 1.275371510585131460e+02 -5.833779064152679439e+01 -6.899847656909429361e+00 3.189593523340773018e+01 -1.280651571407251481e+02 9.752248434418288525e+01 8.931222838837560118e+01 -1.008765166908292059e+02 -8.209619041742990930e+01 -5.536602118797176786e+01 -4.549074743965916667e+01 -1.597053844413917432e+02 -1.354532276656165095e+02 -1.320463987565387924e+02 1.053026180404269212e+02 5.959933498135052332e+01 1.589690471989332252e+02 7.181296720006143275e+00 -8.536944781044536512e+01 1.868723561722392290e+01 1.377362525057638720e+01 -6.331332989203836803e+01 7.375186998499324886e+01 1.175708131407941437e+02 9.917401320616120231e+00 1.427413274577303639e+02 2.239144515585081763e+01 1.104527396462295741e+02 1.500133770493651753e+01 -2.068326971635585778e+02 2.173605548485351449e+02 -4.870441050288141582e+01 -1.483507338902151105e+02 -6.686066078535525037e+01 -4.264457015351762692e+01 4.101688186604458508e+01 2.535340833303121499e+01 4.531449802334252297e+01 -7.332809455551701205e+01 1.211065156034032242e+02 -8.534396785732684521e+01 -6.936821397632805031e+00 1.408218073779052304e+02 1.083259598450913614e+02 5.734860615089657188e+01 -1.748846061740222808e+02 2.511664110529724070e+01 1.386030351582573132e+02 2.312056062831652881e+01 9.627688903856821412e+01 1.049474259699878189e+02 -2.084725794451217666e+02 7.580419770753448461e+01 -5.689546043655931840e+01 -2.215195276099580042e+02 8.710711154738818607e+01 2.415846428388390166e+01 -1.194766420312253672e+02 -5.725484832359537535e+01 1.355029116404685112e+02 1.438904486412327230e+02 -7.388487017535642565e+01 -1.243374433613957564e+02 -8.107751743608363881e+01 -1.610090201155952911e+02 1.898536927524890316e+01 3.678051074183267133e+01 -1.645823970584919849e+01 -1.198095916113484627e+01 -8.653453446888013900e+01 -8.527717110784981003e+01 -2.379440431455951455e+01 1.288189272423138050e+02 1.308661827567172224e+02 7.787216651653855592e+01 9.315298029284851111e+01 -7.525528353997314923e+01 -1.729293793415589562e+02 -1.262438654979900754e+01 -2.210003712357164929e+01 -6.787761646546671557e+01 1.418482896022949635e+00 6.978603758178689986e+01 -5.054459254460383733e+01 2.359818455359560474e+01 7.564499394846562552e+01 6.696822884093957384e+01 1.056008922912997718e+02 -1.424822788988554407e+02 3.785914099194270221e+01 7.958135493223396395e+01 9.051332691936435992e+01 5.640248959760374703e+01 -9.860986464904746640e+01 1.307886951180607582e+02 1.217727443792882553e+02 9.155707169414692714e+01 9.698831687067240637e+01 -8.043707893357196781e+01 -1.419362436029190100e+01 -1.236908548750008308e+01 7.358670011230121588e+01 6.206311562203747911e+01 5.350702290143473761e+01 9.319103182595553392e+01 1.112880109773434896e+02 1.183992220212184208e+02 -6.193433063671793803e+01 7.700099564409141806e+01 6.230804690667066126e+01 -1.123935200163638655e+02 1.257156141491384886e+02 -9.575829754956762585e+00 -2.668324199763832638e+01 1.904531849044815033e+02 8.458673060559799239e+01 1.186489134777763468e+02 -1.380116466967270981e+02 -1.508928332574814988e+02 -1.469767355934756949e+02 -1.168413407740055874e+02 -4.236675471279501437e+01 1.050325630719241303e+02 -1.614387839936132707e+02 3.111617171711434082e+01 1.382084316155609827e+02 -5.684462211551029753e+01 -8.749152476335905249e+01 -3.366131326021983483e+01 1.301787139867774954e+02 2.178312985994080009e+02 -6.393841083139235337e+01 1.900658918354351457e+01 -2.654018799362039616e+01 6.569209916769101198e+01 5.777788802937126178e+01 -2.045662324008344228e+02 -8.507930486786938218e+01 1.320382415092703070e+02 1.341666008910347898e+02 9.074010585642113824e+01 -4.784606595857610500e+01 -7.276289213706117209e+01 -4.357077686906173852e+01 -1.695677804272068272e+02 6.831524881745363587e+01 -2.463436463574067403e+01 1.598121582031473622e+02 -2.684438198506458662e+01 -3.022696898579561093e+02 1.391921582952068093e+02 4.826016970207321322e+01 -1.133420909417298930e+02 -2.131696710474707146e+01 3.392611502013216551e+01 -1.996239166474331910e+02 -1.098305335026655030e+02 -1.054011702596842355e+02 -5.421168252955345679e+01 6.035841535232400901e+01 -1.584971986261177790e+02 1.037369162503665194e+02 -5.223313737105296184e+01 2.815050723151827139e+00 -1.282998471182690139e+02 -9.969867148098104792e+01 1.691189826037195587e+02 8.335667507062241555e+01 -4.062203846504984739e+01 3.573117568783086995e+01 -2.697911706489946226e+01 4.166156274188899999e+01 -1.006584970919278987e+02 9.518176773726388262e+01 4.858361602455838124e+01 -1.144104151214981187e+02 1.123506797912849180e+02 -4.726080531715112443e+01 9.614633956536415837e+01 -4.754152763438274576e+01 8.505385184687081335e+01 -1.476503607435855656e+02 1.373933168440447901e+02 2.383653143289576093e+01 9.691601728719433595e+01 1.255774085009544905e+02 -1.412162354137797422e+02 -8.272230516564633263e+01 -1.017289453591294546e+02 6.439571480635343903e+01 -1.650338242416048047e+02 1.459694847298609091e+02 1.371176488497506512e+02 5.102720894372704663e+01 -8.178476808501065420e+01 5.497712985138820585e+01 -1.034136436770206160e+02 -1.052591598861399369e+01 3.369097521083401148e+01 -1.770430602271331111e+02 -7.859463712874772057e+01 -1.304207185371196154e+01 9.847547636417226613e+01 -4.839984719550148640e+01 1.048192957101882428e+02 -6.199815118246540635e+01 -2.031925689711839880e+02 -1.032415111074896004e+02 -3.280686595163523833e+01 -5.802077526873771518e+01 2.900754660100921001e+01 4.959202218592887590e+01 6.108683749759405757e+00 2.449093619494119523e+01 -1.132086601148802316e+02 5.198483262327184207e+01 3.148925403499492859e+01 -6.961749256871587477e+01 8.959537562139670896e+00 5.441724091407579778e+01 -9.207782352035000883e+01 -5.318526734155050661e+01 -2.333734703350284789e+01 9.419627485824695157e+01 -1.654091417981352663e+01 4.051518703978384650e+00 -2.202944005495885165e+02 -9.176134564273287708e+01 9.555878789276057717e+01 -8.611658757970840838e+01 3.026554617776662326e+01 2.999782455355495614e+01 3.661006651464064987e+01 6.383223115551307103e+01 -1.714291255196921497e+02 1.391031234131037309e+02 7.879006519956563181e+01 -7.285747948213204594e+00 -7.807139528134418072e+01 1.080849048753269983e+02 6.000351565278995736e+01 -1.943494207628586139e+02 -4.867556173049745638e+01 -7.896439236297592856e+01 -5.005997785888249751e+01 -5.982315901973799299e+01 -9.567779010640738591e+01 -5.833051676191933410e+01 1.851059566608883244e+02 -1.650163884603938982e+02 6.327110788326879742e+01 2.681740508482345220e+01 -7.267547352178202402e+01 1.005094403928932856e+01 -3.812016975306656263e+01 3.324715048819425256e+00 -9.294224847847797832e+01 -1.909857367760445186e+02 1.778237578555901521e+01 4.049718724968266059e+01 -1.236860914634587694e+01 -8.661181643860743407e+00 -3.845457144299842156e+01 -1.835841327195942370e+02 -2.961267712284746523e+01 -6.318360607406911811e+01 1.347227890939709738e+01 -1.509910632830986010e+01 8.759186216460655316e+01 -6.094979709920037436e+01 -1.002500112023372338e+02 -3.451224213618090886e+01 -8.679663923453739827e+00 4.393397068428350849e+01 -2.138553385252304651e+01 -7.138572286006011325e+01 -1.535852352379616903e+01 1.938047134893997026e+01 4.593600015649050761e+01 -1.102292552603647238e+02 -1.344466679025718179e+02 2.227844156324044604e+02 -2.111278118494640523e+02 -7.343379047197790044e+01 -4.479967916916714898e+01 1.352664131156283815e+02 6.120390276536216589e+01 2.214496013345244592e+02 2.367673940533336747e+02 -6.032771986224014427e+01 1.252162983799213407e+02 -5.420907679671004331e+01 -3.949191004845506825e+01 -9.733392667937262388e+01 -7.723547816163763002e+01 -6.727320599471661922e+01 -8.612599458055078117e+01 -2.358466016505728646e+02 -2.620193134273067699e+02 1.302919916112703334e+02 -2.567952963527550025e+01 5.153798821377881012e+01 1.266600708878413997e+02
