# 
#                 ----------------------------------------------------
#                 Data from a 3D direct N-body simulation. 
# 
#                 rows are i-particle; 
#                 coumns are :mass, tag, x ,y, z, vx, vy, vz, ax, ay, az
# 
#                 NTHU, Computational Physics Lab
# 
#                 ----------------------------------------------------
#                 Time = 8.699999999999859
1.000000000000000000e+00 2.000000000000000000e+00 3.000000000000000000e+00 4.000000000000000000e+00 5.000000000000000000e+00 6.000000000000000000e+00 7.000000000000000000e+00 8.000000000000000000e+00 9.000000000000000000e+00 1.000000000000000000e+01 1.100000000000000000e+01 1.200000000000000000e+01 1.300000000000000000e+01 1.400000000000000000e+01 1.500000000000000000e+01 1.600000000000000000e+01 1.700000000000000000e+01 1.800000000000000000e+01 1.900000000000000000e+01 2.000000000000000000e+01 2.100000000000000000e+01 2.200000000000000000e+01 2.300000000000000000e+01 2.400000000000000000e+01 2.500000000000000000e+01 2.600000000000000000e+01 2.700000000000000000e+01 2.800000000000000000e+01 2.900000000000000000e+01 3.000000000000000000e+01 3.100000000000000000e+01 3.200000000000000000e+01 3.300000000000000000e+01 3.400000000000000000e+01 3.500000000000000000e+01 3.600000000000000000e+01 3.700000000000000000e+01 3.800000000000000000e+01 3.900000000000000000e+01 4.000000000000000000e+01 4.100000000000000000e+01 4.200000000000000000e+01 4.300000000000000000e+01 4.400000000000000000e+01 4.500000000000000000e+01 4.600000000000000000e+01 4.700000000000000000e+01 4.800000000000000000e+01 4.900000000000000000e+01 5.000000000000000000e+01 5.100000000000000000e+01 5.200000000000000000e+01 5.300000000000000000e+01 5.400000000000000000e+01 5.500000000000000000e+01 5.600000000000000000e+01 5.700000000000000000e+01 5.800000000000000000e+01 5.900000000000000000e+01 6.000000000000000000e+01 6.100000000000000000e+01 6.200000000000000000e+01 6.300000000000000000e+01 6.400000000000000000e+01 6.500000000000000000e+01 6.600000000000000000e+01 6.700000000000000000e+01 6.800000000000000000e+01 6.900000000000000000e+01 7.000000000000000000e+01 7.100000000000000000e+01 7.200000000000000000e+01 7.300000000000000000e+01 7.400000000000000000e+01 7.500000000000000000e+01 7.600000000000000000e+01 7.700000000000000000e+01 7.800000000000000000e+01 7.900000000000000000e+01 8.000000000000000000e+01 8.100000000000000000e+01 8.200000000000000000e+01 8.300000000000000000e+01 8.400000000000000000e+01 8.500000000000000000e+01 8.600000000000000000e+01 8.700000000000000000e+01 8.800000000000000000e+01 8.900000000000000000e+01 9.000000000000000000e+01 9.100000000000000000e+01 9.200000000000000000e+01 9.300000000000000000e+01 9.400000000000000000e+01 9.500000000000000000e+01 9.600000000000000000e+01 9.700000000000000000e+01 9.800000000000000000e+01 9.900000000000000000e+01 1.000000000000000000e+02 1.010000000000000000e+02 1.020000000000000000e+02 1.030000000000000000e+02 1.040000000000000000e+02 1.050000000000000000e+02 1.060000000000000000e+02 1.070000000000000000e+02 1.080000000000000000e+02 1.090000000000000000e+02 1.100000000000000000e+02 1.110000000000000000e+02 1.120000000000000000e+02 1.130000000000000000e+02 1.140000000000000000e+02 1.150000000000000000e+02 1.160000000000000000e+02 1.170000000000000000e+02 1.180000000000000000e+02 1.190000000000000000e+02 1.200000000000000000e+02 1.210000000000000000e+02 1.220000000000000000e+02 1.230000000000000000e+02 1.240000000000000000e+02 1.250000000000000000e+02 1.260000000000000000e+02 1.270000000000000000e+02 1.280000000000000000e+02 1.290000000000000000e+02 1.300000000000000000e+02 1.310000000000000000e+02 1.320000000000000000e+02 1.330000000000000000e+02 1.340000000000000000e+02 1.350000000000000000e+02 1.360000000000000000e+02 1.370000000000000000e+02 1.380000000000000000e+02 1.390000000000000000e+02 1.400000000000000000e+02 1.410000000000000000e+02 1.420000000000000000e+02 1.430000000000000000e+02 1.440000000000000000e+02 1.450000000000000000e+02 1.460000000000000000e+02 1.470000000000000000e+02 1.480000000000000000e+02 1.490000000000000000e+02 1.500000000000000000e+02 1.510000000000000000e+02 1.520000000000000000e+02 1.530000000000000000e+02 1.540000000000000000e+02 1.550000000000000000e+02 1.560000000000000000e+02 1.570000000000000000e+02 1.580000000000000000e+02 1.590000000000000000e+02 1.600000000000000000e+02 1.610000000000000000e+02 1.620000000000000000e+02 1.630000000000000000e+02 1.640000000000000000e+02 1.650000000000000000e+02 1.660000000000000000e+02 1.670000000000000000e+02 1.680000000000000000e+02 1.690000000000000000e+02 1.700000000000000000e+02 1.710000000000000000e+02 1.720000000000000000e+02 1.730000000000000000e+02 1.740000000000000000e+02 1.750000000000000000e+02 1.760000000000000000e+02 1.770000000000000000e+02 1.780000000000000000e+02 1.790000000000000000e+02 1.800000000000000000e+02 1.810000000000000000e+02 1.820000000000000000e+02 1.830000000000000000e+02 1.840000000000000000e+02 1.850000000000000000e+02 1.860000000000000000e+02 1.870000000000000000e+02 1.880000000000000000e+02 1.890000000000000000e+02 1.900000000000000000e+02 1.910000000000000000e+02 1.920000000000000000e+02 1.930000000000000000e+02 1.940000000000000000e+02 1.950000000000000000e+02 1.960000000000000000e+02 1.970000000000000000e+02 1.980000000000000000e+02 1.990000000000000000e+02 2.000000000000000000e+02 2.010000000000000000e+02 2.020000000000000000e+02 2.030000000000000000e+02 2.040000000000000000e+02 2.050000000000000000e+02 2.060000000000000000e+02 2.070000000000000000e+02 2.080000000000000000e+02 2.090000000000000000e+02 2.100000000000000000e+02 2.110000000000000000e+02 2.120000000000000000e+02 2.130000000000000000e+02 2.140000000000000000e+02 2.150000000000000000e+02 2.160000000000000000e+02 2.170000000000000000e+02 2.180000000000000000e+02 2.190000000000000000e+02 2.200000000000000000e+02 2.210000000000000000e+02 2.220000000000000000e+02 2.230000000000000000e+02 2.240000000000000000e+02 2.250000000000000000e+02 2.260000000000000000e+02 2.270000000000000000e+02 2.280000000000000000e+02 2.290000000000000000e+02 2.300000000000000000e+02 2.310000000000000000e+02 2.320000000000000000e+02 2.330000000000000000e+02 2.340000000000000000e+02 2.350000000000000000e+02 2.360000000000000000e+02 2.370000000000000000e+02 2.380000000000000000e+02 2.390000000000000000e+02 2.400000000000000000e+02 2.410000000000000000e+02 2.420000000000000000e+02 2.430000000000000000e+02 2.440000000000000000e+02 2.450000000000000000e+02 2.460000000000000000e+02 2.470000000000000000e+02 2.480000000000000000e+02 2.490000000000000000e+02 2.500000000000000000e+02 2.510000000000000000e+02 2.520000000000000000e+02 2.530000000000000000e+02 2.540000000000000000e+02 2.550000000000000000e+02 2.560000000000000000e+02 2.570000000000000000e+02 2.580000000000000000e+02 2.590000000000000000e+02 2.600000000000000000e+02 2.610000000000000000e+02 2.620000000000000000e+02 2.630000000000000000e+02 2.640000000000000000e+02 2.650000000000000000e+02 2.660000000000000000e+02 2.670000000000000000e+02 2.680000000000000000e+02 2.690000000000000000e+02 2.700000000000000000e+02 2.710000000000000000e+02 2.720000000000000000e+02 2.730000000000000000e+02 2.740000000000000000e+02 2.750000000000000000e+02 2.760000000000000000e+02 2.770000000000000000e+02 2.780000000000000000e+02 2.790000000000000000e+02 2.800000000000000000e+02 2.810000000000000000e+02 2.820000000000000000e+02 2.830000000000000000e+02 2.840000000000000000e+02 2.850000000000000000e+02 2.860000000000000000e+02 2.870000000000000000e+02 2.880000000000000000e+02 2.890000000000000000e+02 2.900000000000000000e+02 2.910000000000000000e+02 2.920000000000000000e+02 2.930000000000000000e+02 2.940000000000000000e+02 2.950000000000000000e+02 2.960000000000000000e+02 2.970000000000000000e+02 2.980000000000000000e+02 2.990000000000000000e+02 3.000000000000000000e+02 3.010000000000000000e+02 3.020000000000000000e+02 3.030000000000000000e+02 3.040000000000000000e+02 3.050000000000000000e+02 3.060000000000000000e+02 3.070000000000000000e+02 3.080000000000000000e+02 3.090000000000000000e+02 3.100000000000000000e+02 3.110000000000000000e+02 3.120000000000000000e+02 3.130000000000000000e+02 3.140000000000000000e+02 3.150000000000000000e+02 3.160000000000000000e+02 3.170000000000000000e+02 3.180000000000000000e+02 3.190000000000000000e+02 3.200000000000000000e+02 3.210000000000000000e+02 3.220000000000000000e+02 3.230000000000000000e+02 3.240000000000000000e+02 3.250000000000000000e+02 3.260000000000000000e+02 3.270000000000000000e+02 3.280000000000000000e+02 3.290000000000000000e+02 3.300000000000000000e+02 3.310000000000000000e+02 3.320000000000000000e+02 3.330000000000000000e+02 3.340000000000000000e+02 3.350000000000000000e+02 3.360000000000000000e+02 3.370000000000000000e+02 3.380000000000000000e+02 3.390000000000000000e+02 3.400000000000000000e+02 3.410000000000000000e+02 3.420000000000000000e+02 3.430000000000000000e+02 3.440000000000000000e+02 3.450000000000000000e+02 3.460000000000000000e+02 3.470000000000000000e+02 3.480000000000000000e+02 3.490000000000000000e+02 3.500000000000000000e+02 3.510000000000000000e+02 3.520000000000000000e+02 3.530000000000000000e+02 3.540000000000000000e+02 3.550000000000000000e+02 3.560000000000000000e+02 3.570000000000000000e+02 3.580000000000000000e+02 3.590000000000000000e+02 3.600000000000000000e+02 3.610000000000000000e+02 3.620000000000000000e+02 3.630000000000000000e+02 3.640000000000000000e+02 3.650000000000000000e+02 3.660000000000000000e+02 3.670000000000000000e+02 3.680000000000000000e+02 3.690000000000000000e+02 3.700000000000000000e+02 3.710000000000000000e+02 3.720000000000000000e+02 3.730000000000000000e+02 3.740000000000000000e+02 3.750000000000000000e+02 3.760000000000000000e+02 3.770000000000000000e+02 3.780000000000000000e+02 3.790000000000000000e+02 3.800000000000000000e+02 3.810000000000000000e+02 3.820000000000000000e+02 3.830000000000000000e+02 3.840000000000000000e+02 3.850000000000000000e+02 3.860000000000000000e+02 3.870000000000000000e+02 3.880000000000000000e+02 3.890000000000000000e+02 3.900000000000000000e+02 3.910000000000000000e+02 3.920000000000000000e+02 3.930000000000000000e+02 3.940000000000000000e+02 3.950000000000000000e+02 3.960000000000000000e+02 3.970000000000000000e+02 3.980000000000000000e+02 3.990000000000000000e+02 4.000000000000000000e+02 4.010000000000000000e+02 4.020000000000000000e+02 4.030000000000000000e+02 4.040000000000000000e+02 4.050000000000000000e+02 4.060000000000000000e+02 4.070000000000000000e+02 4.080000000000000000e+02 4.090000000000000000e+02 4.100000000000000000e+02 4.110000000000000000e+02 4.120000000000000000e+02 4.130000000000000000e+02 4.140000000000000000e+02 4.150000000000000000e+02 4.160000000000000000e+02 4.170000000000000000e+02 4.180000000000000000e+02 4.190000000000000000e+02 4.200000000000000000e+02 4.210000000000000000e+02 4.220000000000000000e+02 4.230000000000000000e+02 4.240000000000000000e+02 4.250000000000000000e+02 4.260000000000000000e+02 4.270000000000000000e+02 4.280000000000000000e+02 4.290000000000000000e+02 4.300000000000000000e+02 4.310000000000000000e+02 4.320000000000000000e+02 4.330000000000000000e+02 4.340000000000000000e+02 4.350000000000000000e+02 4.360000000000000000e+02 4.370000000000000000e+02 4.380000000000000000e+02 4.390000000000000000e+02 4.400000000000000000e+02 4.410000000000000000e+02 4.420000000000000000e+02 4.430000000000000000e+02 4.440000000000000000e+02 4.450000000000000000e+02 4.460000000000000000e+02 4.470000000000000000e+02 4.480000000000000000e+02 4.490000000000000000e+02 4.500000000000000000e+02 4.510000000000000000e+02 4.520000000000000000e+02 4.530000000000000000e+02 4.540000000000000000e+02 4.550000000000000000e+02 4.560000000000000000e+02 4.570000000000000000e+02 4.580000000000000000e+02 4.590000000000000000e+02 4.600000000000000000e+02 4.610000000000000000e+02 4.620000000000000000e+02 4.630000000000000000e+02 4.640000000000000000e+02 4.650000000000000000e+02 4.660000000000000000e+02 4.670000000000000000e+02 4.680000000000000000e+02 4.690000000000000000e+02 4.700000000000000000e+02 4.710000000000000000e+02 4.720000000000000000e+02 4.730000000000000000e+02 4.740000000000000000e+02 4.750000000000000000e+02 4.760000000000000000e+02 4.770000000000000000e+02 4.780000000000000000e+02 4.790000000000000000e+02 4.800000000000000000e+02 4.810000000000000000e+02 4.820000000000000000e+02 4.830000000000000000e+02 4.840000000000000000e+02 4.850000000000000000e+02 4.860000000000000000e+02 4.870000000000000000e+02 4.880000000000000000e+02 4.890000000000000000e+02 4.900000000000000000e+02 4.910000000000000000e+02 4.920000000000000000e+02 4.930000000000000000e+02 4.940000000000000000e+02 4.950000000000000000e+02 4.960000000000000000e+02 4.970000000000000000e+02 4.980000000000000000e+02 4.990000000000000000e+02 5.000000000000000000e+02 5.010000000000000000e+02 5.020000000000000000e+02 5.030000000000000000e+02 5.040000000000000000e+02 5.050000000000000000e+02 5.060000000000000000e+02 5.070000000000000000e+02 5.080000000000000000e+02 5.090000000000000000e+02 5.100000000000000000e+02 5.110000000000000000e+02 5.120000000000000000e+02 5.130000000000000000e+02 5.140000000000000000e+02 5.150000000000000000e+02 5.160000000000000000e+02 5.170000000000000000e+02 5.180000000000000000e+02 5.190000000000000000e+02 5.200000000000000000e+02 5.210000000000000000e+02 5.220000000000000000e+02 5.230000000000000000e+02 5.240000000000000000e+02 5.250000000000000000e+02 5.260000000000000000e+02 5.270000000000000000e+02 5.280000000000000000e+02 5.290000000000000000e+02 5.300000000000000000e+02 5.310000000000000000e+02 5.320000000000000000e+02 5.330000000000000000e+02 5.340000000000000000e+02 5.350000000000000000e+02 5.360000000000000000e+02 5.370000000000000000e+02 5.380000000000000000e+02 5.390000000000000000e+02 5.400000000000000000e+02 5.410000000000000000e+02 5.420000000000000000e+02 5.430000000000000000e+02 5.440000000000000000e+02 5.450000000000000000e+02 5.460000000000000000e+02 5.470000000000000000e+02 5.480000000000000000e+02 5.490000000000000000e+02 5.500000000000000000e+02 5.510000000000000000e+02 5.520000000000000000e+02 5.530000000000000000e+02 5.540000000000000000e+02 5.550000000000000000e+02 5.560000000000000000e+02 5.570000000000000000e+02 5.580000000000000000e+02 5.590000000000000000e+02 5.600000000000000000e+02 5.610000000000000000e+02 5.620000000000000000e+02 5.630000000000000000e+02 5.640000000000000000e+02 5.650000000000000000e+02 5.660000000000000000e+02 5.670000000000000000e+02 5.680000000000000000e+02 5.690000000000000000e+02 5.700000000000000000e+02 5.710000000000000000e+02 5.720000000000000000e+02 5.730000000000000000e+02 5.740000000000000000e+02 5.750000000000000000e+02 5.760000000000000000e+02 5.770000000000000000e+02 5.780000000000000000e+02 5.790000000000000000e+02 5.800000000000000000e+02 5.810000000000000000e+02 5.820000000000000000e+02 5.830000000000000000e+02 5.840000000000000000e+02 5.850000000000000000e+02 5.860000000000000000e+02 5.870000000000000000e+02 5.880000000000000000e+02 5.890000000000000000e+02 5.900000000000000000e+02 5.910000000000000000e+02 5.920000000000000000e+02 5.930000000000000000e+02 5.940000000000000000e+02 5.950000000000000000e+02 5.960000000000000000e+02 5.970000000000000000e+02 5.980000000000000000e+02 5.990000000000000000e+02 6.000000000000000000e+02 6.010000000000000000e+02 6.020000000000000000e+02 6.030000000000000000e+02 6.040000000000000000e+02 6.050000000000000000e+02 6.060000000000000000e+02 6.070000000000000000e+02 6.080000000000000000e+02 6.090000000000000000e+02 6.100000000000000000e+02 6.110000000000000000e+02 6.120000000000000000e+02 6.130000000000000000e+02 6.140000000000000000e+02 6.150000000000000000e+02 6.160000000000000000e+02 6.170000000000000000e+02 6.180000000000000000e+02 6.190000000000000000e+02 6.200000000000000000e+02 6.210000000000000000e+02 6.220000000000000000e+02 6.230000000000000000e+02 6.240000000000000000e+02 6.250000000000000000e+02 6.260000000000000000e+02 6.270000000000000000e+02 6.280000000000000000e+02 6.290000000000000000e+02 6.300000000000000000e+02 6.310000000000000000e+02 6.320000000000000000e+02 6.330000000000000000e+02 6.340000000000000000e+02 6.350000000000000000e+02 6.360000000000000000e+02 6.370000000000000000e+02 6.380000000000000000e+02 6.390000000000000000e+02 6.400000000000000000e+02 6.410000000000000000e+02 6.420000000000000000e+02 6.430000000000000000e+02 6.440000000000000000e+02 6.450000000000000000e+02 6.460000000000000000e+02 6.470000000000000000e+02 6.480000000000000000e+02 6.490000000000000000e+02 6.500000000000000000e+02 6.510000000000000000e+02 6.520000000000000000e+02 6.530000000000000000e+02 6.540000000000000000e+02 6.550000000000000000e+02 6.560000000000000000e+02 6.570000000000000000e+02 6.580000000000000000e+02 6.590000000000000000e+02 6.600000000000000000e+02 6.610000000000000000e+02 6.620000000000000000e+02 6.630000000000000000e+02 6.640000000000000000e+02 6.650000000000000000e+02 6.660000000000000000e+02 6.670000000000000000e+02 6.680000000000000000e+02 6.690000000000000000e+02 6.700000000000000000e+02 6.710000000000000000e+02 6.720000000000000000e+02 6.730000000000000000e+02 6.740000000000000000e+02 6.750000000000000000e+02 6.760000000000000000e+02 6.770000000000000000e+02 6.780000000000000000e+02 6.790000000000000000e+02 6.800000000000000000e+02 6.810000000000000000e+02 6.820000000000000000e+02 6.830000000000000000e+02 6.840000000000000000e+02 6.850000000000000000e+02 6.860000000000000000e+02 6.870000000000000000e+02 6.880000000000000000e+02 6.890000000000000000e+02 6.900000000000000000e+02 6.910000000000000000e+02 6.920000000000000000e+02 6.930000000000000000e+02 6.940000000000000000e+02 6.950000000000000000e+02 6.960000000000000000e+02 6.970000000000000000e+02 6.980000000000000000e+02 6.990000000000000000e+02 7.000000000000000000e+02 7.010000000000000000e+02 7.020000000000000000e+02 7.030000000000000000e+02 7.040000000000000000e+02 7.050000000000000000e+02 7.060000000000000000e+02 7.070000000000000000e+02 7.080000000000000000e+02 7.090000000000000000e+02 7.100000000000000000e+02 7.110000000000000000e+02 7.120000000000000000e+02 7.130000000000000000e+02 7.140000000000000000e+02 7.150000000000000000e+02 7.160000000000000000e+02 7.170000000000000000e+02 7.180000000000000000e+02 7.190000000000000000e+02 7.200000000000000000e+02 7.210000000000000000e+02 7.220000000000000000e+02 7.230000000000000000e+02 7.240000000000000000e+02 7.250000000000000000e+02 7.260000000000000000e+02 7.270000000000000000e+02 7.280000000000000000e+02 7.290000000000000000e+02 7.300000000000000000e+02 7.310000000000000000e+02 7.320000000000000000e+02 7.330000000000000000e+02 7.340000000000000000e+02 7.350000000000000000e+02 7.360000000000000000e+02 7.370000000000000000e+02 7.380000000000000000e+02 7.390000000000000000e+02 7.400000000000000000e+02 7.410000000000000000e+02 7.420000000000000000e+02 7.430000000000000000e+02 7.440000000000000000e+02 7.450000000000000000e+02 7.460000000000000000e+02 7.470000000000000000e+02 7.480000000000000000e+02 7.490000000000000000e+02 7.500000000000000000e+02 7.510000000000000000e+02 7.520000000000000000e+02 7.530000000000000000e+02 7.540000000000000000e+02 7.550000000000000000e+02 7.560000000000000000e+02 7.570000000000000000e+02 7.580000000000000000e+02 7.590000000000000000e+02 7.600000000000000000e+02 7.610000000000000000e+02 7.620000000000000000e+02 7.630000000000000000e+02 7.640000000000000000e+02 7.650000000000000000e+02 7.660000000000000000e+02 7.670000000000000000e+02 7.680000000000000000e+02 7.690000000000000000e+02 7.700000000000000000e+02 7.710000000000000000e+02 7.720000000000000000e+02 7.730000000000000000e+02 7.740000000000000000e+02 7.750000000000000000e+02 7.760000000000000000e+02 7.770000000000000000e+02 7.780000000000000000e+02 7.790000000000000000e+02 7.800000000000000000e+02 7.810000000000000000e+02 7.820000000000000000e+02 7.830000000000000000e+02 7.840000000000000000e+02 7.850000000000000000e+02 7.860000000000000000e+02 7.870000000000000000e+02 7.880000000000000000e+02 7.890000000000000000e+02 7.900000000000000000e+02 7.910000000000000000e+02 7.920000000000000000e+02 7.930000000000000000e+02 7.940000000000000000e+02 7.950000000000000000e+02 7.960000000000000000e+02 7.970000000000000000e+02 7.980000000000000000e+02 7.990000000000000000e+02 8.000000000000000000e+02 8.010000000000000000e+02 8.020000000000000000e+02 8.030000000000000000e+02 8.040000000000000000e+02 8.050000000000000000e+02 8.060000000000000000e+02 8.070000000000000000e+02 8.080000000000000000e+02 8.090000000000000000e+02 8.100000000000000000e+02 8.110000000000000000e+02 8.120000000000000000e+02 8.130000000000000000e+02 8.140000000000000000e+02 8.150000000000000000e+02 8.160000000000000000e+02 8.170000000000000000e+02 8.180000000000000000e+02 8.190000000000000000e+02 8.200000000000000000e+02 8.210000000000000000e+02 8.220000000000000000e+02 8.230000000000000000e+02 8.240000000000000000e+02 8.250000000000000000e+02 8.260000000000000000e+02 8.270000000000000000e+02 8.280000000000000000e+02 8.290000000000000000e+02 8.300000000000000000e+02 8.310000000000000000e+02 8.320000000000000000e+02 8.330000000000000000e+02 8.340000000000000000e+02 8.350000000000000000e+02 8.360000000000000000e+02 8.370000000000000000e+02 8.380000000000000000e+02 8.390000000000000000e+02 8.400000000000000000e+02 8.410000000000000000e+02 8.420000000000000000e+02 8.430000000000000000e+02 8.440000000000000000e+02 8.450000000000000000e+02 8.460000000000000000e+02 8.470000000000000000e+02 8.480000000000000000e+02 8.490000000000000000e+02 8.500000000000000000e+02 8.510000000000000000e+02 8.520000000000000000e+02 8.530000000000000000e+02 8.540000000000000000e+02 8.550000000000000000e+02 8.560000000000000000e+02 8.570000000000000000e+02 8.580000000000000000e+02 8.590000000000000000e+02 8.600000000000000000e+02 8.610000000000000000e+02 8.620000000000000000e+02 8.630000000000000000e+02 8.640000000000000000e+02 8.650000000000000000e+02 8.660000000000000000e+02 8.670000000000000000e+02 8.680000000000000000e+02 8.690000000000000000e+02 8.700000000000000000e+02 8.710000000000000000e+02 8.720000000000000000e+02 8.730000000000000000e+02 8.740000000000000000e+02 8.750000000000000000e+02 8.760000000000000000e+02 8.770000000000000000e+02 8.780000000000000000e+02 8.790000000000000000e+02 8.800000000000000000e+02 8.810000000000000000e+02 8.820000000000000000e+02 8.830000000000000000e+02 8.840000000000000000e+02 8.850000000000000000e+02 8.860000000000000000e+02 8.870000000000000000e+02 8.880000000000000000e+02 8.890000000000000000e+02 8.900000000000000000e+02 8.910000000000000000e+02 8.920000000000000000e+02 8.930000000000000000e+02 8.940000000000000000e+02 8.950000000000000000e+02 8.960000000000000000e+02 8.970000000000000000e+02 8.980000000000000000e+02 8.990000000000000000e+02 9.000000000000000000e+02 9.010000000000000000e+02 9.020000000000000000e+02 9.030000000000000000e+02 9.040000000000000000e+02 9.050000000000000000e+02 9.060000000000000000e+02 9.070000000000000000e+02 9.080000000000000000e+02 9.090000000000000000e+02 9.100000000000000000e+02 9.110000000000000000e+02 9.120000000000000000e+02 9.130000000000000000e+02 9.140000000000000000e+02 9.150000000000000000e+02 9.160000000000000000e+02 9.170000000000000000e+02 9.180000000000000000e+02 9.190000000000000000e+02 9.200000000000000000e+02 9.210000000000000000e+02 9.220000000000000000e+02 9.230000000000000000e+02 9.240000000000000000e+02 9.250000000000000000e+02 9.260000000000000000e+02 9.270000000000000000e+02 9.280000000000000000e+02 9.290000000000000000e+02 9.300000000000000000e+02 9.310000000000000000e+02 9.320000000000000000e+02 9.330000000000000000e+02 9.340000000000000000e+02 9.350000000000000000e+02 9.360000000000000000e+02 9.370000000000000000e+02 9.380000000000000000e+02 9.390000000000000000e+02 9.400000000000000000e+02 9.410000000000000000e+02 9.420000000000000000e+02 9.430000000000000000e+02 9.440000000000000000e+02 9.450000000000000000e+02 9.460000000000000000e+02 9.470000000000000000e+02 9.480000000000000000e+02 9.490000000000000000e+02 9.500000000000000000e+02 9.510000000000000000e+02 9.520000000000000000e+02 9.530000000000000000e+02 9.540000000000000000e+02 9.550000000000000000e+02 9.560000000000000000e+02 9.570000000000000000e+02 9.580000000000000000e+02 9.590000000000000000e+02 9.600000000000000000e+02 9.610000000000000000e+02 9.620000000000000000e+02 9.630000000000000000e+02 9.640000000000000000e+02 9.650000000000000000e+02 9.660000000000000000e+02 9.670000000000000000e+02 9.680000000000000000e+02 9.690000000000000000e+02 9.700000000000000000e+02 9.710000000000000000e+02 9.720000000000000000e+02 9.730000000000000000e+02 9.740000000000000000e+02 9.750000000000000000e+02 9.760000000000000000e+02 9.770000000000000000e+02 9.780000000000000000e+02 9.790000000000000000e+02 9.800000000000000000e+02 9.810000000000000000e+02 9.820000000000000000e+02 9.830000000000000000e+02 9.840000000000000000e+02 9.850000000000000000e+02 9.860000000000000000e+02 9.870000000000000000e+02 9.880000000000000000e+02 9.890000000000000000e+02 9.900000000000000000e+02 9.910000000000000000e+02 9.920000000000000000e+02 9.930000000000000000e+02 9.940000000000000000e+02 9.950000000000000000e+02 9.960000000000000000e+02 9.970000000000000000e+02 9.980000000000000000e+02 9.990000000000000000e+02 1.000000000000000000e+03
1.000000000000000021e-02 1.000000000000000021e-02 1.000000000000000021e-02 1.000000000000000021e-02 1.000000000000000021e-02 1.000000000000000021e-02 1.000000000000000021e-02 1.000000000000000021e-02 1.000000000000000021e-02 1.000000000000000021e-02 1.000000000000000021e-02 1.000000000000000021e-02 1.000000000000000021e-02 1.000000000000000021e-02 1.000000000000000021e-02 1.000000000000000021e-02 1.000000000000000021e-02 1.000000000000000021e-02 1.000000000000000021e-02 1.000000000000000021e-02 1.000000000000000021e-02 1.000000000000000021e-02 1.000000000000000021e-02 1.000000000000000021e-02 1.000000000000000021e-02 1.000000000000000021e-02 1.000000000000000021e-02 1.000000000000000021e-02 1.000000000000000021e-02 1.000000000000000021e-02 1.000000000000000021e-02 1.000000000000000021e-02 1.000000000000000021e-02 1.000000000000000021e-02 1.000000000000000021e-02 1.000000000000000021e-02 1.000000000000000021e-02 1.000000000000000021e-02 1.000000000000000021e-02 1.000000000000000021e-02 1.000000000000000021e-02 1.000000000000000021e-02 1.000000000000000021e-02 1.000000000000000021e-02 1.000000000000000021e-02 1.000000000000000021e-02 1.000000000000000021e-02 1.000000000000000021e-02 1.000000000000000021e-02 1.000000000000000021e-02 1.000000000000000021e-02 1.000000000000000021e-02 1.000000000000000021e-02 1.000000000000000021e-02 1.000000000000000021e-02 1.000000000000000021e-02 1.000000000000000021e-02 1.000000000000000021e-02 1.000000000000000021e-02 1.000000000000000021e-02 1.000000000000000021e-02 1.000000000000000021e-02 1.000000000000000021e-02 1.000000000000000021e-02 1.000000000000000021e-02 1.000000000000000021e-02 1.000000000000000021e-02 1.000000000000000021e-02 1.000000000000000021e-02 1.000000000000000021e-02 1.000000000000000021e-02 1.000000000000000021e-02 1.000000000000000021e-02 1.000000000000000021e-02 1.000000000000000021e-02 1.000000000000000021e-02 1.000000000000000021e-02 1.000000000000000021e-02 1.000000000000000021e-02 1.000000000000000021e-02 1.000000000000000021e-02 1.000000000000000021e-02 1.000000000000000021e-02 1.000000000000000021e-02 1.000000000000000021e-02 1.000000000000000021e-02 1.000000000000000021e-02 1.000000000000000021e-02 1.000000000000000021e-02 1.000000000000000021e-02 1.000000000000000021e-02 1.000000000000000021e-02 1.000000000000000021e-02 1.000000000000000021e-02 1.000000000000000021e-02 1.000000000000000021e-02 1.000000000000000021e-02 1.000000000000000021e-02 1.000000000000000021e-02 1.000000000000000021e-02 1.000000000000000021e-02 1.000000000000000021e-02 1.000000000000000021e-02 1.000000000000000021e-02 1.000000000000000021e-02 1.000000000000000021e-02 1.000000000000000021e-02 1.000000000000000021e-02 1.000000000000000021e-02 1.000000000000000021e-02 1.000000000000000021e-02 1.000000000000000021e-02 1.000000000000000021e-02 1.000000000000000021e-02 1.000000000000000021e-02 1.000000000000000021e-02 1.000000000000000021e-02 1.000000000000000021e-02 1.000000000000000021e-02 1.000000000000000021e-02 1.000000000000000021e-02 1.000000000000000021e-02 1.000000000000000021e-02 1.000000000000000021e-02 1.000000000000000021e-02 1.000000000000000021e-02 1.000000000000000021e-02 1.000000000000000021e-02 1.000000000000000021e-02 1.000000000000000021e-02 1.000000000000000021e-02 1.000000000000000021e-02 1.000000000000000021e-02 1.000000000000000021e-02 1.000000000000000021e-02 1.000000000000000021e-02 1.000000000000000021e-02 1.000000000000000021e-02 1.000000000000000021e-02 1.000000000000000021e-02 1.000000000000000021e-02 1.000000000000000021e-02 1.000000000000000021e-02 1.000000000000000021e-02 1.000000000000000021e-02 1.000000000000000021e-02 1.000000000000000021e-02 1.000000000000000021e-02 1.000000000000000021e-02 1.000000000000000021e-02 1.000000000000000021e-02 1.000000000000000021e-02 1.000000000000000021e-02 1.000000000000000021e-02 1.000000000000000021e-02 1.000000000000000021e-02 1.000000000000000021e-02 1.000000000000000021e-02 1.000000000000000021e-02 1.000000000000000021e-02 1.000000000000000021e-02 1.000000000000000021e-02 1.000000000000000021e-02 1.000000000000000021e-02 1.000000000000000021e-02 1.000000000000000021e-02 1.000000000000000021e-02 1.000000000000000021e-02 1.000000000000000021e-02 1.000000000000000021e-02 1.000000000000000021e-02 1.000000000000000021e-02 1.000000000000000021e-02 1.000000000000000021e-02 1.000000000000000021e-02 1.000000000000000021e-02 1.000000000000000021e-02 1.000000000000000021e-02 1.000000000000000021e-02 1.000000000000000021e-02 1.000000000000000021e-02 1.000000000000000021e-02 1.000000000000000021e-02 1.000000000000000021e-02 1.000000000000000021e-02 1.000000000000000021e-02 1.000000000000000021e-02 1.000000000000000021e-02 1.000000000000000021e-02 1.000000000000000021e-02 1.000000000000000021e-02 1.000000000000000021e-02 1.000000000000000021e-02 1.000000000000000021e-02 1.000000000000000021e-02 1.000000000000000021e-02 1.000000000000000021e-02 1.000000000000000021e-02 1.000000000000000021e-02 1.000000000000000021e-02 1.000000000000000021e-02 1.000000000000000021e-02 1.000000000000000021e-02 1.000000000000000021e-02 1.000000000000000021e-02 1.000000000000000021e-02 1.000000000000000021e-02 1.000000000000000021e-02 1.000000000000000021e-02 1.000000000000000021e-02 1.000000000000000021e-02 1.000000000000000021e-02 1.000000000000000021e-02 1.000000000000000021e-02 1.000000000000000021e-02 1.000000000000000021e-02 1.000000000000000021e-02 1.000000000000000021e-02 1.000000000000000021e-02 1.000000000000000021e-02 1.000000000000000021e-02 1.000000000000000021e-02 1.000000000000000021e-02 1.000000000000000021e-02 1.000000000000000021e-02 1.000000000000000021e-02 1.000000000000000021e-02 1.000000000000000021e-02 1.000000000000000021e-02 1.000000000000000021e-02 1.000000000000000021e-02 1.000000000000000021e-02 1.000000000000000021e-02 1.000000000000000021e-02 1.000000000000000021e-02 1.000000000000000021e-02 1.000000000000000021e-02 1.000000000000000021e-02 1.000000000000000021e-02 1.000000000000000021e-02 1.000000000000000021e-02 1.000000000000000021e-02 1.000000000000000021e-02 1.000000000000000021e-02 1.000000000000000021e-02 1.000000000000000021e-02 1.000000000000000021e-02 1.000000000000000021e-02 1.000000000000000021e-02 1.000000000000000021e-02 1.000000000000000021e-02 1.000000000000000021e-02 1.000000000000000021e-02 1.000000000000000021e-02 1.000000000000000021e-02 1.000000000000000021e-02 1.000000000000000021e-02 1.000000000000000021e-02 1.000000000000000021e-02 1.000000000000000021e-02 1.000000000000000021e-02 1.000000000000000021e-02 1.000000000000000021e-02 1.000000000000000021e-02 1.000000000000000021e-02 1.000000000000000021e-02 1.000000000000000021e-02 1.000000000000000021e-02 1.000000000000000021e-02 1.000000000000000021e-02 1.000000000000000021e-02 1.000000000000000021e-02 1.000000000000000021e-02 1.000000000000000021e-02 1.000000000000000021e-02 1.000000000000000021e-02 1.000000000000000021e-02 1.000000000000000021e-02 1.000000000000000021e-02 1.000000000000000021e-02 1.000000000000000021e-02 1.000000000000000021e-02 1.000000000000000021e-02 1.000000000000000021e-02 1.000000000000000021e-02 1.000000000000000021e-02 1.000000000000000021e-02 1.000000000000000021e-02 1.000000000000000021e-02 1.000000000000000021e-02 1.000000000000000021e-02 1.000000000000000021e-02 1.000000000000000021e-02 1.000000000000000021e-02 1.000000000000000021e-02 1.000000000000000021e-02 1.000000000000000021e-02 1.000000000000000021e-02 1.000000000000000021e-02 1.000000000000000021e-02 1.000000000000000021e-02 1.000000000000000021e-02 1.000000000000000021e-02 1.000000000000000021e-02 1.000000000000000021e-02 1.000000000000000021e-02 1.000000000000000021e-02 1.000000000000000021e-02 1.000000000000000021e-02 1.000000000000000021e-02 1.000000000000000021e-02 1.000000000000000021e-02 1.000000000000000021e-02 1.000000000000000021e-02 1.000000000000000021e-02 1.000000000000000021e-02 1.000000000000000021e-02 1.000000000000000021e-02 1.000000000000000021e-02 1.000000000000000021e-02 1.000000000000000021e-02 1.000000000000000021e-02 1.000000000000000021e-02 1.000000000000000021e-02 1.000000000000000021e-02 1.000000000000000021e-02 1.000000000000000021e-02 1.000000000000000021e-02 1.000000000000000021e-02 1.000000000000000021e-02 1.000000000000000021e-02 1.000000000000000021e-02 1.000000000000000021e-02 1.000000000000000021e-02 1.000000000000000021e-02 1.000000000000000021e-02 1.000000000000000021e-02 1.000000000000000021e-02 1.000000000000000021e-02 1.000000000000000021e-02 1.000000000000000021e-02 1.000000000000000021e-02 1.000000000000000021e-02 1.000000000000000021e-02 1.000000000000000021e-02 1.000000000000000021e-02 1.000000000000000021e-02 1.000000000000000021e-02 1.000000000000000021e-02 1.000000000000000021e-02 1.000000000000000021e-02 1.000000000000000021e-02 1.000000000000000021e-02 1.000000000000000021e-02 1.000000000000000021e-02 1.000000000000000021e-02 1.000000000000000021e-02 1.000000000000000021e-02 1.000000000000000021e-02 1.000000000000000021e-02 1.000000000000000021e-02 1.000000000000000021e-02 1.000000000000000021e-02 1.000000000000000021e-02 1.000000000000000021e-02 1.000000000000000021e-02 1.000000000000000021e-02 1.000000000000000021e-02 1.000000000000000021e-02 1.000000000000000021e-02 1.000000000000000021e-02 1.000000000000000021e-02 1.000000000000000021e-02 1.000000000000000021e-02 1.000000000000000021e-02 1.000000000000000021e-02 1.000000000000000021e-02 1.000000000000000021e-02 1.000000000000000021e-02 1.000000000000000021e-02 1.000000000000000021e-02 1.000000000000000021e-02 1.000000000000000021e-02 1.000000000000000021e-02 1.000000000000000021e-02 1.000000000000000021e-02 1.000000000000000021e-02 1.000000000000000021e-02 1.000000000000000021e-02 1.000000000000000021e-02 1.000000000000000021e-02 1.000000000000000021e-02 1.000000000000000021e-02 1.000000000000000021e-02 1.000000000000000021e-02 1.000000000000000021e-02 1.000000000000000021e-02 1.000000000000000021e-02 1.000000000000000021e-02 1.000000000000000021e-02 1.000000000000000021e-02 1.000000000000000021e-02 1.000000000000000021e-02 1.000000000000000021e-02 1.000000000000000021e-02 1.000000000000000021e-02 1.000000000000000021e-02 1.000000000000000021e-02 1.000000000000000021e-02 1.000000000000000021e-02 1.000000000000000021e-02 1.000000000000000021e-02 1.000000000000000021e-02 1.000000000000000021e-02 1.000000000000000021e-02 1.000000000000000021e-02 1.000000000000000021e-02 1.000000000000000021e-02 1.000000000000000021e-02 1.000000000000000021e-02 1.000000000000000021e-02 1.000000000000000021e-02 1.000000000000000021e-02 1.000000000000000021e-02 1.000000000000000021e-02 1.000000000000000021e-02 1.000000000000000021e-02 1.000000000000000021e-02 1.000000000000000021e-02 1.000000000000000021e-02 1.000000000000000021e-02 1.000000000000000021e-02 1.000000000000000021e-02 1.000000000000000021e-02 1.000000000000000021e-02 1.000000000000000021e-02 1.000000000000000021e-02 1.000000000000000021e-02 1.000000000000000021e-02 1.000000000000000021e-02 1.000000000000000021e-02 1.000000000000000021e-02 1.000000000000000021e-02 1.000000000000000021e-02 1.000000000000000021e-02 1.000000000000000021e-02 1.000000000000000021e-02 1.000000000000000021e-02 1.000000000000000021e-02 1.000000000000000021e-02 1.000000000000000021e-02 1.000000000000000021e-02 1.000000000000000021e-02 1.000000000000000021e-02 1.000000000000000021e-02 1.000000000000000021e-02 1.000000000000000021e-02 1.000000000000000021e-02 1.000000000000000021e-02 1.000000000000000021e-02 1.000000000000000021e-02 1.000000000000000021e-02 1.000000000000000021e-02 1.000000000000000021e-02 1.000000000000000021e-02 1.000000000000000021e-02 1.000000000000000021e-02 1.000000000000000021e-02 1.000000000000000021e-02 1.000000000000000021e-02 1.000000000000000021e-02 1.000000000000000021e-02 1.000000000000000021e-02 1.000000000000000021e-02 1.000000000000000021e-02 1.000000000000000021e-02 1.000000000000000021e-02 1.000000000000000021e-02 1.000000000000000021e-02 1.000000000000000021e-02 1.000000000000000021e-02 1.000000000000000021e-02 1.000000000000000021e-02 1.000000000000000021e-02 1.000000000000000021e-02 1.000000000000000021e-02 1.000000000000000021e-02 1.000000000000000021e-02 1.000000000000000021e-02 1.000000000000000021e-02 1.000000000000000021e-02 1.000000000000000021e-02 1.000000000000000021e-02 1.000000000000000021e-02 1.000000000000000021e-02 1.000000000000000021e-02 1.000000000000000021e-02 1.000000000000000021e-02 1.000000000000000021e-02 1.000000000000000021e-02 1.000000000000000021e-02 1.000000000000000021e-02 1.000000000000000021e-02 1.000000000000000021e-02 1.000000000000000021e-02 1.000000000000000021e-02 1.000000000000000021e-02 1.000000000000000021e-02 1.000000000000000021e-02 1.000000000000000021e-02 1.000000000000000021e-02 1.000000000000000021e-02 1.000000000000000021e-02 1.000000000000000021e-02 1.000000000000000021e-02 1.000000000000000021e-02 1.000000000000000021e-02 1.000000000000000021e-02 1.000000000000000021e-02 1.000000000000000021e-02 1.000000000000000021e-02 1.000000000000000021e-02 1.000000000000000021e-02 1.000000000000000021e-02 1.000000000000000021e-02 1.000000000000000021e-02 1.000000000000000021e-02 1.000000000000000021e-02 1.000000000000000021e-02 1.000000000000000021e-02 1.000000000000000021e-02 1.000000000000000021e-02 1.000000000000000021e-02 1.000000000000000021e-02 1.000000000000000021e-02 1.000000000000000021e-02 1.000000000000000021e-02 1.000000000000000021e-02 1.000000000000000021e-02 1.000000000000000021e-02 1.000000000000000021e-02 1.000000000000000021e-02 1.000000000000000021e-02 1.000000000000000021e-02 1.000000000000000021e-02 1.000000000000000021e-02 1.000000000000000021e-02 1.000000000000000021e-02 1.000000000000000021e-02 1.000000000000000021e-02 1.000000000000000021e-02 1.000000000000000021e-02 1.000000000000000021e-02 1.000000000000000021e-02 1.000000000000000021e-02 1.000000000000000021e-02 1.000000000000000021e-02 1.000000000000000021e-02 1.000000000000000021e-02 1.000000000000000021e-02 1.000000000000000021e-02 1.000000000000000021e-02 1.000000000000000021e-02 1.000000000000000021e-02 1.000000000000000021e-02 1.000000000000000021e-02 1.000000000000000021e-02 1.000000000000000021e-02 1.000000000000000021e-02 1.000000000000000021e-02 1.000000000000000021e-02 1.000000000000000021e-02 1.000000000000000021e-02 1.000000000000000021e-02 1.000000000000000021e-02 1.000000000000000021e-02 1.000000000000000021e-02 1.000000000000000021e-02 1.000000000000000021e-02 1.000000000000000021e-02 1.000000000000000021e-02 1.000000000000000021e-02 1.000000000000000021e-02 1.000000000000000021e-02 1.000000000000000021e-02 1.000000000000000021e-02 1.000000000000000021e-02 1.000000000000000021e-02 1.000000000000000021e-02 1.000000000000000021e-02 1.000000000000000021e-02 1.000000000000000021e-02 1.000000000000000021e-02 1.000000000000000021e-02 1.000000000000000021e-02 1.000000000000000021e-02 1.000000000000000021e-02 1.000000000000000021e-02 1.000000000000000021e-02 1.000000000000000021e-02 1.000000000000000021e-02 1.000000000000000021e-02 1.000000000000000021e-02 1.000000000000000021e-02 1.000000000000000021e-02 1.000000000000000021e-02 1.000000000000000021e-02 1.000000000000000021e-02 1.000000000000000021e-02 1.000000000000000021e-02 1.000000000000000021e-02 1.000000000000000021e-02 1.000000000000000021e-02 1.000000000000000021e-02 1.000000000000000021e-02 1.000000000000000021e-02 1.000000000000000021e-02 1.000000000000000021e-02 1.000000000000000021e-02 1.000000000000000021e-02 1.000000000000000021e-02 1.000000000000000021e-02 1.000000000000000021e-02 1.000000000000000021e-02 1.000000000000000021e-02 1.000000000000000021e-02 1.000000000000000021e-02 1.000000000000000021e-02 1.000000000000000021e-02 1.000000000000000021e-02 1.000000000000000021e-02 1.000000000000000021e-02 1.000000000000000021e-02 1.000000000000000021e-02 1.000000000000000021e-02 1.000000000000000021e-02 1.000000000000000021e-02 1.000000000000000021e-02 1.000000000000000021e-02 1.000000000000000021e-02 1.000000000000000021e-02 1.000000000000000021e-02 1.000000000000000021e-02 1.000000000000000021e-02 1.000000000000000021e-02 1.000000000000000021e-02 1.000000000000000021e-02 1.000000000000000021e-02 1.000000000000000021e-02 1.000000000000000021e-02 1.000000000000000021e-02 1.000000000000000021e-02 1.000000000000000021e-02 1.000000000000000021e-02 1.000000000000000021e-02 1.000000000000000021e-02 1.000000000000000021e-02 1.000000000000000021e-02 1.000000000000000021e-02 1.000000000000000021e-02 1.000000000000000021e-02 1.000000000000000021e-02 1.000000000000000021e-02 1.000000000000000021e-02 1.000000000000000021e-02 1.000000000000000021e-02 1.000000000000000021e-02 1.000000000000000021e-02 1.000000000000000021e-02 1.000000000000000021e-02 1.000000000000000021e-02 1.000000000000000021e-02 1.000000000000000021e-02 1.000000000000000021e-02 1.000000000000000021e-02 1.000000000000000021e-02 1.000000000000000021e-02 1.000000000000000021e-02 1.000000000000000021e-02 1.000000000000000021e-02 1.000000000000000021e-02 1.000000000000000021e-02 1.000000000000000021e-02 1.000000000000000021e-02 1.000000000000000021e-02 1.000000000000000021e-02 1.000000000000000021e-02 1.000000000000000021e-02 1.000000000000000021e-02 1.000000000000000021e-02 1.000000000000000021e-02 1.000000000000000021e-02 1.000000000000000021e-02 1.000000000000000021e-02 1.000000000000000021e-02 1.000000000000000021e-02 1.000000000000000021e-02 1.000000000000000021e-02 1.000000000000000021e-02 1.000000000000000021e-02 1.000000000000000021e-02 1.000000000000000021e-02 1.000000000000000021e-02 1.000000000000000021e-02 1.000000000000000021e-02 1.000000000000000021e-02 1.000000000000000021e-02 1.000000000000000021e-02 1.000000000000000021e-02 1.000000000000000021e-02 1.000000000000000021e-02 1.000000000000000021e-02 1.000000000000000021e-02 1.000000000000000021e-02 1.000000000000000021e-02 1.000000000000000021e-02 1.000000000000000021e-02 1.000000000000000021e-02 1.000000000000000021e-02 1.000000000000000021e-02 1.000000000000000021e-02 1.000000000000000021e-02 1.000000000000000021e-02 1.000000000000000021e-02 1.000000000000000021e-02 1.000000000000000021e-02 1.000000000000000021e-02 1.000000000000000021e-02 1.000000000000000021e-02 1.000000000000000021e-02 1.000000000000000021e-02 1.000000000000000021e-02 1.000000000000000021e-02 1.000000000000000021e-02 1.000000000000000021e-02 1.000000000000000021e-02 1.000000000000000021e-02 1.000000000000000021e-02 1.000000000000000021e-02 1.000000000000000021e-02 1.000000000000000021e-02 1.000000000000000021e-02 1.000000000000000021e-02 1.000000000000000021e-02 1.000000000000000021e-02 1.000000000000000021e-02 1.000000000000000021e-02 1.000000000000000021e-02 1.000000000000000021e-02 1.000000000000000021e-02 1.000000000000000021e-02 1.000000000000000021e-02 1.000000000000000021e-02 1.000000000000000021e-02 1.000000000000000021e-02 1.000000000000000021e-02 1.000000000000000021e-02 1.000000000000000021e-02 1.000000000000000021e-02 1.000000000000000021e-02 1.000000000000000021e-02 1.000000000000000021e-02 1.000000000000000021e-02 1.000000000000000021e-02 1.000000000000000021e-02 1.000000000000000021e-02 1.000000000000000021e-02 1.000000000000000021e-02 1.000000000000000021e-02 1.000000000000000021e-02 1.000000000000000021e-02 1.000000000000000021e-02 1.000000000000000021e-02 1.000000000000000021e-02 1.000000000000000021e-02 1.000000000000000021e-02 1.000000000000000021e-02 1.000000000000000021e-02 1.000000000000000021e-02 1.000000000000000021e-02 1.000000000000000021e-02 1.000000000000000021e-02 1.000000000000000021e-02 1.000000000000000021e-02 1.000000000000000021e-02 1.000000000000000021e-02 1.000000000000000021e-02 1.000000000000000021e-02 1.000000000000000021e-02 1.000000000000000021e-02 1.000000000000000021e-02 1.000000000000000021e-02 1.000000000000000021e-02 1.000000000000000021e-02 1.000000000000000021e-02 1.000000000000000021e-02 1.000000000000000021e-02 1.000000000000000021e-02 1.000000000000000021e-02 1.000000000000000021e-02 1.000000000000000021e-02 1.000000000000000021e-02 1.000000000000000021e-02 1.000000000000000021e-02 1.000000000000000021e-02 1.000000000000000021e-02 1.000000000000000021e-02 1.000000000000000021e-02 1.000000000000000021e-02 1.000000000000000021e-02 1.000000000000000021e-02 1.000000000000000021e-02 1.000000000000000021e-02 1.000000000000000021e-02 1.000000000000000021e-02 1.000000000000000021e-02 1.000000000000000021e-02 1.000000000000000021e-02 1.000000000000000021e-02 1.000000000000000021e-02 1.000000000000000021e-02 1.000000000000000021e-02 1.000000000000000021e-02 1.000000000000000021e-02 1.000000000000000021e-02 1.000000000000000021e-02 1.000000000000000021e-02 1.000000000000000021e-02 1.000000000000000021e-02 1.000000000000000021e-02 1.000000000000000021e-02 1.000000000000000021e-02 1.000000000000000021e-02 1.000000000000000021e-02 1.000000000000000021e-02 1.000000000000000021e-02 1.000000000000000021e-02 1.000000000000000021e-02 1.000000000000000021e-02 1.000000000000000021e-02 1.000000000000000021e-02 1.000000000000000021e-02 1.000000000000000021e-02 1.000000000000000021e-02 1.000000000000000021e-02 1.000000000000000021e-02 1.000000000000000021e-02 1.000000000000000021e-02 1.000000000000000021e-02 1.000000000000000021e-02 1.000000000000000021e-02 1.000000000000000021e-02 1.000000000000000021e-02 1.000000000000000021e-02 1.000000000000000021e-02 1.000000000000000021e-02 1.000000000000000021e-02 1.000000000000000021e-02 1.000000000000000021e-02 1.000000000000000021e-02 1.000000000000000021e-02 1.000000000000000021e-02 1.000000000000000021e-02 1.000000000000000021e-02 1.000000000000000021e-02 1.000000000000000021e-02 1.000000000000000021e-02 1.000000000000000021e-02 1.000000000000000021e-02 1.000000000000000021e-02 1.000000000000000021e-02 1.000000000000000021e-02 1.000000000000000021e-02 1.000000000000000021e-02 1.000000000000000021e-02 1.000000000000000021e-02 1.000000000000000021e-02 1.000000000000000021e-02 1.000000000000000021e-02 1.000000000000000021e-02 1.000000000000000021e-02 1.000000000000000021e-02 1.000000000000000021e-02 1.000000000000000021e-02 1.000000000000000021e-02 1.000000000000000021e-02 1.000000000000000021e-02 1.000000000000000021e-02 1.000000000000000021e-02 1.000000000000000021e-02 1.000000000000000021e-02 1.000000000000000021e-02 1.000000000000000021e-02 1.000000000000000021e-02 1.000000000000000021e-02 1.000000000000000021e-02 1.000000000000000021e-02 1.000000000000000021e-02 1.000000000000000021e-02 1.000000000000000021e-02 1.000000000000000021e-02 1.000000000000000021e-02 1.000000000000000021e-02 1.000000000000000021e-02 1.000000000000000021e-02 1.000000000000000021e-02 1.000000000000000021e-02 1.000000000000000021e-02 1.000000000000000021e-02 1.000000000000000021e-02 1.000000000000000021e-02 1.000000000000000021e-02 1.000000000000000021e-02 1.000000000000000021e-02 1.000000000000000021e-02 1.000000000000000021e-02 1.000000000000000021e-02 1.000000000000000021e-02 1.000000000000000021e-02 1.000000000000000021e-02 1.000000000000000021e-02 1.000000000000000021e-02 1.000000000000000021e-02 1.000000000000000021e-02 1.000000000000000021e-02 1.000000000000000021e-02 1.000000000000000021e-02 1.000000000000000021e-02 1.000000000000000021e-02 1.000000000000000021e-02 1.000000000000000021e-02 1.000000000000000021e-02 1.000000000000000021e-02 1.000000000000000021e-02 1.000000000000000021e-02 1.000000000000000021e-02 1.000000000000000021e-02 1.000000000000000021e-02 1.000000000000000021e-02 1.000000000000000021e-02 1.000000000000000021e-02 1.000000000000000021e-02 1.000000000000000021e-02 1.000000000000000021e-02 1.000000000000000021e-02 1.000000000000000021e-02 1.000000000000000021e-02 1.000000000000000021e-02 1.000000000000000021e-02 1.000000000000000021e-02 1.000000000000000021e-02 1.000000000000000021e-02 1.000000000000000021e-02 1.000000000000000021e-02 1.000000000000000021e-02 1.000000000000000021e-02 1.000000000000000021e-02 1.000000000000000021e-02 1.000000000000000021e-02 1.000000000000000021e-02 1.000000000000000021e-02 1.000000000000000021e-02 1.000000000000000021e-02 1.000000000000000021e-02 1.000000000000000021e-02 1.000000000000000021e-02 1.000000000000000021e-02 1.000000000000000021e-02 1.000000000000000021e-02 1.000000000000000021e-02 1.000000000000000021e-02 1.000000000000000021e-02 1.000000000000000021e-02 1.000000000000000021e-02 1.000000000000000021e-02 1.000000000000000021e-02 1.000000000000000021e-02 1.000000000000000021e-02 1.000000000000000021e-02 1.000000000000000021e-02 1.000000000000000021e-02 1.000000000000000021e-02 1.000000000000000021e-02 1.000000000000000021e-02 1.000000000000000021e-02 1.000000000000000021e-02 1.000000000000000021e-02 1.000000000000000021e-02 1.000000000000000021e-02 1.000000000000000021e-02 1.000000000000000021e-02 1.000000000000000021e-02 1.000000000000000021e-02 1.000000000000000021e-02 1.000000000000000021e-02 1.000000000000000021e-02 1.000000000000000021e-02 1.000000000000000021e-02 1.000000000000000021e-02 1.000000000000000021e-02
-1.152607708310036401e+02 1.750829242410153768e+02 4.066315071410876669e+01 -9.145848612377447395e+00 -9.076417954347704153e+01 -1.383270770464830335e+01 -2.146704311136348906e+02 6.912299873250166149e-01 -8.752724345940262651e+01 -1.440036026692993865e+01 -2.046548452904735171e+01 6.702886569335257505e+00 -1.838334324589247615e+00 1.732896841569866808e+02 8.738394860384178742e+01 -4.001424122303821207e+01 -5.447562867000824127e+01 8.181409858864479645e+01 3.388881255511706314e+01 -2.618791900771303816e+01 -8.145094317319899346e+01 -7.625139778276989944e+01 -1.427238686239885190e+01 2.988181917365956153e+01 -2.013228468157716691e+02 -1.019931590606135359e+02 -2.693780064512906947e+01 2.082675269988129969e+02 7.308494262577981715e+01 7.920161955146461707e+01 8.291788514871691973e+01 1.228202356007908946e+00 -8.174708742755390745e+01 2.141732614703004458e+02 -2.528127128606403460e+02 6.070391200449586933e+01 -1.241413702514982589e+02 -3.580806833032207948e+01 4.161263028204492898e+00 1.308647815332630273e+02 -1.269522232534278885e+02 -1.412410824324651237e+01 7.992545746625756919e+01 1.792773951817814861e+02 7.372587898138745288e+01 -7.070819173333416074e+01 4.262849947882678947e+01 -2.929653508437977649e+01 -6.823448707598596741e+01 1.617423820239016834e+02 -7.295757697239808692e+01 -5.384925905473544816e+01 -1.438401671126599410e+02 5.876478342184103809e+00 -5.221924108765447414e+01 3.992378449011007291e+01 -9.163967184909159869e+01 -5.171996739729674175e+01 -1.047427499425127877e+02 -1.605458585543504171e+02 2.013399544687770160e+01 4.680359680016253066e+01 -1.271674998560183667e+02 1.328942335368181205e+01 -8.194029268067630767e+01 5.073179881527387636e+01 1.720608225747004667e+02 -1.489983172238480051e+02 -4.475684810916421696e+01 7.407100855905499159e+00 3.015396070382413640e+00 4.376781079296328159e+01 8.675323749198166468e+01 9.828358892121901169e-01 -9.056711934693916888e+00 -7.235799799339172012e+01 8.086083990553515832e+01 -3.389658202929897612e+01 2.714747522241950861e+01 1.074355888784484847e+02 9.116788849916925130e+01 -4.415015330581432096e+01 5.975849241153469649e+01 1.523145860581177260e+02 1.200369484002934399e+02 -4.183804918714469245e+00 1.799903409642631971e+02 -1.151889997557050407e+02 4.370098089279134790e+00 -4.332372167972839350e+01 2.136953073053550440e+02 -2.192456013862163289e+01 2.958613190411603533e+00 -7.932121811467978034e+01 -7.358372628833754980e+00 -6.598614729475040974e+01 6.999635242872612650e+01 -9.766682959568379374e+01 7.078154104827635251e+01 -4.930512416896461048e+01 -5.142497729826941821e+01 -9.468393391860141151e+01 5.487873171146034679e+01 -5.656195386218103494e+01 -1.542814301408183439e+02 -8.211945970036290987e+01 -1.080892521264022008e+02 -1.624396342597490559e+02 1.404606157487004623e+02 -2.845374090543580792e+01 3.307797290015709990e+01 9.263944993353564428e+01 -1.075527208207307126e+02 5.887837382101441364e+01 -4.476203577767725506e+01 -7.156218277488373758e+01 -9.302495334975643004e+01 2.100708742121665864e+02 -5.862895037711068369e+01 -5.110584678868730890e+01 -4.881975459253562377e+01 8.307485883740420718e+01 -4.276752548723053593e+01 1.425898755800499771e+02 -5.147832692268750066e+01 5.688227273796009342e+01 4.692013695629163372e+00 -8.388006293126650803e+01 7.113284623807392393e+01 2.865715018611920186e+02 -9.503838106232322502e+01 4.909003255745264482e+01 -7.873252680049844798e+01 4.673300381305644891e+01 1.355404350732714818e+02 -5.304837200617592430e+01 1.505215498109287431e+01 -2.780194501077737002e+01 -1.053152790623995969e+02 -1.782426408785724448e+01 4.392095076125731801e+00 -8.090979354275283697e+00 -1.546485159650768182e+01 1.222211117965818374e+02 1.346727201701202148e+02 1.926715944545588854e+02 -3.144671457102804766e+02 3.950193109452956719e+01 -1.626215859975991762e+01 -6.445787154561304533e+01 1.864012587082424091e+02 7.882844678781746950e+01 -2.638365630084927194e+00 -1.199069197914531486e+02 -1.129316394681534419e+01 1.034823089351081364e+02 -1.389969051422514212e+02 -1.743938382486825276e+02 1.110085996400629149e+01 4.389903553538248104e+01 -6.309333181159284010e+01 4.347453185225533900e+01 -1.107714653769307773e+02 -1.565573551879017202e+02 2.186245846122859504e+01 5.026524155016876705e+01 4.954895005476484648e+00 -8.643155905741355127e+01 -9.686651276652528963e+01 -8.731191770903500071e+01 -9.061843300677192303e+01 1.304990536660818456e+01 5.886190226682216320e+01 1.206282414251476496e+02 8.227804264656279543e+01 9.269659353357982923e+01 1.112766965032630537e+02 -7.749917089480955212e+01 -8.551099895668805573e+01 7.308215005098524841e+01 7.090176000352998642e+01 6.140279047502345833e+01 -9.745383084276991070e+00 -9.444778286256935473e+01 5.598125743220650463e+01 -1.855878136453575848e+02 6.965972335984139363e+01 -4.624686551654895084e+01 -1.001101493066647237e+02 7.702705035968884317e+01 -1.776698400192946892e+01 -8.012450041380922983e+01 -5.971358339433380280e+01 -9.486051038473318542e+00 2.521252055359206850e+02 7.978601049367782139e+01 5.699124732699525708e+01 -1.080469330204728493e+02 1.541623988415776978e+02 1.067659855038688432e+00 -9.404645038591452533e+01 1.620846899388410236e+02 -1.604236449773763979e+02 1.641673260974732429e+01 -3.390673433701313400e+01 -2.312951342024462349e+02 -1.404714244989320946e+02 -9.184612748803206728e+01 -3.077164853444170589e+01 -1.255515990609362973e+02 6.071619701533091273e+01 6.839957858837695426e+01 -2.900127879335157033e+01 -1.049414571119587123e+02 1.190609247943741451e+02 1.244841947575022658e+02 4.866026961954692354e+01 1.836012386166575538e+01 2.751797307291087691e+02 4.600433934457403495e+01 -1.257206850902135784e+02 -4.742859009610721444e+01 -1.778976105347575469e+02 3.357272768631491999e+01 1.615600702236674522e+02 -1.564042685814590641e+02 1.388144827018371359e+02 -9.586059452572332873e+01 -1.989897612799834903e+01 -7.577932777287269550e-01 5.570071968804816009e+01 -1.224867232681017448e+01 -2.400288903114982730e+01 -1.998849484016997025e+01 -1.335109077065744714e+02 4.896167857942237589e+01 -3.202680145949464219e+01 -1.372266742851848598e+01 -1.129117360416683624e+01 2.382675006817084977e+02 1.836635039466321473e+02 2.453165937350703985e+02 1.389945120369452525e+02 -9.130050555874234419e+01 7.932873668424353752e+01 2.224990418267722347e+01 5.023988571500027689e+01 -4.194282058937625379e+01 2.694334818022729792e+02 -2.456224932000203864e+01 -1.442311588391881685e+02 -1.578819135832932474e+01 -4.833360846379079589e+01 -8.167942833762664634e+01 4.554042050671410635e+01 -1.235931152121363574e+01 1.919452568252587810e+02 9.755375135806207254e+01 4.315144620363212624e+01 1.034811822245421524e+02 9.965012683000600191e+01 -2.426255857120871795e+01 1.473716600196576394e+02 2.792961571822338485e+01 9.451653098129528985e+01 5.027253296338867727e+01 7.327000948394178259e+00 -1.222051943926572193e+02 -1.222388935657836271e+02 -9.499922989903534187e+01 -1.644535004310557724e+01 9.149033544435287979e+01 -3.238533183021996820e+01 1.043898879323502911e+02 4.623107923999506141e+01 -7.676764375822047271e+01 -3.164795797642546660e+01 -6.186190214086392558e+01 1.853566975255252203e+01 -4.893283711788864565e+01 -1.182759441370778575e+02 1.283111413214538743e+02 1.280746953672938844e+02 -8.331842232730180342e+01 5.786865101566536218e+00 -4.781855376386248935e+01 -3.445675363693862892e+01 -1.197358557727778461e+01 -3.294139602314920978e+01 4.689148595094432181e+01 -1.482986969325486655e+02 -5.574989676691307494e+01 -1.603178246510093743e+02 1.837535189830165052e+02 -2.138326762625201383e+01 6.222090234574454115e+01 1.260115311677073180e+01 1.523450673832802522e+02 4.712393204203414854e+01 3.771777029243051516e+01 1.627693308608845939e+02 -5.195530756782910942e+01 -1.028851703318995874e+02 2.861097368525308582e+01 -1.665881787625325501e+02 -5.628547968159051607e+01 1.078095326155081040e+02 -1.346943168311190959e+02 -3.833294275205547308e+01 9.622468435856023916e+01 -9.961192941229744235e+01 -9.434965168004278269e+01 -8.710914921038472869e+01 -6.729280772971956992e+01 2.623716855126114069e+02 2.088025567635007747e+02 1.085387563157396471e+02 -1.076649329863990658e+02 7.887076189968992423e+01 -6.961429703755209175e+01 -3.280725154456287385e+01 1.747406706841667656e+01 -3.385100497039182699e+01 -9.870953509628610334e+01 -2.822470680346019112e+00 1.559750877659618773e+01 1.144350444676668559e+02 -1.351640369476668297e+02 4.401312783748910107e+01 6.704237072159509125e+01 3.635378580466973375e+01 -9.525850250220716475e+01 -1.560788658601310033e+02 2.031043487545042865e+02 -1.873029510374617601e+01 2.647182327381488420e+01 1.644130348305116343e+02 2.801993137651843213e+01 2.915064145517724725e+01 -4.675842109770307076e+01 9.301928754891882534e+01 -1.431705161148268530e+02 -3.235280209349238589e+01 -6.438363406879755502e+00 -5.608589368045723234e+01 6.439713124724177895e+00 2.238820653930996940e+01 -3.755906727490818753e+01 1.434181186200308389e+01 2.242464533360902692e+02 -2.872857962846545732e+01 -2.932180350377991473e+01 -1.066495382586819289e+02 -1.744369630740939314e+00 -8.472280843237548709e+01 6.735430690288664479e+00 1.175368884728146384e+02 -5.457801724504322038e+01 6.349985488712879267e+00 -5.698444035267149133e+01 3.505933877149330691e+00 9.146972487057669809e+01 -1.215009280650184706e+02 -1.015006001521887953e+02 -1.075253141795326570e+02 7.488605592963261870e+01 9.076756365202061261e+01 -9.681906579719671413e+01 6.561895570897786456e+01 2.705232080765525282e+01 4.056269265526703549e+01 -1.862506407296658040e+01 9.574923430104327338e+01 8.361305851189428040e+01 -8.103621372839862147e+01 1.245983059606344412e+01 8.482800675029771753e+01 7.639982208997828650e+01 -2.082607941358965675e+01 2.620523929421152332e+01 -1.389895858729034330e+02 5.084200872619405942e+01 -3.434214110108123208e+01 -3.420285441288587691e+01 1.815445551384638350e+02 4.974280506970321625e+01 1.260293205932790102e+02 2.001399594031813933e+02 -1.443476600667507626e+02 1.562334024893942797e+02 -6.640687140683827749e+01 -1.416344054533550434e+02 8.629358109145020705e+01 -1.405612561554736715e+02 -3.008030707075037924e+01 5.915261320080082186e+01 8.498847220544567094e+00 -1.761647016021881029e+02 8.825496442954874965e+01 2.641556228501190873e+01 7.243287940440022510e+01 3.800199835530664672e+01 9.937863079381392239e+00 -7.035277411697282446e+01 1.213331006099818978e+02 5.710459986873979688e+01 -6.512287936194208271e+01 -1.061106314881564430e+02 4.085015174554451534e+01 2.686707878814989670e+01 8.633548667590397940e+01 1.925327062695440645e+02 -2.583704547848315158e+01 -1.154320164850254997e+02 -8.885261238483511192e+01 -5.379233300341019230e+01 -4.655131588911949336e+01 -1.538000268771328365e+02 -2.356414935611732986e+01 1.356859224832848270e+02 7.813844695236461746e+01 -1.282526082841990842e+02 -1.569738829794574428e+02 -7.139655011980713084e+01 -8.007392289846272604e+01 1.537427448716457548e+02 -1.786236652017065296e+02 9.065584267657416717e+01 -4.829897522499348561e+00 -4.507210054425887336e+01 1.395712121176411991e+01 9.557153154039909282e+01 5.200587726373549202e+01 1.448276102611948204e+02 -1.667429892640428477e+02 -8.484921903734390014e+01 2.652289739204966068e+01 4.394946848806812056e+01 2.160389822734122731e+02 1.523944019158870731e+02 6.863637505648448212e+01 7.555444116452493120e+01 -3.594348586915906907e+01 1.591153316224020955e+02 -1.878589687345279629e+02 -6.640362371756405935e+01 -5.625675515064222054e+01 -5.426983309606494998e+01 -1.082465312055676634e+02 -1.568883207254256185e+01 -7.193114291294241980e+01 7.459924383138655912e+01 -9.614490535528739557e+00 -6.091200544955081853e+01 -6.533450533308139541e+01 1.887947295031206920e+02 6.176955966444396040e+01 -1.433051481670462302e+01 2.188249208368042673e+02 -1.134652150022060511e+02 -3.702954085946687712e+01 7.013958613320218660e+01 -1.301911080585439751e-01 1.562212246534373250e+01 -1.309606700279016422e+02 1.845506550485673927e+02 -5.135447410079103747e+01 -2.825926047103879668e+01 -1.149086939264967668e+02 1.317972043124391632e+02 1.004508614132046489e+02 -8.119090954342922828e+01 -3.928812629229606301e+01 4.074943832550427913e+01 -1.585179233990771479e+02 -1.183847668100853900e-01 -7.819608153177730969e+01 8.081037383647931449e+00 -1.131875713592466468e+02 -1.659203364994230299e+02 -7.395512193543117974e+01 1.550281556751467065e+02 5.923846087228033497e+01 -9.373845627532210756e+01 9.332054945160211901e+01 3.584396434269299903e+01 9.232377091400270785e+01 -4.404377670253110466e+01 -8.796640013818782222e+01 1.788187039043982907e+02 4.358399652846710381e+01 3.028068861932918310e+01 -7.634426453718437244e+01 -4.422489910817011349e+01 1.002043796731204495e+01 -7.471656373651431871e+00 -1.806043374150504235e+02 -3.614678396138473460e+01 6.732157117905100563e+01 1.166435065046420334e+02 1.626409897541632006e+02 -1.384611951793469764e+01 9.359932577730553760e+01 1.646804483595161628e+02 6.623920422337967295e+01 1.543634672059695276e+02 1.676610257508509250e+01 1.370392193739428137e+02 -8.759943407125427939e+01 5.570730089537153162e+01 3.063833269618454125e+01 7.914799376229805716e+01 -1.107549012255981324e+02 2.064369308051149403e+02 -1.343241764744535942e+02 9.200995892656727904e+01 -1.120102471675881901e+02 4.805603022581781403e+01 1.436822953052226737e+01 9.450665534710225302e+01 -7.675619990247383839e+01 -7.863783562754838385e+01 -1.164834323064915544e+01 9.275200309625540740e+01 -3.079149058488180302e+01 -1.698604936309641289e+01 -2.043163737066844376e+01 4.930462734828202187e+00 1.020960278223642206e+02 -6.509083808946074612e+01 -2.830815579851785113e+00 -2.013048012576926169e+02 1.264847177584851181e+02 -1.295016630837268110e+02 -7.663615305845605974e+01 -2.443253098350045960e+01 -1.119122985042387768e+02 -5.514137118185325193e+01 -6.072157323064359957e+01 -2.037930904698515988e+01 1.413318050348077861e+02 5.605790543641526824e+01 1.041602353385544006e+02 -1.411231183877282263e+02 -1.437110442685027749e+02 -2.970372030432122301e+02 1.058921753765881419e+02 1.081593421872260876e+02 4.381013177782795509e+01 -4.395340317651610462e+01 -3.862681256094357707e+01 -1.904053044816636486e+02 1.515793081943414506e+02 -1.114094871765965564e+02 1.109234227049602453e+02 -1.651547192745349548e+02 -1.483109447739068898e+01 -5.743069048892338202e+01 -1.236698195197087813e+02 -4.780317275134572697e+01 -1.291987235705387249e+01 -9.608839617526990651e+01 -1.073772283888840207e+02 -1.280954726609225780e+01 7.386864880220335294e+01 -1.292980394141264924e+02 -1.626757724368207647e+01 -7.651888408009847353e+01 -1.363353633143873367e+02 6.970077030541832031e+00 9.879848307495191762e+01 1.717001303189533701e+02 -1.980054900834113241e+01 -4.779686954107694419e+01 -1.287957468853454372e+02 -1.697060246896791114e+02 1.076614007841777862e+02 -7.550255260885548125e+01 8.203147482977999516e+01 9.764969321395259527e+00 3.038632347703849490e+01 7.666502899940641669e+01 -8.792843158325705133e+01 8.580025322050047976e+01 1.196596917266204372e+02 1.633794905194409353e+02 -1.210803493988199193e+02 1.079010364167876759e+02 -4.957234183682180628e+01 -9.426160972672725791e+01 2.227380595811127648e+02 5.116873521863840324e+01 8.665829543174203309e+01 2.214940107313693574e+01 -6.554347665834124825e+01 -3.627635598198447298e+01 -2.184130183051348411e+02 1.096647878645996741e+02 8.464391766339996082e+01 -7.860183233024352489e+01 -7.598402411898105413e+01 1.507638128866057627e+02 1.049380278106538498e+02 5.306691495234815648e+01 7.901397779911810915e+01 -8.232985457430302745e+00 1.071588825265689451e+02 -1.074726907049901143e+02 1.935929865737284956e+02 -4.099670933347891122e+01 -1.266551783165745633e+02 -3.908120720734093823e+01 7.450224428477964977e+01 1.530079995153006394e+02 1.346586282398248713e+01 1.804968953499841859e+02 5.422632691672601624e+01 3.489197969610103911e+01 -1.156078674114917391e+02 4.655813413251426169e+01 -1.298785657495757278e+02 4.950847682500456415e+01 4.016917357428771851e+01 -1.280573345972609616e+02 -8.830199957474366101e+01 4.134992972956428048e+01 9.062401244425320357e+00 -2.414884992587408874e+01 4.344252910489190356e+01 -2.221911924203704913e+01 -6.552205271338635839e+01 -2.709372583352342545e+01 -2.334648192164609171e+01 -4.136937903236962910e+01 1.951287759259960453e+01 -8.356387773457890944e+01 1.235373889730192900e+02 -7.722508973123363774e+01 -4.503756867990476920e+00 6.797702070769912552e+01 4.065415659439343798e+00 1.654321954808878559e+01 1.656171129310762069e+01 -1.216616655250813466e+02 -4.597046935577183469e+00 6.756194441360101166e+01 -2.403517225767360515e+02 -8.809031498714941222e+01 -1.170847331544868410e+02 4.546661653605403330e+01 9.993168688883974937e+01 -9.526274102934053190e+01 -1.743465083137500358e+02 -1.922237591844155418e+02 2.075290858673891492e+01 -1.505110390386807069e+02 -6.553798420364901567e+00 1.531935859639446846e+02 -7.403418314793320576e+00 3.855303435269063073e+01 -1.026170371516825668e+02 8.274635134481273724e+01 -1.228218550383550109e+02 -1.593799299939134961e+01 -3.140532684512693962e+01 5.956842221846196139e+01 -9.218081593392781770e+00 1.093218473353700801e+02 -1.261863143492234798e+02 -5.176831589075484885e+01 8.936809849464546573e+01 6.833984291142405709e+01 -8.509100628854105253e+01 -5.615823311047824262e+01 -5.093365387773030051e+01 -2.986221682799791211e+02 1.996800955896162861e+02 7.854833055441584122e+01 -2.436531943894468810e+01 -3.058346076217514309e+01 4.281732876259138010e+01 -8.679420268467056587e+01 1.026137849024822231e+02 6.226462413712911825e+01 8.455792485929815427e+01 -8.662452538576783923e+01 -2.741098497592596317e+01 3.436735648184301795e+01 1.789782411296977926e+01 -4.405383885074002848e+01 1.624933592611335484e+02 -1.780872009491814367e+01 3.639508185466063850e+01 -2.364281478171616584e+02 -8.715342415772082063e+01 -7.528545555442741488e+01 2.367011448542408658e+01 1.123142169775190666e+02 -2.382180076592701141e+02 -1.923475803637994375e+02 2.279988975572426284e+02 -1.087342488495904291e+01 9.882220920447689139e+01 6.455068424826913542e+01 -5.696184919944836622e+01 -1.347227552650772964e+02 -9.786312227854084256e+01 -5.169912998068152632e+01 -3.851913049745610351e+01 -4.026190653547687504e+01 1.665738645870800738e+01 3.815417982257898188e+01 1.715072564004741764e+02 1.266520445481184964e+02 7.087132641507968955e+00 -4.494199537688354340e+00 -1.633282983440930991e+02 1.230357492751080599e+02 1.638523620663363261e+02 -1.063118366839811557e+02 7.582644997553352084e+01 1.867773844099368752e+00 5.641574808525378870e+01 1.290294220715630615e+02 7.295092665289939760e+01 -1.378038419903626277e+02 1.662566029762500364e+01 -3.021792910163996027e+01 1.145185253002803094e+01 -2.387132485856994180e+01 4.666450843056924214e+01 -2.679347324969314741e+02 1.864532776859205114e+02 7.557389692117904900e+00 1.640808536476170900e+02 -1.089663953259169737e+01 1.093361260279015852e+02 7.375637919137881227e+01 -4.328321224330113637e+01 3.075868752568630526e+01 -7.495108313160967839e+01 -9.163133058267398212e+01 -7.428630275488454515e+01 -3.301845677684145386e+01 4.657711192529501432e+01 1.135765494844370807e+02 2.939914561774834212e+01 6.397684121894859999e+01 -1.080688210937018852e+02 -1.414201313740281591e+02 -1.390719666878472616e+01 4.787880725372478707e+01 -4.699771958677352757e+01 9.748788944758757680e+01 5.725524007359062750e+01 -2.853833329089331983e+01 3.091076166748709397e+01 6.330790730456900661e+01 -7.443651980424577630e+01 -1.380094129451169351e+02 1.466732265823964951e+02 8.070075097537658948e+00 5.177496114305849062e+01 -1.541388354015447817e+02 -5.515067859271938033e+01 -4.972973029188859084e-01 -6.783679849291543462e+01 4.422035105873849403e+00 5.814237943904681316e+01 1.926537349570141942e+02 4.043254974319641804e+01 -1.133721128261094435e+01 7.460416972478125786e+01 -4.704069351624904982e+01 -1.126949435071516064e+02 -1.429440677261991937e+02 9.704437591893343651e+00 2.598131491883639299e+01 2.459389071837481566e+01 -5.885657889426121159e+01 1.250695078387782218e+02 -8.369091800005320181e+01 1.328621013559221922e+02 9.040052272439649528e+01 -6.736143391885998710e+01 -8.766774901930143926e+01 8.719805249561501626e+01 2.125489731202702970e+01 -5.435882901807180190e+01 -5.580598914449139158e+01 1.415916422578618210e+02 5.936835636686415540e+01 8.277391964957818971e+01 2.710412949768611668e+01 -4.365469605332373249e+01 1.114709822682165168e+02 -5.658304003652480674e+01 5.338933489548084443e-01 7.945388612887605007e+01 1.033036956946808971e+02 2.650256282272823114e+02 -1.817174646614431879e+02 1.670552705383930459e+02 -7.020265243809149069e+01 -1.579979368419232877e+01 -2.597039476380489731e+01 -2.153330385165905980e+01 -5.734967081521024568e+01 9.650838936898273346e+01 1.913148346363159646e+02 -1.235116062347054111e+02 3.216020003580190689e+01 -1.319838821464294369e+02 7.301790286113966033e+01 -4.632618003189928402e+01 -8.426504801949798207e+01 -5.608115809396799989e+01 4.286638537521816517e+01 2.021640457689795767e+01 -8.525724495456393015e+01 -1.470573039098618153e+02 2.166613425951499039e+01 1.643919361681932685e+02 1.490243197735436276e+01 1.904256989117639876e+02 7.798727898601459430e+00 1.405329165458392708e+02 -3.613843818211687875e+01 9.472067912002822254e+01 -7.464687790900738662e+01 -1.179936362446930787e+02 5.167236149180487104e+01 -6.067296333427653821e+01 -8.210010387153107558e+01 7.629454871311416753e+01 6.719797672318165382e+00 -9.870798660191087492e+01 -1.575638003345135871e+02 1.548355162588884184e+02 -9.339267073826697185e+01 -2.432513019551217237e+00 1.258013110036863225e+02 6.084118162116457995e+01 -1.029203487162132831e+02 1.111140710727764613e+01 2.957553355447352033e+02 5.595227127911513065e+01 -1.655088897639303696e+02 -5.005753473119226982e+01 -6.460769367636045502e+01 1.012493006046201671e+01 1.129320969596804645e+02 -1.086375480949832024e+02 2.262731325493833978e+01 1.371005202302632142e+02 1.973316054613245285e+01 -2.219709111277242357e+02 5.084585736884359619e+01 7.932207952700152020e+01 -1.425352945408000949e+01 3.449048190231370370e+01 1.169805999813014197e-01 2.360515968926405250e+01 2.915579421995561304e+01 1.217253560111756627e+02 1.030076251882867524e+02 1.628187757812172620e+01 1.566652003876515380e+02 -6.730167723354736609e+01 2.592847797014373441e+02 6.834884032607138238e+01 1.489294445079167986e+02 -2.311099639860739785e+01 9.467904728783121016e+01 -5.163249262958001395e+01 -1.539093703387367214e+02 2.756441035687389629e+01 1.000481217384584625e+02 -9.217006564892638210e+01 -1.101459243619464132e+02 -6.997503328601688111e+01 3.846328249609194216e+01 -1.201809394890827889e+02 7.862215329297444555e+01 2.955448592630159510e+01 -1.026725873349476359e+02 1.998182935458204383e+02 -1.237596041420144566e+01 -1.070053283410933886e+02 -1.404849012501819239e+01 -2.149527685750407002e+01 -1.475280137843568582e+02 -4.213114624723994694e+01 6.468977045497923939e+01 1.386027220863365699e+02 3.050629585118700149e+01 2.817785724057573660e+01 4.712096597699056133e+01 -3.764983092104104401e+01 -1.531438324708744290e+02 1.664589223000011131e+01 3.263932768652922078e+01 1.400015036043976124e+02 -1.049534765545528181e+01 -8.012306537613868329e+01 7.703194016325079474e+01 1.066587144817521926e+00 3.368705235300956957e+01 1.466035247878150756e+02 -1.868584221675618551e+02 -9.768891055698065884e+01 1.312349178787494850e+02 -2.205832043296171037e+02 -1.880383122795699080e+02 9.299913961053680111e+01 1.574502993459681477e+02 6.477371868865006377e+01 -4.527179157561124434e+00 1.593078589453062364e+02 -2.243728618828087349e+02 1.095609063419659890e+02 4.333482799140355723e+01 1.299326137322175043e+02 -1.928237924991840657e+02 1.090199530166283495e+02 -2.895833200903661009e+01 -1.367068282362349692e+02 -5.449407731327190696e+00 -9.449422138969427465e+01 -1.674504612529937120e+01 -4.334229205713771016e+00 -1.259530684406741869e+02 -1.260843625866626212e+02 -6.398858453646126065e+01 -1.318363870011330334e+02 2.055216602160189723e+02 -1.645696126393416705e+02 -5.128262316644607210e+01 1.764026721889406986e+02 3.468117113527824102e+01 -3.026126813150107751e+02 -1.298939779281444373e+02 3.633778340670298235e+01 5.585809945038893432e+01 8.841056796995935940e+00 -1.581273534852666955e+02 3.648948172313447458e+01 7.605967853905364784e+00 -7.599228953038497991e+01 2.072321776401285547e+02 2.071616514742591448e+02 4.414721328306404402e+00 -2.131840303438425508e+02 1.288253358408153986e+02 3.147861273240295077e+01 3.794361885764935494e+00 7.838157386065759624e+01 -2.120971157085818390e+02 -1.411463467495634063e+02 1.442267997973349622e+02 1.120880336596006401e+02 5.414163708920329299e+01 1.464754525931524825e+02 -1.822544083697199824e+02 -2.086714340964302750e+01 -1.333792622918944346e+02 4.450650243428533059e+01 -1.061811298223971960e+02 8.897416670772211944e+01 -3.460161135653930842e+01 1.265700874659970765e+01 1.813862925307217324e+02 2.909085707412601352e+01 -2.694613085980586789e+02 -1.291573052095131970e+02 -8.522825873219132120e+01 1.616366657895562184e+02 1.281085434778080590e+01 -5.496304789484135256e+01 3.110762787492575399e+01 6.394191408720182324e+01 -4.049419547193095070e+01 1.099194741592601474e+02 -1.029788957522039254e+02 5.031205331640162370e+01 1.144232999247231817e+02 -3.618004920748924746e+01 -1.003138349615618097e+02 -1.159138246596626090e+02 1.224308474276597565e+02 -5.074948829761559921e+01 2.009412915533425803e+02 5.848161454495733835e+01 1.134438416141764918e+02 1.884584929889080627e+02 8.757000715785379086e+00 -1.270242660066180349e+02 -1.694989956038480727e+02 -1.167604828719536130e+02 4.339367587348546351e+01
-1.362551410121252715e+01 -4.784757880177217260e+00 1.034392012097017357e+02 -2.286829026665898539e+02 1.551963282481478927e+02 6.345917760735351720e+01 1.519149823730624007e+02 -1.289628793371445568e+02 -2.792600654328525334e+00 -2.405364361652896577e+01 -2.191576777584468516e+02 3.271309292006618108e+01 -1.830521430225874724e+01 1.221078848651001323e+02 -1.248430004822976258e+02 6.161626091153988938e+01 1.251443214895733291e+02 -4.586705920615597165e+01 -4.964092960254959763e+01 -2.705784157643426724e+01 6.159188798850077262e+01 6.305757046692367140e+01 3.235343503603165516e+01 -2.322081961697799670e+02 -5.159212903481040513e+01 9.132126930014973709e+01 9.881452645592597506e+00 -1.031734698758692126e+01 -6.644718848461715766e+01 -1.540609494589924111e+01 7.322984480602046631e+01 -1.451937705291832401e+02 -6.178098966176093398e+01 8.997300653972263973e+00 2.071511911064782510e+02 2.117071106462648231e+02 -3.197623288197608460e+01 5.580360996761789494e+01 -2.861891625063649469e-01 -1.394659426168440177e+02 9.584963466368955665e+01 1.070960052045242605e+02 1.083624090519021621e+02 1.168705095221795887e+01 6.181648158534193982e+01 4.805787377520699266e+01 3.883384273596725933e+01 2.925685239300866058e+01 1.101283612315198894e+02 8.959779731154337412e+01 6.552341771457832920e+01 1.627162631545701288e+02 2.472091949365532457e+02 1.952605940589098168e+02 -5.903120453276531521e+01 4.918915243485287192e+01 -6.421424003057312291e+01 5.635244036798134459e+01 -1.918198020286883718e+02 5.641622138243378259e+01 -2.044836289248976584e+02 -1.684461153998861960e+02 1.291623574827557519e+01 -9.206879118612480539e+00 1.692962873643301691e+02 -2.075846781120632443e+02 7.517873225502317780e+01 2.294346653924796442e+02 -7.281200465449523485e+00 -1.943651341314455863e+02 3.556889036705645424e+01 1.969548560803255270e+02 -6.100527919958724254e+01 -2.660465480685152784e+02 -1.024174435298222647e+02 8.781624569320397811e+00 -2.297767646232560708e+02 3.193877338664068333e+01 -1.792358446367288138e+02 -1.853944098374692260e+02 -5.700011427054978697e+01 1.523612101466061972e+02 6.947867342434319937e+01 1.058724960945030347e+01 -8.852751010787966379e+01 -4.258215631450281080e+01 6.372955639956346374e+01 -2.319344588051037306e+02 5.408820889698427692e+01 -7.503090049440390885e+01 -7.805719788114340929e+01 -1.767597709880133721e+02 6.511108673396830682e+01 9.278204590951573039e+01 -1.623385563441884472e+02 1.727506584557232259e+02 -3.991990655500335095e+01 -1.691616253296762196e+01 8.753353772429086632e+01 1.563238044642660611e+02 2.165694555478835781e+01 1.514796455210270096e+02 -1.844836819589226096e+01 -9.074275406085276074e+01 -1.963491855053360524e+01 1.011427608536316711e+02 4.625086700869475465e+01 1.006090224664620223e+02 9.710088192920753158e+01 -8.539081328656268965e+01 -1.747558118352806105e+02 1.265736161052511335e+02 5.581339281695626653e+01 1.658324104641258501e+01 3.146006354328144639e+01 -6.987279271982289686e+01 9.880174966186190488e+01 9.240203498456730813e+01 -1.403456123802683742e+01 -7.328503770748537249e+01 3.169606537719851858e+01 6.448403999759503513e+00 -6.334985324652295446e+01 1.744468415818901121e+02 -3.402497709877066967e+01 1.251648483333803625e+02 -7.218272018213674812e+01 3.951244800554249537e+01 -3.720690824097373195e+01 9.208835236932998214e+01 2.419142606474994750e+01 1.190036820194660123e+02 -1.194265952609741674e+02 7.656241025384011323e+01 1.272056095836286147e+02 -4.607694885048062616e+01 7.777140999347019523e+00 -1.298739490235881533e+01 1.202814677420607268e+02 3.590823322399672168e+00 1.738534455898751219e+02 -1.457334359445442544e+02 1.202841979109228987e+02 -9.419519649618877111e+01 9.868242526920829505e+01 -1.412960614985653365e+02 3.044701355485463878e+01 2.550231554405824141e+01 1.897981620313601070e+00 3.745036342635244608e+01 4.729252358262292688e+01 -1.285121816185193566e+01 1.108918690658362927e+01 1.115061154715535849e+02 1.313180839522404426e+02 -8.940566770143233555e+01 -5.598199935479539846e+01 4.890753429816971476e+01 1.605895877976783126e+00 -1.413317486536069509e+02 -5.683079121856519578e+01 -3.663755968700046850e+01 5.052301659179479287e+01 -6.771921799068404368e+01 2.369277670362231447e+01 1.656137635575052798e+02 -8.210004726393407282e+01 8.342745642512554127e+01 8.690190739838925538e+01 1.157031328151193605e+01 1.275546754055748266e+02 6.500012705256801837e+01 1.737240738787951955e+02 -3.568039896301789327e+01 1.163186888459497084e+02 5.743231501124028426e+01 -1.664126724502351351e+01 2.111753852756103811e+02 -1.436466943794322901e+02 5.057516579259025491e+01 -1.941420937941332454e+02 -8.715789674467359305e+01 4.246039282778792057e+01 -7.476531643636782576e+01 -1.614309331338204458e+02 2.064563331891810094e+02 -8.886813883619598187e+01 -4.920162107411108821e+01 -4.795992710012885141e+01 1.261600354289834058e+02 2.018718803949857659e+02 6.711956458830938743e+01 1.515902699449472948e+02 2.274606733853067908e+02 -1.704649580621570681e+00 1.689063631115249393e+02 7.349525631092747346e+01 1.973851098865680740e+02 -1.303748724296061425e+02 -1.233133341817464057e+01 6.555557746368772420e+00 1.969532171038618458e+02 -9.427499321580728520e+01 -6.265206866570394340e+01 -5.491208281202528951e+01 -1.388372622361964943e+02 4.828820105368088811e+00 -1.046622541693354975e+02 1.597263105645068606e+02 2.445604940237177871e+01 1.246791024430104677e+01 7.497377449717362197e+01 -5.137747051311619906e+00 1.212174796321292263e+02 -1.646680248908046735e+02 4.705812989566617688e+01 -1.771849082503458135e+02 1.217481624869482886e+02 9.950396166037070600e+01 -6.981794912803620434e+01 4.845854760806546579e+01 2.469002173639085811e+02 -3.156098065704128075e+01 4.320108557893674828e+01 -3.386887412901183581e+01 6.006340515995946561e+01 6.667351968755544078e+01 -6.492074729485435292e+00 1.057001202932444670e+02 1.052907749006899110e+02 -2.010046651416637928e+02 -1.588762408071297614e+02 -1.241880988559613854e+02 -9.819734363511628317e+00 -1.553123946623163931e+02 1.197796613404222370e+02 1.144206330867621091e+02 6.110758256274338862e+01 1.156600966422169208e+01 1.634689842950735965e+02 8.703447708310183373e+01 6.994830119447637173e+01 -1.053854339978606731e+02 1.578433942083142085e+02 -3.686144358083298211e+00 1.132865269592556245e+02 9.131779968711780882e+00 3.808455973457339638e+01 -7.847835086836653318e+01 -9.406241346598373809e+01 7.417183474754456540e+01 -3.949199848547073621e+00 1.515814825344724568e+02 -1.304247591881764023e+01 -2.969958048222740121e+00 4.750171951806489545e+01 2.346812468125686379e+01 1.464748397095150665e+02 1.511377079091882258e+01 3.710546866990642201e+01 -1.602226243452590211e+02 6.820543912013020815e+01 1.383938002285117079e+02 -1.835231705377259104e+01 -2.359983193250932345e+02 8.734781267776858726e+01 1.407494922014947178e+02 2.095164058829868736e+01 1.951658682594234620e+02 -4.216581280833151091e+00 4.429390183119843982e+01 -4.494096967047861568e+01 -1.430318979965256574e+02 5.769861039859193852e+01 -4.891377309275578966e+01 -8.356811958450089151e+01 4.244654034917065388e+01 -1.903427704917452843e+02 7.390416811951125453e+01 1.691808064241212719e+02 -1.041988861530744259e+02 1.779584836247067869e+02 -1.005290701255784001e+02 -6.172674935162931753e+00 -1.080027660039056769e+01 7.875125471734166638e+01 -4.785798064926763828e+01 -1.108550267520873547e+02 -9.096326801122100392e+01 1.497749350642115758e+02 6.071388213829987990e+01 -1.352506681580001100e+02 4.576588932394051845e+00 4.462310422421715828e+01 8.477762192067535807e+01 -4.140801705173058878e+01 6.159984811435597862e+01 -7.078421361523628264e+01 -1.666534306488939308e+02 -3.554696149574714070e+01 1.446615672221682871e+02 -1.162755412354784568e+02 -6.608065711342027804e+00 -1.671584246363204898e+02 -4.854345602137351001e+00 -1.496026393463718023e+02 3.370344237135882537e+01 6.162619607296744562e+01 -5.160737595592905791e+01 -8.448950885598337379e+01 5.764707812471247195e+00 7.624221199347370259e+01 -6.945556015850110043e+01 1.380592611645767249e+02 1.080668171595091991e+02 -1.307724974990871658e+02 -1.080125739404183349e+02 1.383573268334319550e+02 7.308535536584284387e+01 1.537808772292923152e+02 1.027192304942161343e+02 8.311801665617784352e+01 -6.167101210025677460e+01 -8.370999120199243748e+01 -7.887902105743198433e+01 2.092228960865684257e+02 3.118828632999179007e+01 -2.545179898975360189e+01 -7.011567673253496480e+01 -5.119092358622106076e+01 -1.340982624816614077e+02 -1.688664583980950695e+01 -1.786601022103628793e+02 1.273439152597725439e+02 4.689133721118947307e+01 -1.173765335187095502e+02 -4.925895343259558246e+01 1.219505694080204847e+02 -9.879203123395957675e+01 1.046928617064142770e+02 -1.205948084357521708e+02 -1.197172104433290585e+01 -9.723638065793679175e+01 9.131294168777789366e+01 -4.325697577820241690e+01 1.055639105525040478e+01 2.983795957155813028e+01 -1.289430839854393298e+02 1.272927934732725674e+01 4.917041284360557540e+01 -2.284297701593418850e+01 -6.997132879470007083e+01 2.060493731334078973e+02 8.796832095314820776e+01 4.798706414810413889e+01 -3.198061718727305447e+01 8.167212542958530719e+01 1.705330868271778684e+02 -9.393881756923308046e+01 2.131008746982796538e+02 -1.354220942000982859e+02 -1.871608849168301276e+02 1.545468401377548844e+02 -2.380163830649148053e+02 -1.041091151239000867e+00 -2.491754974186510196e+02 -1.556084780053948009e+02 7.299103507822640324e+01 -1.481955307731547293e+02 5.940786552279418231e+01 1.117570193513363961e+02 -1.631939058567924405e+02 -3.068930762733214834e+01 7.669835089271727213e+01 1.362635392637482141e+02 -1.892841861347413897e+02 8.895138997667221759e+01 -9.963835337752533405e+01 -1.006310405697221277e+01 -1.414987628090634253e+01 -8.097358626340076171e+01 -9.189618778714418568e+01 1.845006987486154912e+02 -2.202741538846752789e+01 1.342591477282648382e+00 1.324789730617561077e+02 -8.816074651179687294e+01 -3.502762728986317597e+01 -1.095348207344197533e+02 -4.972581376934289921e+01 5.296298144133320562e+00 6.048843603814653846e+01 -1.376241967154843451e+02 2.417578591421292913e+02 -5.498711746792842803e+01 1.251901155678407491e+02 -4.983254206413529630e+01 1.223101982980501532e+02 1.419608094514028096e+02 4.905988950369869883e+01 1.247400189438538263e+02 -4.415327832451482237e+01 1.429887309032419580e+02 -1.598055753598831643e+02 -6.681352391041825456e+01 -6.435108477833361462e+01 2.606126645901934324e+01 -1.658862843980271577e+02 7.416303174935143261e+01 -3.151434263354985177e+01 -8.447191527969481228e+01 9.161332632839680912e+01 -1.544488002937875706e+02 -9.322372124127829807e+01 -5.373774207672030201e+01 3.382602404316458689e+01 1.327233554867659109e+02 1.195014462406190319e+02 7.069660040567659109e+01 -1.676635457672216667e+00 1.787105361582408136e+02 1.252482986414673007e+02 -9.649797433125209523e+01 -7.992513197405828862e+01 5.680640461096453464e+01 1.023470886629950449e+01 1.001474715655509868e+02 1.703019819637145815e+02 7.213005630740939012e+01 2.488781826854750889e+01 -1.044164753119245148e+02 1.756040914440605150e+02 -1.161804887289100776e+02 -1.688920411888076956e+02 6.713818971660802504e+01 1.138799476766312466e+02 2.003703966795432123e+01 -1.418258298966569555e+02 3.039177132801549419e+01 4.334996354514598949e+01 -2.917887973140592117e-01 1.336794618060059747e+02 9.953765208953599597e+01 1.746043555359933563e+01 7.998633497968465633e+01 -1.093093767115336732e+02 -6.402138854318123684e+00 1.003538142189772771e+02 3.028947400525959210e+01 -6.638094190976919151e+01 2.020697964036688177e+02 2.358184999763381597e+02 -1.281225965826804725e+02 -2.814761369222123122e+01 -2.145040456928750530e+02 -7.363950866948185592e+01 1.598107126662551991e+02 3.504664915618137755e+00 -7.240470371319133847e+01 1.670983378425159458e+02 -6.378422424995263640e+01 -1.637783847435476048e+02 1.392471349389583679e+02 -6.857368297867236606e+01 3.509302952274369147e+01 8.807462629485831940e+01 1.403839405716831301e+01 -2.428497172478146808e+02 4.308521831801838431e+01 -6.219742461783481779e+00 9.179882044362845761e+01 -2.401326085201876381e+01 1.031580623951827675e+02 1.727153641166824372e+01 -8.644440268190160737e+01 -2.086159826282696272e+01 -1.785706425290463528e+02 1.172115067366152203e+02 2.574496378765168814e+01 -4.243834292791902385e+01 -5.281554110302500504e+01 -6.404149335113108066e+01 4.186789198364831321e+01 1.637541412359734068e+02 1.352474125486735943e+02 4.391458141553079031e+01 -2.016365366001789425e+02 -3.953226290042967150e+01 4.463887511335001079e+01 1.196042322971096326e+02 8.892734053524382887e+01 1.576498694975467529e+01 -1.896164481888563103e+02 1.342752933150837009e+02 -2.280549045867921620e+02 -2.097529849636651420e+02 -1.898940994438355956e+00 -7.519737138950013389e+01 -2.451014925587894666e+01 8.881142802941145931e+01 5.699793824715906965e+01 -1.133640618599466734e+02 -1.543326031064427752e+02 1.488601801791099533e+01 1.260679341177943655e+02 2.113094452150673419e+01 -5.779959082895367573e+01 -5.257402024338521329e+01 -1.205490546036977761e+01 1.644706596222146118e+02 2.281493450079012320e+01 -1.801207149730329036e+02 1.330388642431008748e+02 -6.926825625039857925e+01 -4.335004421218674686e+00 1.597682390593173807e+02 -5.429374125584459421e+01 -2.030561469414037390e+01 -1.139693832680176939e+02 -6.242324688725926940e+00 -2.476461022837481707e+01 1.366865787228166198e+02 1.246281673063235331e+02 7.011800915867138428e+01 6.783997909750500810e+01 -1.942100917111435621e+01 1.403431971795319839e+02 -1.169616381675044749e+02 -4.431554257311395517e+00 -9.447359284410046598e+01 1.630903464780398338e+02 7.569645976704067891e+01 5.366340914107401971e+01 8.612796880315295667e+00 -5.525779179274699260e+01 3.567716745958205138e+01 7.027748841350624609e+00 3.687932156667624195e+00 2.503877580138240688e+01 6.201955822741322066e+01 1.766306141917008858e+02 -4.025164791771903339e+01 -5.395226219818726321e+01 6.927742214251004782e+01 1.200117833643244580e+02 -1.328186758742186413e+01 9.533245607512951381e+01 1.078606615803520441e+02 2.185848345143345455e+02 -8.978608245430069701e+01 -1.272905851253533740e+02 -2.969548775245141314e+01 6.443018818526502400e+01 -1.052261906266108937e+01 1.114149242036510117e+02 3.860113246363064121e+01 -1.686641240681045133e+02 4.673614223323900774e+01 -9.276953012723559766e+01 -1.403010563874190098e+02 1.394541860926596257e+02 -7.879232481496202922e+01 6.128095707479187126e+01 1.153155775826424190e+02 -1.026899546264368013e+02 2.430364834896013093e+01 -7.478133772168779103e+01 4.169766407506683237e+01 -1.186812655626064128e+02 6.376307830583934333e+01 5.661560304053720927e+01 4.106768675050372686e+00 8.711540877210083522e+01 -1.584463896299117209e+02 7.911498314385812591e+01 -3.023818598134026558e+01 -1.737070146215063460e+02 9.710995625435013778e+01 2.518624938498354027e+01 -2.017407284056199330e+02 2.418447180114482364e+02 -5.390892142704506451e-01 1.081497030114957738e+02 -1.240095746334709332e+02 -1.996870967688925305e+02 -9.594661007137035824e+01 2.523773508122827192e+00 1.469649172293099184e+02 4.159006289169671966e+00 -9.825545317041675730e+01 5.187719051010215310e+01 1.409159194751472626e+02 6.684139500434179126e+01 -5.322950885939471988e+01 -6.080197951739187801e+01 8.689781113319526185e+01 3.165043211529361500e+01 -2.010292103881539845e+02 -2.132194250748580799e+01 1.738209963897228079e+02 1.016582650049189169e+02 -5.892094732370985355e+01 -1.149607173069069148e+02 -4.389547398482999796e+01 -4.943678694845478816e+01 -1.176862767845445035e+02 -1.904793444915550182e+01 -4.695713716972859686e+01 -1.168179761197199156e+02 -1.355637685129015892e+02 -2.765978664626425854e+01 -1.291906860381535296e+02 -1.375070069036069924e+02 -3.941283058857127486e+01 -5.693807395020998285e+01 -1.141006103518932093e+02 1.983468119926760380e+02 1.122901085091014828e+01 -2.998578430857581623e+01 -1.813506056403921818e+01 8.382070091605277184e+01 1.665229631693474488e+01 2.669020511590320410e+01 -2.272802887947720052e+01 -4.921006127348719161e+01 2.230124758385063188e+01 -1.548708462672214523e+02 -1.696465331828125613e+02 -9.641194875078601001e+01 -2.033543313490016260e+02 -9.551514305306952224e+01 9.147220779346147879e+01 6.539882039899347888e+01 -2.778491858438774997e+01 6.475717420285107551e+01 -1.667884844742492305e+02 -4.343729740253199623e+01 -1.237227083659042393e+02 -7.113667489521154152e+01 2.247118400748400688e+02 -2.187462610236857188e+02 2.187310310163985889e+02 2.666849288576551302e+01 -6.020778067025229063e+01 9.834579397712255400e+01 1.322262613080814901e+02 -5.529840983460546511e+01 -2.170488140183772998e+02 -1.588808505293251017e+02 1.089577840513291989e+02 8.925965382806825232e+01 -1.444987055563411786e+02 3.407949507214411256e+01 -4.224078264463405219e+01 -8.247473848905048044e+01 -3.028504275172518589e+01 -5.844134997747438831e+01 -9.213322306036687337e+01 -3.624241395002815835e+01 4.725588124649792832e+00 -3.490081596427632604e+01 -4.482734129325623429e-01 -1.534387885200049340e+01 9.805406391323055004e+01 1.353836159538688548e+02 1.404285810782866761e+01 1.787615449590937544e+01 -6.720992342788272822e+01 -2.088344932777616521e+02 3.608046644138129011e+01 -9.777353926460820333e+01 2.750909744170635207e+01 -8.775750645947788087e+00 1.043559806766806375e+00 7.691232247981204750e+01 1.298581843258339461e+02 -7.505709210705497014e+01 4.049050604572188661e+01 -2.054208446378261499e+02 1.028502179180601139e+01 7.521961049910507846e+00 -1.305676736135393980e+02 -3.595605771368688153e+01 -4.723237964882597595e+01 5.094005021932625610e+00 -1.089681660995928212e+02 2.883564569416382639e+01 -1.040647792915313090e+02 5.985926185148546352e+01 7.226776146199630091e+01 3.927940997927704814e+01 -3.092370766949365901e+01 1.144579910937297740e+02 6.503608672324172346e+01 8.521342942666318265e+01 -7.134903982114492749e+01 2.166690637990272350e+01 1.362441419248580701e+02 -6.225647278486918879e+01 -7.357288614288924222e+00 3.407913180986881940e+01 -1.367165222756661365e+02 1.041862235361846132e+02 9.537884044777077008e+01 -1.076369651330933266e+02 -8.768455746635322612e+01 -5.908930060277661767e+01 -4.842512399722942718e+01 -1.706487305268223054e+02 -1.446989013155992438e+02 -1.409687594361060121e+02 1.124402053222492697e+02 6.356683675463145278e+01 1.697005060028995445e+02 7.644828056020378959e+00 -9.126853722242708500e+01 1.989754275772263270e+01 1.471815598750866982e+01 -6.749130648098305585e+01 7.874422088820936949e+01 1.255414866699485685e+02 1.065724449975517629e+01 1.525249386108929457e+02 2.395387478686503258e+01 1.179695282938339318e+02 1.607438671868221292e+01 -2.208390337596283928e+02 2.320887470921450415e+02 -5.200829768023778144e+01 -1.585210841934708981e+02 -7.139604806872051768e+01 -4.566802049470104663e+01 4.368686336517111357e+01 2.703997004231937140e+01 4.830853609527022030e+01 -7.833668089727638062e+01 1.292507079304741069e+02 -9.108684886729919583e+01 -7.398882729258237312e+00 1.504191988521206440e+02 1.157308327405840629e+02 6.115557186686051949e+01 -1.867079031279165520e+02 2.681942804366186905e+01 1.480505206536568039e+02 2.471022320650723714e+01 1.028059899748931798e+02 1.120945093801788204e+02 -2.224685826998722007e+02 8.095021919508117492e+01 -6.076275551013241483e+01 -2.365064213650133809e+02 9.301284956374351509e+01 2.582644793780756487e+01 -1.276179176855018795e+02 -6.116727706000599341e+01 1.448168046701062792e+02 1.536265065027688195e+02 -7.882178269933407933e+01 -1.327696867070301039e+02 -8.661280636264176280e+01 -1.719929670337185996e+02 2.025282755277249791e+01 3.921914890672203313e+01 -1.747373368814637473e+01 -1.277631594607387200e+01 -9.232241055147230213e+01 -9.116474614301736779e+01 -2.537354851135292932e+01 1.375459196679689740e+02 1.398672263035599883e+02 8.320841305883732275e+01 9.944832492059177298e+01 -8.051375919330446607e+01 -1.846009089904894154e+02 -1.355732935949697548e+01 -2.370442098926448438e+01 -7.244379042503445021e+01 1.541277164828190660e+00 7.458895562293250237e+01 -5.402443785305156609e+01 2.509110624163970016e+01 8.079283067702982635e+01 7.152359767766880339e+01 1.127623092392106088e+02 -1.522549802594919299e+02 4.045989637456547428e+01 8.501523147691207782e+01 9.669822423826930446e+01 6.030103883978235046e+01 -1.053551403781772393e+02 1.397507598220902025e+02 1.300448119790166288e+02 9.778193740660044853e+01 1.036011428641726724e+02 -8.596264401595804827e+01 -1.518911555642801581e+01 -1.317076965284500645e+01 7.865700432946356102e+01 6.629086370793697824e+01 5.706862907266215501e+01 9.960136827855340869e+01 1.188300022268621490e+02 1.263451591942856851e+02 -6.629373236840928030e+01 8.222888828335116784e+01 6.659738090280846734e+01 -1.200606534117931545e+02 1.342922298853995642e+02 -1.025847093770566154e+01 -2.848280417013774013e+01 2.033585200356579321e+02 9.027391675762098089e+01 1.266611472367403337e+02 -1.473416059628896448e+02 -1.610991124906604171e+02 -1.570790202269554641e+02 -1.248121634683379995e+02 -4.524076255649022471e+01 1.122553564508072697e+02 -1.723480581403406973e+02 3.327573422426545591e+01 1.475947648208723706e+02 -6.067149180773123618e+01 -9.344536453036312196e+01 -3.590102725296862474e+01 1.390632753099617105e+02 2.326399433072149918e+02 -6.816599970578931789e+01 2.027561184409178807e+01 -2.837691566685429478e+01 7.012626764839684768e+01 6.173720759508855593e+01 -2.184011745543504617e+02 -9.081935250419627437e+01 1.409368480532786805e+02 1.432554972151512516e+02 9.688271282628801373e+01 -5.101710980113251992e+01 -7.772494047423025165e+01 -4.658131174531228424e+01 -1.809428089733237073e+02 7.298763915448714101e+01 -2.634460948319220108e+01 1.706459379329488115e+02 -2.862718031289501752e+01 -3.226089886114457386e+02 1.486368670270084067e+02 5.166977316523454533e+01 -1.210596076363970326e+02 -2.269029598588231167e+01 3.624965511430283271e+01 -2.131079853860289859e+02 -1.173147736459273887e+02 -1.124470972914124189e+02 -5.796950304488399297e+01 6.449738021937547217e+01 -1.691783542306904451e+02 1.108477754050804691e+02 -5.576231777823295488e+01 2.972412824680625842e+00 -1.369981184210984679e+02 -1.063242077793334346e+02 1.806125257062519438e+02 8.900191705654299312e+01 -4.338388884142695900e+01 3.821339179763609195e+01 -2.883629520179242434e+01 4.435250470552868052e+01 -1.074818868618230425e+02 1.014909773192106854e+02 5.192206626267042680e+01 -1.222029608320785030e+02 1.199984010800351086e+02 -5.053134828253912048e+01 1.027044760307562825e+02 -5.080049985132006185e+01 9.087889517086097158e+01 -1.577288719918287541e+02 1.466872570991982059e+02 2.547938900228684744e+01 1.034657246885935251e+02 1.340942763279695953e+02 -1.508001638477325344e+02 -8.833364580239130248e+01 -1.086357252688919885e+02 6.880147472108215823e+01 -1.762491143130635294e+02 1.557781099329929191e+02 1.465309428051527050e+02 5.452331280993800533e+01 -8.734810531878133588e+01 5.869641480832995484e+01 -1.103780966449064920e+02 -1.129663058845184409e+01 3.602202454890745287e+01 -1.891027939539200702e+02 -8.400270865264261033e+01 -1.393261051807085238e+01 1.052362759270968553e+02 -5.167545641875956619e+01 1.118738156202446135e+02 -6.626160079685965343e+01 -2.171015293166449567e+02 -1.102923309870201507e+02 -3.513426094912211539e+01 -6.200579861099079437e+01 3.101751613731714130e+01 5.288393209558459773e+01 6.555014119056342459e+00 2.600474793747165947e+01 -1.208076370689765184e+02 5.542745760947781974e+01 3.361460068742714924e+01 -7.442046936829683546e+01 9.523582681081736112e+00 5.799241133565639927e+01 -9.835754905466093589e+01 -5.675260052350739670e+01 -2.486014937761630250e+01 1.006429562149727559e+02 -1.765775925545614911e+01 4.321328436545632812e+00 -2.350998350429443349e+02 -9.802547234033892209e+01 1.020098170890935734e+02 -9.208602103309026177e+01 3.232881229820560520e+01 3.205000119736894959e+01 3.916517513866937605e+01 6.817213615207971600e+01 -1.830587060984403820e+02 1.485026810534808988e+02 8.399012962700730611e+01 -7.731811163043486701e+00 -8.337183639262575241e+01 1.155181301662650384e+02 6.406445157726057005e+01 -2.074505855925768572e+02 -5.200203273920884328e+01 -8.426700124806208692e+01 -5.352911346837223761e+01 -6.394764578967583901e+01 -1.022638517978238610e+02 -6.231292452034963247e+01 1.975774474334631066e+02 -1.762883410855575335e+02 6.759779599619928092e+01 2.862675474155146915e+01 -7.757384131505514802e+01 1.070151314982881452e+01 -4.066127524076125610e+01 3.527062939479814752e+00 -9.919886091485857094e+01 -2.038797922494940451e+02 1.898251617280226355e+01 4.327931688401706367e+01 -1.321477474750120251e+01 -9.364832107364829739e+00 -4.106528810127967688e+01 -1.960858152501810139e+02 -3.165723885874323429e+01 -6.748965019395444642e+01 1.444868365882845040e+01 -1.610891540084492490e+01 9.344118996462268001e+01 -6.507174500459976230e+01 -1.070765798438690268e+02 -3.694715704637079767e+01 -9.338852184349013541e+00 4.704471304907414009e+01 -2.288417213604801503e+01 -7.606439446018271155e+01 -1.638189877966722818e+01 2.074170410166721723e+01 4.905279103057632284e+01 -1.177623762379121359e+02 -1.435892629174241790e+02 2.378676464081679569e+02 -2.254086938571943506e+02 -7.846840510099913502e+01 -4.788788681896436827e+01 1.444689744393978401e+02 6.536827512481649194e+01 2.363343747120135276e+02 2.527878299830314575e+02 -6.436197686703387433e+01 1.337646023620563653e+02 -5.772840455288256578e+01 -4.214466652312751904e+01 -1.039978145661952453e+02 -8.248237647968441877e+01 -7.189619926295678454e+01 -9.190562019449075137e+01 -2.518126053391374910e+02 -2.798504687220541882e+02 1.391665833827139522e+02 -2.739313481612077794e+01 5.502027851020233129e+01 1.351498531749638516e+02
