# 
#                 ----------------------------------------------------
#                 Data from a 3D direct N-body simulation. 
# 
#                 rows are i-particle; 
#                 coumns are :mass, tag, x ,y, z, vx, vy, vz, ax, ay, az
# 
#                 NTHU, Computational Physics Lab
# 
#                 ----------------------------------------------------
#                 Time = 3.3999999999999715
1.000000000000000000e+00 2.000000000000000000e+00 3.000000000000000000e+00 4.000000000000000000e+00 5.000000000000000000e+00 6.000000000000000000e+00 7.000000000000000000e+00 8.000000000000000000e+00 9.000000000000000000e+00 1.000000000000000000e+01 1.100000000000000000e+01 1.200000000000000000e+01 1.300000000000000000e+01 1.400000000000000000e+01 1.500000000000000000e+01 1.600000000000000000e+01 1.700000000000000000e+01 1.800000000000000000e+01 1.900000000000000000e+01 2.000000000000000000e+01 2.100000000000000000e+01 2.200000000000000000e+01 2.300000000000000000e+01 2.400000000000000000e+01 2.500000000000000000e+01 2.600000000000000000e+01 2.700000000000000000e+01 2.800000000000000000e+01 2.900000000000000000e+01 3.000000000000000000e+01 3.100000000000000000e+01 3.200000000000000000e+01 3.300000000000000000e+01 3.400000000000000000e+01 3.500000000000000000e+01 3.600000000000000000e+01 3.700000000000000000e+01 3.800000000000000000e+01 3.900000000000000000e+01 4.000000000000000000e+01 4.100000000000000000e+01 4.200000000000000000e+01 4.300000000000000000e+01 4.400000000000000000e+01 4.500000000000000000e+01 4.600000000000000000e+01 4.700000000000000000e+01 4.800000000000000000e+01 4.900000000000000000e+01 5.000000000000000000e+01 5.100000000000000000e+01 5.200000000000000000e+01 5.300000000000000000e+01 5.400000000000000000e+01 5.500000000000000000e+01 5.600000000000000000e+01 5.700000000000000000e+01 5.800000000000000000e+01 5.900000000000000000e+01 6.000000000000000000e+01 6.100000000000000000e+01 6.200000000000000000e+01 6.300000000000000000e+01 6.400000000000000000e+01 6.500000000000000000e+01 6.600000000000000000e+01 6.700000000000000000e+01 6.800000000000000000e+01 6.900000000000000000e+01 7.000000000000000000e+01 7.100000000000000000e+01 7.200000000000000000e+01 7.300000000000000000e+01 7.400000000000000000e+01 7.500000000000000000e+01 7.600000000000000000e+01 7.700000000000000000e+01 7.800000000000000000e+01 7.900000000000000000e+01 8.000000000000000000e+01 8.100000000000000000e+01 8.200000000000000000e+01 8.300000000000000000e+01 8.400000000000000000e+01 8.500000000000000000e+01 8.600000000000000000e+01 8.700000000000000000e+01 8.800000000000000000e+01 8.900000000000000000e+01 9.000000000000000000e+01 9.100000000000000000e+01 9.200000000000000000e+01 9.300000000000000000e+01 9.400000000000000000e+01 9.500000000000000000e+01 9.600000000000000000e+01 9.700000000000000000e+01 9.800000000000000000e+01 9.900000000000000000e+01 1.000000000000000000e+02 1.010000000000000000e+02 1.020000000000000000e+02 1.030000000000000000e+02 1.040000000000000000e+02 1.050000000000000000e+02 1.060000000000000000e+02 1.070000000000000000e+02 1.080000000000000000e+02 1.090000000000000000e+02 1.100000000000000000e+02 1.110000000000000000e+02 1.120000000000000000e+02 1.130000000000000000e+02 1.140000000000000000e+02 1.150000000000000000e+02 1.160000000000000000e+02 1.170000000000000000e+02 1.180000000000000000e+02 1.190000000000000000e+02 1.200000000000000000e+02 1.210000000000000000e+02 1.220000000000000000e+02 1.230000000000000000e+02 1.240000000000000000e+02 1.250000000000000000e+02 1.260000000000000000e+02 1.270000000000000000e+02 1.280000000000000000e+02 1.290000000000000000e+02 1.300000000000000000e+02 1.310000000000000000e+02 1.320000000000000000e+02 1.330000000000000000e+02 1.340000000000000000e+02 1.350000000000000000e+02 1.360000000000000000e+02 1.370000000000000000e+02 1.380000000000000000e+02 1.390000000000000000e+02 1.400000000000000000e+02 1.410000000000000000e+02 1.420000000000000000e+02 1.430000000000000000e+02 1.440000000000000000e+02 1.450000000000000000e+02 1.460000000000000000e+02 1.470000000000000000e+02 1.480000000000000000e+02 1.490000000000000000e+02 1.500000000000000000e+02 1.510000000000000000e+02 1.520000000000000000e+02 1.530000000000000000e+02 1.540000000000000000e+02 1.550000000000000000e+02 1.560000000000000000e+02 1.570000000000000000e+02 1.580000000000000000e+02 1.590000000000000000e+02 1.600000000000000000e+02 1.610000000000000000e+02 1.620000000000000000e+02 1.630000000000000000e+02 1.640000000000000000e+02 1.650000000000000000e+02 1.660000000000000000e+02 1.670000000000000000e+02 1.680000000000000000e+02 1.690000000000000000e+02 1.700000000000000000e+02 1.710000000000000000e+02 1.720000000000000000e+02 1.730000000000000000e+02 1.740000000000000000e+02 1.750000000000000000e+02 1.760000000000000000e+02 1.770000000000000000e+02 1.780000000000000000e+02 1.790000000000000000e+02 1.800000000000000000e+02 1.810000000000000000e+02 1.820000000000000000e+02 1.830000000000000000e+02 1.840000000000000000e+02 1.850000000000000000e+02 1.860000000000000000e+02 1.870000000000000000e+02 1.880000000000000000e+02 1.890000000000000000e+02 1.900000000000000000e+02 1.910000000000000000e+02 1.920000000000000000e+02 1.930000000000000000e+02 1.940000000000000000e+02 1.950000000000000000e+02 1.960000000000000000e+02 1.970000000000000000e+02 1.980000000000000000e+02 1.990000000000000000e+02 2.000000000000000000e+02 2.010000000000000000e+02 2.020000000000000000e+02 2.030000000000000000e+02 2.040000000000000000e+02 2.050000000000000000e+02 2.060000000000000000e+02 2.070000000000000000e+02 2.080000000000000000e+02 2.090000000000000000e+02 2.100000000000000000e+02 2.110000000000000000e+02 2.120000000000000000e+02 2.130000000000000000e+02 2.140000000000000000e+02 2.150000000000000000e+02 2.160000000000000000e+02 2.170000000000000000e+02 2.180000000000000000e+02 2.190000000000000000e+02 2.200000000000000000e+02 2.210000000000000000e+02 2.220000000000000000e+02 2.230000000000000000e+02 2.240000000000000000e+02 2.250000000000000000e+02 2.260000000000000000e+02 2.270000000000000000e+02 2.280000000000000000e+02 2.290000000000000000e+02 2.300000000000000000e+02 2.310000000000000000e+02 2.320000000000000000e+02 2.330000000000000000e+02 2.340000000000000000e+02 2.350000000000000000e+02 2.360000000000000000e+02 2.370000000000000000e+02 2.380000000000000000e+02 2.390000000000000000e+02 2.400000000000000000e+02 2.410000000000000000e+02 2.420000000000000000e+02 2.430000000000000000e+02 2.440000000000000000e+02 2.450000000000000000e+02 2.460000000000000000e+02 2.470000000000000000e+02 2.480000000000000000e+02 2.490000000000000000e+02 2.500000000000000000e+02 2.510000000000000000e+02 2.520000000000000000e+02 2.530000000000000000e+02 2.540000000000000000e+02 2.550000000000000000e+02 2.560000000000000000e+02 2.570000000000000000e+02 2.580000000000000000e+02 2.590000000000000000e+02 2.600000000000000000e+02 2.610000000000000000e+02 2.620000000000000000e+02 2.630000000000000000e+02 2.640000000000000000e+02 2.650000000000000000e+02 2.660000000000000000e+02 2.670000000000000000e+02 2.680000000000000000e+02 2.690000000000000000e+02 2.700000000000000000e+02 2.710000000000000000e+02 2.720000000000000000e+02 2.730000000000000000e+02 2.740000000000000000e+02 2.750000000000000000e+02 2.760000000000000000e+02 2.770000000000000000e+02 2.780000000000000000e+02 2.790000000000000000e+02 2.800000000000000000e+02 2.810000000000000000e+02 2.820000000000000000e+02 2.830000000000000000e+02 2.840000000000000000e+02 2.850000000000000000e+02 2.860000000000000000e+02 2.870000000000000000e+02 2.880000000000000000e+02 2.890000000000000000e+02 2.900000000000000000e+02 2.910000000000000000e+02 2.920000000000000000e+02 2.930000000000000000e+02 2.940000000000000000e+02 2.950000000000000000e+02 2.960000000000000000e+02 2.970000000000000000e+02 2.980000000000000000e+02 2.990000000000000000e+02 3.000000000000000000e+02 3.010000000000000000e+02 3.020000000000000000e+02 3.030000000000000000e+02 3.040000000000000000e+02 3.050000000000000000e+02 3.060000000000000000e+02 3.070000000000000000e+02 3.080000000000000000e+02 3.090000000000000000e+02 3.100000000000000000e+02 3.110000000000000000e+02 3.120000000000000000e+02 3.130000000000000000e+02 3.140000000000000000e+02 3.150000000000000000e+02 3.160000000000000000e+02 3.170000000000000000e+02 3.180000000000000000e+02 3.190000000000000000e+02 3.200000000000000000e+02 3.210000000000000000e+02 3.220000000000000000e+02 3.230000000000000000e+02 3.240000000000000000e+02 3.250000000000000000e+02 3.260000000000000000e+02 3.270000000000000000e+02 3.280000000000000000e+02 3.290000000000000000e+02 3.300000000000000000e+02 3.310000000000000000e+02 3.320000000000000000e+02 3.330000000000000000e+02 3.340000000000000000e+02 3.350000000000000000e+02 3.360000000000000000e+02 3.370000000000000000e+02 3.380000000000000000e+02 3.390000000000000000e+02 3.400000000000000000e+02 3.410000000000000000e+02 3.420000000000000000e+02 3.430000000000000000e+02 3.440000000000000000e+02 3.450000000000000000e+02 3.460000000000000000e+02 3.470000000000000000e+02 3.480000000000000000e+02 3.490000000000000000e+02 3.500000000000000000e+02 3.510000000000000000e+02 3.520000000000000000e+02 3.530000000000000000e+02 3.540000000000000000e+02 3.550000000000000000e+02 3.560000000000000000e+02 3.570000000000000000e+02 3.580000000000000000e+02 3.590000000000000000e+02 3.600000000000000000e+02 3.610000000000000000e+02 3.620000000000000000e+02 3.630000000000000000e+02 3.640000000000000000e+02 3.650000000000000000e+02 3.660000000000000000e+02 3.670000000000000000e+02 3.680000000000000000e+02 3.690000000000000000e+02 3.700000000000000000e+02 3.710000000000000000e+02 3.720000000000000000e+02 3.730000000000000000e+02 3.740000000000000000e+02 3.750000000000000000e+02 3.760000000000000000e+02 3.770000000000000000e+02 3.780000000000000000e+02 3.790000000000000000e+02 3.800000000000000000e+02 3.810000000000000000e+02 3.820000000000000000e+02 3.830000000000000000e+02 3.840000000000000000e+02 3.850000000000000000e+02 3.860000000000000000e+02 3.870000000000000000e+02 3.880000000000000000e+02 3.890000000000000000e+02 3.900000000000000000e+02 3.910000000000000000e+02 3.920000000000000000e+02 3.930000000000000000e+02 3.940000000000000000e+02 3.950000000000000000e+02 3.960000000000000000e+02 3.970000000000000000e+02 3.980000000000000000e+02 3.990000000000000000e+02 4.000000000000000000e+02 4.010000000000000000e+02 4.020000000000000000e+02 4.030000000000000000e+02 4.040000000000000000e+02 4.050000000000000000e+02 4.060000000000000000e+02 4.070000000000000000e+02 4.080000000000000000e+02 4.090000000000000000e+02 4.100000000000000000e+02 4.110000000000000000e+02 4.120000000000000000e+02 4.130000000000000000e+02 4.140000000000000000e+02 4.150000000000000000e+02 4.160000000000000000e+02 4.170000000000000000e+02 4.180000000000000000e+02 4.190000000000000000e+02 4.200000000000000000e+02 4.210000000000000000e+02 4.220000000000000000e+02 4.230000000000000000e+02 4.240000000000000000e+02 4.250000000000000000e+02 4.260000000000000000e+02 4.270000000000000000e+02 4.280000000000000000e+02 4.290000000000000000e+02 4.300000000000000000e+02 4.310000000000000000e+02 4.320000000000000000e+02 4.330000000000000000e+02 4.340000000000000000e+02 4.350000000000000000e+02 4.360000000000000000e+02 4.370000000000000000e+02 4.380000000000000000e+02 4.390000000000000000e+02 4.400000000000000000e+02 4.410000000000000000e+02 4.420000000000000000e+02 4.430000000000000000e+02 4.440000000000000000e+02 4.450000000000000000e+02 4.460000000000000000e+02 4.470000000000000000e+02 4.480000000000000000e+02 4.490000000000000000e+02 4.500000000000000000e+02 4.510000000000000000e+02 4.520000000000000000e+02 4.530000000000000000e+02 4.540000000000000000e+02 4.550000000000000000e+02 4.560000000000000000e+02 4.570000000000000000e+02 4.580000000000000000e+02 4.590000000000000000e+02 4.600000000000000000e+02 4.610000000000000000e+02 4.620000000000000000e+02 4.630000000000000000e+02 4.640000000000000000e+02 4.650000000000000000e+02 4.660000000000000000e+02 4.670000000000000000e+02 4.680000000000000000e+02 4.690000000000000000e+02 4.700000000000000000e+02 4.710000000000000000e+02 4.720000000000000000e+02 4.730000000000000000e+02 4.740000000000000000e+02 4.750000000000000000e+02 4.760000000000000000e+02 4.770000000000000000e+02 4.780000000000000000e+02 4.790000000000000000e+02 4.800000000000000000e+02 4.810000000000000000e+02 4.820000000000000000e+02 4.830000000000000000e+02 4.840000000000000000e+02 4.850000000000000000e+02 4.860000000000000000e+02 4.870000000000000000e+02 4.880000000000000000e+02 4.890000000000000000e+02 4.900000000000000000e+02 4.910000000000000000e+02 4.920000000000000000e+02 4.930000000000000000e+02 4.940000000000000000e+02 4.950000000000000000e+02 4.960000000000000000e+02 4.970000000000000000e+02 4.980000000000000000e+02 4.990000000000000000e+02 5.000000000000000000e+02 5.010000000000000000e+02 5.020000000000000000e+02 5.030000000000000000e+02 5.040000000000000000e+02 5.050000000000000000e+02 5.060000000000000000e+02 5.070000000000000000e+02 5.080000000000000000e+02 5.090000000000000000e+02 5.100000000000000000e+02 5.110000000000000000e+02 5.120000000000000000e+02 5.130000000000000000e+02 5.140000000000000000e+02 5.150000000000000000e+02 5.160000000000000000e+02 5.170000000000000000e+02 5.180000000000000000e+02 5.190000000000000000e+02 5.200000000000000000e+02 5.210000000000000000e+02 5.220000000000000000e+02 5.230000000000000000e+02 5.240000000000000000e+02 5.250000000000000000e+02 5.260000000000000000e+02 5.270000000000000000e+02 5.280000000000000000e+02 5.290000000000000000e+02 5.300000000000000000e+02 5.310000000000000000e+02 5.320000000000000000e+02 5.330000000000000000e+02 5.340000000000000000e+02 5.350000000000000000e+02 5.360000000000000000e+02 5.370000000000000000e+02 5.380000000000000000e+02 5.390000000000000000e+02 5.400000000000000000e+02 5.410000000000000000e+02 5.420000000000000000e+02 5.430000000000000000e+02 5.440000000000000000e+02 5.450000000000000000e+02 5.460000000000000000e+02 5.470000000000000000e+02 5.480000000000000000e+02 5.490000000000000000e+02 5.500000000000000000e+02 5.510000000000000000e+02 5.520000000000000000e+02 5.530000000000000000e+02 5.540000000000000000e+02 5.550000000000000000e+02 5.560000000000000000e+02 5.570000000000000000e+02 5.580000000000000000e+02 5.590000000000000000e+02 5.600000000000000000e+02 5.610000000000000000e+02 5.620000000000000000e+02 5.630000000000000000e+02 5.640000000000000000e+02 5.650000000000000000e+02 5.660000000000000000e+02 5.670000000000000000e+02 5.680000000000000000e+02 5.690000000000000000e+02 5.700000000000000000e+02 5.710000000000000000e+02 5.720000000000000000e+02 5.730000000000000000e+02 5.740000000000000000e+02 5.750000000000000000e+02 5.760000000000000000e+02 5.770000000000000000e+02 5.780000000000000000e+02 5.790000000000000000e+02 5.800000000000000000e+02 5.810000000000000000e+02 5.820000000000000000e+02 5.830000000000000000e+02 5.840000000000000000e+02 5.850000000000000000e+02 5.860000000000000000e+02 5.870000000000000000e+02 5.880000000000000000e+02 5.890000000000000000e+02 5.900000000000000000e+02 5.910000000000000000e+02 5.920000000000000000e+02 5.930000000000000000e+02 5.940000000000000000e+02 5.950000000000000000e+02 5.960000000000000000e+02 5.970000000000000000e+02 5.980000000000000000e+02 5.990000000000000000e+02 6.000000000000000000e+02 6.010000000000000000e+02 6.020000000000000000e+02 6.030000000000000000e+02 6.040000000000000000e+02 6.050000000000000000e+02 6.060000000000000000e+02 6.070000000000000000e+02 6.080000000000000000e+02 6.090000000000000000e+02 6.100000000000000000e+02 6.110000000000000000e+02 6.120000000000000000e+02 6.130000000000000000e+02 6.140000000000000000e+02 6.150000000000000000e+02 6.160000000000000000e+02 6.170000000000000000e+02 6.180000000000000000e+02 6.190000000000000000e+02 6.200000000000000000e+02 6.210000000000000000e+02 6.220000000000000000e+02 6.230000000000000000e+02 6.240000000000000000e+02 6.250000000000000000e+02 6.260000000000000000e+02 6.270000000000000000e+02 6.280000000000000000e+02 6.290000000000000000e+02 6.300000000000000000e+02 6.310000000000000000e+02 6.320000000000000000e+02 6.330000000000000000e+02 6.340000000000000000e+02 6.350000000000000000e+02 6.360000000000000000e+02 6.370000000000000000e+02 6.380000000000000000e+02 6.390000000000000000e+02 6.400000000000000000e+02 6.410000000000000000e+02 6.420000000000000000e+02 6.430000000000000000e+02 6.440000000000000000e+02 6.450000000000000000e+02 6.460000000000000000e+02 6.470000000000000000e+02 6.480000000000000000e+02 6.490000000000000000e+02 6.500000000000000000e+02 6.510000000000000000e+02 6.520000000000000000e+02 6.530000000000000000e+02 6.540000000000000000e+02 6.550000000000000000e+02 6.560000000000000000e+02 6.570000000000000000e+02 6.580000000000000000e+02 6.590000000000000000e+02 6.600000000000000000e+02 6.610000000000000000e+02 6.620000000000000000e+02 6.630000000000000000e+02 6.640000000000000000e+02 6.650000000000000000e+02 6.660000000000000000e+02 6.670000000000000000e+02 6.680000000000000000e+02 6.690000000000000000e+02 6.700000000000000000e+02 6.710000000000000000e+02 6.720000000000000000e+02 6.730000000000000000e+02 6.740000000000000000e+02 6.750000000000000000e+02 6.760000000000000000e+02 6.770000000000000000e+02 6.780000000000000000e+02 6.790000000000000000e+02 6.800000000000000000e+02 6.810000000000000000e+02 6.820000000000000000e+02 6.830000000000000000e+02 6.840000000000000000e+02 6.850000000000000000e+02 6.860000000000000000e+02 6.870000000000000000e+02 6.880000000000000000e+02 6.890000000000000000e+02 6.900000000000000000e+02 6.910000000000000000e+02 6.920000000000000000e+02 6.930000000000000000e+02 6.940000000000000000e+02 6.950000000000000000e+02 6.960000000000000000e+02 6.970000000000000000e+02 6.980000000000000000e+02 6.990000000000000000e+02 7.000000000000000000e+02 7.010000000000000000e+02 7.020000000000000000e+02 7.030000000000000000e+02 7.040000000000000000e+02 7.050000000000000000e+02 7.060000000000000000e+02 7.070000000000000000e+02 7.080000000000000000e+02 7.090000000000000000e+02 7.100000000000000000e+02 7.110000000000000000e+02 7.120000000000000000e+02 7.130000000000000000e+02 7.140000000000000000e+02 7.150000000000000000e+02 7.160000000000000000e+02 7.170000000000000000e+02 7.180000000000000000e+02 7.190000000000000000e+02 7.200000000000000000e+02 7.210000000000000000e+02 7.220000000000000000e+02 7.230000000000000000e+02 7.240000000000000000e+02 7.250000000000000000e+02 7.260000000000000000e+02 7.270000000000000000e+02 7.280000000000000000e+02 7.290000000000000000e+02 7.300000000000000000e+02 7.310000000000000000e+02 7.320000000000000000e+02 7.330000000000000000e+02 7.340000000000000000e+02 7.350000000000000000e+02 7.360000000000000000e+02 7.370000000000000000e+02 7.380000000000000000e+02 7.390000000000000000e+02 7.400000000000000000e+02 7.410000000000000000e+02 7.420000000000000000e+02 7.430000000000000000e+02 7.440000000000000000e+02 7.450000000000000000e+02 7.460000000000000000e+02 7.470000000000000000e+02 7.480000000000000000e+02 7.490000000000000000e+02 7.500000000000000000e+02 7.510000000000000000e+02 7.520000000000000000e+02 7.530000000000000000e+02 7.540000000000000000e+02 7.550000000000000000e+02 7.560000000000000000e+02 7.570000000000000000e+02 7.580000000000000000e+02 7.590000000000000000e+02 7.600000000000000000e+02 7.610000000000000000e+02 7.620000000000000000e+02 7.630000000000000000e+02 7.640000000000000000e+02 7.650000000000000000e+02 7.660000000000000000e+02 7.670000000000000000e+02 7.680000000000000000e+02 7.690000000000000000e+02 7.700000000000000000e+02 7.710000000000000000e+02 7.720000000000000000e+02 7.730000000000000000e+02 7.740000000000000000e+02 7.750000000000000000e+02 7.760000000000000000e+02 7.770000000000000000e+02 7.780000000000000000e+02 7.790000000000000000e+02 7.800000000000000000e+02 7.810000000000000000e+02 7.820000000000000000e+02 7.830000000000000000e+02 7.840000000000000000e+02 7.850000000000000000e+02 7.860000000000000000e+02 7.870000000000000000e+02 7.880000000000000000e+02 7.890000000000000000e+02 7.900000000000000000e+02 7.910000000000000000e+02 7.920000000000000000e+02 7.930000000000000000e+02 7.940000000000000000e+02 7.950000000000000000e+02 7.960000000000000000e+02 7.970000000000000000e+02 7.980000000000000000e+02 7.990000000000000000e+02 8.000000000000000000e+02 8.010000000000000000e+02 8.020000000000000000e+02 8.030000000000000000e+02 8.040000000000000000e+02 8.050000000000000000e+02 8.060000000000000000e+02 8.070000000000000000e+02 8.080000000000000000e+02 8.090000000000000000e+02 8.100000000000000000e+02 8.110000000000000000e+02 8.120000000000000000e+02 8.130000000000000000e+02 8.140000000000000000e+02 8.150000000000000000e+02 8.160000000000000000e+02 8.170000000000000000e+02 8.180000000000000000e+02 8.190000000000000000e+02 8.200000000000000000e+02 8.210000000000000000e+02 8.220000000000000000e+02 8.230000000000000000e+02 8.240000000000000000e+02 8.250000000000000000e+02 8.260000000000000000e+02 8.270000000000000000e+02 8.280000000000000000e+02 8.290000000000000000e+02 8.300000000000000000e+02 8.310000000000000000e+02 8.320000000000000000e+02 8.330000000000000000e+02 8.340000000000000000e+02 8.350000000000000000e+02 8.360000000000000000e+02 8.370000000000000000e+02 8.380000000000000000e+02 8.390000000000000000e+02 8.400000000000000000e+02 8.410000000000000000e+02 8.420000000000000000e+02 8.430000000000000000e+02 8.440000000000000000e+02 8.450000000000000000e+02 8.460000000000000000e+02 8.470000000000000000e+02 8.480000000000000000e+02 8.490000000000000000e+02 8.500000000000000000e+02 8.510000000000000000e+02 8.520000000000000000e+02 8.530000000000000000e+02 8.540000000000000000e+02 8.550000000000000000e+02 8.560000000000000000e+02 8.570000000000000000e+02 8.580000000000000000e+02 8.590000000000000000e+02 8.600000000000000000e+02 8.610000000000000000e+02 8.620000000000000000e+02 8.630000000000000000e+02 8.640000000000000000e+02 8.650000000000000000e+02 8.660000000000000000e+02 8.670000000000000000e+02 8.680000000000000000e+02 8.690000000000000000e+02 8.700000000000000000e+02 8.710000000000000000e+02 8.720000000000000000e+02 8.730000000000000000e+02 8.740000000000000000e+02 8.750000000000000000e+02 8.760000000000000000e+02 8.770000000000000000e+02 8.780000000000000000e+02 8.790000000000000000e+02 8.800000000000000000e+02 8.810000000000000000e+02 8.820000000000000000e+02 8.830000000000000000e+02 8.840000000000000000e+02 8.850000000000000000e+02 8.860000000000000000e+02 8.870000000000000000e+02 8.880000000000000000e+02 8.890000000000000000e+02 8.900000000000000000e+02 8.910000000000000000e+02 8.920000000000000000e+02 8.930000000000000000e+02 8.940000000000000000e+02 8.950000000000000000e+02 8.960000000000000000e+02 8.970000000000000000e+02 8.980000000000000000e+02 8.990000000000000000e+02 9.000000000000000000e+02 9.010000000000000000e+02 9.020000000000000000e+02 9.030000000000000000e+02 9.040000000000000000e+02 9.050000000000000000e+02 9.060000000000000000e+02 9.070000000000000000e+02 9.080000000000000000e+02 9.090000000000000000e+02 9.100000000000000000e+02 9.110000000000000000e+02 9.120000000000000000e+02 9.130000000000000000e+02 9.140000000000000000e+02 9.150000000000000000e+02 9.160000000000000000e+02 9.170000000000000000e+02 9.180000000000000000e+02 9.190000000000000000e+02 9.200000000000000000e+02 9.210000000000000000e+02 9.220000000000000000e+02 9.230000000000000000e+02 9.240000000000000000e+02 9.250000000000000000e+02 9.260000000000000000e+02 9.270000000000000000e+02 9.280000000000000000e+02 9.290000000000000000e+02 9.300000000000000000e+02 9.310000000000000000e+02 9.320000000000000000e+02 9.330000000000000000e+02 9.340000000000000000e+02 9.350000000000000000e+02 9.360000000000000000e+02 9.370000000000000000e+02 9.380000000000000000e+02 9.390000000000000000e+02 9.400000000000000000e+02 9.410000000000000000e+02 9.420000000000000000e+02 9.430000000000000000e+02 9.440000000000000000e+02 9.450000000000000000e+02 9.460000000000000000e+02 9.470000000000000000e+02 9.480000000000000000e+02 9.490000000000000000e+02 9.500000000000000000e+02 9.510000000000000000e+02 9.520000000000000000e+02 9.530000000000000000e+02 9.540000000000000000e+02 9.550000000000000000e+02 9.560000000000000000e+02 9.570000000000000000e+02 9.580000000000000000e+02 9.590000000000000000e+02 9.600000000000000000e+02 9.610000000000000000e+02 9.620000000000000000e+02 9.630000000000000000e+02 9.640000000000000000e+02 9.650000000000000000e+02 9.660000000000000000e+02 9.670000000000000000e+02 9.680000000000000000e+02 9.690000000000000000e+02 9.700000000000000000e+02 9.710000000000000000e+02 9.720000000000000000e+02 9.730000000000000000e+02 9.740000000000000000e+02 9.750000000000000000e+02 9.760000000000000000e+02 9.770000000000000000e+02 9.780000000000000000e+02 9.790000000000000000e+02 9.800000000000000000e+02 9.810000000000000000e+02 9.820000000000000000e+02 9.830000000000000000e+02 9.840000000000000000e+02 9.850000000000000000e+02 9.860000000000000000e+02 9.870000000000000000e+02 9.880000000000000000e+02 9.890000000000000000e+02 9.900000000000000000e+02 9.910000000000000000e+02 9.920000000000000000e+02 9.930000000000000000e+02 9.940000000000000000e+02 9.950000000000000000e+02 9.960000000000000000e+02 9.970000000000000000e+02 9.980000000000000000e+02 9.990000000000000000e+02 1.000000000000000000e+03
1.000000000000000021e-02 1.000000000000000021e-02 1.000000000000000021e-02 1.000000000000000021e-02 1.000000000000000021e-02 1.000000000000000021e-02 1.000000000000000021e-02 1.000000000000000021e-02 1.000000000000000021e-02 1.000000000000000021e-02 1.000000000000000021e-02 1.000000000000000021e-02 1.000000000000000021e-02 1.000000000000000021e-02 1.000000000000000021e-02 1.000000000000000021e-02 1.000000000000000021e-02 1.000000000000000021e-02 1.000000000000000021e-02 1.000000000000000021e-02 1.000000000000000021e-02 1.000000000000000021e-02 1.000000000000000021e-02 1.000000000000000021e-02 1.000000000000000021e-02 1.000000000000000021e-02 1.000000000000000021e-02 1.000000000000000021e-02 1.000000000000000021e-02 1.000000000000000021e-02 1.000000000000000021e-02 1.000000000000000021e-02 1.000000000000000021e-02 1.000000000000000021e-02 1.000000000000000021e-02 1.000000000000000021e-02 1.000000000000000021e-02 1.000000000000000021e-02 1.000000000000000021e-02 1.000000000000000021e-02 1.000000000000000021e-02 1.000000000000000021e-02 1.000000000000000021e-02 1.000000000000000021e-02 1.000000000000000021e-02 1.000000000000000021e-02 1.000000000000000021e-02 1.000000000000000021e-02 1.000000000000000021e-02 1.000000000000000021e-02 1.000000000000000021e-02 1.000000000000000021e-02 1.000000000000000021e-02 1.000000000000000021e-02 1.000000000000000021e-02 1.000000000000000021e-02 1.000000000000000021e-02 1.000000000000000021e-02 1.000000000000000021e-02 1.000000000000000021e-02 1.000000000000000021e-02 1.000000000000000021e-02 1.000000000000000021e-02 1.000000000000000021e-02 1.000000000000000021e-02 1.000000000000000021e-02 1.000000000000000021e-02 1.000000000000000021e-02 1.000000000000000021e-02 1.000000000000000021e-02 1.000000000000000021e-02 1.000000000000000021e-02 1.000000000000000021e-02 1.000000000000000021e-02 1.000000000000000021e-02 1.000000000000000021e-02 1.000000000000000021e-02 1.000000000000000021e-02 1.000000000000000021e-02 1.000000000000000021e-02 1.000000000000000021e-02 1.000000000000000021e-02 1.000000000000000021e-02 1.000000000000000021e-02 1.000000000000000021e-02 1.000000000000000021e-02 1.000000000000000021e-02 1.000000000000000021e-02 1.000000000000000021e-02 1.000000000000000021e-02 1.000000000000000021e-02 1.000000000000000021e-02 1.000000000000000021e-02 1.000000000000000021e-02 1.000000000000000021e-02 1.000000000000000021e-02 1.000000000000000021e-02 1.000000000000000021e-02 1.000000000000000021e-02 1.000000000000000021e-02 1.000000000000000021e-02 1.000000000000000021e-02 1.000000000000000021e-02 1.000000000000000021e-02 1.000000000000000021e-02 1.000000000000000021e-02 1.000000000000000021e-02 1.000000000000000021e-02 1.000000000000000021e-02 1.000000000000000021e-02 1.000000000000000021e-02 1.000000000000000021e-02 1.000000000000000021e-02 1.000000000000000021e-02 1.000000000000000021e-02 1.000000000000000021e-02 1.000000000000000021e-02 1.000000000000000021e-02 1.000000000000000021e-02 1.000000000000000021e-02 1.000000000000000021e-02 1.000000000000000021e-02 1.000000000000000021e-02 1.000000000000000021e-02 1.000000000000000021e-02 1.000000000000000021e-02 1.000000000000000021e-02 1.000000000000000021e-02 1.000000000000000021e-02 1.000000000000000021e-02 1.000000000000000021e-02 1.000000000000000021e-02 1.000000000000000021e-02 1.000000000000000021e-02 1.000000000000000021e-02 1.000000000000000021e-02 1.000000000000000021e-02 1.000000000000000021e-02 1.000000000000000021e-02 1.000000000000000021e-02 1.000000000000000021e-02 1.000000000000000021e-02 1.000000000000000021e-02 1.000000000000000021e-02 1.000000000000000021e-02 1.000000000000000021e-02 1.000000000000000021e-02 1.000000000000000021e-02 1.000000000000000021e-02 1.000000000000000021e-02 1.000000000000000021e-02 1.000000000000000021e-02 1.000000000000000021e-02 1.000000000000000021e-02 1.000000000000000021e-02 1.000000000000000021e-02 1.000000000000000021e-02 1.000000000000000021e-02 1.000000000000000021e-02 1.000000000000000021e-02 1.000000000000000021e-02 1.000000000000000021e-02 1.000000000000000021e-02 1.000000000000000021e-02 1.000000000000000021e-02 1.000000000000000021e-02 1.000000000000000021e-02 1.000000000000000021e-02 1.000000000000000021e-02 1.000000000000000021e-02 1.000000000000000021e-02 1.000000000000000021e-02 1.000000000000000021e-02 1.000000000000000021e-02 1.000000000000000021e-02 1.000000000000000021e-02 1.000000000000000021e-02 1.000000000000000021e-02 1.000000000000000021e-02 1.000000000000000021e-02 1.000000000000000021e-02 1.000000000000000021e-02 1.000000000000000021e-02 1.000000000000000021e-02 1.000000000000000021e-02 1.000000000000000021e-02 1.000000000000000021e-02 1.000000000000000021e-02 1.000000000000000021e-02 1.000000000000000021e-02 1.000000000000000021e-02 1.000000000000000021e-02 1.000000000000000021e-02 1.000000000000000021e-02 1.000000000000000021e-02 1.000000000000000021e-02 1.000000000000000021e-02 1.000000000000000021e-02 1.000000000000000021e-02 1.000000000000000021e-02 1.000000000000000021e-02 1.000000000000000021e-02 1.000000000000000021e-02 1.000000000000000021e-02 1.000000000000000021e-02 1.000000000000000021e-02 1.000000000000000021e-02 1.000000000000000021e-02 1.000000000000000021e-02 1.000000000000000021e-02 1.000000000000000021e-02 1.000000000000000021e-02 1.000000000000000021e-02 1.000000000000000021e-02 1.000000000000000021e-02 1.000000000000000021e-02 1.000000000000000021e-02 1.000000000000000021e-02 1.000000000000000021e-02 1.000000000000000021e-02 1.000000000000000021e-02 1.000000000000000021e-02 1.000000000000000021e-02 1.000000000000000021e-02 1.000000000000000021e-02 1.000000000000000021e-02 1.000000000000000021e-02 1.000000000000000021e-02 1.000000000000000021e-02 1.000000000000000021e-02 1.000000000000000021e-02 1.000000000000000021e-02 1.000000000000000021e-02 1.000000000000000021e-02 1.000000000000000021e-02 1.000000000000000021e-02 1.000000000000000021e-02 1.000000000000000021e-02 1.000000000000000021e-02 1.000000000000000021e-02 1.000000000000000021e-02 1.000000000000000021e-02 1.000000000000000021e-02 1.000000000000000021e-02 1.000000000000000021e-02 1.000000000000000021e-02 1.000000000000000021e-02 1.000000000000000021e-02 1.000000000000000021e-02 1.000000000000000021e-02 1.000000000000000021e-02 1.000000000000000021e-02 1.000000000000000021e-02 1.000000000000000021e-02 1.000000000000000021e-02 1.000000000000000021e-02 1.000000000000000021e-02 1.000000000000000021e-02 1.000000000000000021e-02 1.000000000000000021e-02 1.000000000000000021e-02 1.000000000000000021e-02 1.000000000000000021e-02 1.000000000000000021e-02 1.000000000000000021e-02 1.000000000000000021e-02 1.000000000000000021e-02 1.000000000000000021e-02 1.000000000000000021e-02 1.000000000000000021e-02 1.000000000000000021e-02 1.000000000000000021e-02 1.000000000000000021e-02 1.000000000000000021e-02 1.000000000000000021e-02 1.000000000000000021e-02 1.000000000000000021e-02 1.000000000000000021e-02 1.000000000000000021e-02 1.000000000000000021e-02 1.000000000000000021e-02 1.000000000000000021e-02 1.000000000000000021e-02 1.000000000000000021e-02 1.000000000000000021e-02 1.000000000000000021e-02 1.000000000000000021e-02 1.000000000000000021e-02 1.000000000000000021e-02 1.000000000000000021e-02 1.000000000000000021e-02 1.000000000000000021e-02 1.000000000000000021e-02 1.000000000000000021e-02 1.000000000000000021e-02 1.000000000000000021e-02 1.000000000000000021e-02 1.000000000000000021e-02 1.000000000000000021e-02 1.000000000000000021e-02 1.000000000000000021e-02 1.000000000000000021e-02 1.000000000000000021e-02 1.000000000000000021e-02 1.000000000000000021e-02 1.000000000000000021e-02 1.000000000000000021e-02 1.000000000000000021e-02 1.000000000000000021e-02 1.000000000000000021e-02 1.000000000000000021e-02 1.000000000000000021e-02 1.000000000000000021e-02 1.000000000000000021e-02 1.000000000000000021e-02 1.000000000000000021e-02 1.000000000000000021e-02 1.000000000000000021e-02 1.000000000000000021e-02 1.000000000000000021e-02 1.000000000000000021e-02 1.000000000000000021e-02 1.000000000000000021e-02 1.000000000000000021e-02 1.000000000000000021e-02 1.000000000000000021e-02 1.000000000000000021e-02 1.000000000000000021e-02 1.000000000000000021e-02 1.000000000000000021e-02 1.000000000000000021e-02 1.000000000000000021e-02 1.000000000000000021e-02 1.000000000000000021e-02 1.000000000000000021e-02 1.000000000000000021e-02 1.000000000000000021e-02 1.000000000000000021e-02 1.000000000000000021e-02 1.000000000000000021e-02 1.000000000000000021e-02 1.000000000000000021e-02 1.000000000000000021e-02 1.000000000000000021e-02 1.000000000000000021e-02 1.000000000000000021e-02 1.000000000000000021e-02 1.000000000000000021e-02 1.000000000000000021e-02 1.000000000000000021e-02 1.000000000000000021e-02 1.000000000000000021e-02 1.000000000000000021e-02 1.000000000000000021e-02 1.000000000000000021e-02 1.000000000000000021e-02 1.000000000000000021e-02 1.000000000000000021e-02 1.000000000000000021e-02 1.000000000000000021e-02 1.000000000000000021e-02 1.000000000000000021e-02 1.000000000000000021e-02 1.000000000000000021e-02 1.000000000000000021e-02 1.000000000000000021e-02 1.000000000000000021e-02 1.000000000000000021e-02 1.000000000000000021e-02 1.000000000000000021e-02 1.000000000000000021e-02 1.000000000000000021e-02 1.000000000000000021e-02 1.000000000000000021e-02 1.000000000000000021e-02 1.000000000000000021e-02 1.000000000000000021e-02 1.000000000000000021e-02 1.000000000000000021e-02 1.000000000000000021e-02 1.000000000000000021e-02 1.000000000000000021e-02 1.000000000000000021e-02 1.000000000000000021e-02 1.000000000000000021e-02 1.000000000000000021e-02 1.000000000000000021e-02 1.000000000000000021e-02 1.000000000000000021e-02 1.000000000000000021e-02 1.000000000000000021e-02 1.000000000000000021e-02 1.000000000000000021e-02 1.000000000000000021e-02 1.000000000000000021e-02 1.000000000000000021e-02 1.000000000000000021e-02 1.000000000000000021e-02 1.000000000000000021e-02 1.000000000000000021e-02 1.000000000000000021e-02 1.000000000000000021e-02 1.000000000000000021e-02 1.000000000000000021e-02 1.000000000000000021e-02 1.000000000000000021e-02 1.000000000000000021e-02 1.000000000000000021e-02 1.000000000000000021e-02 1.000000000000000021e-02 1.000000000000000021e-02 1.000000000000000021e-02 1.000000000000000021e-02 1.000000000000000021e-02 1.000000000000000021e-02 1.000000000000000021e-02 1.000000000000000021e-02 1.000000000000000021e-02 1.000000000000000021e-02 1.000000000000000021e-02 1.000000000000000021e-02 1.000000000000000021e-02 1.000000000000000021e-02 1.000000000000000021e-02 1.000000000000000021e-02 1.000000000000000021e-02 1.000000000000000021e-02 1.000000000000000021e-02 1.000000000000000021e-02 1.000000000000000021e-02 1.000000000000000021e-02 1.000000000000000021e-02 1.000000000000000021e-02 1.000000000000000021e-02 1.000000000000000021e-02 1.000000000000000021e-02 1.000000000000000021e-02 1.000000000000000021e-02 1.000000000000000021e-02 1.000000000000000021e-02 1.000000000000000021e-02 1.000000000000000021e-02 1.000000000000000021e-02 1.000000000000000021e-02 1.000000000000000021e-02 1.000000000000000021e-02 1.000000000000000021e-02 1.000000000000000021e-02 1.000000000000000021e-02 1.000000000000000021e-02 1.000000000000000021e-02 1.000000000000000021e-02 1.000000000000000021e-02 1.000000000000000021e-02 1.000000000000000021e-02 1.000000000000000021e-02 1.000000000000000021e-02 1.000000000000000021e-02 1.000000000000000021e-02 1.000000000000000021e-02 1.000000000000000021e-02 1.000000000000000021e-02 1.000000000000000021e-02 1.000000000000000021e-02 1.000000000000000021e-02 1.000000000000000021e-02 1.000000000000000021e-02 1.000000000000000021e-02 1.000000000000000021e-02 1.000000000000000021e-02 1.000000000000000021e-02 1.000000000000000021e-02 1.000000000000000021e-02 1.000000000000000021e-02 1.000000000000000021e-02 1.000000000000000021e-02 1.000000000000000021e-02 1.000000000000000021e-02 1.000000000000000021e-02 1.000000000000000021e-02 1.000000000000000021e-02 1.000000000000000021e-02 1.000000000000000021e-02 1.000000000000000021e-02 1.000000000000000021e-02 1.000000000000000021e-02 1.000000000000000021e-02 1.000000000000000021e-02 1.000000000000000021e-02 1.000000000000000021e-02 1.000000000000000021e-02 1.000000000000000021e-02 1.000000000000000021e-02 1.000000000000000021e-02 1.000000000000000021e-02 1.000000000000000021e-02 1.000000000000000021e-02 1.000000000000000021e-02 1.000000000000000021e-02 1.000000000000000021e-02 1.000000000000000021e-02 1.000000000000000021e-02 1.000000000000000021e-02 1.000000000000000021e-02 1.000000000000000021e-02 1.000000000000000021e-02 1.000000000000000021e-02 1.000000000000000021e-02 1.000000000000000021e-02 1.000000000000000021e-02 1.000000000000000021e-02 1.000000000000000021e-02 1.000000000000000021e-02 1.000000000000000021e-02 1.000000000000000021e-02 1.000000000000000021e-02 1.000000000000000021e-02 1.000000000000000021e-02 1.000000000000000021e-02 1.000000000000000021e-02 1.000000000000000021e-02 1.000000000000000021e-02 1.000000000000000021e-02 1.000000000000000021e-02 1.000000000000000021e-02 1.000000000000000021e-02 1.000000000000000021e-02 1.000000000000000021e-02 1.000000000000000021e-02 1.000000000000000021e-02 1.000000000000000021e-02 1.000000000000000021e-02 1.000000000000000021e-02 1.000000000000000021e-02 1.000000000000000021e-02 1.000000000000000021e-02 1.000000000000000021e-02 1.000000000000000021e-02 1.000000000000000021e-02 1.000000000000000021e-02 1.000000000000000021e-02 1.000000000000000021e-02 1.000000000000000021e-02 1.000000000000000021e-02 1.000000000000000021e-02 1.000000000000000021e-02 1.000000000000000021e-02 1.000000000000000021e-02 1.000000000000000021e-02 1.000000000000000021e-02 1.000000000000000021e-02 1.000000000000000021e-02 1.000000000000000021e-02 1.000000000000000021e-02 1.000000000000000021e-02 1.000000000000000021e-02 1.000000000000000021e-02 1.000000000000000021e-02 1.000000000000000021e-02 1.000000000000000021e-02 1.000000000000000021e-02 1.000000000000000021e-02 1.000000000000000021e-02 1.000000000000000021e-02 1.000000000000000021e-02 1.000000000000000021e-02 1.000000000000000021e-02 1.000000000000000021e-02 1.000000000000000021e-02 1.000000000000000021e-02 1.000000000000000021e-02 1.000000000000000021e-02 1.000000000000000021e-02 1.000000000000000021e-02 1.000000000000000021e-02 1.000000000000000021e-02 1.000000000000000021e-02 1.000000000000000021e-02 1.000000000000000021e-02 1.000000000000000021e-02 1.000000000000000021e-02 1.000000000000000021e-02 1.000000000000000021e-02 1.000000000000000021e-02 1.000000000000000021e-02 1.000000000000000021e-02 1.000000000000000021e-02 1.000000000000000021e-02 1.000000000000000021e-02 1.000000000000000021e-02 1.000000000000000021e-02 1.000000000000000021e-02 1.000000000000000021e-02 1.000000000000000021e-02 1.000000000000000021e-02 1.000000000000000021e-02 1.000000000000000021e-02 1.000000000000000021e-02 1.000000000000000021e-02 1.000000000000000021e-02 1.000000000000000021e-02 1.000000000000000021e-02 1.000000000000000021e-02 1.000000000000000021e-02 1.000000000000000021e-02 1.000000000000000021e-02 1.000000000000000021e-02 1.000000000000000021e-02 1.000000000000000021e-02 1.000000000000000021e-02 1.000000000000000021e-02 1.000000000000000021e-02 1.000000000000000021e-02 1.000000000000000021e-02 1.000000000000000021e-02 1.000000000000000021e-02 1.000000000000000021e-02 1.000000000000000021e-02 1.000000000000000021e-02 1.000000000000000021e-02 1.000000000000000021e-02 1.000000000000000021e-02 1.000000000000000021e-02 1.000000000000000021e-02 1.000000000000000021e-02 1.000000000000000021e-02 1.000000000000000021e-02 1.000000000000000021e-02 1.000000000000000021e-02 1.000000000000000021e-02 1.000000000000000021e-02 1.000000000000000021e-02 1.000000000000000021e-02 1.000000000000000021e-02 1.000000000000000021e-02 1.000000000000000021e-02 1.000000000000000021e-02 1.000000000000000021e-02 1.000000000000000021e-02 1.000000000000000021e-02 1.000000000000000021e-02 1.000000000000000021e-02 1.000000000000000021e-02 1.000000000000000021e-02 1.000000000000000021e-02 1.000000000000000021e-02 1.000000000000000021e-02 1.000000000000000021e-02 1.000000000000000021e-02 1.000000000000000021e-02 1.000000000000000021e-02 1.000000000000000021e-02 1.000000000000000021e-02 1.000000000000000021e-02 1.000000000000000021e-02 1.000000000000000021e-02 1.000000000000000021e-02 1.000000000000000021e-02 1.000000000000000021e-02 1.000000000000000021e-02 1.000000000000000021e-02 1.000000000000000021e-02 1.000000000000000021e-02 1.000000000000000021e-02 1.000000000000000021e-02 1.000000000000000021e-02 1.000000000000000021e-02 1.000000000000000021e-02 1.000000000000000021e-02 1.000000000000000021e-02 1.000000000000000021e-02 1.000000000000000021e-02 1.000000000000000021e-02 1.000000000000000021e-02 1.000000000000000021e-02 1.000000000000000021e-02 1.000000000000000021e-02 1.000000000000000021e-02 1.000000000000000021e-02 1.000000000000000021e-02 1.000000000000000021e-02 1.000000000000000021e-02 1.000000000000000021e-02 1.000000000000000021e-02 1.000000000000000021e-02 1.000000000000000021e-02 1.000000000000000021e-02 1.000000000000000021e-02 1.000000000000000021e-02 1.000000000000000021e-02 1.000000000000000021e-02 1.000000000000000021e-02 1.000000000000000021e-02 1.000000000000000021e-02 1.000000000000000021e-02 1.000000000000000021e-02 1.000000000000000021e-02 1.000000000000000021e-02 1.000000000000000021e-02 1.000000000000000021e-02 1.000000000000000021e-02 1.000000000000000021e-02 1.000000000000000021e-02 1.000000000000000021e-02 1.000000000000000021e-02 1.000000000000000021e-02 1.000000000000000021e-02 1.000000000000000021e-02 1.000000000000000021e-02 1.000000000000000021e-02 1.000000000000000021e-02 1.000000000000000021e-02 1.000000000000000021e-02 1.000000000000000021e-02 1.000000000000000021e-02 1.000000000000000021e-02 1.000000000000000021e-02 1.000000000000000021e-02 1.000000000000000021e-02 1.000000000000000021e-02 1.000000000000000021e-02 1.000000000000000021e-02 1.000000000000000021e-02 1.000000000000000021e-02 1.000000000000000021e-02 1.000000000000000021e-02 1.000000000000000021e-02 1.000000000000000021e-02 1.000000000000000021e-02 1.000000000000000021e-02 1.000000000000000021e-02 1.000000000000000021e-02 1.000000000000000021e-02 1.000000000000000021e-02 1.000000000000000021e-02 1.000000000000000021e-02 1.000000000000000021e-02 1.000000000000000021e-02 1.000000000000000021e-02 1.000000000000000021e-02 1.000000000000000021e-02 1.000000000000000021e-02 1.000000000000000021e-02 1.000000000000000021e-02 1.000000000000000021e-02 1.000000000000000021e-02 1.000000000000000021e-02 1.000000000000000021e-02 1.000000000000000021e-02 1.000000000000000021e-02 1.000000000000000021e-02 1.000000000000000021e-02 1.000000000000000021e-02 1.000000000000000021e-02 1.000000000000000021e-02 1.000000000000000021e-02 1.000000000000000021e-02 1.000000000000000021e-02 1.000000000000000021e-02 1.000000000000000021e-02 1.000000000000000021e-02 1.000000000000000021e-02 1.000000000000000021e-02 1.000000000000000021e-02 1.000000000000000021e-02 1.000000000000000021e-02 1.000000000000000021e-02 1.000000000000000021e-02 1.000000000000000021e-02 1.000000000000000021e-02 1.000000000000000021e-02 1.000000000000000021e-02 1.000000000000000021e-02 1.000000000000000021e-02 1.000000000000000021e-02 1.000000000000000021e-02 1.000000000000000021e-02 1.000000000000000021e-02 1.000000000000000021e-02 1.000000000000000021e-02 1.000000000000000021e-02 1.000000000000000021e-02 1.000000000000000021e-02 1.000000000000000021e-02 1.000000000000000021e-02 1.000000000000000021e-02 1.000000000000000021e-02 1.000000000000000021e-02 1.000000000000000021e-02 1.000000000000000021e-02 1.000000000000000021e-02 1.000000000000000021e-02 1.000000000000000021e-02 1.000000000000000021e-02 1.000000000000000021e-02 1.000000000000000021e-02 1.000000000000000021e-02 1.000000000000000021e-02 1.000000000000000021e-02 1.000000000000000021e-02 1.000000000000000021e-02 1.000000000000000021e-02 1.000000000000000021e-02 1.000000000000000021e-02 1.000000000000000021e-02 1.000000000000000021e-02 1.000000000000000021e-02 1.000000000000000021e-02 1.000000000000000021e-02 1.000000000000000021e-02 1.000000000000000021e-02 1.000000000000000021e-02 1.000000000000000021e-02 1.000000000000000021e-02 1.000000000000000021e-02 1.000000000000000021e-02 1.000000000000000021e-02 1.000000000000000021e-02 1.000000000000000021e-02 1.000000000000000021e-02 1.000000000000000021e-02 1.000000000000000021e-02 1.000000000000000021e-02 1.000000000000000021e-02 1.000000000000000021e-02 1.000000000000000021e-02 1.000000000000000021e-02 1.000000000000000021e-02 1.000000000000000021e-02 1.000000000000000021e-02 1.000000000000000021e-02 1.000000000000000021e-02 1.000000000000000021e-02 1.000000000000000021e-02 1.000000000000000021e-02 1.000000000000000021e-02 1.000000000000000021e-02 1.000000000000000021e-02 1.000000000000000021e-02 1.000000000000000021e-02 1.000000000000000021e-02 1.000000000000000021e-02 1.000000000000000021e-02 1.000000000000000021e-02 1.000000000000000021e-02 1.000000000000000021e-02 1.000000000000000021e-02 1.000000000000000021e-02 1.000000000000000021e-02 1.000000000000000021e-02 1.000000000000000021e-02 1.000000000000000021e-02 1.000000000000000021e-02 1.000000000000000021e-02 1.000000000000000021e-02 1.000000000000000021e-02 1.000000000000000021e-02 1.000000000000000021e-02 1.000000000000000021e-02 1.000000000000000021e-02 1.000000000000000021e-02 1.000000000000000021e-02 1.000000000000000021e-02 1.000000000000000021e-02 1.000000000000000021e-02 1.000000000000000021e-02 1.000000000000000021e-02 1.000000000000000021e-02 1.000000000000000021e-02 1.000000000000000021e-02 1.000000000000000021e-02 1.000000000000000021e-02 1.000000000000000021e-02 1.000000000000000021e-02 1.000000000000000021e-02 1.000000000000000021e-02 1.000000000000000021e-02 1.000000000000000021e-02 1.000000000000000021e-02 1.000000000000000021e-02 1.000000000000000021e-02 1.000000000000000021e-02 1.000000000000000021e-02 1.000000000000000021e-02 1.000000000000000021e-02 1.000000000000000021e-02 1.000000000000000021e-02 1.000000000000000021e-02 1.000000000000000021e-02 1.000000000000000021e-02 1.000000000000000021e-02 1.000000000000000021e-02 1.000000000000000021e-02 1.000000000000000021e-02 1.000000000000000021e-02 1.000000000000000021e-02 1.000000000000000021e-02 1.000000000000000021e-02 1.000000000000000021e-02 1.000000000000000021e-02 1.000000000000000021e-02 1.000000000000000021e-02 1.000000000000000021e-02 1.000000000000000021e-02 1.000000000000000021e-02 1.000000000000000021e-02 1.000000000000000021e-02 1.000000000000000021e-02 1.000000000000000021e-02 1.000000000000000021e-02 1.000000000000000021e-02 1.000000000000000021e-02 1.000000000000000021e-02 1.000000000000000021e-02 1.000000000000000021e-02 1.000000000000000021e-02 1.000000000000000021e-02 1.000000000000000021e-02 1.000000000000000021e-02 1.000000000000000021e-02 1.000000000000000021e-02 1.000000000000000021e-02 1.000000000000000021e-02 1.000000000000000021e-02 1.000000000000000021e-02 1.000000000000000021e-02 1.000000000000000021e-02 1.000000000000000021e-02 1.000000000000000021e-02 1.000000000000000021e-02 1.000000000000000021e-02 1.000000000000000021e-02 1.000000000000000021e-02 1.000000000000000021e-02 1.000000000000000021e-02 1.000000000000000021e-02 1.000000000000000021e-02 1.000000000000000021e-02 1.000000000000000021e-02 1.000000000000000021e-02 1.000000000000000021e-02 1.000000000000000021e-02 1.000000000000000021e-02 1.000000000000000021e-02 1.000000000000000021e-02 1.000000000000000021e-02 1.000000000000000021e-02 1.000000000000000021e-02 1.000000000000000021e-02 1.000000000000000021e-02 1.000000000000000021e-02 1.000000000000000021e-02 1.000000000000000021e-02 1.000000000000000021e-02 1.000000000000000021e-02 1.000000000000000021e-02 1.000000000000000021e-02 1.000000000000000021e-02 1.000000000000000021e-02 1.000000000000000021e-02 1.000000000000000021e-02 1.000000000000000021e-02 1.000000000000000021e-02 1.000000000000000021e-02 1.000000000000000021e-02 1.000000000000000021e-02 1.000000000000000021e-02 1.000000000000000021e-02 1.000000000000000021e-02 1.000000000000000021e-02 1.000000000000000021e-02 1.000000000000000021e-02 1.000000000000000021e-02 1.000000000000000021e-02 1.000000000000000021e-02 1.000000000000000021e-02 1.000000000000000021e-02 1.000000000000000021e-02 1.000000000000000021e-02 1.000000000000000021e-02 1.000000000000000021e-02 1.000000000000000021e-02 1.000000000000000021e-02 1.000000000000000021e-02 1.000000000000000021e-02 1.000000000000000021e-02 1.000000000000000021e-02 1.000000000000000021e-02 1.000000000000000021e-02 1.000000000000000021e-02 1.000000000000000021e-02 1.000000000000000021e-02 1.000000000000000021e-02 1.000000000000000021e-02 1.000000000000000021e-02 1.000000000000000021e-02 1.000000000000000021e-02 1.000000000000000021e-02 1.000000000000000021e-02 1.000000000000000021e-02
-1.082549625922781900e+02 1.646547091655372697e+02 3.814146063578925805e+01 -8.566597532465172193e+00 -8.527984981906504913e+01 -1.299327605734146118e+01 -2.018192488775130471e+02 6.855362748892940283e-01 -8.220196879147407287e+01 -1.372660540248472927e+01 -1.926444473575542560e+01 6.354603285443523042e+00 -1.730270263524422703e+00 1.628507795616646945e+02 8.213827389758432673e+01 -3.767551194889090027e+01 -5.128613810629659753e+01 7.688768564132371353e+01 3.186616762323759033e+01 -2.463742592104052065e+01 -7.651648547432991165e+01 -7.161770556056112014e+01 -1.338697154245006260e+01 2.808313044241180378e+01 -1.891830675139443088e+02 -9.581217844937657446e+01 -2.532786825635160710e+01 1.956902268778915754e+02 6.868383222390355058e+01 7.450317360025808000e+01 7.794435028866982407e+01 1.145730839867256989e+00 -7.698932313481995493e+01 2.014103544862355761e+02 -2.377122335766106289e+02 5.715325567395449013e+01 -1.165738678847312713e+02 -3.367453032495589582e+01 3.919959043316362468e+00 1.230014756523507060e+02 -1.192835167714438995e+02 -1.322398081764400857e+01 7.506658387974377433e+01 1.685279294762214022e+02 6.923987041864397440e+01 -6.637203322574498543e+01 3.996830374811921871e+01 -2.756669554111531184e+01 -6.412858780753627741e+01 1.519972939037928086e+02 -6.843303902599588184e+01 -5.056598041210432370e+01 -1.353035506152230596e+02 5.645896753393069289e+00 -4.903948184082349115e+01 3.754751775785948098e+01 -8.613765085765453478e+01 -4.858506608685011940e+01 -9.844572035561812129e+01 -1.509170604214842513e+02 1.885246281992684203e+01 4.407658434777158618e+01 -1.195383538841850424e+02 1.247468131296924021e+01 -7.694842021504051388e+01 4.769166362760815048e+01 1.618158602806111617e+02 -1.400725747454733607e+02 -4.203081988178936257e+01 7.009660606833313601e+00 2.853893321271985251e+00 4.115704732510657493e+01 8.153560358597411550e+01 7.817858474186091255e-01 -8.577089364729928889e+00 -6.796998959706732535e+01 7.596781439898097688e+01 -3.176918815986060807e+01 2.554302193577307989e+01 1.009991216210828071e+02 8.562944324978667510e+01 -4.152703603188636095e+01 5.607832961509954117e+01 1.431387234595460995e+02 1.128375735742484807e+02 -3.879882116269956605e+00 1.691179196664373592e+02 -1.082860923965014024e+02 4.047657196746834884e+00 -4.071943689206717210e+01 2.008018573946628180e+02 -2.060648074719622258e+01 2.815598997954296578e+00 -7.455121258915252724e+01 -6.942611386244717409e+00 -6.196040579646904689e+01 6.581625018133321703e+01 -9.181205782833767159e+01 6.663801433084746861e+01 -4.638220531320133233e+01 -4.829920068841326497e+01 -8.900377006259112989e+01 5.151824269622652253e+01 -5.309160122909824508e+01 -1.449871141293297967e+02 -7.714114984178748102e+01 -1.015626252857656340e+02 -1.526558248961646598e+02 1.319733291659481154e+02 -2.665017498519608452e+01 3.111364685766000093e+01 8.705990744334199860e+01 -1.010140611408864117e+02 5.529102443554015878e+01 -4.205646216430564266e+01 -6.738887535855650412e+01 -8.751580986418264274e+01 1.972988965941169397e+02 -5.508784440167018204e+01 -4.808225387893401859e+01 -4.579637176449717373e+01 7.805734625652345926e+01 -4.021912949995195419e+01 1.339494519670394368e+02 -4.847834216168976695e+01 5.353401889887910414e+01 4.411299209789818931e+00 -7.872581987775012635e+01 6.678142711912136065e+01 2.693463854979450502e+02 -8.939652950901623285e+01 4.609281410810606872e+01 -7.406747476605845293e+01 4.393535163654163966e+01 1.274113825931300141e+02 -4.994466693305032123e+01 1.419720988209242307e+01 -2.617140249734081081e+01 -9.902458410398993749e+01 -1.685687742398717859e+01 4.185090142482001063e+00 -7.584352487317928215e+00 -1.451020847403758829e+01 1.148072401594204450e+02 1.266656005233916460e+02 1.811548463258589550e+02 -2.956953109287513826e+02 3.711350329917323165e+01 -1.532756795125957439e+01 -6.057084474785813200e+01 1.752473333758082390e+02 7.399160095159352579e+01 -2.545684922552499341e+00 -1.126696590739480683e+02 -1.057033988524466750e+01 9.728511510750828961e+01 -1.305947820431636330e+02 -1.638900587902213033e+02 1.043775034716773398e+01 4.123228964469588220e+01 -5.933889226552739871e+01 4.087274961061296352e+01 -1.041056346149964753e+02 -1.471131168755912313e+02 2.050358447288724051e+01 4.723766611348192157e+01 4.692770453572831180e+00 -8.114576263086343033e+01 -9.102271846655870036e+01 -8.197755356662416659e+01 -8.517372650378138133e+01 1.232236667827407217e+01 5.528457258117633444e+01 1.133879281713236935e+02 7.729371949483318360e+01 8.714019621195187426e+01 1.046469587525955660e+02 -7.281061431138984119e+01 -8.033936417051248213e+01 6.868338576555008501e+01 6.677777132813787375e+01 5.770213182018581932e+01 -9.140636270601802948e+00 -8.875466831533950085e+01 5.263194238219346488e+01 -1.745992061227541967e+02 6.551213789371558960e+01 -4.341060151331257089e+01 -9.405725652360162314e+01 7.240428184153255131e+01 -1.675100837447457636e+01 -7.524970811373431445e+01 -5.606902274986470047e+01 -8.957297922668702839e+00 2.370323084204528641e+02 7.514919461017322533e+01 5.358590764288855723e+01 -1.014969145403308630e+02 1.449345795626516917e+02 1.047306017279790558e+00 -8.835882665880714626e+01 1.524097240863290210e+02 -1.507785183361365284e+02 1.543800396313649870e+01 -3.181841642155993100e+01 -2.174509746451841181e+02 -1.319247367356153973e+02 -8.629075937740063296e+01 -2.907427566396904339e+01 -1.179343582356013940e+02 5.702302605042131489e+01 6.430785095049284905e+01 -2.731016640740136481e+01 -9.872001675921536901e+01 1.118901260337784720e+02 1.169123341506106755e+02 4.572120380151831398e+01 1.732351561584168564e+01 2.587157605171051955e+02 4.320438289751908911e+01 -1.183001117958569637e+02 -4.463160346079714458e+01 -1.671432060940167332e+02 3.155836919592314871e+01 1.517799033057534928e+02 -1.468449046065290986e+02 1.304637262468974654e+02 -9.009487197810280179e+01 -1.875600876537478001e+01 -8.008388535265735797e-01 5.238581489597418539e+01 -1.146544441482321020e+01 -2.261478027495284948e+01 -1.864414067440513278e+01 -1.256192439350197532e+02 4.597565594041851256e+01 -3.006396250193722963e+01 -1.280669059530283782e+01 -1.062754060646771315e+01 2.239780682581980500e+02 1.727318952123312101e+02 2.305976228128089645e+02 1.306530098619545015e+02 -8.582398624553538014e+01 7.450465947717222548e+01 2.096596567701622149e+01 4.711449938004844284e+01 -3.932738435719775083e+01 2.532268893478763800e+02 -2.312158355887487815e+01 -1.355797712602643799e+02 -1.481446370175479288e+01 -4.545783942642749764e+01 -7.672998959449370204e+01 4.279360211476122089e+01 -1.161443117517809753e+01 1.804035109708027278e+02 9.157270324607149803e+01 4.053827324544886324e+01 9.717944001775322249e+01 9.384803222696265834e+01 -2.279813070876885917e+01 1.384975317436404794e+02 2.631784340224811913e+01 8.888940215627791019e+01 4.730632039219987917e+01 6.868607627501385871e+00 -1.148278631060638162e+02 -1.149504823891558658e+02 -8.933115311419929583e+01 -1.544058518854906303e+01 8.601640991591762031e+01 -3.038445921943341332e+01 9.810861201134247267e+01 4.348253239847738882e+01 -7.215413684055918964e+01 -2.970872550936829271e+01 -5.812671537984569881e+01 1.743204767434734492e+01 -4.593097084097166771e+01 -1.111679371191335548e+02 1.205582330885179232e+02 1.204006205224323054e+02 -7.836140112336642005e+01 5.355689870367924321e+00 -4.497596000393210858e+01 -3.230742416897305702e+01 -1.125276828083327096e+01 -3.099998192866246072e+01 4.414992121393248681e+01 -1.394753998825741803e+02 -5.244279335617356708e+01 -1.506387617563885044e+02 1.727058251145603833e+02 -2.001671768664061091e+01 5.841667975070127738e+01 1.180649209508045416e+01 1.431623228681585545e+02 4.422108828503981215e+01 3.538833988212500969e+01 1.530247058625503769e+02 -4.882405309392111548e+01 -9.675837511567759464e+01 2.697269395131695902e+01 -1.565683149723689382e+02 -5.291648006516217606e+01 1.013821058829512651e+02 -1.263634558543097341e+02 -3.601299662294153592e+01 9.041311211231926848e+01 -9.353083510812622592e+01 -8.858951948932755727e+01 -8.182512370749125807e+01 -6.315524999188499322e+01 2.466343298358595462e+02 1.962267023320624730e+02 1.019378129536904254e+02 -1.011620169167702841e+02 7.407179099337815842e+01 -6.553011682150859940e+01 -3.109038712012178252e+01 1.644418026424464685e+01 -3.193113883314013535e+01 -9.272680221496884201e+01 -2.776371661106331601e+00 1.458985096335766229e+01 1.076015955929638608e+02 -1.270523398138236502e+02 4.149487446738188368e+01 6.303734555052435695e+01 3.410716501192617045e+01 -8.955020085554464515e+01 -1.467668863821119203e+02 1.908185583634686679e+02 -1.758456816924096344e+01 2.487687150930392121e+01 1.546387587290903696e+02 2.632528522385531033e+01 2.737644346009226837e+01 -4.397726452749577675e+01 8.746345818187492682e+01 -1.345471862095069184e+02 -3.038904640736097917e+01 -6.056631969755666312e+00 -5.267516240206552425e+01 6.218648386876768797e+00 2.096351233995018148e+01 -3.530016058341247032e+01 1.347854843388983781e+01 2.107721721193313158e+02 -2.702283744352626016e+01 -2.761688719223268507e+01 -1.002343150172678889e+02 -1.612278707625523388e+00 -7.959623111287284303e+01 6.283645353084373220e+00 1.104920483550412911e+02 -5.127556930459432749e+01 5.954500900032332567e+00 -5.352279793822060583e+01 3.265281309935275100e+00 8.592981071998981690e+01 -1.141658045119245628e+02 -9.543204493020624568e+01 -1.010896555496183566e+02 7.030488767368329661e+01 8.528927896247269302e+01 -9.087595100476836762e+01 6.172586549321665927e+01 2.545885075527428043e+01 3.811802053669500623e+01 -1.748024942453744757e+01 9.000986267115270323e+01 7.851570976481696107e+01 -7.610414585127315945e+01 1.161965711289392011e+01 7.966897334596404789e+01 7.175488094435284836e+01 -1.961358054390599648e+01 2.458917348471829811e+01 -1.306149846174806726e+02 4.781442084020392258e+01 -3.229110079203883998e+01 -3.219657041804144626e+01 1.705880624556052680e+02 4.670579688236920646e+01 1.183934097703245669e+02 1.881074914957173121e+02 -1.356066721992000055e+02 1.468576595666272055e+02 -6.249884916803474511e+01 -1.331155068399520189e+02 8.107624806769359793e+01 -1.320324637956241531e+02 -2.828333279417953250e+01 5.554875209602826658e+01 7.925281711100558013e+00 -1.656472900279714793e+02 8.300236549646737672e+01 2.485909536797378294e+01 6.804634041252091947e+01 3.576085921241227084e+01 9.323210042465055025e+00 -6.610276142757705031e+01 1.139609075955611246e+02 5.367222584749695358e+01 -6.117916687747536741e+01 -9.971645736822394213e+01 3.832212487745587026e+01 2.534088891082163286e+01 8.116179735488873348e+01 1.810249603326481633e+02 -2.424381491315421755e+01 -1.084967591648344154e+02 -8.339866345974868977e+01 -5.054010760862687590e+01 -4.365527475523356316e+01 -1.444963978558763245e+02 -2.218517354076102066e+01 1.275630990685864248e+02 7.339704671787274037e+01 -1.205100783303890495e+02 -1.476512363903730147e+02 -6.704608974525915244e+01 -7.515185966456695610e+01 1.445871149956299746e+02 -1.678756291576933961e+02 8.525297184691855534e+01 -4.536649604754400045e+00 -4.238324538206365588e+01 1.308460712286603567e+01 8.975159887635511780e+01 4.879665807930516053e+01 1.360942322039184376e+02 -1.567094153572985533e+02 -7.973184448328417773e+01 2.498743212782465406e+01 4.128575937001067331e+01 2.029565127887712777e+02 1.432376650503878182e+02 6.454560877892656379e+01 7.099808444261559259e+01 -3.354087077190283139e+01 1.494665820039946595e+02 -1.766201033920795567e+02 -6.245233737645837380e+01 -5.285527947816783723e+01 -5.099581951372748989e+01 -1.016666074806141182e+02 -1.476604861173406213e+01 -6.757317039935186642e+01 7.006402998012494265e+01 -9.001727960488194569e+00 -5.716066537171843009e+01 -6.126556308571562681e+01 1.774018524754220039e+02 5.812804138147482291e+01 -1.352423782302473931e+01 2.056552691524425995e+02 -1.066760751733832109e+02 -3.477819593721623193e+01 6.592556269546651038e+01 -1.350719484620879485e-01 1.474343047936610063e+01 -1.231761926580522726e+02 1.734457851587838775e+02 -4.818444971598954396e+01 -2.647906158519499797e+01 -1.079662471077285915e+02 1.238506681700735044e+02 9.431525063503640638e+01 -7.626495877355728226e+01 -3.702009204795422193e+01 3.833516476892563674e+01 -1.489257691761237652e+02 -1.887580005910095837e-01 -7.348274512152524096e+01 7.558699126235299381e+00 -1.063152486587613197e+02 -1.559119664151232882e+02 -6.951413813462464475e+01 1.457135870721910180e+02 5.559993189771342514e+01 -8.813095168890538389e+01 8.765129946624968227e+01 3.362945021994891448e+01 8.684279324561560998e+01 -4.139773769916783408e+01 -8.262454928685093591e+01 1.680789065341773210e+02 4.090956967161947233e+01 2.844001228066300868e+01 -7.170543352607097631e+01 -4.156715159972880969e+01 9.348960407678866602e+00 -7.045726171326715637e+00 -1.697556227685378758e+02 -3.399989922674600962e+01 6.324651016291787187e+01 1.095637840626459081e+02 1.529044857517586991e+02 -1.304320786486877104e+01 8.797572862884969425e+01 1.548254358360971423e+02 6.222922418310734827e+01 1.449251414399899431e+02 1.576327713593129332e+01 1.288160103059575476e+02 -8.233663315444512421e+01 5.230681065053666856e+01 2.873521371246483014e+01 7.436143886733805175e+01 -1.041017747666539464e+02 1.940896036182992930e+02 -1.260972580295267136e+02 8.651937755971353283e+01 -1.051660253750179095e+02 4.520784155130322546e+01 1.351890215716509402e+01 8.877592484019999119e+01 -7.208095292901312234e+01 -7.388944901497264084e+01 -1.089669298176098344e+01 8.715120120701338635e+01 -2.894237883416645118e+01 -1.593758206019884582e+01 -1.919402420012217547e+01 4.629203335164691069e+00 9.589643429701247612e+01 -6.110230259215800430e+01 -2.641994762082137349e+00 -1.891622960784478948e+02 1.189720084553886181e+02 -1.217081777103046392e+02 -7.198902169860795652e+01 -2.292488786997135719e+01 -1.051976821466160743e+02 -5.179203836375901204e+01 -5.709145083345352845e+01 -1.918885256977766574e+01 1.327440912390972869e+02 5.267526345323857129e+01 9.783851497801232711e+01 -1.326038037250931438e+02 -1.350112457355776314e+02 -2.793046354029034433e+02 9.956296628037551955e+01 1.015519972077297126e+02 4.123296017112960499e+01 -4.137910721479320131e+01 -3.621677755170638591e+01 -1.789580743080860259e+02 1.423401120994505504e+02 -1.046519274669263240e+02 1.042182080703684903e+02 -1.551082818431262353e+02 -1.395273699488591923e+01 -5.395814640871772383e+01 -1.162084025060328827e+02 -4.492541934745673871e+01 -1.221966182720825955e+01 -9.030891877180197014e+01 -1.008239146519785976e+02 -1.204566160300117872e+01 6.937006954404188264e+01 -1.214362214971725109e+02 -1.525122452469222800e+01 -7.187308174604129363e+01 -1.280694697256049608e+02 6.433861584903406872e+00 9.269180725705480484e+01 1.613525501966421416e+02 -1.857660391554367862e+01 -4.488810586040830941e+01 -1.210559725703773353e+02 -1.595364391799177781e+02 1.012133275045620593e+02 -7.092732433110191437e+01 7.702902523107559318e+01 9.165486774051741392e+00 2.849364671217337275e+01 7.202177490174007346e+01 -8.267929681153569277e+01 8.065798099737514804e+01 1.124638467060567564e+02 1.536584578968807762e+02 -1.136880554610496290e+02 1.014319356416285416e+02 -4.662608736908458695e+01 -8.860037661362784434e+01 2.094044972886976268e+02 4.802291123255382388e+01 8.145159337845940684e+01 2.070495006106538582e+01 -6.174162547021046521e+01 -3.409041378006045164e+01 -2.053055945160670603e+02 1.030885848473132853e+02 7.951743852341631680e+01 -7.386888548793434950e+01 -7.134983670148780277e+01 1.416820110439280995e+02 9.862433507793311094e+01 4.988578424483613816e+01 7.422893568709606882e+01 -7.662976710811557624e+00 1.006984991221483483e+02 -1.010797041414589330e+02 1.818547504726130910e+02 -3.853000132443713710e+01 -1.190620508836507412e+02 -3.679576528381101497e+01 7.000959247623106307e+01 1.437752410249428578e+02 1.254645322077619163e+01 1.696283232846280953e+02 5.092713491062583131e+01 3.282322431796041684e+01 -1.086202628360140778e+02 4.370225148151798322e+01 -1.219757710784799798e+02 4.656459470227190423e+01 3.765181271832140908e+01 -1.204000226180191220e+02 -8.298775568818065551e+01 3.889643244608329553e+01 8.514687756162661714e+00 -2.265056354845551922e+01 4.087305519683173571e+01 -2.088633059816561044e+01 -6.156747570435570083e+01 -2.559578388255155446e+01 -2.188109140689024557e+01 -3.885917487155485617e+01 1.831210418173881749e+01 -7.858561113170767953e+01 1.160714756483686472e+02 -7.248656832629231417e+01 -4.111032011304079248e+00 6.403017868705035198e+01 3.782961114816008052e+00 1.557835914061539029e+01 1.558431988461523510e+01 -1.142856259760948063e+02 -4.301363198250818698e+00 6.347305132684540041e+01 -2.258306862188408104e+02 -8.283292098732866293e+01 -1.099670336394545984e+02 4.273844709748194504e+01 9.388282515145948537e+01 -8.954133840548935552e+01 -1.638128950267569053e+02 -1.806931193222318370e+02 1.947148085255628303e+01 -1.413872494371519508e+02 -6.172415934657066394e+00 1.439475139047951870e+02 -6.898904307204581698e+00 3.618946727752243930e+01 -9.633083456813709233e+01 7.775322827740671983e+01 -1.153707614661941960e+02 -1.501479565216543932e+01 -2.945445069673391103e+01 5.600223540425835012e+01 -8.595568276642106653e+00 1.027000794358391715e+02 -1.186181109799827880e+02 -4.865068672627496937e+01 8.414964016161319194e+01 6.422423733540613000e+01 -7.990298188083495745e+01 -5.280669966280353833e+01 -4.791155364366242964e+01 -2.807070640233719132e+02 1.876769818806855028e+02 7.375233253995172333e+01 -2.284754998086562949e+01 -2.875430935521778508e+01 4.023855212419403671e+01 -8.147021544991632425e+01 9.636540290733418601e+01 5.856308816140585094e+01 7.930941699166109515e+01 -8.138929580556659005e+01 -2.564759525702829634e+01 3.223576797699269747e+01 1.681486688010332742e+01 -4.144808355533270117e+01 1.527873172011953500e+02 -1.671350075024048820e+01 3.424508242844510875e+01 -2.222710873019595681e+02 -8.185385691503481098e+01 -7.071137276478221168e+01 2.226058456277298703e+01 1.055377280215808895e+02 -2.240146685054484692e+02 -1.807914461842408116e+02 2.142172461066302560e+02 -1.021124388175826070e+01 9.282608622820319511e+01 6.054762595197625075e+01 -5.348625516783151568e+01 -1.266045540968677301e+02 -9.196737147004863289e+01 -4.856288746830582426e+01 -3.615694356395250253e+01 -3.784663732255555857e+01 1.559427932272750184e+01 3.595580988020827107e+01 1.612610921208357411e+02 1.191111597205383532e+02 6.752581995395750880e+00 -4.259552381064281690e+00 -1.534188884534902115e+02 1.156355050609829931e+02 1.539512561501177004e+02 -9.998594763028556542e+01 7.124710787724114880e+01 1.645968946012519085e+00 5.309133838113405091e+01 1.211735602219403916e+02 6.856219004874294853e+01 -1.295552889246008021e+02 1.557892247228416949e+01 -2.840408870029220978e+01 1.077272888012590002e+01 -2.233422788028282469e+01 4.382516930921910614e+01 -2.519797303981683569e+02 1.751716211678137824e+02 7.027388825126805294e+00 1.541701193863443677e+02 -1.017913712067006848e+01 1.026944464350092829e+02 6.930181384320363236e+01 -4.061464169766295385e+01 2.897966974204063462e+01 -7.049424454801109619e+01 -8.616041663276882900e+01 -6.975820293140812112e+01 -3.104306663925573773e+01 4.374373361246775715e+01 1.066972052625259266e+02 2.757695032615722042e+01 6.022565617766731094e+01 -1.015754482036334707e+02 -1.328918692269724318e+02 -1.306723647256265508e+01 4.495303298520150292e+01 -4.405132455138745939e+01 9.169581636140355840e+01 5.385007969486266433e+01 -2.679791549344355062e+01 2.903291299813528425e+01 5.953082479116781656e+01 -6.991252351080704841e+01 -1.296811707515935268e+02 1.377805099443740744e+02 7.577929122715013399e+00 4.864092582034755452e+01 -1.448806525333661170e+02 -5.183308112362897901e+01 -4.246690471701057845e-01 -6.387715055668412845e+01 4.137205296335051408e+00 5.466927713056092841e+01 1.810820171636924272e+02 3.801105432388072813e+01 -1.064574396129080469e+01 7.019987802453228198e+01 -4.418398311872325479e+01 -1.059120416841902710e+02 -1.343146284490292146e+02 9.102563312340031132e+00 2.441602083755755714e+01 2.317454805183655964e+01 -5.532343318616931072e+01 1.175210152131653984e+02 -7.863309928283150896e+01 1.248595413630016679e+02 8.494659232944566440e+01 -6.330131093934870989e+01 -8.250404505377163389e+01 8.198607811566564862e+01 1.988785812735905978e+01 -5.114603599853153781e+01 -5.243431491223662988e+01 1.332030987966953433e+02 5.585521249618449957e+01 7.787092141701218395e+01 2.547996317896325991e+01 -4.098200537802583909e+01 1.047060085931675673e+02 -5.319930284305373647e+01 5.517416346539775196e-01 7.463580582301447919e+01 9.713218870767069291e+01 2.492417626434531712e+02 -1.709147852452652501e+02 1.570104073789515269e+02 -6.591806498833180683e+01 -1.486633785968362709e+01 -2.451777859366912438e+01 -2.023816516817981181e+01 -5.381956547485025055e+01 9.081652135259594161e+01 1.797715290912934734e+02 -1.160498180333046179e+02 3.022943983924092493e+01 -1.240518556425545853e+02 6.863523562160672498e+01 -4.349394845627917761e+01 -7.927181194615434379e+01 -5.275775862116383053e+01 4.032910440810579189e+01 1.896564069021400201e+01 -8.008142236025955185e+01 -1.381809054108922794e+02 2.034729879773859196e+01 1.544947950141343540e+02 1.400815242068112809e+01 1.789598742938953819e+02 7.314587186093066684e+00 1.320936054752322093e+02 -3.394530557431961881e+01 8.908474520607390446e+01 -7.014219689122363377e+01 -1.108837172341036563e+02 4.856181162084555325e+01 -5.698986747761164651e+01 -7.718334892866620578e+01 7.162445891944985021e+01 6.361737849275698409e+00 -9.271413899516774393e+01 -1.481268521236665094e+02 1.455545217237901170e+02 -8.776789027998889026e+01 -2.330634467414122835e+00 1.182573142828443480e+02 5.713702327445022888e+01 -9.675485649342211047e+01 1.049349882876010298e+01 2.779679776146485324e+02 5.254173809777926607e+01 -1.555081211691948511e+02 -4.706772879200866555e+01 -6.065964867228365165e+01 9.488514923727237260e+00 1.061395681399723827e+02 -1.021435350466651784e+02 2.130969964384963689e+01 1.288154532872781033e+02 1.853676537390769852e+01 -2.086390568216089605e+02 4.770243347417208213e+01 7.456099455742932491e+01 -1.342620516983284951e+01 3.239014855311078378e+01 1.659193763795934751e-01 2.227834334905674396e+01 2.740200092654857045e+01 1.144511156105645426e+02 9.687652486437028188e+01 1.543069878700061004e+01 1.472487998381245689e+02 -6.326123659118191256e+01 2.437356836696010021e+02 6.427374242245468849e+01 1.400651751609691473e+02 -2.170835650001261286e+01 8.902806767683463818e+01 -4.838149372813209936e+01 -1.446850634934588697e+02 2.586420269091071944e+01 9.390810269117037024e+01 -8.656858306431948336e+01 -1.035442492081821513e+02 -6.578024020800567939e+01 3.619733460552033932e+01 -1.128959407355207958e+02 7.385496791712427012e+01 2.772681377942513947e+01 -9.650633014289475398e+01 1.877694701266722177e+02 -1.162828856793421117e+01 -1.006220660853546889e+02 -1.325790023454356259e+01 -2.020562436693507991e+01 -1.386422042795983316e+02 -3.957134792052291061e+01 6.082079545536155507e+01 1.303141646618125549e+02 2.871479403302643618e+01 2.644600256599267851e+01 4.428604298599442046e+01 -3.532183122243477413e+01 -1.439862485536121994e+02 1.570955971220230296e+01 3.061421310914624527e+01 1.316327441170521126e+02 -9.786404679957378505e+00 -7.527990132955011404e+01 7.238679028432149209e+01 9.679840585190082614e-01 3.147943184068422084e+01 1.376836832124731984e+02 -1.755199932922917299e+02 -9.183145995213244817e+01 1.233551442422963049e+02 -2.073129534025311216e+02 -1.767266529160449977e+02 8.746921529418273167e+01 1.479824496832234217e+02 6.093972362915792473e+01 -4.298176704066695386e+00 1.496519119761840386e+02 -2.109551703859506517e+02 1.029717857754611003e+02 4.072293300902896362e+01 1.221123349637845052e+02 -1.812272567162119117e+02 1.023460468817147557e+02 -2.713379327211231029e+01 -1.284713226148731735e+02 -5.114792940228478635e+00 -8.878391582275294525e+01 -1.560152649549790027e+01 -4.168555705944301693e+00 -1.183837356960817999e+02 -1.185033806616034155e+02 -6.012358187860215253e+01 -1.238744491043329674e+02 1.931333263497061239e+02 -1.548130608000178370e+02 -4.822017708882719234e+01 1.658041572322187278e+02 3.260609305543630398e+01 -2.844362011604669078e+02 -1.221619712992511921e+02 3.411780839746747063e+01 5.252654764319616021e+01 8.216271622095661087e+00 -1.485603416802486265e+02 3.429225496962770592e+01 7.207453008729808097e+00 -7.142712943037658135e+01 1.948170119438225925e+02 1.946630810058387056e+02 4.176117511854497977e+00 -2.004039286029593825e+02 1.210599729358978038e+02 2.955153522312251013e+01 3.655099105424491679e+00 7.359927768051957742e+01 -1.993831338461899350e+02 -1.326295775164845736e+02 1.355113140272186456e+02 1.053698162169498005e+02 5.083996375546562518e+01 1.375918686296848534e+02 -1.712999560903624285e+02 -1.966175077983211850e+01 -1.253103691293898976e+02 4.194862381575251220e+01 -9.981502410309413165e+01 8.366691710149761718e+01 -3.259015170043066689e+01 1.190110154673180887e+01 1.705073806795591338e+02 2.742596900835573948e+01 -2.532729748206694467e+02 -1.214486910236366697e+02 -8.008684711105452436e+01 1.519306929220285269e+02 1.204947442913978684e+01 -5.177316496141324365e+01 2.914529520550227204e+01 6.004776023720733491e+01 -3.800632360882049454e+01 1.033101930787126150e+02 -9.680831726846524532e+01 4.729015462007789239e+01 1.075581091258070074e+02 -3.412265989657765886e+01 -9.429089698643826978e+01 -1.090214288879615623e+02 1.150814174131490688e+02 -4.773924953123905368e+01 1.888697767954987796e+02 5.496972666210014324e+01 1.066096942274403716e+02 1.772845937810127168e+02 8.222114517561516678e+00 -1.194493977022146538e+02 -1.592536087533299565e+02 -1.097062017692755092e+02 4.084352879726652219e+01
-1.275976466282722477e+01 -4.544868419623170119e+00 9.718547033294466075e+01 -2.149753562245466298e+02 1.458761122776405159e+02 5.959284864921387737e+01 1.428015789501502582e+02 -1.212334652635847050e+02 -2.597476916064119568e+00 -2.258311128006207724e+01 -2.060085824506359700e+02 3.070002453844950097e+01 -1.719279116691269138e+01 1.147951547520258373e+02 -1.174171578818549335e+02 5.792132728056078150e+01 1.175775627112116126e+02 -4.313056639283473714e+01 -4.654402343011411602e+01 -2.532787414014966032e+01 5.793423312113190349e+01 5.919061570093297320e+01 3.044059218161891422e+01 -2.182032681759874038e+02 -4.839272598320227559e+01 8.591736674139497154e+01 9.303257138308072882e+00 -9.739498182244034297e+00 -6.242726829814376543e+01 -1.454405817467633533e+01 6.882320237432053034e+01 -1.364495510628666182e+02 -5.813770934638953491e+01 8.418650177521621814e+00 1.947935178356839572e+02 1.989978601274890480e+02 -3.015924890086152388e+01 5.244160948559864721e+01 -2.445066202287883295e-01 -1.310385025672313191e+02 9.005412463647790844e+01 1.006103599315229786e+02 1.018214483236850469e+02 1.095621682436689781e+01 5.806469793697472426e+01 4.515057987611363899e+01 3.647953757897246874e+01 2.755066740163991668e+01 1.034769317866598186e+02 8.417216108748581860e+01 6.153189164844163628e+01 1.529417717762071902e+02 2.325197502679227739e+02 1.835230846435014485e+02 -5.549131912293851343e+01 4.622848069609050725e+01 -6.029980209347604614e+01 5.290910798405939630e+01 -1.803421839381220195e+02 5.301324953419173625e+01 -1.921141385106856490e+02 -1.583116878801588996e+02 1.215369702374372451e+01 -8.693045885870525069e+00 1.590626195041191409e+02 -1.951538083578458895e+02 7.063115699256618996e+01 2.156813483833443286e+02 -6.933898435440867480e+00 -1.827977742949512105e+02 3.334319502038362515e+01 1.850366823915290411e+02 -5.734837422285732345e+01 -2.501578208207091905e+02 -9.625566374831193173e+01 8.358044170138466455e+00 -2.159470628395442020e+02 3.011696046487401190e+01 -1.684446776932462058e+02 -1.741857916597639360e+02 -5.367619176675070491e+01 1.431116291807225309e+02 6.521098115623276215e+01 9.970159421149551449e+00 -8.327084978485325450e+01 -4.000704293084150009e+01 5.985957864511902216e+01 -2.180575055915362270e+02 5.082014955320851612e+01 -7.040370588357586712e+01 -7.341601829357226450e+01 -1.661138080464796758e+02 6.110569819680053172e+01 8.710731251690242516e+01 -1.525247375976610158e+02 1.623855305820079309e+02 -3.747680654084665264e+01 -1.590299995360734897e+01 8.237693195138925262e+01 1.469555009870559275e+02 2.043936076236709098e+01 1.423794101759874025e+02 -1.739795778199607312e+01 -8.527439585747427486e+01 -1.843310566310904974e+01 9.502031762394668135e+01 4.347897019206844504e+01 9.458148434840293817e+01 9.125074293166933614e+01 -8.033755015432529945e+01 -1.642825806790141030e+02 1.189727523744443687e+02 5.244631303348846529e+01 1.569556987581347762e+01 2.956103153350132473e+01 -6.568152277906767722e+01 9.285993986357013341e+01 8.690289561387628225e+01 -1.327376073375068621e+01 -6.891508474837786480e+01 2.969632918872284222e+01 6.078988905294625766e+00 -5.947264684778648558e+01 1.640381964464781959e+02 -3.174900418549705705e+01 1.176406114005080781e+02 -6.781438612932760179e+01 3.714275785308448263e+01 -3.490242650641348376e+01 8.659326472766561267e+01 2.271435058071227076e+01 1.118615057747450834e+02 -1.123011712757163707e+02 7.196339875375046802e+01 1.195150038153953460e+02 -4.326441751415843839e+01 7.402961960149624154e+00 -1.236537267147540753e+01 1.131085886641724443e+02 3.530073754662230723e+00 1.632900787819651498e+02 -1.369582482450388738e+02 1.129809004546861360e+02 -8.841678827690249420e+01 9.280953788315088104e+01 -1.327871874221751511e+02 2.859194616112237952e+01 2.398789093753566704e+01 1.726649968557785852e+00 3.519355579525098676e+01 4.457989390668770824e+01 -1.200291742590137289e+01 1.055658053311900169e+01 1.047875223046564628e+02 1.233576432890862975e+02 -8.407062892580256630e+01 -5.252788104611819620e+01 4.589314383009879350e+01 1.471627587365176071e+00 -1.328535440799175262e+02 -5.347978755959545083e+01 -3.434998129756900198e+01 4.743056140524416975e+01 -6.356727061991636418e+01 2.223016685075129217e+01 1.556328097953103793e+02 -7.710988722948222573e+01 7.846603259594574808e+01 8.160885030910165483e+01 1.094751424233559334e+01 1.198783122698879708e+02 6.107580383294377668e+01 1.632398532538747418e+02 -3.362895481833759703e+01 1.092632024333624372e+02 5.400122745526439161e+01 -1.561358954431914725e+01 1.984711806852388349e+02 -1.349596861242389707e+02 4.755712545469049957e+01 -1.824884590323226803e+02 -8.190035955735112339e+01 3.994547303013205664e+01 -7.029396941837407553e+01 -1.516840685139646041e+02 1.940926012431590948e+02 -8.353504106129949491e+01 -4.625789593770807073e+01 -4.507467977377766033e+01 1.185990153726829419e+02 1.897431328624188893e+02 6.308114918392494275e+01 1.424907943021918584e+02 2.138492654601575964e+02 -1.557944684215677444e+00 1.587139766269110339e+02 6.907459241761557678e+01 1.855390305048834705e+02 -1.225999595462879341e+02 -1.153456110663880274e+01 6.194852983004325964e+00 1.850979398917401113e+02 -8.854142327012147007e+01 -5.898160508988728168e+01 -5.158614134051035904e+01 -1.306123624956026106e+02 4.553117739873465908e+00 -9.835807484249129118e+01 1.502498163655790790e+02 2.294670236427531052e+01 1.168505412680988087e+01 7.046568456263932489e+01 -4.787538786782706168e+00 1.140263697232226150e+02 -1.548398512689558970e+02 4.427256627241850140e+01 -1.664514398802600681e+02 1.144397617059641732e+02 9.365604551447434289e+01 -6.557442204939725627e+01 4.561117528341367944e+01 2.320914782369830220e+02 -2.970034675488472331e+01 4.059204094606423752e+01 -3.185006151846177147e+01 5.647209412575415399e+01 6.262845505119007328e+01 -6.125434137564762516e+00 9.929964557929814362e+01 9.886914103347346838e+01 -1.889215536929444568e+02 -1.493232444341955443e+02 -1.167815139109585374e+02 -9.186710305867668680e+00 -1.459313575806104382e+02 1.125925334487449732e+02 1.075008762643998921e+02 5.749191417637851487e+01 1.087864027880532269e+01 1.536240622818777695e+02 8.180126150363763315e+01 6.577521917153296727e+01 -9.898036108252266274e+01 1.484957629057628594e+02 -3.511057742677325511e+00 1.065354219484385254e+02 8.594041556273975146e+00 3.579159699767629377e+01 -7.371948169804068129e+01 -8.837704092227153296e+01 6.972294325438095086e+01 -3.763626825232235795e+00 1.423691258429541051e+02 -1.222725197452395918e+01 -2.769188646869896520e+00 4.464689256030564479e+01 2.202754710952684647e+01 1.376669821619302354e+02 1.430050436280127713e+01 3.489889737680783099e+01 -1.505414975670369984e+02 6.404940417201871128e+01 1.300351992439311175e+02 -1.711666355996831967e+01 -2.217695871737359141e+02 8.207477634658168597e+01 1.323155552970899578e+02 1.978801397025172193e+01 1.835090768018264384e+02 -4.134979842100365843e+00 4.159102057657637630e+01 -4.230274582733966326e+01 -1.343633094067344302e+02 5.428788889801392514e+01 -4.599619169591093026e+01 -7.844044917869562994e+01 3.991547988408885317e+01 -1.788532624022206790e+02 6.934433283798200875e+01 1.591139532899410938e+02 -9.792019566949355180e+01 1.673381293089892949e+02 -9.438716112525972335e+01 -5.766217561393870206e+00 -1.019420316003188276e+01 7.408448653371620196e+01 -4.505478364839715510e+01 -1.041347069392174660e+02 -8.558093014145832456e+01 1.408078464179750995e+02 5.708018242392329000e+01 -1.272670140856197918e+02 4.265747816943452619e+00 4.189683562867026012e+01 7.966219703640801697e+01 -3.890997047521545937e+01 5.783374686804197040e+01 -6.652988486070607621e+01 -1.565514654814770665e+02 -3.339202786954584923e+01 1.359242116289287878e+02 -1.093462938981095078e+02 -6.158264050580084081e+00 -1.569960469001695458e+02 -4.667363252134864027e+00 -1.406070208023996599e+02 3.174793162585926609e+01 5.803330739817689476e+01 -4.849055474066160087e+01 -7.935631200388692719e+01 5.434850080011434770e+00 7.166730527035262810e+01 -6.527110003363695512e+01 1.296930264674111015e+02 1.016447256689070429e+02 -1.228866742698719889e+02 -1.015218629922961782e+02 1.300107359439221568e+02 6.862177344269971968e+01 1.445293676711064847e+02 9.622596799727124051e+01 7.804404958905794842e+01 -5.797034747526853238e+01 -7.860158236938497112e+01 -7.407488287106143332e+01 1.965616130667210371e+02 2.940907308602601944e+01 -2.394327239528115214e+01 -6.580033727899348150e+01 -4.796268800473007587e+01 -1.260345071475898351e+02 -1.581019178627207999e+01 -1.679183356647289997e+02 1.196453280264158821e+02 4.399811509191894032e+01 -1.102477562809753096e+02 -4.631790639133474485e+01 1.145694406574780260e+02 -9.273355563860624784e+01 9.839585253795850406e+01 -1.133584627839109089e+02 -1.126915365476653363e+01 -9.137329054045871146e+01 8.586023146169691245e+01 -4.063229357839232847e+01 9.819780997645862541e+00 2.807982726329738199e+01 -1.211376574159305335e+02 1.195455997170132001e+01 4.626815360188480497e+01 -2.137495921943409982e+01 -6.574641070491503569e+01 1.937524660078726413e+02 8.268526411346667260e+01 4.504215310737761513e+01 -3.003590730405979059e+01 7.669447782242954759e+01 1.602702840042605033e+02 -8.818975672495237461e+01 2.003001259026453340e+02 -1.272712640618683793e+02 -1.758370306330058668e+02 1.451222936453950183e+02 -2.237022623555779717e+02 -9.053353288198879856e-01 -2.341767556341525847e+02 -1.461658902288071147e+02 6.862128090115163559e+01 -1.392004036391777220e+02 5.580226118824750614e+01 1.051276503526995754e+02 -1.532807562001084136e+02 -2.876837238792224483e+01 7.210404323895859591e+01 1.280234967977542908e+02 -1.779444573358555033e+02 8.365322448157560586e+01 -9.366351463058660443e+01 -9.415644697798086327e+00 -1.324256274705956393e+01 -7.606429587833433459e+01 -8.631582198784552418e+01 1.733982575722055799e+02 -2.075920638133722207e+01 1.292659258962138846e+00 1.245364674466514288e+02 -8.294819198235893509e+01 -3.292847220991571788e+01 -1.030150383916311654e+02 -4.670850685658990642e+01 4.924423382517870706e+00 5.680222861812974600e+01 -1.293416577306781221e+02 2.272259153469600221e+02 -5.164145803306153226e+01 1.175574393709543557e+02 -4.682065721598697650e+01 1.148783955957584766e+02 1.335158552344777831e+02 4.600333820340294011e+01 1.171481337057695526e+02 -4.149055499141136494e+01 1.343636039886847300e+02 -1.502509894043873828e+02 -6.279522187086482887e+01 -6.046969006757288412e+01 2.456435110506051345e+01 -1.558654090588141230e+02 6.966990959739175082e+01 -2.962466288937643455e+01 -7.937889034760122797e+01 8.604562860656359646e+01 -1.451519802374364474e+02 -8.763927919963838065e+01 -5.058264453860250143e+01 3.176971811451499050e+01 1.246953877965977853e+02 1.122292460588838168e+02 6.637057056840124858e+01 -1.495986318365657874e+00 1.680319685790334177e+02 1.177054929195539472e+02 -9.077004700741666454e+01 -7.503319405224155503e+01 5.296934556676335148e+01 9.551426820042090426e+00 9.411987260299716240e+01 1.601826066375911921e+02 6.781845089718511588e+01 2.348564575567996471e+01 -9.819390301188448689e+01 1.649895739703248125e+02 -1.091714860137178675e+02 -1.587273913000851735e+02 6.312507553292888929e+01 1.070777509437659631e+02 1.887225352418678881e+01 -1.333177895152364556e+02 2.852213511118441502e+01 4.070890102687734213e+01 -3.516255783135217028e-01 1.256836918556034419e+02 9.384571429751299831e+01 1.642417405148533405e+01 7.518158230998727731e+01 -1.026155809112736961e+02 -6.112227895523668408e+00 9.436109339038230814e+01 2.848956082430342818e+01 -6.238270018459258637e+01 1.899984092134684488e+02 2.216873635568221630e+02 -1.203327730786755012e+02 -2.650299794924077545e+01 -2.015337551031356611e+02 -6.921250076002512230e+01 1.501060401366063957e+02 3.223098528480142111e+00 -6.805660990234100893e+01 1.569822081002362211e+02 -5.989198831570037385e+01 -1.539491232256955868e+02 1.308861566271890808e+02 -6.438445258921433378e+01 3.308370802545108802e+01 8.272318822848028219e+01 1.321784552255579825e+01 -2.282824837717485025e+02 4.055437472820468514e+01 -5.919175148785865481e+00 8.634157576012718494e+01 -2.257805706580722926e+01 9.684816998456425097e+01 1.628679815364557015e+01 -8.111874185572517604e+01 -1.962577533893662007e+01 -1.678727207469382279e+02 1.101362522973149964e+02 2.422052907855400150e+01 -3.986029777282103481e+01 -4.961459219386570396e+01 -6.027307373269223234e+01 3.939873988502632329e+01 1.539256853347219760e+02 1.270980391874663269e+02 4.122448516870535684e+01 -1.895229388566727380e+02 -3.715949078954173501e+01 4.197679842585473153e+01 1.123681397937306485e+02 8.350329326060628432e+01 1.478262645676040243e+01 -1.781626396588082173e+02 1.261050581531701340e+02 -2.142948344133616558e+02 -1.971199441511143391e+02 -1.747954627382763526e+00 -7.065126254217680923e+01 -2.311005252136477495e+01 8.343667693794445483e+01 5.355580961791478245e+01 -1.064864865057197534e+02 -1.450755031344321253e+02 1.396282186678322823e+01 1.184624617316232360e+02 1.979105531329902945e+01 -5.431314071531598842e+01 -4.947861558670201987e+01 -1.120508875312213526e+01 1.545581176590831376e+02 2.141732316082665832e+01 -1.693898892073512741e+02 1.251523607916865188e+02 -6.517465477466470247e+01 -4.069161656162784801e+00 1.501561926583511308e+02 -5.097236587506938577e+01 -1.910770762781029930e+01 -1.071149846362363434e+02 -5.849352687792443994e+00 -2.325070069413371954e+01 1.283895732866769492e+02 1.170685514019264559e+02 6.589730653528245341e+01 6.382354327700384289e+01 -1.823966849533163526e+01 1.317911200428915492e+02 -1.099635587947241504e+02 -4.146785628894081199e+00 -8.878151761950499576e+01 1.531621411203576599e+02 7.111018213400130605e+01 5.037434021151288022e+01 8.042166803783402429e+00 -5.197761061641665492e+01 3.352166394221045209e+01 6.553621179492787441e+00 3.571188920965537861e+00 2.349430593636477127e+01 5.827843422381595673e+01 1.659962187131093572e+02 -3.789318068351327184e+01 -5.066823728451138464e+01 6.511951101869927072e+01 1.127618252056674919e+02 -1.249510628472326701e+01 8.965151533912742821e+01 1.014914106816520132e+02 2.055046775873903471e+02 -8.436286170799991169e+01 -1.195825235902198642e+02 -2.792641312913251994e+01 6.060404604317172073e+01 -9.893002008283287907e+00 1.046992411568332102e+02 3.631005300412188319e+01 -1.585043672715898992e+02 4.391000199962204675e+01 -8.718440639422148308e+01 -1.318455439452473570e+02 1.310709519332285709e+02 -7.410806918671386256e+01 5.766685917348414137e+01 1.082980260695137673e+02 -9.643176923310711857e+01 2.289782885274834356e+01 -7.026575038009958973e+01 3.924134548121056554e+01 -1.116563225804499666e+02 5.999121437853565197e+01 5.325133292536305163e+01 3.765454505038318356e+00 8.180641724974927342e+01 -1.488260337719176505e+02 7.433684637659133898e+01 -2.853853369644096816e+01 -1.632707620636937236e+02 9.134194831961428918e+01 2.372891554494989563e+01 -1.895263488260042379e+02 2.273889569125591663e+02 -5.211833204359099803e-01 1.016275214296556726e+02 -1.165421629632911191e+02 -1.876714268538394776e+02 -9.018384681960117177e+01 2.418916604643166490e+00 1.380672449556979018e+02 3.829008585064015868e+00 -9.236725096512931543e+01 4.865818179981710045e+01 1.324370888420747292e+02 6.277955450779312230e+01 -4.998129337449202581e+01 -5.716040626574951489e+01 8.166319695780683219e+01 2.968363255612092999e+01 -1.890168682671286433e+02 -2.003340173712380334e+01 1.633417704987182617e+02 9.547152351089663114e+01 -5.541410307917615086e+01 -1.080459076745721347e+02 -4.123586507460655781e+01 -4.646566861580765107e+01 -1.106008637471012719e+02 -1.781559258133352586e+01 -4.412314678712173333e+01 -1.098011650895869451e+02 -1.274948754881559125e+02 -2.605390912074079779e+01 -1.214566415457855868e+02 -1.293436499200233243e+02 -3.704361504357802204e+01 -5.346633859344306927e+01 -1.073015937028768292e+02 1.863682107255121707e+02 1.053350863534420689e+01 -2.815960506316432443e+01 -1.701755197280976262e+01 7.876035934262274907e+01 1.566720542584550557e+01 2.507617836122451038e+01 -2.126487126231635827e+01 -4.634119896707733233e+01 2.093382296213743032e+01 -1.455516460019966303e+02 -1.593665633386201250e+02 -9.048328464640721336e+01 -1.910644322824923336e+02 -8.971046377661623694e+01 8.586095233904902102e+01 6.146023394733455802e+01 -2.607878098897771579e+01 6.083590353834285480e+01 -1.567633176506677728e+02 -4.092882173456309403e+01 -1.162788826043134520e+02 -6.682273417336774912e+01 2.112356374620317752e+02 -2.055205900404540102e+02 2.054964314910913004e+02 2.499221898334890568e+01 -5.651022296854165461e+01 9.230890026976030072e+01 1.242206520406869714e+02 -5.194524940368986421e+01 -2.039996483013556485e+02 -1.492651937406594982e+02 1.024007551574798214e+02 8.385352776966368538e+01 -1.357204834680665329e+02 3.197074268275072129e+01 -3.973446204773088652e+01 -7.749089858421478993e+01 -2.846017647087668578e+01 -5.487661698180144754e+01 -8.651969629152408459e+01 -3.410109651599317715e+01 4.527585331376475786e+00 -3.269969299772434823e+01 -3.709073326574379714e-01 -1.433529663979767399e+01 9.204594077371585570e+01 1.272624380991647115e+02 1.317454601824807270e+01 1.682209116167754814e+01 -6.321674203401676095e+01 -1.962933905719895904e+02 3.388747347714411262e+01 -9.182255332229460976e+01 2.587171463501231017e+01 -8.136433011621639011e+00 1.058474136782168618e+00 7.245166420167137744e+01 1.220352298773419903e+02 -7.056932569890753371e+01 3.804374588231230092e+01 -1.931290527795822527e+02 9.697655509008168195e+00 6.946309176281906694e+00 -1.227081826764107007e+02 -3.375080555319209452e+01 -4.438090252649459444e+01 4.769456876154211322e+00 -1.023634018140998876e+02 2.708262396030806229e+01 -9.775731452933408150e+01 5.612483864744986306e+01 6.795133006752620020e+01 3.694089341943941918e+01 -2.904902335791577173e+01 1.076003621045055070e+02 6.116499248521553511e+01 8.009295144338990724e+01 -6.707958300620470027e+01 2.027747134496021175e+01 1.280035787376556016e+02 -5.854772019858491205e+01 -6.924348655669268382e+00 3.201288322401772746e+01 -1.285286006251981519e+02 9.787944735026678700e+01 8.963717492347684868e+01 -1.012386801208797493e+02 -8.239555568306133182e+01 -5.556545363981822305e+01 -4.564793214443977831e+01 -1.602916009230913801e+02 -1.359484709379905496e+02 -1.325243420169155115e+02 1.056849810484669945e+02 5.981187118783724088e+01 1.595439254244938354e+02 7.206105345847504395e+00 -8.568543096553707983e+01 1.875205927913038906e+01 1.382421912395203556e+01 -6.353713097529663401e+01 7.401929229471548410e+01 1.179977852940510132e+02 9.957044650126274377e+00 1.432654056648148355e+02 2.247514432329409928e+01 1.108554055158498812e+02 1.505881970683295989e+01 -2.075829992763137000e+02 2.181495284962236667e+02 -4.888137872123107286e+01 -1.488955266790186158e+02 -6.710360413068573848e+01 -4.280653514180537655e+01 4.115991096761840140e+01 2.544374018753173416e+01 4.547491856329995130e+01 -7.359639843194312903e+01 1.215427735809123249e+02 -8.565158579564889862e+01 -6.961571747082679451e+00 1.413359134281772924e+02 1.087226242606990922e+02 5.755253287575834520e+01 -1.755179681294699208e+02 2.520781971573164171e+01 1.391091027783235461e+02 2.320571061668989188e+01 9.662662497065844036e+01 1.053302832617616787e+02 -2.092223325102302169e+02 7.607986690058164925e+01 -5.710261299741906527e+01 -2.223223614143945781e+02 8.742346402129648197e+01 2.424781159813310083e+01 -1.199127326836939318e+02 -5.746442815405624316e+01 1.360018222632406548e+02 1.444120029449471190e+02 -7.414931734732599011e+01 -1.247891457551324379e+02 -8.137403604133854174e+01 -1.615974008768553460e+02 1.905326303649203368e+01 3.691114407773875428e+01 -1.651263089002294393e+01 -1.202355966895512829e+01 -8.684458116527692084e+01 -8.559254328481857499e+01 -2.387900867462989041e+01 1.292864275609816787e+02 1.313483626798843886e+02 7.815801436276036895e+01 9.349020238207047839e+01 -7.553696788767692283e+01 -1.735546157798113711e+02 -1.267436725028239941e+01 -2.218598230783860714e+01 -6.812219705503369482e+01 1.425075345389243742e+00 7.004331182561989522e+01 -5.073099260775301644e+01 2.367816555162962544e+01 7.592075998338762588e+01 6.721225107826774092e+01 1.059844928966196704e+02 -1.430057591661047240e+02 3.799845916131003776e+01 7.987246453065938567e+01 9.084462626973449062e+01 5.661133170115270019e+01 -9.897119548224134178e+01 1.312687707987073509e+02 1.222158444574267548e+02 9.189052666638788480e+01 9.734254909417606427e+01 -8.073306782254590530e+01 -1.424695742154720612e+01 -1.241203366286760534e+01 7.385830062662128626e+01 6.228958600856185512e+01 5.369781642860935733e+01 9.353443245950258245e+01 1.116920221198768672e+02 1.188248689464591763e+02 -6.216784369285613110e+01 7.728103755179431289e+01 6.253784056093105193e+01 -1.128042056422065968e+02 1.261750384273274932e+02 -9.612394756064418289e+00 -2.677964159228777064e+01 1.911445136989156595e+02 8.489136360162555661e+01 1.190781263298109280e+02 -1.385114292562947469e+02 -1.514395678972745714e+02 -1.475178947486551806e+02 -1.172683205732972880e+02 -4.252074026467252565e+01 1.054194722743944510e+02 -1.620231863250303093e+02 3.123185537775303189e+01 1.387112465810445485e+02 -5.704960912296866127e+01 -8.781046778248818896e+01 -3.378129996945686031e+01 1.306546431365089518e+02 2.186245923257539516e+02 -6.416488187730175241e+01 1.907456403784683019e+01 -2.663857465777042322e+01 6.592962895159043057e+01 5.798998736310348079e+01 -2.053073628660856116e+02 -8.538679282243769819e+01 1.325149164360110774e+02 1.346534769104781049e+02 9.106915369856562847e+01 -4.801593225605467552e+01 -7.302870246353782591e+01 -4.373204191743976565e+01 -1.701771355547904818e+02 6.856554455680316096e+01 -2.472597920635501723e+01 1.603925117303021466e+02 -2.693988808024613135e+01 -3.033592749683035663e+02 1.396981052249792583e+02 4.844280847014502456e+01 -1.137555062259388592e+02 -2.139049968714340366e+01 3.405057426945369059e+01 -2.003462475684627577e+02 -1.102314528513266367e+02 -1.057786096581559150e+02 -5.441296976410225028e+01 6.058013112550519708e+01 -1.590693794303679738e+02 1.041178201580012512e+02 -5.242218676426402624e+01 2.823487500532077199e+00 -1.287657994964076238e+02 -1.000535692991288386e+02 1.697346639624045110e+02 8.365908220084980940e+01 -4.076997219958489893e+01 3.586415490671477357e+01 -2.707860456157018092e+01 4.180571025651175177e+01 -1.010240279211044054e+02 9.551978388048856061e+01 4.876232538097826819e+01 -1.148278581593577314e+02 1.127603643813452123e+02 -4.743600430627093800e+01 9.649763690996094567e+01 -4.771605938298485938e+01 8.536589617216941406e+01 -1.481902575393904158e+02 1.378911732393403895e+02 2.392453480655832720e+01 9.726687435526463332e+01 1.260336221709327447e+02 -1.417296307962279798e+02 -8.302289729016310105e+01 -1.020989342000100919e+02 6.463172246827859624e+01 -1.656346084874328426e+02 1.464949414441456383e+02 1.376218921674249884e+02 5.121445808916512732e+01 -8.208278501458767096e+01 5.517635709243153741e+01 -1.037867030593655500e+02 -1.056720419052810911e+01 3.381584955910148693e+01 -1.776890964471524228e+02 -7.888432382982099966e+01 -1.308976732500457274e+01 9.883763770902800161e+01 -4.857531849115385825e+01 1.051971899345317354e+02 -6.222653964299697549e+01 -2.039376641674003849e+02 -1.036192192261006255e+02 -3.293154041382036468e+01 -5.823425120706882296e+01 2.911519281309711715e+01 4.976850436343121231e+01 6.132593977642829763e+00 2.457203213475964887e+01 -1.136157158794719635e+02 5.216925651605114211e+01 3.160310898628938148e+01 -6.987476548924522035e+01 8.989746868098709598e+00 5.460874594859721753e+01 -9.241423321391478396e+01 -5.337636642800714526e+01 -2.341891736000266633e+01 9.454161343133232265e+01 -1.660074318482121569e+01 4.065972131060632044e+00 -2.210875321748983993e+02 -9.209689546523961212e+01 9.590434440146422901e+01 -8.643637177592435705e+01 3.037606626148496503e+01 3.010775080556229355e+01 3.674694022165295593e+01 6.406470979276046762e+01 -1.720521177008802738e+02 1.396066359433958155e+02 7.906861486008179440e+01 -7.309643652760916765e+00 -7.835533895220466150e+01 1.084831010240158236e+02 6.022104932496584695e+01 -1.950512479350576314e+02 -4.885375504182532325e+01 -7.924845400216341318e+01 -5.024579995893828510e+01 -6.004409773573679843e+01 -9.603059300452953551e+01 -5.854385957450373468e+01 1.857740523524539640e+02 -1.656202159739243029e+02 6.350288060575303462e+01 2.691433292080281348e+01 -7.293787188636544272e+01 1.008579616193058115e+01 -3.825629640331042935e+01 3.335553044018595870e+00 -9.327740090033739762e+01 -1.916764519734827559e+02 1.784667919932961766e+01 4.064622557026609684e+01 -1.241394319368279930e+01 -8.698876673146228811e+00 -3.859442960129852196e+01 -1.842538377092553503e+02 -2.972219778756984354e+01 -6.341427227409730705e+01 1.352458513315635003e+01 -1.515320613735312882e+01 8.790519566096673998e+01 -6.117061433116474234e+01 -1.006157059078957730e+02 -3.464267534241037794e+01 -8.714975227748432474e+00 4.410060030778510765e+01 -2.146581070192539897e+01 -7.163636168926412040e+01 -1.541334680507607224e+01 1.945339097893697300e+01 4.610296103348760965e+01 -1.106327986166262605e+02 -1.349364204929026414e+02 2.235924232503479345e+02 -2.118928258475132793e+02 -7.370348904608660234e+01 -4.496510725280290188e+01 1.357593784793859299e+02 6.142698234882624320e+01 2.222469747456342191e+02 2.376256091516941353e+02 -6.054383334440752407e+01 1.256742205915693802e+02 -5.439759825638076052e+01 -3.963401162501426711e+01 -9.769089639428526084e+01 -7.751655115936887341e+01 -6.752085354792444605e+01 -8.643561356842015186e+01 -2.367019119227074100e+02 -2.629745272438719326e+02 1.307674218280884304e+02 -2.577132515107994948e+01 5.172452794937948539e+01 1.271148514272150862e+02
