# 
#                 ----------------------------------------------------
#                 Data from a 3D direct N-body simulation. 
# 
#                 rows are i-particle; 
#                 coumns are :mass, tag, x ,y, z, vx, vy, vz, ax, ay, az
# 
#                 NTHU, Computational Physics Lab
# 
#                 ----------------------------------------------------
#                 Time = 1.7000000000000013
1.000000000000000000e+00 2.000000000000000000e+00 3.000000000000000000e+00 4.000000000000000000e+00 5.000000000000000000e+00 6.000000000000000000e+00 7.000000000000000000e+00 8.000000000000000000e+00 9.000000000000000000e+00 1.000000000000000000e+01 1.100000000000000000e+01 1.200000000000000000e+01 1.300000000000000000e+01 1.400000000000000000e+01 1.500000000000000000e+01 1.600000000000000000e+01 1.700000000000000000e+01 1.800000000000000000e+01 1.900000000000000000e+01 2.000000000000000000e+01 2.100000000000000000e+01 2.200000000000000000e+01 2.300000000000000000e+01 2.400000000000000000e+01 2.500000000000000000e+01 2.600000000000000000e+01 2.700000000000000000e+01 2.800000000000000000e+01 2.900000000000000000e+01 3.000000000000000000e+01 3.100000000000000000e+01 3.200000000000000000e+01 3.300000000000000000e+01 3.400000000000000000e+01 3.500000000000000000e+01 3.600000000000000000e+01 3.700000000000000000e+01 3.800000000000000000e+01 3.900000000000000000e+01 4.000000000000000000e+01 4.100000000000000000e+01 4.200000000000000000e+01 4.300000000000000000e+01 4.400000000000000000e+01 4.500000000000000000e+01 4.600000000000000000e+01 4.700000000000000000e+01 4.800000000000000000e+01 4.900000000000000000e+01 5.000000000000000000e+01 5.100000000000000000e+01 5.200000000000000000e+01 5.300000000000000000e+01 5.400000000000000000e+01 5.500000000000000000e+01 5.600000000000000000e+01 5.700000000000000000e+01 5.800000000000000000e+01 5.900000000000000000e+01 6.000000000000000000e+01 6.100000000000000000e+01 6.200000000000000000e+01 6.300000000000000000e+01 6.400000000000000000e+01 6.500000000000000000e+01 6.600000000000000000e+01 6.700000000000000000e+01 6.800000000000000000e+01 6.900000000000000000e+01 7.000000000000000000e+01 7.100000000000000000e+01 7.200000000000000000e+01 7.300000000000000000e+01 7.400000000000000000e+01 7.500000000000000000e+01 7.600000000000000000e+01 7.700000000000000000e+01 7.800000000000000000e+01 7.900000000000000000e+01 8.000000000000000000e+01 8.100000000000000000e+01 8.200000000000000000e+01 8.300000000000000000e+01 8.400000000000000000e+01 8.500000000000000000e+01 8.600000000000000000e+01 8.700000000000000000e+01 8.800000000000000000e+01 8.900000000000000000e+01 9.000000000000000000e+01 9.100000000000000000e+01 9.200000000000000000e+01 9.300000000000000000e+01 9.400000000000000000e+01 9.500000000000000000e+01 9.600000000000000000e+01 9.700000000000000000e+01 9.800000000000000000e+01 9.900000000000000000e+01 1.000000000000000000e+02 1.010000000000000000e+02 1.020000000000000000e+02 1.030000000000000000e+02 1.040000000000000000e+02 1.050000000000000000e+02 1.060000000000000000e+02 1.070000000000000000e+02 1.080000000000000000e+02 1.090000000000000000e+02 1.100000000000000000e+02 1.110000000000000000e+02 1.120000000000000000e+02 1.130000000000000000e+02 1.140000000000000000e+02 1.150000000000000000e+02 1.160000000000000000e+02 1.170000000000000000e+02 1.180000000000000000e+02 1.190000000000000000e+02 1.200000000000000000e+02 1.210000000000000000e+02 1.220000000000000000e+02 1.230000000000000000e+02 1.240000000000000000e+02 1.250000000000000000e+02 1.260000000000000000e+02 1.270000000000000000e+02 1.280000000000000000e+02 1.290000000000000000e+02 1.300000000000000000e+02 1.310000000000000000e+02 1.320000000000000000e+02 1.330000000000000000e+02 1.340000000000000000e+02 1.350000000000000000e+02 1.360000000000000000e+02 1.370000000000000000e+02 1.380000000000000000e+02 1.390000000000000000e+02 1.400000000000000000e+02 1.410000000000000000e+02 1.420000000000000000e+02 1.430000000000000000e+02 1.440000000000000000e+02 1.450000000000000000e+02 1.460000000000000000e+02 1.470000000000000000e+02 1.480000000000000000e+02 1.490000000000000000e+02 1.500000000000000000e+02 1.510000000000000000e+02 1.520000000000000000e+02 1.530000000000000000e+02 1.540000000000000000e+02 1.550000000000000000e+02 1.560000000000000000e+02 1.570000000000000000e+02 1.580000000000000000e+02 1.590000000000000000e+02 1.600000000000000000e+02 1.610000000000000000e+02 1.620000000000000000e+02 1.630000000000000000e+02 1.640000000000000000e+02 1.650000000000000000e+02 1.660000000000000000e+02 1.670000000000000000e+02 1.680000000000000000e+02 1.690000000000000000e+02 1.700000000000000000e+02 1.710000000000000000e+02 1.720000000000000000e+02 1.730000000000000000e+02 1.740000000000000000e+02 1.750000000000000000e+02 1.760000000000000000e+02 1.770000000000000000e+02 1.780000000000000000e+02 1.790000000000000000e+02 1.800000000000000000e+02 1.810000000000000000e+02 1.820000000000000000e+02 1.830000000000000000e+02 1.840000000000000000e+02 1.850000000000000000e+02 1.860000000000000000e+02 1.870000000000000000e+02 1.880000000000000000e+02 1.890000000000000000e+02 1.900000000000000000e+02 1.910000000000000000e+02 1.920000000000000000e+02 1.930000000000000000e+02 1.940000000000000000e+02 1.950000000000000000e+02 1.960000000000000000e+02 1.970000000000000000e+02 1.980000000000000000e+02 1.990000000000000000e+02 2.000000000000000000e+02 2.010000000000000000e+02 2.020000000000000000e+02 2.030000000000000000e+02 2.040000000000000000e+02 2.050000000000000000e+02 2.060000000000000000e+02 2.070000000000000000e+02 2.080000000000000000e+02 2.090000000000000000e+02 2.100000000000000000e+02 2.110000000000000000e+02 2.120000000000000000e+02 2.130000000000000000e+02 2.140000000000000000e+02 2.150000000000000000e+02 2.160000000000000000e+02 2.170000000000000000e+02 2.180000000000000000e+02 2.190000000000000000e+02 2.200000000000000000e+02 2.210000000000000000e+02 2.220000000000000000e+02 2.230000000000000000e+02 2.240000000000000000e+02 2.250000000000000000e+02 2.260000000000000000e+02 2.270000000000000000e+02 2.280000000000000000e+02 2.290000000000000000e+02 2.300000000000000000e+02 2.310000000000000000e+02 2.320000000000000000e+02 2.330000000000000000e+02 2.340000000000000000e+02 2.350000000000000000e+02 2.360000000000000000e+02 2.370000000000000000e+02 2.380000000000000000e+02 2.390000000000000000e+02 2.400000000000000000e+02 2.410000000000000000e+02 2.420000000000000000e+02 2.430000000000000000e+02 2.440000000000000000e+02 2.450000000000000000e+02 2.460000000000000000e+02 2.470000000000000000e+02 2.480000000000000000e+02 2.490000000000000000e+02 2.500000000000000000e+02 2.510000000000000000e+02 2.520000000000000000e+02 2.530000000000000000e+02 2.540000000000000000e+02 2.550000000000000000e+02 2.560000000000000000e+02 2.570000000000000000e+02 2.580000000000000000e+02 2.590000000000000000e+02 2.600000000000000000e+02 2.610000000000000000e+02 2.620000000000000000e+02 2.630000000000000000e+02 2.640000000000000000e+02 2.650000000000000000e+02 2.660000000000000000e+02 2.670000000000000000e+02 2.680000000000000000e+02 2.690000000000000000e+02 2.700000000000000000e+02 2.710000000000000000e+02 2.720000000000000000e+02 2.730000000000000000e+02 2.740000000000000000e+02 2.750000000000000000e+02 2.760000000000000000e+02 2.770000000000000000e+02 2.780000000000000000e+02 2.790000000000000000e+02 2.800000000000000000e+02 2.810000000000000000e+02 2.820000000000000000e+02 2.830000000000000000e+02 2.840000000000000000e+02 2.850000000000000000e+02 2.860000000000000000e+02 2.870000000000000000e+02 2.880000000000000000e+02 2.890000000000000000e+02 2.900000000000000000e+02 2.910000000000000000e+02 2.920000000000000000e+02 2.930000000000000000e+02 2.940000000000000000e+02 2.950000000000000000e+02 2.960000000000000000e+02 2.970000000000000000e+02 2.980000000000000000e+02 2.990000000000000000e+02 3.000000000000000000e+02 3.010000000000000000e+02 3.020000000000000000e+02 3.030000000000000000e+02 3.040000000000000000e+02 3.050000000000000000e+02 3.060000000000000000e+02 3.070000000000000000e+02 3.080000000000000000e+02 3.090000000000000000e+02 3.100000000000000000e+02 3.110000000000000000e+02 3.120000000000000000e+02 3.130000000000000000e+02 3.140000000000000000e+02 3.150000000000000000e+02 3.160000000000000000e+02 3.170000000000000000e+02 3.180000000000000000e+02 3.190000000000000000e+02 3.200000000000000000e+02 3.210000000000000000e+02 3.220000000000000000e+02 3.230000000000000000e+02 3.240000000000000000e+02 3.250000000000000000e+02 3.260000000000000000e+02 3.270000000000000000e+02 3.280000000000000000e+02 3.290000000000000000e+02 3.300000000000000000e+02 3.310000000000000000e+02 3.320000000000000000e+02 3.330000000000000000e+02 3.340000000000000000e+02 3.350000000000000000e+02 3.360000000000000000e+02 3.370000000000000000e+02 3.380000000000000000e+02 3.390000000000000000e+02 3.400000000000000000e+02 3.410000000000000000e+02 3.420000000000000000e+02 3.430000000000000000e+02 3.440000000000000000e+02 3.450000000000000000e+02 3.460000000000000000e+02 3.470000000000000000e+02 3.480000000000000000e+02 3.490000000000000000e+02 3.500000000000000000e+02 3.510000000000000000e+02 3.520000000000000000e+02 3.530000000000000000e+02 3.540000000000000000e+02 3.550000000000000000e+02 3.560000000000000000e+02 3.570000000000000000e+02 3.580000000000000000e+02 3.590000000000000000e+02 3.600000000000000000e+02 3.610000000000000000e+02 3.620000000000000000e+02 3.630000000000000000e+02 3.640000000000000000e+02 3.650000000000000000e+02 3.660000000000000000e+02 3.670000000000000000e+02 3.680000000000000000e+02 3.690000000000000000e+02 3.700000000000000000e+02 3.710000000000000000e+02 3.720000000000000000e+02 3.730000000000000000e+02 3.740000000000000000e+02 3.750000000000000000e+02 3.760000000000000000e+02 3.770000000000000000e+02 3.780000000000000000e+02 3.790000000000000000e+02 3.800000000000000000e+02 3.810000000000000000e+02 3.820000000000000000e+02 3.830000000000000000e+02 3.840000000000000000e+02 3.850000000000000000e+02 3.860000000000000000e+02 3.870000000000000000e+02 3.880000000000000000e+02 3.890000000000000000e+02 3.900000000000000000e+02 3.910000000000000000e+02 3.920000000000000000e+02 3.930000000000000000e+02 3.940000000000000000e+02 3.950000000000000000e+02 3.960000000000000000e+02 3.970000000000000000e+02 3.980000000000000000e+02 3.990000000000000000e+02 4.000000000000000000e+02 4.010000000000000000e+02 4.020000000000000000e+02 4.030000000000000000e+02 4.040000000000000000e+02 4.050000000000000000e+02 4.060000000000000000e+02 4.070000000000000000e+02 4.080000000000000000e+02 4.090000000000000000e+02 4.100000000000000000e+02 4.110000000000000000e+02 4.120000000000000000e+02 4.130000000000000000e+02 4.140000000000000000e+02 4.150000000000000000e+02 4.160000000000000000e+02 4.170000000000000000e+02 4.180000000000000000e+02 4.190000000000000000e+02 4.200000000000000000e+02 4.210000000000000000e+02 4.220000000000000000e+02 4.230000000000000000e+02 4.240000000000000000e+02 4.250000000000000000e+02 4.260000000000000000e+02 4.270000000000000000e+02 4.280000000000000000e+02 4.290000000000000000e+02 4.300000000000000000e+02 4.310000000000000000e+02 4.320000000000000000e+02 4.330000000000000000e+02 4.340000000000000000e+02 4.350000000000000000e+02 4.360000000000000000e+02 4.370000000000000000e+02 4.380000000000000000e+02 4.390000000000000000e+02 4.400000000000000000e+02 4.410000000000000000e+02 4.420000000000000000e+02 4.430000000000000000e+02 4.440000000000000000e+02 4.450000000000000000e+02 4.460000000000000000e+02 4.470000000000000000e+02 4.480000000000000000e+02 4.490000000000000000e+02 4.500000000000000000e+02 4.510000000000000000e+02 4.520000000000000000e+02 4.530000000000000000e+02 4.540000000000000000e+02 4.550000000000000000e+02 4.560000000000000000e+02 4.570000000000000000e+02 4.580000000000000000e+02 4.590000000000000000e+02 4.600000000000000000e+02 4.610000000000000000e+02 4.620000000000000000e+02 4.630000000000000000e+02 4.640000000000000000e+02 4.650000000000000000e+02 4.660000000000000000e+02 4.670000000000000000e+02 4.680000000000000000e+02 4.690000000000000000e+02 4.700000000000000000e+02 4.710000000000000000e+02 4.720000000000000000e+02 4.730000000000000000e+02 4.740000000000000000e+02 4.750000000000000000e+02 4.760000000000000000e+02 4.770000000000000000e+02 4.780000000000000000e+02 4.790000000000000000e+02 4.800000000000000000e+02 4.810000000000000000e+02 4.820000000000000000e+02 4.830000000000000000e+02 4.840000000000000000e+02 4.850000000000000000e+02 4.860000000000000000e+02 4.870000000000000000e+02 4.880000000000000000e+02 4.890000000000000000e+02 4.900000000000000000e+02 4.910000000000000000e+02 4.920000000000000000e+02 4.930000000000000000e+02 4.940000000000000000e+02 4.950000000000000000e+02 4.960000000000000000e+02 4.970000000000000000e+02 4.980000000000000000e+02 4.990000000000000000e+02 5.000000000000000000e+02 5.010000000000000000e+02 5.020000000000000000e+02 5.030000000000000000e+02 5.040000000000000000e+02 5.050000000000000000e+02 5.060000000000000000e+02 5.070000000000000000e+02 5.080000000000000000e+02 5.090000000000000000e+02 5.100000000000000000e+02 5.110000000000000000e+02 5.120000000000000000e+02 5.130000000000000000e+02 5.140000000000000000e+02 5.150000000000000000e+02 5.160000000000000000e+02 5.170000000000000000e+02 5.180000000000000000e+02 5.190000000000000000e+02 5.200000000000000000e+02 5.210000000000000000e+02 5.220000000000000000e+02 5.230000000000000000e+02 5.240000000000000000e+02 5.250000000000000000e+02 5.260000000000000000e+02 5.270000000000000000e+02 5.280000000000000000e+02 5.290000000000000000e+02 5.300000000000000000e+02 5.310000000000000000e+02 5.320000000000000000e+02 5.330000000000000000e+02 5.340000000000000000e+02 5.350000000000000000e+02 5.360000000000000000e+02 5.370000000000000000e+02 5.380000000000000000e+02 5.390000000000000000e+02 5.400000000000000000e+02 5.410000000000000000e+02 5.420000000000000000e+02 5.430000000000000000e+02 5.440000000000000000e+02 5.450000000000000000e+02 5.460000000000000000e+02 5.470000000000000000e+02 5.480000000000000000e+02 5.490000000000000000e+02 5.500000000000000000e+02 5.510000000000000000e+02 5.520000000000000000e+02 5.530000000000000000e+02 5.540000000000000000e+02 5.550000000000000000e+02 5.560000000000000000e+02 5.570000000000000000e+02 5.580000000000000000e+02 5.590000000000000000e+02 5.600000000000000000e+02 5.610000000000000000e+02 5.620000000000000000e+02 5.630000000000000000e+02 5.640000000000000000e+02 5.650000000000000000e+02 5.660000000000000000e+02 5.670000000000000000e+02 5.680000000000000000e+02 5.690000000000000000e+02 5.700000000000000000e+02 5.710000000000000000e+02 5.720000000000000000e+02 5.730000000000000000e+02 5.740000000000000000e+02 5.750000000000000000e+02 5.760000000000000000e+02 5.770000000000000000e+02 5.780000000000000000e+02 5.790000000000000000e+02 5.800000000000000000e+02 5.810000000000000000e+02 5.820000000000000000e+02 5.830000000000000000e+02 5.840000000000000000e+02 5.850000000000000000e+02 5.860000000000000000e+02 5.870000000000000000e+02 5.880000000000000000e+02 5.890000000000000000e+02 5.900000000000000000e+02 5.910000000000000000e+02 5.920000000000000000e+02 5.930000000000000000e+02 5.940000000000000000e+02 5.950000000000000000e+02 5.960000000000000000e+02 5.970000000000000000e+02 5.980000000000000000e+02 5.990000000000000000e+02 6.000000000000000000e+02 6.010000000000000000e+02 6.020000000000000000e+02 6.030000000000000000e+02 6.040000000000000000e+02 6.050000000000000000e+02 6.060000000000000000e+02 6.070000000000000000e+02 6.080000000000000000e+02 6.090000000000000000e+02 6.100000000000000000e+02 6.110000000000000000e+02 6.120000000000000000e+02 6.130000000000000000e+02 6.140000000000000000e+02 6.150000000000000000e+02 6.160000000000000000e+02 6.170000000000000000e+02 6.180000000000000000e+02 6.190000000000000000e+02 6.200000000000000000e+02 6.210000000000000000e+02 6.220000000000000000e+02 6.230000000000000000e+02 6.240000000000000000e+02 6.250000000000000000e+02 6.260000000000000000e+02 6.270000000000000000e+02 6.280000000000000000e+02 6.290000000000000000e+02 6.300000000000000000e+02 6.310000000000000000e+02 6.320000000000000000e+02 6.330000000000000000e+02 6.340000000000000000e+02 6.350000000000000000e+02 6.360000000000000000e+02 6.370000000000000000e+02 6.380000000000000000e+02 6.390000000000000000e+02 6.400000000000000000e+02 6.410000000000000000e+02 6.420000000000000000e+02 6.430000000000000000e+02 6.440000000000000000e+02 6.450000000000000000e+02 6.460000000000000000e+02 6.470000000000000000e+02 6.480000000000000000e+02 6.490000000000000000e+02 6.500000000000000000e+02 6.510000000000000000e+02 6.520000000000000000e+02 6.530000000000000000e+02 6.540000000000000000e+02 6.550000000000000000e+02 6.560000000000000000e+02 6.570000000000000000e+02 6.580000000000000000e+02 6.590000000000000000e+02 6.600000000000000000e+02 6.610000000000000000e+02 6.620000000000000000e+02 6.630000000000000000e+02 6.640000000000000000e+02 6.650000000000000000e+02 6.660000000000000000e+02 6.670000000000000000e+02 6.680000000000000000e+02 6.690000000000000000e+02 6.700000000000000000e+02 6.710000000000000000e+02 6.720000000000000000e+02 6.730000000000000000e+02 6.740000000000000000e+02 6.750000000000000000e+02 6.760000000000000000e+02 6.770000000000000000e+02 6.780000000000000000e+02 6.790000000000000000e+02 6.800000000000000000e+02 6.810000000000000000e+02 6.820000000000000000e+02 6.830000000000000000e+02 6.840000000000000000e+02 6.850000000000000000e+02 6.860000000000000000e+02 6.870000000000000000e+02 6.880000000000000000e+02 6.890000000000000000e+02 6.900000000000000000e+02 6.910000000000000000e+02 6.920000000000000000e+02 6.930000000000000000e+02 6.940000000000000000e+02 6.950000000000000000e+02 6.960000000000000000e+02 6.970000000000000000e+02 6.980000000000000000e+02 6.990000000000000000e+02 7.000000000000000000e+02 7.010000000000000000e+02 7.020000000000000000e+02 7.030000000000000000e+02 7.040000000000000000e+02 7.050000000000000000e+02 7.060000000000000000e+02 7.070000000000000000e+02 7.080000000000000000e+02 7.090000000000000000e+02 7.100000000000000000e+02 7.110000000000000000e+02 7.120000000000000000e+02 7.130000000000000000e+02 7.140000000000000000e+02 7.150000000000000000e+02 7.160000000000000000e+02 7.170000000000000000e+02 7.180000000000000000e+02 7.190000000000000000e+02 7.200000000000000000e+02 7.210000000000000000e+02 7.220000000000000000e+02 7.230000000000000000e+02 7.240000000000000000e+02 7.250000000000000000e+02 7.260000000000000000e+02 7.270000000000000000e+02 7.280000000000000000e+02 7.290000000000000000e+02 7.300000000000000000e+02 7.310000000000000000e+02 7.320000000000000000e+02 7.330000000000000000e+02 7.340000000000000000e+02 7.350000000000000000e+02 7.360000000000000000e+02 7.370000000000000000e+02 7.380000000000000000e+02 7.390000000000000000e+02 7.400000000000000000e+02 7.410000000000000000e+02 7.420000000000000000e+02 7.430000000000000000e+02 7.440000000000000000e+02 7.450000000000000000e+02 7.460000000000000000e+02 7.470000000000000000e+02 7.480000000000000000e+02 7.490000000000000000e+02 7.500000000000000000e+02 7.510000000000000000e+02 7.520000000000000000e+02 7.530000000000000000e+02 7.540000000000000000e+02 7.550000000000000000e+02 7.560000000000000000e+02 7.570000000000000000e+02 7.580000000000000000e+02 7.590000000000000000e+02 7.600000000000000000e+02 7.610000000000000000e+02 7.620000000000000000e+02 7.630000000000000000e+02 7.640000000000000000e+02 7.650000000000000000e+02 7.660000000000000000e+02 7.670000000000000000e+02 7.680000000000000000e+02 7.690000000000000000e+02 7.700000000000000000e+02 7.710000000000000000e+02 7.720000000000000000e+02 7.730000000000000000e+02 7.740000000000000000e+02 7.750000000000000000e+02 7.760000000000000000e+02 7.770000000000000000e+02 7.780000000000000000e+02 7.790000000000000000e+02 7.800000000000000000e+02 7.810000000000000000e+02 7.820000000000000000e+02 7.830000000000000000e+02 7.840000000000000000e+02 7.850000000000000000e+02 7.860000000000000000e+02 7.870000000000000000e+02 7.880000000000000000e+02 7.890000000000000000e+02 7.900000000000000000e+02 7.910000000000000000e+02 7.920000000000000000e+02 7.930000000000000000e+02 7.940000000000000000e+02 7.950000000000000000e+02 7.960000000000000000e+02 7.970000000000000000e+02 7.980000000000000000e+02 7.990000000000000000e+02 8.000000000000000000e+02 8.010000000000000000e+02 8.020000000000000000e+02 8.030000000000000000e+02 8.040000000000000000e+02 8.050000000000000000e+02 8.060000000000000000e+02 8.070000000000000000e+02 8.080000000000000000e+02 8.090000000000000000e+02 8.100000000000000000e+02 8.110000000000000000e+02 8.120000000000000000e+02 8.130000000000000000e+02 8.140000000000000000e+02 8.150000000000000000e+02 8.160000000000000000e+02 8.170000000000000000e+02 8.180000000000000000e+02 8.190000000000000000e+02 8.200000000000000000e+02 8.210000000000000000e+02 8.220000000000000000e+02 8.230000000000000000e+02 8.240000000000000000e+02 8.250000000000000000e+02 8.260000000000000000e+02 8.270000000000000000e+02 8.280000000000000000e+02 8.290000000000000000e+02 8.300000000000000000e+02 8.310000000000000000e+02 8.320000000000000000e+02 8.330000000000000000e+02 8.340000000000000000e+02 8.350000000000000000e+02 8.360000000000000000e+02 8.370000000000000000e+02 8.380000000000000000e+02 8.390000000000000000e+02 8.400000000000000000e+02 8.410000000000000000e+02 8.420000000000000000e+02 8.430000000000000000e+02 8.440000000000000000e+02 8.450000000000000000e+02 8.460000000000000000e+02 8.470000000000000000e+02 8.480000000000000000e+02 8.490000000000000000e+02 8.500000000000000000e+02 8.510000000000000000e+02 8.520000000000000000e+02 8.530000000000000000e+02 8.540000000000000000e+02 8.550000000000000000e+02 8.560000000000000000e+02 8.570000000000000000e+02 8.580000000000000000e+02 8.590000000000000000e+02 8.600000000000000000e+02 8.610000000000000000e+02 8.620000000000000000e+02 8.630000000000000000e+02 8.640000000000000000e+02 8.650000000000000000e+02 8.660000000000000000e+02 8.670000000000000000e+02 8.680000000000000000e+02 8.690000000000000000e+02 8.700000000000000000e+02 8.710000000000000000e+02 8.720000000000000000e+02 8.730000000000000000e+02 8.740000000000000000e+02 8.750000000000000000e+02 8.760000000000000000e+02 8.770000000000000000e+02 8.780000000000000000e+02 8.790000000000000000e+02 8.800000000000000000e+02 8.810000000000000000e+02 8.820000000000000000e+02 8.830000000000000000e+02 8.840000000000000000e+02 8.850000000000000000e+02 8.860000000000000000e+02 8.870000000000000000e+02 8.880000000000000000e+02 8.890000000000000000e+02 8.900000000000000000e+02 8.910000000000000000e+02 8.920000000000000000e+02 8.930000000000000000e+02 8.940000000000000000e+02 8.950000000000000000e+02 8.960000000000000000e+02 8.970000000000000000e+02 8.980000000000000000e+02 8.990000000000000000e+02 9.000000000000000000e+02 9.010000000000000000e+02 9.020000000000000000e+02 9.030000000000000000e+02 9.040000000000000000e+02 9.050000000000000000e+02 9.060000000000000000e+02 9.070000000000000000e+02 9.080000000000000000e+02 9.090000000000000000e+02 9.100000000000000000e+02 9.110000000000000000e+02 9.120000000000000000e+02 9.130000000000000000e+02 9.140000000000000000e+02 9.150000000000000000e+02 9.160000000000000000e+02 9.170000000000000000e+02 9.180000000000000000e+02 9.190000000000000000e+02 9.200000000000000000e+02 9.210000000000000000e+02 9.220000000000000000e+02 9.230000000000000000e+02 9.240000000000000000e+02 9.250000000000000000e+02 9.260000000000000000e+02 9.270000000000000000e+02 9.280000000000000000e+02 9.290000000000000000e+02 9.300000000000000000e+02 9.310000000000000000e+02 9.320000000000000000e+02 9.330000000000000000e+02 9.340000000000000000e+02 9.350000000000000000e+02 9.360000000000000000e+02 9.370000000000000000e+02 9.380000000000000000e+02 9.390000000000000000e+02 9.400000000000000000e+02 9.410000000000000000e+02 9.420000000000000000e+02 9.430000000000000000e+02 9.440000000000000000e+02 9.450000000000000000e+02 9.460000000000000000e+02 9.470000000000000000e+02 9.480000000000000000e+02 9.490000000000000000e+02 9.500000000000000000e+02 9.510000000000000000e+02 9.520000000000000000e+02 9.530000000000000000e+02 9.540000000000000000e+02 9.550000000000000000e+02 9.560000000000000000e+02 9.570000000000000000e+02 9.580000000000000000e+02 9.590000000000000000e+02 9.600000000000000000e+02 9.610000000000000000e+02 9.620000000000000000e+02 9.630000000000000000e+02 9.640000000000000000e+02 9.650000000000000000e+02 9.660000000000000000e+02 9.670000000000000000e+02 9.680000000000000000e+02 9.690000000000000000e+02 9.700000000000000000e+02 9.710000000000000000e+02 9.720000000000000000e+02 9.730000000000000000e+02 9.740000000000000000e+02 9.750000000000000000e+02 9.760000000000000000e+02 9.770000000000000000e+02 9.780000000000000000e+02 9.790000000000000000e+02 9.800000000000000000e+02 9.810000000000000000e+02 9.820000000000000000e+02 9.830000000000000000e+02 9.840000000000000000e+02 9.850000000000000000e+02 9.860000000000000000e+02 9.870000000000000000e+02 9.880000000000000000e+02 9.890000000000000000e+02 9.900000000000000000e+02 9.910000000000000000e+02 9.920000000000000000e+02 9.930000000000000000e+02 9.940000000000000000e+02 9.950000000000000000e+02 9.960000000000000000e+02 9.970000000000000000e+02 9.980000000000000000e+02 9.990000000000000000e+02 1.000000000000000000e+03
1.000000000000000021e-02 1.000000000000000021e-02 1.000000000000000021e-02 1.000000000000000021e-02 1.000000000000000021e-02 1.000000000000000021e-02 1.000000000000000021e-02 1.000000000000000021e-02 1.000000000000000021e-02 1.000000000000000021e-02 1.000000000000000021e-02 1.000000000000000021e-02 1.000000000000000021e-02 1.000000000000000021e-02 1.000000000000000021e-02 1.000000000000000021e-02 1.000000000000000021e-02 1.000000000000000021e-02 1.000000000000000021e-02 1.000000000000000021e-02 1.000000000000000021e-02 1.000000000000000021e-02 1.000000000000000021e-02 1.000000000000000021e-02 1.000000000000000021e-02 1.000000000000000021e-02 1.000000000000000021e-02 1.000000000000000021e-02 1.000000000000000021e-02 1.000000000000000021e-02 1.000000000000000021e-02 1.000000000000000021e-02 1.000000000000000021e-02 1.000000000000000021e-02 1.000000000000000021e-02 1.000000000000000021e-02 1.000000000000000021e-02 1.000000000000000021e-02 1.000000000000000021e-02 1.000000000000000021e-02 1.000000000000000021e-02 1.000000000000000021e-02 1.000000000000000021e-02 1.000000000000000021e-02 1.000000000000000021e-02 1.000000000000000021e-02 1.000000000000000021e-02 1.000000000000000021e-02 1.000000000000000021e-02 1.000000000000000021e-02 1.000000000000000021e-02 1.000000000000000021e-02 1.000000000000000021e-02 1.000000000000000021e-02 1.000000000000000021e-02 1.000000000000000021e-02 1.000000000000000021e-02 1.000000000000000021e-02 1.000000000000000021e-02 1.000000000000000021e-02 1.000000000000000021e-02 1.000000000000000021e-02 1.000000000000000021e-02 1.000000000000000021e-02 1.000000000000000021e-02 1.000000000000000021e-02 1.000000000000000021e-02 1.000000000000000021e-02 1.000000000000000021e-02 1.000000000000000021e-02 1.000000000000000021e-02 1.000000000000000021e-02 1.000000000000000021e-02 1.000000000000000021e-02 1.000000000000000021e-02 1.000000000000000021e-02 1.000000000000000021e-02 1.000000000000000021e-02 1.000000000000000021e-02 1.000000000000000021e-02 1.000000000000000021e-02 1.000000000000000021e-02 1.000000000000000021e-02 1.000000000000000021e-02 1.000000000000000021e-02 1.000000000000000021e-02 1.000000000000000021e-02 1.000000000000000021e-02 1.000000000000000021e-02 1.000000000000000021e-02 1.000000000000000021e-02 1.000000000000000021e-02 1.000000000000000021e-02 1.000000000000000021e-02 1.000000000000000021e-02 1.000000000000000021e-02 1.000000000000000021e-02 1.000000000000000021e-02 1.000000000000000021e-02 1.000000000000000021e-02 1.000000000000000021e-02 1.000000000000000021e-02 1.000000000000000021e-02 1.000000000000000021e-02 1.000000000000000021e-02 1.000000000000000021e-02 1.000000000000000021e-02 1.000000000000000021e-02 1.000000000000000021e-02 1.000000000000000021e-02 1.000000000000000021e-02 1.000000000000000021e-02 1.000000000000000021e-02 1.000000000000000021e-02 1.000000000000000021e-02 1.000000000000000021e-02 1.000000000000000021e-02 1.000000000000000021e-02 1.000000000000000021e-02 1.000000000000000021e-02 1.000000000000000021e-02 1.000000000000000021e-02 1.000000000000000021e-02 1.000000000000000021e-02 1.000000000000000021e-02 1.000000000000000021e-02 1.000000000000000021e-02 1.000000000000000021e-02 1.000000000000000021e-02 1.000000000000000021e-02 1.000000000000000021e-02 1.000000000000000021e-02 1.000000000000000021e-02 1.000000000000000021e-02 1.000000000000000021e-02 1.000000000000000021e-02 1.000000000000000021e-02 1.000000000000000021e-02 1.000000000000000021e-02 1.000000000000000021e-02 1.000000000000000021e-02 1.000000000000000021e-02 1.000000000000000021e-02 1.000000000000000021e-02 1.000000000000000021e-02 1.000000000000000021e-02 1.000000000000000021e-02 1.000000000000000021e-02 1.000000000000000021e-02 1.000000000000000021e-02 1.000000000000000021e-02 1.000000000000000021e-02 1.000000000000000021e-02 1.000000000000000021e-02 1.000000000000000021e-02 1.000000000000000021e-02 1.000000000000000021e-02 1.000000000000000021e-02 1.000000000000000021e-02 1.000000000000000021e-02 1.000000000000000021e-02 1.000000000000000021e-02 1.000000000000000021e-02 1.000000000000000021e-02 1.000000000000000021e-02 1.000000000000000021e-02 1.000000000000000021e-02 1.000000000000000021e-02 1.000000000000000021e-02 1.000000000000000021e-02 1.000000000000000021e-02 1.000000000000000021e-02 1.000000000000000021e-02 1.000000000000000021e-02 1.000000000000000021e-02 1.000000000000000021e-02 1.000000000000000021e-02 1.000000000000000021e-02 1.000000000000000021e-02 1.000000000000000021e-02 1.000000000000000021e-02 1.000000000000000021e-02 1.000000000000000021e-02 1.000000000000000021e-02 1.000000000000000021e-02 1.000000000000000021e-02 1.000000000000000021e-02 1.000000000000000021e-02 1.000000000000000021e-02 1.000000000000000021e-02 1.000000000000000021e-02 1.000000000000000021e-02 1.000000000000000021e-02 1.000000000000000021e-02 1.000000000000000021e-02 1.000000000000000021e-02 1.000000000000000021e-02 1.000000000000000021e-02 1.000000000000000021e-02 1.000000000000000021e-02 1.000000000000000021e-02 1.000000000000000021e-02 1.000000000000000021e-02 1.000000000000000021e-02 1.000000000000000021e-02 1.000000000000000021e-02 1.000000000000000021e-02 1.000000000000000021e-02 1.000000000000000021e-02 1.000000000000000021e-02 1.000000000000000021e-02 1.000000000000000021e-02 1.000000000000000021e-02 1.000000000000000021e-02 1.000000000000000021e-02 1.000000000000000021e-02 1.000000000000000021e-02 1.000000000000000021e-02 1.000000000000000021e-02 1.000000000000000021e-02 1.000000000000000021e-02 1.000000000000000021e-02 1.000000000000000021e-02 1.000000000000000021e-02 1.000000000000000021e-02 1.000000000000000021e-02 1.000000000000000021e-02 1.000000000000000021e-02 1.000000000000000021e-02 1.000000000000000021e-02 1.000000000000000021e-02 1.000000000000000021e-02 1.000000000000000021e-02 1.000000000000000021e-02 1.000000000000000021e-02 1.000000000000000021e-02 1.000000000000000021e-02 1.000000000000000021e-02 1.000000000000000021e-02 1.000000000000000021e-02 1.000000000000000021e-02 1.000000000000000021e-02 1.000000000000000021e-02 1.000000000000000021e-02 1.000000000000000021e-02 1.000000000000000021e-02 1.000000000000000021e-02 1.000000000000000021e-02 1.000000000000000021e-02 1.000000000000000021e-02 1.000000000000000021e-02 1.000000000000000021e-02 1.000000000000000021e-02 1.000000000000000021e-02 1.000000000000000021e-02 1.000000000000000021e-02 1.000000000000000021e-02 1.000000000000000021e-02 1.000000000000000021e-02 1.000000000000000021e-02 1.000000000000000021e-02 1.000000000000000021e-02 1.000000000000000021e-02 1.000000000000000021e-02 1.000000000000000021e-02 1.000000000000000021e-02 1.000000000000000021e-02 1.000000000000000021e-02 1.000000000000000021e-02 1.000000000000000021e-02 1.000000000000000021e-02 1.000000000000000021e-02 1.000000000000000021e-02 1.000000000000000021e-02 1.000000000000000021e-02 1.000000000000000021e-02 1.000000000000000021e-02 1.000000000000000021e-02 1.000000000000000021e-02 1.000000000000000021e-02 1.000000000000000021e-02 1.000000000000000021e-02 1.000000000000000021e-02 1.000000000000000021e-02 1.000000000000000021e-02 1.000000000000000021e-02 1.000000000000000021e-02 1.000000000000000021e-02 1.000000000000000021e-02 1.000000000000000021e-02 1.000000000000000021e-02 1.000000000000000021e-02 1.000000000000000021e-02 1.000000000000000021e-02 1.000000000000000021e-02 1.000000000000000021e-02 1.000000000000000021e-02 1.000000000000000021e-02 1.000000000000000021e-02 1.000000000000000021e-02 1.000000000000000021e-02 1.000000000000000021e-02 1.000000000000000021e-02 1.000000000000000021e-02 1.000000000000000021e-02 1.000000000000000021e-02 1.000000000000000021e-02 1.000000000000000021e-02 1.000000000000000021e-02 1.000000000000000021e-02 1.000000000000000021e-02 1.000000000000000021e-02 1.000000000000000021e-02 1.000000000000000021e-02 1.000000000000000021e-02 1.000000000000000021e-02 1.000000000000000021e-02 1.000000000000000021e-02 1.000000000000000021e-02 1.000000000000000021e-02 1.000000000000000021e-02 1.000000000000000021e-02 1.000000000000000021e-02 1.000000000000000021e-02 1.000000000000000021e-02 1.000000000000000021e-02 1.000000000000000021e-02 1.000000000000000021e-02 1.000000000000000021e-02 1.000000000000000021e-02 1.000000000000000021e-02 1.000000000000000021e-02 1.000000000000000021e-02 1.000000000000000021e-02 1.000000000000000021e-02 1.000000000000000021e-02 1.000000000000000021e-02 1.000000000000000021e-02 1.000000000000000021e-02 1.000000000000000021e-02 1.000000000000000021e-02 1.000000000000000021e-02 1.000000000000000021e-02 1.000000000000000021e-02 1.000000000000000021e-02 1.000000000000000021e-02 1.000000000000000021e-02 1.000000000000000021e-02 1.000000000000000021e-02 1.000000000000000021e-02 1.000000000000000021e-02 1.000000000000000021e-02 1.000000000000000021e-02 1.000000000000000021e-02 1.000000000000000021e-02 1.000000000000000021e-02 1.000000000000000021e-02 1.000000000000000021e-02 1.000000000000000021e-02 1.000000000000000021e-02 1.000000000000000021e-02 1.000000000000000021e-02 1.000000000000000021e-02 1.000000000000000021e-02 1.000000000000000021e-02 1.000000000000000021e-02 1.000000000000000021e-02 1.000000000000000021e-02 1.000000000000000021e-02 1.000000000000000021e-02 1.000000000000000021e-02 1.000000000000000021e-02 1.000000000000000021e-02 1.000000000000000021e-02 1.000000000000000021e-02 1.000000000000000021e-02 1.000000000000000021e-02 1.000000000000000021e-02 1.000000000000000021e-02 1.000000000000000021e-02 1.000000000000000021e-02 1.000000000000000021e-02 1.000000000000000021e-02 1.000000000000000021e-02 1.000000000000000021e-02 1.000000000000000021e-02 1.000000000000000021e-02 1.000000000000000021e-02 1.000000000000000021e-02 1.000000000000000021e-02 1.000000000000000021e-02 1.000000000000000021e-02 1.000000000000000021e-02 1.000000000000000021e-02 1.000000000000000021e-02 1.000000000000000021e-02 1.000000000000000021e-02 1.000000000000000021e-02 1.000000000000000021e-02 1.000000000000000021e-02 1.000000000000000021e-02 1.000000000000000021e-02 1.000000000000000021e-02 1.000000000000000021e-02 1.000000000000000021e-02 1.000000000000000021e-02 1.000000000000000021e-02 1.000000000000000021e-02 1.000000000000000021e-02 1.000000000000000021e-02 1.000000000000000021e-02 1.000000000000000021e-02 1.000000000000000021e-02 1.000000000000000021e-02 1.000000000000000021e-02 1.000000000000000021e-02 1.000000000000000021e-02 1.000000000000000021e-02 1.000000000000000021e-02 1.000000000000000021e-02 1.000000000000000021e-02 1.000000000000000021e-02 1.000000000000000021e-02 1.000000000000000021e-02 1.000000000000000021e-02 1.000000000000000021e-02 1.000000000000000021e-02 1.000000000000000021e-02 1.000000000000000021e-02 1.000000000000000021e-02 1.000000000000000021e-02 1.000000000000000021e-02 1.000000000000000021e-02 1.000000000000000021e-02 1.000000000000000021e-02 1.000000000000000021e-02 1.000000000000000021e-02 1.000000000000000021e-02 1.000000000000000021e-02 1.000000000000000021e-02 1.000000000000000021e-02 1.000000000000000021e-02 1.000000000000000021e-02 1.000000000000000021e-02 1.000000000000000021e-02 1.000000000000000021e-02 1.000000000000000021e-02 1.000000000000000021e-02 1.000000000000000021e-02 1.000000000000000021e-02 1.000000000000000021e-02 1.000000000000000021e-02 1.000000000000000021e-02 1.000000000000000021e-02 1.000000000000000021e-02 1.000000000000000021e-02 1.000000000000000021e-02 1.000000000000000021e-02 1.000000000000000021e-02 1.000000000000000021e-02 1.000000000000000021e-02 1.000000000000000021e-02 1.000000000000000021e-02 1.000000000000000021e-02 1.000000000000000021e-02 1.000000000000000021e-02 1.000000000000000021e-02 1.000000000000000021e-02 1.000000000000000021e-02 1.000000000000000021e-02 1.000000000000000021e-02 1.000000000000000021e-02 1.000000000000000021e-02 1.000000000000000021e-02 1.000000000000000021e-02 1.000000000000000021e-02 1.000000000000000021e-02 1.000000000000000021e-02 1.000000000000000021e-02 1.000000000000000021e-02 1.000000000000000021e-02 1.000000000000000021e-02 1.000000000000000021e-02 1.000000000000000021e-02 1.000000000000000021e-02 1.000000000000000021e-02 1.000000000000000021e-02 1.000000000000000021e-02 1.000000000000000021e-02 1.000000000000000021e-02 1.000000000000000021e-02 1.000000000000000021e-02 1.000000000000000021e-02 1.000000000000000021e-02 1.000000000000000021e-02 1.000000000000000021e-02 1.000000000000000021e-02 1.000000000000000021e-02 1.000000000000000021e-02 1.000000000000000021e-02 1.000000000000000021e-02 1.000000000000000021e-02 1.000000000000000021e-02 1.000000000000000021e-02 1.000000000000000021e-02 1.000000000000000021e-02 1.000000000000000021e-02 1.000000000000000021e-02 1.000000000000000021e-02 1.000000000000000021e-02 1.000000000000000021e-02 1.000000000000000021e-02 1.000000000000000021e-02 1.000000000000000021e-02 1.000000000000000021e-02 1.000000000000000021e-02 1.000000000000000021e-02 1.000000000000000021e-02 1.000000000000000021e-02 1.000000000000000021e-02 1.000000000000000021e-02 1.000000000000000021e-02 1.000000000000000021e-02 1.000000000000000021e-02 1.000000000000000021e-02 1.000000000000000021e-02 1.000000000000000021e-02 1.000000000000000021e-02 1.000000000000000021e-02 1.000000000000000021e-02 1.000000000000000021e-02 1.000000000000000021e-02 1.000000000000000021e-02 1.000000000000000021e-02 1.000000000000000021e-02 1.000000000000000021e-02 1.000000000000000021e-02 1.000000000000000021e-02 1.000000000000000021e-02 1.000000000000000021e-02 1.000000000000000021e-02 1.000000000000000021e-02 1.000000000000000021e-02 1.000000000000000021e-02 1.000000000000000021e-02 1.000000000000000021e-02 1.000000000000000021e-02 1.000000000000000021e-02 1.000000000000000021e-02 1.000000000000000021e-02 1.000000000000000021e-02 1.000000000000000021e-02 1.000000000000000021e-02 1.000000000000000021e-02 1.000000000000000021e-02 1.000000000000000021e-02 1.000000000000000021e-02 1.000000000000000021e-02 1.000000000000000021e-02 1.000000000000000021e-02 1.000000000000000021e-02 1.000000000000000021e-02 1.000000000000000021e-02 1.000000000000000021e-02 1.000000000000000021e-02 1.000000000000000021e-02 1.000000000000000021e-02 1.000000000000000021e-02 1.000000000000000021e-02 1.000000000000000021e-02 1.000000000000000021e-02 1.000000000000000021e-02 1.000000000000000021e-02 1.000000000000000021e-02 1.000000000000000021e-02 1.000000000000000021e-02 1.000000000000000021e-02 1.000000000000000021e-02 1.000000000000000021e-02 1.000000000000000021e-02 1.000000000000000021e-02 1.000000000000000021e-02 1.000000000000000021e-02 1.000000000000000021e-02 1.000000000000000021e-02 1.000000000000000021e-02 1.000000000000000021e-02 1.000000000000000021e-02 1.000000000000000021e-02 1.000000000000000021e-02 1.000000000000000021e-02 1.000000000000000021e-02 1.000000000000000021e-02 1.000000000000000021e-02 1.000000000000000021e-02 1.000000000000000021e-02 1.000000000000000021e-02 1.000000000000000021e-02 1.000000000000000021e-02 1.000000000000000021e-02 1.000000000000000021e-02 1.000000000000000021e-02 1.000000000000000021e-02 1.000000000000000021e-02 1.000000000000000021e-02 1.000000000000000021e-02 1.000000000000000021e-02 1.000000000000000021e-02 1.000000000000000021e-02 1.000000000000000021e-02 1.000000000000000021e-02 1.000000000000000021e-02 1.000000000000000021e-02 1.000000000000000021e-02 1.000000000000000021e-02 1.000000000000000021e-02 1.000000000000000021e-02 1.000000000000000021e-02 1.000000000000000021e-02 1.000000000000000021e-02 1.000000000000000021e-02 1.000000000000000021e-02 1.000000000000000021e-02 1.000000000000000021e-02 1.000000000000000021e-02 1.000000000000000021e-02 1.000000000000000021e-02 1.000000000000000021e-02 1.000000000000000021e-02 1.000000000000000021e-02 1.000000000000000021e-02 1.000000000000000021e-02 1.000000000000000021e-02 1.000000000000000021e-02 1.000000000000000021e-02 1.000000000000000021e-02 1.000000000000000021e-02 1.000000000000000021e-02 1.000000000000000021e-02 1.000000000000000021e-02 1.000000000000000021e-02 1.000000000000000021e-02 1.000000000000000021e-02 1.000000000000000021e-02 1.000000000000000021e-02 1.000000000000000021e-02 1.000000000000000021e-02 1.000000000000000021e-02 1.000000000000000021e-02 1.000000000000000021e-02 1.000000000000000021e-02 1.000000000000000021e-02 1.000000000000000021e-02 1.000000000000000021e-02 1.000000000000000021e-02 1.000000000000000021e-02 1.000000000000000021e-02 1.000000000000000021e-02 1.000000000000000021e-02 1.000000000000000021e-02 1.000000000000000021e-02 1.000000000000000021e-02 1.000000000000000021e-02 1.000000000000000021e-02 1.000000000000000021e-02 1.000000000000000021e-02 1.000000000000000021e-02 1.000000000000000021e-02 1.000000000000000021e-02 1.000000000000000021e-02 1.000000000000000021e-02 1.000000000000000021e-02 1.000000000000000021e-02 1.000000000000000021e-02 1.000000000000000021e-02 1.000000000000000021e-02 1.000000000000000021e-02 1.000000000000000021e-02 1.000000000000000021e-02 1.000000000000000021e-02 1.000000000000000021e-02 1.000000000000000021e-02 1.000000000000000021e-02 1.000000000000000021e-02 1.000000000000000021e-02 1.000000000000000021e-02 1.000000000000000021e-02 1.000000000000000021e-02 1.000000000000000021e-02 1.000000000000000021e-02 1.000000000000000021e-02 1.000000000000000021e-02 1.000000000000000021e-02 1.000000000000000021e-02 1.000000000000000021e-02 1.000000000000000021e-02 1.000000000000000021e-02 1.000000000000000021e-02 1.000000000000000021e-02 1.000000000000000021e-02 1.000000000000000021e-02 1.000000000000000021e-02 1.000000000000000021e-02 1.000000000000000021e-02 1.000000000000000021e-02 1.000000000000000021e-02 1.000000000000000021e-02 1.000000000000000021e-02 1.000000000000000021e-02 1.000000000000000021e-02 1.000000000000000021e-02 1.000000000000000021e-02 1.000000000000000021e-02 1.000000000000000021e-02 1.000000000000000021e-02 1.000000000000000021e-02 1.000000000000000021e-02 1.000000000000000021e-02 1.000000000000000021e-02 1.000000000000000021e-02 1.000000000000000021e-02 1.000000000000000021e-02 1.000000000000000021e-02 1.000000000000000021e-02 1.000000000000000021e-02 1.000000000000000021e-02 1.000000000000000021e-02 1.000000000000000021e-02 1.000000000000000021e-02 1.000000000000000021e-02 1.000000000000000021e-02 1.000000000000000021e-02 1.000000000000000021e-02 1.000000000000000021e-02 1.000000000000000021e-02 1.000000000000000021e-02 1.000000000000000021e-02 1.000000000000000021e-02 1.000000000000000021e-02 1.000000000000000021e-02 1.000000000000000021e-02 1.000000000000000021e-02 1.000000000000000021e-02 1.000000000000000021e-02 1.000000000000000021e-02 1.000000000000000021e-02 1.000000000000000021e-02 1.000000000000000021e-02 1.000000000000000021e-02 1.000000000000000021e-02 1.000000000000000021e-02 1.000000000000000021e-02 1.000000000000000021e-02 1.000000000000000021e-02 1.000000000000000021e-02 1.000000000000000021e-02 1.000000000000000021e-02 1.000000000000000021e-02 1.000000000000000021e-02 1.000000000000000021e-02 1.000000000000000021e-02 1.000000000000000021e-02 1.000000000000000021e-02 1.000000000000000021e-02 1.000000000000000021e-02 1.000000000000000021e-02 1.000000000000000021e-02 1.000000000000000021e-02 1.000000000000000021e-02 1.000000000000000021e-02 1.000000000000000021e-02 1.000000000000000021e-02 1.000000000000000021e-02 1.000000000000000021e-02 1.000000000000000021e-02 1.000000000000000021e-02 1.000000000000000021e-02 1.000000000000000021e-02 1.000000000000000021e-02 1.000000000000000021e-02 1.000000000000000021e-02 1.000000000000000021e-02 1.000000000000000021e-02 1.000000000000000021e-02 1.000000000000000021e-02 1.000000000000000021e-02 1.000000000000000021e-02 1.000000000000000021e-02 1.000000000000000021e-02 1.000000000000000021e-02 1.000000000000000021e-02 1.000000000000000021e-02 1.000000000000000021e-02 1.000000000000000021e-02 1.000000000000000021e-02 1.000000000000000021e-02 1.000000000000000021e-02 1.000000000000000021e-02 1.000000000000000021e-02 1.000000000000000021e-02 1.000000000000000021e-02 1.000000000000000021e-02 1.000000000000000021e-02 1.000000000000000021e-02 1.000000000000000021e-02 1.000000000000000021e-02 1.000000000000000021e-02 1.000000000000000021e-02 1.000000000000000021e-02 1.000000000000000021e-02 1.000000000000000021e-02 1.000000000000000021e-02 1.000000000000000021e-02 1.000000000000000021e-02 1.000000000000000021e-02 1.000000000000000021e-02 1.000000000000000021e-02 1.000000000000000021e-02 1.000000000000000021e-02 1.000000000000000021e-02 1.000000000000000021e-02 1.000000000000000021e-02 1.000000000000000021e-02 1.000000000000000021e-02 1.000000000000000021e-02 1.000000000000000021e-02 1.000000000000000021e-02 1.000000000000000021e-02 1.000000000000000021e-02 1.000000000000000021e-02 1.000000000000000021e-02 1.000000000000000021e-02 1.000000000000000021e-02 1.000000000000000021e-02 1.000000000000000021e-02 1.000000000000000021e-02 1.000000000000000021e-02 1.000000000000000021e-02 1.000000000000000021e-02 1.000000000000000021e-02 1.000000000000000021e-02 1.000000000000000021e-02 1.000000000000000021e-02 1.000000000000000021e-02 1.000000000000000021e-02 1.000000000000000021e-02 1.000000000000000021e-02 1.000000000000000021e-02 1.000000000000000021e-02 1.000000000000000021e-02 1.000000000000000021e-02 1.000000000000000021e-02 1.000000000000000021e-02 1.000000000000000021e-02 1.000000000000000021e-02 1.000000000000000021e-02 1.000000000000000021e-02 1.000000000000000021e-02 1.000000000000000021e-02 1.000000000000000021e-02 1.000000000000000021e-02 1.000000000000000021e-02 1.000000000000000021e-02 1.000000000000000021e-02 1.000000000000000021e-02 1.000000000000000021e-02 1.000000000000000021e-02 1.000000000000000021e-02 1.000000000000000021e-02 1.000000000000000021e-02 1.000000000000000021e-02 1.000000000000000021e-02 1.000000000000000021e-02 1.000000000000000021e-02 1.000000000000000021e-02 1.000000000000000021e-02 1.000000000000000021e-02 1.000000000000000021e-02 1.000000000000000021e-02 1.000000000000000021e-02 1.000000000000000021e-02 1.000000000000000021e-02 1.000000000000000021e-02 1.000000000000000021e-02 1.000000000000000021e-02 1.000000000000000021e-02 1.000000000000000021e-02 1.000000000000000021e-02 1.000000000000000021e-02 1.000000000000000021e-02 1.000000000000000021e-02 1.000000000000000021e-02 1.000000000000000021e-02 1.000000000000000021e-02 1.000000000000000021e-02 1.000000000000000021e-02 1.000000000000000021e-02 1.000000000000000021e-02 1.000000000000000021e-02 1.000000000000000021e-02 1.000000000000000021e-02 1.000000000000000021e-02 1.000000000000000021e-02 1.000000000000000021e-02 1.000000000000000021e-02 1.000000000000000021e-02 1.000000000000000021e-02 1.000000000000000021e-02 1.000000000000000021e-02 1.000000000000000021e-02 1.000000000000000021e-02 1.000000000000000021e-02 1.000000000000000021e-02 1.000000000000000021e-02 1.000000000000000021e-02 1.000000000000000021e-02 1.000000000000000021e-02 1.000000000000000021e-02 1.000000000000000021e-02 1.000000000000000021e-02 1.000000000000000021e-02 1.000000000000000021e-02 1.000000000000000021e-02 1.000000000000000021e-02 1.000000000000000021e-02 1.000000000000000021e-02 1.000000000000000021e-02 1.000000000000000021e-02 1.000000000000000021e-02 1.000000000000000021e-02 1.000000000000000021e-02 1.000000000000000021e-02 1.000000000000000021e-02 1.000000000000000021e-02 1.000000000000000021e-02 1.000000000000000021e-02 1.000000000000000021e-02 1.000000000000000021e-02 1.000000000000000021e-02 1.000000000000000021e-02 1.000000000000000021e-02 1.000000000000000021e-02 1.000000000000000021e-02 1.000000000000000021e-02 1.000000000000000021e-02 1.000000000000000021e-02 1.000000000000000021e-02 1.000000000000000021e-02 1.000000000000000021e-02 1.000000000000000021e-02 1.000000000000000021e-02 1.000000000000000021e-02 1.000000000000000021e-02 1.000000000000000021e-02 1.000000000000000021e-02 1.000000000000000021e-02 1.000000000000000021e-02 1.000000000000000021e-02 1.000000000000000021e-02 1.000000000000000021e-02 1.000000000000000021e-02 1.000000000000000021e-02 1.000000000000000021e-02 1.000000000000000021e-02 1.000000000000000021e-02 1.000000000000000021e-02 1.000000000000000021e-02 1.000000000000000021e-02 1.000000000000000021e-02 1.000000000000000021e-02 1.000000000000000021e-02 1.000000000000000021e-02 1.000000000000000021e-02 1.000000000000000021e-02 1.000000000000000021e-02 1.000000000000000021e-02 1.000000000000000021e-02 1.000000000000000021e-02 1.000000000000000021e-02 1.000000000000000021e-02 1.000000000000000021e-02 1.000000000000000021e-02 1.000000000000000021e-02 1.000000000000000021e-02 1.000000000000000021e-02 1.000000000000000021e-02 1.000000000000000021e-02 1.000000000000000021e-02 1.000000000000000021e-02 1.000000000000000021e-02 1.000000000000000021e-02 1.000000000000000021e-02 1.000000000000000021e-02 1.000000000000000021e-02 1.000000000000000021e-02 1.000000000000000021e-02 1.000000000000000021e-02 1.000000000000000021e-02 1.000000000000000021e-02 1.000000000000000021e-02
-1.060080275649593915e+02 1.613100159818849022e+02 3.733270374884286724e+01 -8.380819409869173953e+00 -8.352087919893294554e+01 -1.272404769522713508e+01 -1.976973322854353228e+02 6.837358168785209189e-01 -8.049398666188139373e+01 -1.351051472869175463e+01 -1.887922884801755430e+01 6.242893810484213546e+00 -1.695551253091121868e+00 1.595026433487284692e+02 8.045583797194241527e+01 -3.692547861783291552e+01 -5.026315206007945591e+01 7.530769751020677916e+01 3.121749530489385194e+01 -2.414011637195706683e+01 -7.493388056968058208e+01 -7.013152575257419130e+01 -1.310293212708412369e+01 2.750620657799231594e+01 -1.852893925557515900e+02 -9.382986100532906448e+01 -2.481154588488559298e+01 1.916562012718787855e+02 6.727227639398465442e+01 7.299618411581296584e+01 7.634929326187317145e+01 1.119292155647680254e+00 -7.546347755020192949e+01 1.973167732336210065e+02 -2.328687931411356260e+02 5.601441002784753920e+01 -1.141467771634149244e+02 -3.299021020787860436e+01 3.842583644644023355e+00 1.204794358172141386e+02 -1.168239148193440400e+02 -1.293525014498963976e+01 7.350825899645603556e+01 1.650801621535464392e+02 6.780106356967921499e+01 -6.498122231802351223e+01 3.911527077837645550e+01 -2.701194417909443501e+01 -6.281172219092042752e+01 1.488716502035750295e+02 -6.698183695034200014e+01 -4.951278787104978818e+01 -1.325654467906503839e+02 5.571951467158609894e+00 -4.801971786345423254e+01 3.678537104705289096e+01 -8.437297351617523589e+01 -4.757952655835584466e+01 -9.642604754962117397e+01 -1.478289376048692816e+02 1.844138515790737642e+01 4.320196766203457628e+01 -1.170915203327289902e+02 1.221337293614065977e+01 -7.534736756810551128e+01 4.671659827887180683e+01 1.585299275771488112e+02 -1.372097224390312533e+02 -4.115670483635023658e+01 6.882267519806487321e+00 2.802161857146221013e+00 4.031969105343065962e+01 7.986214482989093710e+01 7.172915975658746834e-01 -8.423252141814174365e+00 -6.656253232160709388e+01 7.439841151855078749e+01 -3.108710286395714917e+01 2.502837928365985576e+01 9.893470899146839770e+01 8.385302794944531968e+01 -4.068575285862296198e+01 5.489795239113952618e+01 1.401957277288385626e+02 1.105284372975622915e+02 -3.782375181379324935e+00 1.656307695675366176e+02 -1.060720486639412883e+02 3.944298452312114289e+00 -3.988426426677264658e+01 1.966664348166125080e+02 -2.018372375891935633e+01 2.769738111134478764e+00 -7.302123652908230156e+01 -6.809260659901059221e+00 -6.066930475525993671e+01 6.447563794675936322e+01 -8.993431583244377236e+01 6.530900490261832658e+01 -4.544470671094646264e+01 -4.729672538776313928e+01 -8.718199898730875930e+01 5.044048882278617185e+01 -5.197862958673101019e+01 -1.420061436229376000e+02 -7.554440575593459073e+01 -9.946942306133796308e+01 -1.495177822548888571e+02 1.292511255493183739e+02 -2.607181791501561108e+01 3.048356027833341386e+01 8.527051185531490773e+01 -9.891708093703874738e+01 5.414050474212099573e+01 -4.118868610601136737e+01 -6.605037498848564326e+01 -8.574884757674327318e+01 1.932024530144182677e+02 -5.395212891217276763e+01 -4.711236761245839233e+01 -4.482668446366617587e+01 7.644808130337290208e+01 -3.940178720868335205e+01 1.311781292139498873e+02 -4.751625524016125013e+01 5.246015447021132871e+01 4.321259399871640206e+00 -7.707274973940289442e+01 6.538567243169499932e+01 2.638215124095207216e+02 -8.758708266013570665e+01 4.513163910092099229e+01 -7.257130930652289180e+01 4.303809807555229838e+01 1.248041074673709119e+02 -4.894926041827758922e+01 1.392305734275225149e+01 -2.564836716507970849e+01 -9.700692063474831173e+01 -1.654591826818985112e+01 4.118720005721232091e+00 -7.421854054090069930e+00 -1.420403697861273606e+01 1.124294264138958255e+02 1.240974734483514226e+02 1.774609824587344065e+02 -2.896743190443210096e+02 3.634740713016412172e+01 -1.502835088688811993e+01 -5.932427331332831955e+01 1.716693849529612237e+02 7.244037147115457742e+01 -2.516105186643237790e+00 -1.103484869499476986e+02 -1.033845540003459007e+01 9.529750259981904037e+01 -1.279000084724278992e+02 -1.605210829291745256e+02 1.022512196540436413e+01 4.037717744741631520e+01 -5.813474355407249305e+01 4.003829987924076050e+01 -1.019676601149172086e+02 -1.440841135025529809e+02 2.006779782793628186e+01 4.626668902606729716e+01 4.608752045448508916e+00 -7.945045559174288030e+01 -8.914853256048004937e+01 -8.026688262426962694e+01 -8.342746912749164778e+01 1.208903375920186107e+01 5.413719581706869377e+01 1.110657495410730036e+02 7.569511638969488843e+01 8.535819860192788155e+01 1.025206834784853385e+02 -7.130681252711745799e+01 -7.868068071590477075e+01 6.727268647296547499e+01 6.545505580019141689e+01 5.651531079618011688e+01 -8.946502472059290056e+00 -8.692874149602459966e+01 5.155773261814744757e+01 -1.710746838209582279e+02 6.418188487597144842e+01 -4.250085288907212089e+01 -9.211599892920402510e+01 7.092155774574847271e+01 -1.642519112768798450e+01 -7.368632356923728821e+01 -5.490013402429317324e+01 -8.787726181632882216e+00 2.321914185617980593e+02 7.366198910577824677e+01 5.249382126156982764e+01 -9.939614205499687216e+01 1.419749021569472518e+02 1.040847005566171601e+00 -8.653455036481278739e+01 1.493066171759148233e+02 -1.476850899712942464e+02 1.512405249158092957e+01 -3.114873277741912361e+01 -2.130105686028750256e+02 -1.291837162913406871e+02 -8.450909178533980537e+01 -2.852986400525936617e+01 -1.154912695459680094e+02 5.583880189236664648e+01 6.299555881223950848e+01 -2.676738498163635427e+01 -9.672456348988893637e+01 1.095902371653017298e+02 1.144838299890100473e+02 4.477855497977309085e+01 1.699090270145746118e+01 2.534349523065372409e+02 4.230648443503151412e+01 -1.159201603848174500e+02 -4.373447834173783377e+01 -1.636940098195913720e+02 3.091239727227898015e+01 1.486431836614832491e+02 -1.437789830368364790e+02 1.277854434975989193e+02 -8.824575387250511938e+01 -1.838945273945350323e+01 -8.145217534410312821e-01 5.132262966409446392e+01 -1.121434651955664386e+01 -2.216953754503046170e+01 -1.821311647353892482e+01 -1.230881206563647652e+02 4.501805605868649707e+01 -2.943440781146034624e+01 -1.251293399265517792e+01 -1.041441033847168818e+01 2.193948440898294621e+02 1.692256442713431852e+02 2.258766785087612448e+02 1.279777113240346438e+02 -8.406753055608545822e+01 7.295757665152224547e+01 2.055413007288734661e+01 4.611209534963439438e+01 -3.848859431822479849e+01 2.480287500715334090e+02 -2.265950093433805179e+01 -1.328051457626482375e+02 -1.450215013844831091e+01 -4.453545259963804170e+01 -7.514279839741166711e+01 4.191272252511575402e+01 -1.137545402550634144e+01 1.767017999329876545e+02 8.965445012875444775e+01 3.970035142761975067e+01 9.515832421405275454e+01 9.198711326019230228e+01 -2.232843231702839404e+01 1.356514293407672653e+02 2.580099354463089867e+01 8.708455678070467343e+01 4.635505119058910850e+01 6.721725874392251221e+00 -1.124619811640659321e+02 -1.126128697232511797e+02 -8.751314338987332064e+01 -1.511851202153627582e+01 8.426083275091697544e+01 -2.974278430990992561e+01 9.609414488653511910e+01 4.260101935189592126e+01 -7.067460275653088786e+01 -2.908679161152131698e+01 -5.692867181341478044e+01 1.707828056125043048e+01 -4.496819418027113358e+01 -1.088882156844469193e+02 1.180716556046739498e+02 1.179393542531533399e+02 -7.677160954288808625e+01 5.217456961168967844e+00 -4.406441224092176157e+01 -3.161806753704666306e+01 -1.102163809135797301e+01 -3.037723286392972000e+01 4.327064623431175505e+01 -1.366457255200865006e+02 -5.138205402317350234e+01 -1.475344608672395168e+02 1.691630460136070724e+02 -1.957845274289454096e+01 5.719687172244676532e+01 1.155168814928206622e+01 1.402171949623512432e+02 4.329019311565961203e+01 3.464139808522446629e+01 1.498991833652903836e+02 -4.781972882591735896e+01 -9.479360923411452688e+01 2.644719039314452402e+01 -1.533545588437140452e+02 -5.183594144517076785e+01 9.932077194882494098e+01 -1.236916657425116028e+02 -3.526900107305413457e+01 8.854920130625110630e+01 -9.158058419195542399e+01 -8.674217785249236101e+01 -8.013055090901765709e+01 -6.182832855472513245e+01 2.415867236043545745e+02 1.921931539899685504e+02 9.982070121185532230e+01 -9.907629550383978767e+01 7.253277063926937274e+01 -6.422016440201767296e+01 -3.053939139514555023e+01 1.611398809968545009e+01 -3.131541355851214448e+01 -9.080796556552550669e+01 -2.761512551524508474e+00 1.426669783002184388e+01 1.054100092063300877e+02 -1.244506274615503116e+02 4.068713955248837522e+01 6.175296420241644313e+01 3.338651146439323014e+01 -8.771942235084654271e+01 -1.437801554202548573e+02 1.868780882000968120e+02 -1.721703459925344148e+01 2.436539579303522629e+01 1.515037727822030718e+02 2.578198814984489218e+01 2.680742859119314048e+01 -4.308538497613453444e+01 8.568165060617910456e+01 -1.317816005542894686e+02 -2.975917179841742666e+01 -5.934191883897193875e+00 -5.158138303241253908e+01 6.147709763214206369e+00 2.050660847868003600e+01 -3.457560267447627211e+01 1.320170331654022711e+01 2.064504398622471228e+02 -2.647573390553851524e+01 -2.707002930428260612e+01 -9.817667563394600450e+01 -1.569865223127220100e+00 -7.795198903424896741e+01 6.138896918247841228e+00 1.082326961159982091e+02 -5.021632128057675715e+01 5.827715117056321503e+00 -5.241250092844839514e+01 3.188151627572485491e+00 8.415303853373218601e+01 -1.118133475651159472e+02 -9.348564999795939912e+01 -9.902548317433691238e+01 6.883552144355046210e+01 8.353228311865844091e+01 -8.896997855024626745e+01 6.047720883598400832e+01 2.494787393919405716e+01 3.733383700571882713e+01 -1.711306580215839901e+01 8.816925719374130210e+01 7.688095546888678200e+01 -7.452241260541995871e+01 1.135017461531413296e+01 7.801435389266259790e+01 7.026527942741495281e+01 -1.922460313929555298e+01 2.407062771018301106e+01 -1.279291021525875038e+02 4.684343127504072157e+01 -3.163329639874274690e+01 -3.155314743547681644e+01 1.670739964272658256e+02 4.573186206143913779e+01 1.159445520844857214e+02 1.842482954386801737e+02 -1.328032203997371710e+02 1.438508588026708424e+02 -6.124560242319040526e+01 -1.303832735236368876e+02 7.940296995763691257e+01 -1.292969253234216183e+02 -2.770681921062990583e+01 5.439280916955244294e+01 7.741401472347377855e+00 -1.622740223034094527e+02 8.131789031090019648e+01 2.435991408517785928e+01 6.663950952403817496e+01 3.504213967125793516e+01 9.126003038199751671e+00 -6.473976979894956685e+01 1.115965341466501570e+02 5.257154762606904796e+01 -5.991439016406510376e+01 -9.766573260394926592e+01 3.751139768622782356e+01 2.485141899081556005e+01 7.950257368134994351e+01 1.773340475650029191e+02 -2.373269814318424764e+01 -1.062725412008066144e+02 -8.164956089336638456e+01 -4.949710377621313739e+01 -4.272651123166026110e+01 -1.415125599499478710e+02 -2.174285891476746357e+01 1.249576220464346790e+02 7.187644440491349940e+01 -1.180269002101972120e+02 -1.446613317369262859e+02 -6.565091103711216647e+01 -7.357323405519917969e+01 1.416506580770736434e+02 -1.644283782104321006e+02 8.352010930658080667e+01 -4.442648858450215066e+00 -4.152092945683342862e+01 1.280488767888388679e+01 8.788500248753278754e+01 4.776743836792588382e+01 1.332931920884135195e+02 -1.534915234563644901e+02 -7.809060455724768701e+01 2.449503180920346068e+01 4.043145187497634652e+01 1.987605975634520519e+02 1.403008384481602491e+02 6.323373822184433379e+01 6.953680332485751592e+01 -3.277103725011553337e+01 1.463720075559879774e+02 -1.730155315297257346e+02 -6.118524586810646326e+01 -5.176446419240744490e+01 -4.994568915231278794e+01 -9.955663573492041962e+01 -1.446998528264118278e+01 -6.617546743268800924e+01 6.860942274262112051e+01 -8.805251366130720569e+00 -5.595769376990296706e+01 -5.996050477873450291e+01 1.737478236525748230e+02 5.695987778960677872e+01 -1.326552476633845679e+01 2.014314760000295905e+02 -1.044986284193705757e+02 -3.405621148043537971e+01 6.457404253932318738e+01 -1.367241274476369561e-01 1.446159798713932787e+01 -1.206797084054802980e+02 1.698842574948805009e+02 -4.716783560982455015e+01 -2.590809221079885205e+01 -1.057397046576177360e+02 1.213025027825683537e+02 9.234754754595414283e+01 -7.468509116899495837e+01 -3.629273973081779303e+01 3.756076638214588570e+01 -1.458494131539072782e+02 -2.111582878885369663e-01 -7.197106675680504395e+01 7.391163371255748515e+00 -1.041110037865239804e+02 -1.527021279134579288e+02 -6.808918438425438069e+01 1.427261898897740195e+02 5.443321510440213729e+01 -8.633257771323691543e+01 8.583298331788407154e+01 3.291935670427255900e+01 8.508490429277010492e+01 -4.054922776990338207e+01 -8.091144122737102862e+01 1.646343448357370107e+02 4.005179379490144242e+01 2.784968005737912833e+01 -7.021765540444025078e+01 -4.071475423391797932e+01 9.133631606736370756e+00 -6.909160906468422958e+00 -1.662762398176668057e+02 -3.331146257886447870e+01 6.193964360779458644e+01 1.072932163013600046e+02 1.497817912607829953e+02 -1.278570687034047637e+01 8.617215447255672700e+01 1.516648815598430531e+02 6.094315848221550169e+01 1.418980284603011626e+02 1.544164050868156579e+01 1.261786429554591820e+02 -8.064880798763678627e+01 5.121642643449232679e+01 2.812481063256942448e+01 7.282614869399644419e+01 -1.019679247376550677e+02 1.901293533318531388e+02 -1.234588600083914400e+02 8.475841513414874839e+01 -1.029710185576553698e+02 4.429457198857804201e+01 1.324651299526875903e+01 8.693799462229141284e+01 -7.058163459725109590e+01 -7.236646500427306705e+01 -1.065566413305979054e+01 8.535494845351819038e+01 -2.834937189220232412e+01 -1.560131379508539951e+01 -1.879703865605614155e+01 4.532476476600852067e+00 9.390819701888962356e+01 -5.982315094525802834e+01 -2.581461179778472115e+00 -1.852679237150816789e+02 1.165625910850928477e+02 -1.192086085606977690e+02 -7.049967093596215761e+01 -2.244142444953798332e+01 -1.030441929635580181e+02 -5.071790756793850363e+01 -5.592729470062250385e+01 -1.880708559620656573e+01 1.299898778493552811e+02 5.159042331234655876e+01 9.581102513819253375e+01 -1.298715713643161678e+02 -1.322210919145914261e+02 -2.736169628897386019e+02 9.753296585565233556e+01 9.943259550643811906e+01 4.040637274967012615e+01 -4.055355084337114846e+01 -3.544386121155155678e+01 -1.752865492785453227e+02 1.393769070496953759e+02 -1.024847318868651200e+02 1.020681508617228275e+02 -1.518863218248234830e+02 -1.367102267816173189e+01 -5.284446168248430808e+01 -1.138152783127710279e+02 -4.400247493863852810e+01 -1.199515492880479250e+01 -8.845542272289537777e+01 -9.872211014060553680e+01 -1.180064979116535540e+01 6.792733555431205161e+01 -1.189148658137937531e+02 -1.492528082801692513e+01 -7.038322509750581446e+01 -1.254184230833889018e+02 6.261956241688219293e+00 9.073321022193378838e+01 1.580339099677714216e+02 -1.818405109928649210e+01 -4.395521042891478913e+01 -1.185736893323207113e+02 -1.562748314805558607e+02 9.914526905905721321e+01 -6.946002900709520134e+01 7.542471763339224822e+01 8.973282597060691756e+00 2.788656660449577274e+01 7.053276181297360381e+01 -8.099580053564902471e+01 7.900881189507880720e+01 1.101559469920539414e+02 1.505407118771517787e+02 -1.113174718085780199e+02 9.935717137195052828e+01 -4.568122170244571123e+01 -8.678479030830860097e+01 2.051278296444145042e+02 4.701388647488762729e+01 7.978182323166045364e+01 2.024173439796687646e+01 -6.052226853749449731e+01 -3.338932838330195807e+01 -2.011015985947008176e+02 1.009793428813314762e+02 7.787338290321294210e+01 -7.235093115415151033e+01 -6.986367931690021749e+01 1.387691642131357241e+02 9.659945429527792271e+01 4.886565778485558553e+01 7.269434742658131654e+01 -7.480192089491835006e+00 9.862673456812589734e+01 -9.902945835625561699e+01 1.780899378555091062e+02 -3.773893523074288936e+01 -1.166266568130899230e+02 -3.606274993109522597e+01 6.856873143480197541e+01 1.408140672332501993e+02 1.225150422607828204e+01 1.661423983353157325e+02 4.986900736156314906e+01 3.215974429874634666e+01 -1.063792016434253043e+02 4.278641745399507101e+01 -1.194411366821892244e+02 4.562044072945703022e+01 3.684465018288059213e+01 -1.179441290577035346e+02 -8.128317521479708319e+01 3.810987425042583965e+01 8.339043283870145373e+00 -2.217003006060030756e+01 4.004908946052831453e+01 -2.045899748740220403e+01 -6.029916378246699793e+01 -2.511514644690106479e+01 -2.141115191907263338e+01 -3.805422285990395892e+01 1.792708284251638062e+01 -7.698898710416507640e+01 1.136770950826997506e+02 -7.096686857344614907e+01 -3.985065269472322758e+00 6.276429597346904643e+01 3.692336587338063580e+00 1.526886707211895455e+01 1.527078552150093138e+01 -1.119200067078705132e+02 -4.206541863209073639e+00 6.216151415996871066e+01 -2.211732603599419065e+02 -8.114674931686903392e+01 -1.076842249854847609e+02 4.186316879062206908e+01 9.194305522367891115e+01 -8.770646574845312671e+01 -1.604343814186331088e+02 -1.769949230905840238e+02 1.906054318662431513e+01 -1.384610910976526270e+02 -6.050056364227382133e+00 1.409820602090634907e+02 -6.737128586530378271e+00 3.543224648387927544e+01 -9.431493939797177006e+01 7.615189917398505770e+01 -1.129809310495370624e+02 -1.471870115598492390e+01 -2.882878508569820042e+01 5.485857574354131572e+01 -8.395918418264825434e+00 1.005763886285014763e+02 -1.161907395177282183e+02 -4.765080189968577429e+01 8.247596379336467010e+01 6.290434265365134792e+01 -7.823914837516367982e+01 -5.173178640229267700e+01 -4.694238657907883550e+01 -2.749608565086716681e+02 1.838272052682571314e+02 7.221453944691958782e+01 -2.236066351581881761e+01 -2.816762785782175627e+01 3.941075587081780185e+01 -7.976268626079466628e+01 9.436135927672020784e+01 5.737590609080468340e+01 7.762610425099524036e+01 -7.971033462003400416e+01 -2.508273662114677194e+01 3.155212050637144117e+01 1.646751300928388773e+01 -4.061240344490990850e+01 1.496744135450765611e+02 -1.636234006526617790e+01 3.355555834500160728e+01 -2.177304105941631462e+02 -8.015430954452401124e+01 -6.924447412930581436e+01 2.180846620542372349e+01 1.033643612453271317e+02 -2.194591353207173654e+02 -1.770849407395870401e+02 2.097969526425991376e+02 -9.998919311487211914e+00 9.090305001427022091e+01 5.926392196611926266e+01 -5.237171796952733160e+01 -1.240010132641045573e+02 -9.007659643165378327e+01 -4.755712352446121116e+01 -3.539930204083479737e+01 -3.707196777654534259e+01 1.525334672123840818e+01 3.525090943807396826e+01 1.579748633841944354e+02 1.166925059127376016e+02 6.644932259718475009e+00 -4.184364727099172399e+00 -1.502408224150290721e+02 1.132621491776304197e+02 1.507758473904585514e+02 -9.795704870048444945e+01 6.977835754475387375e+01 1.575048821954540212e+00 5.202516235077874995e+01 1.186540788088147877e+02 6.715450081223463030e+01 -1.269099073369539639e+02 1.524318506153206165e+01 -2.782230980170538714e+01 1.055424295882784591e+01 -2.184137427705126200e+01 4.291462951983653085e+01 -2.468622214272788256e+02 1.715533170907409044e+02 6.857256417199531384e+00 1.509915444303151730e+02 -9.949063813362970521e+00 1.005643499377268597e+02 6.787314830501165375e+01 -3.975888936701625198e+01 2.840913127218832201e+01 -6.906445326180207189e+01 -8.440586206068753938e+01 -6.830593046025602177e+01 -3.040891507376838021e+01 4.283482197437411543e+01 1.044906491431821962e+02 2.699262506686587670e+01 5.902254600789736116e+01 -9.949275769311991269e+01 -1.301565718273230345e+02 -1.279796132394513108e+01 4.401464267531296315e+01 -4.310632852763651357e+01 8.983811275679094877e+01 5.275799685695425012e+01 -2.623972460234273285e+01 2.843064162939520401e+01 5.831933643972668335e+01 -6.846157590908107693e+01 -1.270100767285874781e+02 1.349282198106924966e+02 7.420090221198678115e+00 4.763590189873940517e+01 -1.419113359642875309e+02 -5.076911773662566674e+01 -4.014397377094948149e-01 -6.260709076694629971e+01 4.045919824156701594e+00 5.355530837543494727e+01 1.773705287662000671e+02 3.723448288985179744e+01 -1.042397715901443789e+01 6.878727627576529358e+01 -4.326777411618966340e+01 -1.037365130207173252e+02 -1.315469951260718346e+02 8.909461965723721733e+00 2.391396100864084318e+01 2.271926295923465844e+01 -5.419029860564134538e+01 1.151000468785797750e+02 -7.701101869062489413e+01 1.222929574472829728e+02 8.319741547349099164e+01 -6.199953718029396299e+01 -8.084787036285267448e+01 8.031418755610532401e+01 1.944935121504469677e+01 -5.011556619113768818e+01 -5.135292517620227670e+01 1.305126811750085096e+02 5.472869544233279981e+01 7.629832119424642656e+01 2.495902281897375374e+01 -4.012491123840642615e+01 1.025363699846909071e+02 -5.211409838619992740e+01 5.573706857487472632e-01 7.309059142173984469e+01 9.515287798274874831e+01 2.441792450250313777e+02 -1.674499714810430362e+02 1.537887334329186615e+02 -6.454394777746885836e+01 -1.456703564179895238e+01 -2.405188796512285165e+01 -1.982286815501841204e+01 -5.268738107196013232e+01 8.899091186419354926e+01 1.760691862995106192e+02 -1.136566183334499556e+02 2.961015525716186048e+01 -1.215077748723622051e+02 6.722974609665465096e+01 -4.258567393314208971e+01 -7.767033250213800954e+01 -5.169171876721581071e+01 3.951536581588995745e+01 1.856440735682049592e+01 -7.842144888511383272e+01 -1.353339769040759961e+02 1.992441773769599322e+01 1.513204122781759224e+02 1.372117824679810383e+01 1.752823328237538760e+02 7.159373792068977949e+00 1.293868922249844218e+02 -3.324189563281435511e+01 8.727727358978020789e+01 -6.869743377323321454e+01 -1.086033412761676971e+02 4.756420974572257165e+01 -5.580853492047463504e+01 -7.560638150572009408e+01 7.012670938207634208e+01 6.246902071922409760e+00 -9.079168634163073648e+01 -1.451001855696528082e+02 1.425778480479889652e+02 -8.596391259102092874e+01 -2.298034908458707282e+00 1.158377384483993637e+02 5.594899938666427630e+01 -9.477746814008700937e+01 1.029535587830964261e+01 2.722627741951919802e+02 5.144782092486281755e+01 -1.523004857868071724e+02 -4.610892871730509057e+01 -5.939339912492118145e+01 9.284515948903463212e+00 1.039610630582324120e+02 -1.000606568706814130e+02 2.088714447480336389e+01 1.261581844104880190e+02 1.815320984333588683e+01 -2.043630431187876297e+02 4.669420882538814510e+01 7.303400137141096593e+01 -1.316080629244472355e+01 3.171656951211178210e+01 1.816636363686515154e-01 2.185265650436737417e+01 2.683948741793197712e+01 1.121181391314272133e+02 9.491018265275295107e+01 1.515773440784011505e+01 1.442287362354335869e+02 -6.196529927886712130e+01 2.387483645806243260e+02 6.296662413789783130e+01 1.372197104287841682e+02 -2.125848366690614810e+01 8.721571569380174083e+01 -4.733883000120085427e+01 -1.417264882418842262e+02 2.531894722812974408e+01 9.193881710735276158e+01 -8.477201045123968015e+01 -1.014267798694496463e+02 -6.443490265530058991e+01 3.547052431052297550e+01 -1.105596426661603289e+02 7.232601235582069421e+01 2.714073912768624197e+01 -9.452863170053106501e+01 1.839049848363083584e+02 -1.138846982518262330e+01 -9.857469653964029987e+01 -1.300438353394478774e+01 -1.979208687576555192e+01 -1.357921243459726952e+02 -3.875031637860718092e+01 5.957988597964182986e+01 1.276558010790342195e+02 2.814028247019155771e+01 2.589053368416917067e+01 4.337676917640251162e+01 -3.457529555428094881e+01 -1.410492352473914082e+02 1.540985573090064698e+01 2.996464893732269275e+01 1.289485902061067861e+02 -9.559005355052979880e+00 -7.372651968839444692e+01 7.089711453456521895e+01 9.363810146827745706e-01 3.077135128428961508e+01 1.348251821023836499e+02 -1.718834029999149777e+02 -8.995287953819699567e+01 1.208278469364094718e+02 -2.030566749945620302e+02 -1.730985516636839634e+02 8.569557573083962154e+01 1.449457943014601540e+02 5.971001063341864068e+01 -4.224759673737769283e+00 1.465549863294820341e+02 -2.066516689180373874e+02 1.008585177128542085e+02 3.988524793408512181e+01 1.196042168334620754e+02 -1.775077317796573766e+02 1.002055461842019923e+02 -2.654863264518727561e+01 -1.258301083730697343e+02 -5.007622677504057762e+00 -8.695255784024000434e+01 -1.523477408345625150e+01 -4.115436034198133974e+00 -1.159559821774694797e+02 -1.160719278446106273e+02 -5.888400354848327822e+01 -1.213207864640974236e+02 1.891598523465843584e+02 -1.516837417601066988e+02 -4.723801485517314092e+01 1.624047725318625055e+02 3.194055762683616706e+01 -2.786061542229426209e+02 -1.196820839272951531e+02 3.340590308574534362e+01 5.145804874688848685e+01 8.015980900639601003e+00 -1.454918034265008089e+02 3.358753643275188239e+01 7.079646103021748793e+00 -6.996298715354387809e+01 1.908350105401232781e+02 1.906543388769904652e+02 4.099571991757533063e+00 -1.963049481493241046e+02 1.185693473929448771e+02 2.893349864218687983e+01 3.610441217304944939e+00 7.206546434296667769e+01 -1.953052213645349298e+02 -1.298979924631519793e+02 1.327160173139274377e+02 1.032149996747075278e+02 4.978106901702714282e+01 1.347425804223412058e+02 -1.677864920360390784e+02 -1.927518138887453603e+01 -1.227224363161983405e+02 4.112804439137971713e+01 -9.777320310095350919e+01 8.196474196334168028e+01 -3.194494961256734200e+01 1.165869638867282987e+01 1.670181519746494416e+02 2.689197548253818937e+01 -2.480805417974766840e+02 -1.189762832268996675e+02 -7.843786764740758599e+01 1.488176631668185053e+02 1.180527748133551391e+01 -5.075003956355411106e+01 2.851591052139679405e+01 5.879877894241604253e+01 -3.720843424892496643e+01 1.011904033665629896e+02 -9.482927418715009082e+01 4.632090254214575253e+01 1.053561504093404722e+02 -3.346265653693036057e+01 -9.235914560152751562e+01 -1.068108567821454358e+02 1.127241802189527391e+02 -4.677378739453578049e+01 1.849980147392513175e+02 5.384342394946023092e+01 1.044177953425419076e+02 1.737005895953674326e+02 8.050551109279295403e+00 -1.170197147234501074e+02 -1.559675533768985360e+02 -1.074436808615317602e+02 4.002550838019020318e+01
-1.248212390034409403e+01 -4.467928559161766344e+00 9.517973006680078640e+01 -2.105787672653756317e+02 1.428868207733908378e+02 5.835285944488965271e+01 1.398785083956850599e+02 -1.187543922012533102e+02 -2.534911527474207116e+00 -2.211144578607280664e+01 -2.017911638046136034e+02 3.005440429299810745e+01 -1.683605073815646236e+01 1.124496763035382827e+02 -1.150354634699221350e+02 5.673631361026831854e+01 1.151506533348101300e+02 -4.225293939894571338e+01 -4.555082060727755788e+01 -2.477309355371347266e+01 5.676109004542490055e+01 5.795044372490659867e+01 2.982712198632867384e+01 -2.137113033261925921e+02 -4.736656821349553326e+01 8.418421182740442532e+01 9.117815872002060118e+00 -9.554172987615826784e+00 -6.113794704583627748e+01 -1.426744159237571807e+01 6.740985780170406372e+01 -1.336449469870472910e+02 -5.696913528900531531e+01 8.233046672976936264e+00 1.908298221846782496e+02 1.949214967494689574e+02 -2.957648074795720916e+01 5.136332317866059327e+01 -2.311994167150105695e-01 -1.283354849080332372e+02 8.819531622929849846e+01 9.853016415516191273e+01 9.972352748589459281e+01 1.072180589840601961e+01 5.686136245518476784e+01 4.421806830645139996e+01 3.572458483567305620e+01 2.700350779889313557e+01 1.013436081228785355e+02 8.243192535413923849e+01 6.025177865459148308e+01 1.498066840696889130e+02 2.278081389605963807e+02 1.797584228538105435e+02 -5.435599126692299166e+01 4.527888731595353278e+01 -5.904431873284480048e+01 5.180471617911948812e+01 -1.766608855258240851e+02 5.192178658616390408e+01 -1.881468250413712724e+02 -1.550612984940902948e+02 1.190913388257274264e+01 -8.528238294510158468e+00 1.557803475979387713e+02 -1.911668310883423487e+02 6.917256926426725272e+01 2.112700727008102604e+02 -6.822597030268719109e+00 -1.790875088015962433e+02 3.262944768503134441e+01 1.812141650537620876e+02 -5.617544072726965965e+01 -2.450615042765634826e+02 -9.427947497243856390e+01 8.222200250032090096e+00 -2.115112917632376082e+02 2.953271055930632016e+01 -1.649836214220223951e+02 -1.705907597899073664e+02 -5.261008326273378799e+01 1.401450608200464103e+02 6.384225626195390646e+01 9.772220758248904460e+00 -8.158481375693973803e+01 -3.918111881251774520e+01 5.861833198645600618e+01 -2.136066064975642291e+02 4.977174863596498966e+01 -6.891977186605753047e+01 -7.192740827233731693e+01 -1.626993452996766223e+02 5.982127699849903024e+01 8.528734562583960610e+01 -1.493771340461489103e+02 1.590611929623941876e+02 -3.669321143835289689e+01 -1.557805356696064258e+01 8.072299000314298212e+01 1.439507766560662390e+02 2.004872618439018694e+01 1.394606498495937217e+02 -1.706108923139126432e+01 -8.352050444967456144e+01 -1.804767106490671225e+01 9.305662779855978783e+01 4.258998845662042498e+01 9.264822257076274070e+01 8.937436056648675731e+01 -7.871675706264863948e+01 -1.609234495597396233e+02 1.165349437060604174e+02 5.136616988196344380e+01 1.541090938561346135e+01 2.895194718038302284e+01 -6.433732107902032737e+01 9.095423896059047308e+01 8.513910693900625404e+01 -1.302980169836170354e+01 -6.751357815047654753e+01 2.905502066059873201e+01 5.960491052902836984e+00 -5.822907648043999984e+01 1.606997604474448451e+02 -3.101895164271936167e+01 1.152273658671537646e+02 -6.641328902784952959e+01 3.638263006129230348e+01 -3.416344091573665764e+01 8.483073819468039289e+01 2.224063106861821026e+01 1.095710134692234163e+02 -1.100159461586040948e+02 7.048830379507656119e+01 1.170483836767685517e+02 -4.236241223459379057e+01 7.282877455242307896e+00 -1.216574481634855687e+01 1.108080266090565829e+02 3.509909878653715065e+00 1.599020951157810373e+02 -1.341438451449205616e+02 1.106385549659231629e+02 -8.656344864344039536e+01 9.092591582790441862e+01 -1.300580731188096877e+02 2.799693651477936029e+01 2.350205000484551121e+01 1.672358336071075868e+00 3.446972573818256080e+01 4.370930059991588479e+01 -1.173088846706128585e+01 1.038556336984736106e+01 1.026326709953040535e+02 1.208045855142061100e+02 -8.235947415084386591e+01 -5.142008280116952790e+01 4.492634549438734126e+01 1.428543164011558453e+00 -1.301344468010468631e+02 -5.240503701839283224e+01 -3.361632662628358048e+01 4.643877986603628472e+01 -6.223561800704079161e+01 2.176103801119530701e+01 1.524316409657052134e+02 -7.550938973511642871e+01 7.687476065638544753e+01 7.991127925106094665e+01 1.074779272896956428e+01 1.174162979771262911e+02 5.981700370989952376e+01 1.598771910361968764e+02 -3.297096146600171096e+01 1.070003353425963866e+02 5.290076973375555980e+01 -1.528402701405770081e+01 1.943965017856784812e+02 -1.321735038646282874e+02 4.658910776965875300e+01 -1.787506950295924355e+02 -8.021413705489837298e+01 3.913877399473258833e+01 -6.885990661909777089e+01 -1.485578528081421723e+02 1.901270313601605437e+02 -8.182454565810610347e+01 -4.531396016538228366e+01 -4.414934584076080171e+01 1.161739985040176606e+02 1.858530676849291865e+02 6.178590330666164476e+01 1.395724583362125202e+02 2.094836773225017055e+02 -1.510904713175894809e+00 1.554449312997221284e+02 6.765671828259533527e+01 1.817395731571359647e+02 -1.201062820391702957e+02 -1.127896621828200274e+01 6.079156110584203354e+00 1.812955095218867712e+02 -8.670254572379539582e+01 -5.780433195304307503e+01 -5.051932458793590541e+01 -1.279742946136677801e+02 4.464739341862046018e+00 -9.633618456672191144e+01 1.472104455239684171e+02 2.246257501947862423e+01 1.143403388045797264e+01 6.901979743016507030e+01 -4.675373142947973015e+00 1.117199731024464597e+02 -1.516875779705542300e+02 4.337912012430210495e+01 -1.630088061067812362e+02 1.120957480153214334e+02 9.178034076607852398e+01 -6.421343404541005384e+01 4.469791485629757233e+01 2.273417533929970773e+02 -2.910358327990791594e+01 3.975523948272294206e+01 -3.120244408415057080e+01 5.532029401858375905e+01 6.133110439248643786e+01 -6.007822660681624960e+00 9.724701219744066805e+01 9.680969262559266042e+01 -1.850460578981169704e+02 -1.462593271348091264e+02 -1.144060331209195596e+02 -8.983600326454647345e+00 -1.429225523827070390e+02 1.102873879583828085e+02 1.052815169135946434e+02 5.633230503990106541e+01 1.065813306888888690e+01 1.504663857885323353e+02 8.012264196672953176e+01 6.443673908746691836e+01 -9.692605479487491493e+01 1.454977148916533736e+02 -3.455000264472784188e+00 1.043701956422586790e+02 8.421473966296046498e+00 3.505632927109450492e+01 -7.219309940722263264e+01 -8.655367131145997917e+01 6.829602889471279070e+01 -3.704134432097871965e+00 1.394145253138800626e+02 -1.196581497381354176e+01 -2.704816777460030242e+00 4.373163661091220433e+01 2.156549666928632192e+01 1.348421519455778537e+02 1.403959428563842948e+01 3.419108034543434371e+01 -1.474365528080080026e+02 6.271643024616990658e+01 1.273543480088668645e+02 -1.672101026627674614e+01 -2.172058728882237517e+02 8.038373931434509245e+01 1.296107346840803132e+02 1.941480681758722326e+01 1.797703209032353016e+02 -4.108784929933605667e+00 4.072405271787616954e+01 -4.145660149129866312e+01 -1.315829982703704957e+02 5.319398437559777193e+01 -4.506053199238856877e+01 -7.679602908514449666e+01 3.910365646312628485e+01 -1.751680714389275408e+02 6.788211086433091168e+01 1.558853446898490915e+02 -9.590650185848292608e+01 1.639318438296594422e+02 -9.241750436469465058e+01 -5.635989719826945965e+00 -9.999804856433723188e+00 7.258769832979349701e+01 -4.415575700282483496e+01 -1.019794909181538429e+02 -8.385466422003638343e+01 1.379319449895672278e+02 5.591481162401698413e+01 -1.247062853446798130e+02 4.166016360294833021e+00 4.102297356575791554e+01 7.802154253168963294e+01 -3.810867087507639184e+01 5.662587695863098958e+01 -6.516539499934620494e+01 -1.533115333274343470e+02 -3.270095353720342501e+01 1.331218077175930148e+02 -1.071240705788221561e+02 -6.013795989336179204e+00 -1.537367389531546564e+02 -4.607386537418149075e+00 -1.377219211396196101e+02 3.112075246627231451e+01 5.688110627524059026e+01 -4.749101268456497138e+01 -7.771007539774913653e+01 5.329075913152649058e+00 7.020017239837359568e+01 -6.392915525266236898e+01 1.270097759396881116e+02 9.958490209858634046e+01 -1.203573819197609964e+02 -9.944021097274281829e+01 1.273337063439090286e+02 6.719031812821494043e+01 1.415621372615509870e+02 9.414392442559466190e+01 7.641685420519839056e+01 -5.678365407966444423e+01 -7.696322395630083690e+01 -7.253423833218627692e+01 1.925007710154090148e+02 2.883841065170812712e+01 -2.345942337478849282e+01 -6.441634128072115573e+01 -4.692742410093755012e+01 -1.234481797258742120e+02 -1.546501070222181440e+01 -1.644729768738598636e+02 1.171760954475943208e+02 4.307038508402654031e+01 -1.079613856570591963e+02 -4.537470051184637754e+01 1.122021813259543137e+02 -9.079049339993284207e+01 9.637633061102530974e+01 -1.110375813745390445e+02 -1.104388325768898582e+01 -8.949322678030851819e+01 8.411138857186232087e+01 -3.979065409254528163e+01 9.583502073141636046e+00 2.751572273761643217e+01 -1.186342339007500755e+02 1.170608563050822504e+01 4.533727393629947500e+01 -2.090427525325276648e+01 -6.439162679004209622e+01 1.898084657641030901e+02 8.099103491510486208e+01 4.409761922547158974e+01 -2.941228852823179452e+01 7.509800015116205429e+01 1.569785779956719125e+02 -8.634595300155440611e+01 1.961946054680511793e+02 -1.246572192789214029e+02 -1.722050898217457302e+02 1.420996281851346907e+02 -2.191111961571234303e+02 -8.620732063761045172e-01 -2.293659918207026180e+02 -1.431374711963992468e+02 6.721989081969417157e+01 -1.363153447685991750e+02 5.464589305332005864e+01 1.030013874072667903e+02 -1.501013791675094353e+02 -2.815233024014531793e+01 7.063053391622479182e+01 1.253807295909199837e+02 -1.743074792970690226e+02 8.195387791089530083e+01 -9.174730785571831859e+01 -9.207850750141487239e+00 -1.295116879855852154e+01 -7.448975013881397444e+01 -8.452621889591436855e+01 1.698374422129867298e+02 -2.035249644720909501e+01 1.276600836836104591e+00 1.219890812186160218e+02 -8.127627838303106955e+01 -3.225517498851893805e+01 -1.009240523206023425e+02 -4.574084952044573527e+01 4.805190402246524606e+00 5.562001405731349024e+01 -1.266852295015565346e+02 2.225649212543689828e+02 -5.056839246516781827e+01 1.151095404859854625e+02 -4.585474976868739105e+01 1.124947453517757623e+02 1.308073059946597994e+02 4.502315274453845007e+01 1.147132853073307643e+02 -4.063665104411963114e+01 1.315973582822163621e+02 -1.471866339574898745e+02 -6.150648130145340531e+01 -5.922485479274003239e+01 2.408428930054659034e+01 -1.526514329005829325e+02 6.822892652100105693e+01 -2.901844896617128100e+01 -7.774549939073457949e+01 8.425987669810534442e+01 -1.421701408906643280e+02 -8.584825385440694845e+01 -4.957078359389984712e+01 3.111024185125101837e+01 1.221207296249584004e+02 1.098968319335559727e+02 6.498317060079695295e+01 -1.438491187126010207e+00 1.646071813284291920e+02 1.152863631423314672e+02 -8.893293769420340311e+01 -7.346432591064100848e+01 5.173876459303093611e+01 9.332225858526362217e+00 9.218669748130946573e+01 1.569369866053475278e+02 6.643564929703507005e+01 2.303608206869595421e+01 -9.619823914417376898e+01 1.615853325239691571e+02 -1.069234879244005327e+02 -1.554672713438498874e+02 6.183798454156048763e+01 1.048961062616873079e+02 1.849873698606483785e+01 -1.305891313923136750e+02 2.792248501356306534e+01 3.986182871753626955e+01 -3.708205575766408413e-01 1.231193088630932237e+02 9.201984442161189293e+01 1.609179609174646330e+01 7.364054880162009908e+01 -1.004687717592835412e+02 -6.019235732940249939e+00 9.243919502288287049e+01 2.791202910181225860e+01 -6.110034403486777421e+01 1.861267470678969005e+02 2.171549537737399760e+02 -1.178344119529929657e+02 -2.597556749821595545e+01 -1.973738104921436616e+02 -6.779261645687020632e+01 1.469938436373589923e+02 3.132843186821258730e+00 -6.666205975107314430e+01 1.537377346548213382e+02 -5.864376056469125587e+01 -1.507967503771853046e+02 1.282045519229335468e+02 -6.304081709721022264e+01 3.243919376566000068e+01 8.100698370878605203e+01 1.295487712883645237e+01 -2.236102905534646936e+02 3.974265085742974435e+01 -5.822316237053596133e+00 8.459133716624340593e+01 -2.211773246893206490e+01 9.482455804827343115e+01 1.597096819904968257e+01 -7.941062771281711719e+01 -1.922939883346490930e+01 -1.644416149970209062e+02 1.078672077650470129e+02 2.373193379809986681e+01 -3.903348912738079690e+01 -4.858713565621280850e+01 -5.906446132673451643e+01 3.860689954901834398e+01 1.507734823829307231e+02 1.244844119610348372e+02 4.036184568580679866e+01 -1.856377446835858507e+02 -3.639852152171103228e+01 4.112302553146051309e+01 1.100472379590095358e+02 8.176369346254958259e+01 1.446762227493689679e+01 -1.744890681801462335e+02 1.234847846734360672e+02 -2.098816003996500399e+02 -1.930682123991162769e+02 -1.699579596638115975e+00 -6.919339832679958135e+01 -2.266103742068639804e+01 8.171289210478259690e+01 5.245192749760959572e+01 -1.042807858873189417e+02 -1.421065043321891892e+02 1.366666279008771490e+01 1.160232747131545494e+02 1.936135351377597402e+01 -5.319517709811066197e+01 -4.848582671620625462e+01 -1.093272268246090029e+01 1.513788761116413752e+02 2.096900815405549068e+01 -1.659479877174252636e+02 1.226229261443979226e+02 -6.386168955405810976e+01 -3.983993630984071110e+00 1.470734226204808976e+02 -4.990717603888614917e+01 -1.872358179639279285e+01 -1.049167265251217032e+02 -5.723285692404280312e+00 -2.276521248385627416e+01 1.257286250072280467e+02 1.146442244810602631e+02 6.454352885585720401e+01 6.253551853196028532e+01 -1.786086673575609396e+01 1.290482817923252128e+02 -1.077191742305524826e+02 -4.055471299152138442e+00 -8.695595585779169312e+01 1.499780598705693819e+02 6.963920100725464124e+01 4.931943369351624540e+01 7.859187156198938595e+00 -5.092642469060825050e+01 3.283038279470174814e+01 6.401440026161819397e+00 3.533673227542934114e+00 2.299896444719392719e+01 5.707852352472042412e+01 1.625855122929124548e+02 -3.713684260966084594e+01 -4.961501742249286906e+01 6.378600231645508245e+01 1.104365865804333708e+02 -1.224276386511022530e+01 8.782915157856632504e+01 9.944831092443759246e+01 2.013094595904146615e+02 -8.262351897471680218e+01 -1.171105061794561806e+02 -2.735901216055469121e+01 5.937691724468272980e+01 -9.691143481442324514e+00 1.025458587672115982e+02 3.557506818350413624e+01 -1.552458719689481086e+02 4.300362085654953859e+01 -8.539323551472293161e+01 -1.291336210931302446e+02 1.283822936680701616e+02 -7.260570258775327090e+01 5.650771940500727908e+01 1.060474655516836293e+02 -9.442478594359901933e+01 2.244686931518045725e+01 -6.881770672658801402e+01 3.845362731716808469e+01 -1.094032505057044062e+02 5.878150922784744381e+01 5.217243479123748529e+01 3.655929428166193595e+00 8.010385003179973751e+01 -1.457406211172355768e+02 7.280418525397614360e+01 -2.799344114250785154e+01 -1.599235504847019911e+02 8.949208031787809148e+01 2.326157745706692381e+01 -1.856087886447214714e+02 2.227524176999680776e+02 -5.153461687985660955e-01 9.953569532409224507e+01 -1.141471081649152808e+02 -1.838176219079911959e+02 -8.833562867768722526e+01 2.385325935620830506e+00 1.352136118844326802e+02 3.722985004527691100e+00 -9.047879730984730884e+01 4.762566134103835935e+01 1.297176695231227654e+02 6.147679390264109145e+01 -4.893950690672796355e+01 -5.599255884734744626e+01 7.998458405456682385e+01 2.905280605687049089e+01 -1.851640791163291055e+02 -1.962017556311836231e+01 1.599808150365793153e+02 9.348732260190458021e+01 -5.428928458194557294e+01 -1.058282425648644534e+02 -4.038290058733017673e+01 -4.551279753395623118e+01 -1.083283819544406015e+02 -1.742044246962183962e+01 -4.321420701349375548e+01 -1.075506908659282601e+02 -1.249067440898237606e+02 -2.553890069071752933e+01 -1.189761174498908929e+02 -1.267254920078951841e+02 -3.628371132067501748e+01 -5.235288703853295544e+01 -1.051209008803839566e+02 1.825264354533272808e+02 1.031032505527337406e+01 -2.757402527391430169e+01 -1.665923084055193826e+01 7.713741112687034729e+01 1.535164795718654318e+01 2.455857108055899118e+01 -2.079556126859449705e+01 -4.542120309118923416e+01 2.049545369385926108e+01 -1.425628106224195903e+02 -1.560696179460339863e+02 -8.858174457640075161e+01 -1.871228661205985020e+02 -8.784888707138480868e+01 8.406121265685744959e+01 6.019714629907760184e+01 -2.553175316530672845e+01 5.957833296635623554e+01 -1.535477695121320494e+02 -4.012422602580662101e+01 -1.138915382580339895e+02 -6.543930751700494852e+01 2.069133919667623900e+02 -2.012787287024928560e+02 2.012517548778239416e+02 2.445476577171579180e+01 -5.532441239316997184e+01 9.037278699021992168e+01 1.216532062773527088e+02 -5.086981309347649471e+01 -1.998143691609989787e+02 -1.461811654439099186e+02 1.002977930240114404e+02 8.211981062007717469e+01 -1.329050811912451309e+02 3.129441152528018222e+01 -3.893065551491056908e+01 -7.589259577771647969e+01 -2.787501134321825091e+01 -5.373334919976369406e+01 -8.471930965717368167e+01 -3.341428893588818028e+01 4.464428154773525392e+00 -3.199376501955626750e+01 -3.460588382287763665e-01 -1.401174926819667022e+01 9.011895279949027326e+01 1.246578513865808020e+02 1.289605528278982405e+01 1.648403029755071714e+01 -6.193606867245532754e+01 -1.922709906112175133e+02 3.318417309506215673e+01 -8.991401690178054196e+01 2.534658103086365344e+01 -7.931417013795586612e+00 1.063161899970727076e+00 7.102098779760312652e+01 1.195260326630211978e+02 -6.912994771857921705e+01 3.725904720505666035e+01 -1.891865571945903923e+02 9.509301471046144982e+00 6.760945545044664051e+00 -1.201873616756251124e+02 -3.304343334515409936e+01 -4.346643523465922243e+01 4.665327854615456182e+00 -1.002451581064842969e+02 2.652017066422534342e+01 -9.573451142561366112e+01 5.492714315052503338e+01 6.656696313744573956e+01 3.619116468440567047e+01 -2.844782763973116246e+01 1.054009736299475151e+02 5.992335933812268678e+01 7.845071554187470042e+01 -6.571022614238412984e+01 1.983183023704134484e+01 1.253605174902696575e+02 -5.735811910637723088e+01 -6.785517234654627750e+00 3.135019212463552662e+01 -1.259024564950000240e+02 9.585669338856226318e+01 8.779589011027997003e+01 -9.918642578608782401e+01 -8.069917076207067907e+01 -5.443538218454494881e+01 -4.475724097117901579e+01 -1.569697616149510111e+02 -1.331421890234251464e+02 -1.298160605694383776e+02 1.035182693983879716e+02 5.860751267349870375e+01 1.562863157946779893e+02 7.065558494525067346e+00 -8.389492223610572808e+01 1.838474777542078442e+01 1.353752998615268766e+01 -6.226895490388532295e+01 7.250393893579217774e+01 1.155783211511644026e+02 9.732387473782921461e+00 1.402956982922862892e+02 2.200085287334264450e+01 1.085736626545566139e+02 1.473309274872993235e+01 -2.033313463454502426e+02 2.136787357951112085e+02 -4.787859787356507724e+01 -1.458084425148095704e+02 -6.572696291185272344e+01 -4.188874234231681726e+01 4.034942158143380908e+01 2.493189077545958554e+01 4.456582861646698035e+01 -7.207603076149948151e+01 1.190707051979726430e+02 -8.390847509138286853e+01 -6.821324482992824123e+00 1.384227089617238562e+02 1.064748995101368365e+02 5.639697640720440575e+01 -1.719289628795413876e+02 2.469120639847109899e+01 1.362414617105121408e+02 2.272321061893515548e+01 9.464484704167922757e+01 1.031607938069077335e+02 -2.049737837059261665e+02 7.451775802352641165e+01 -5.592878629609957386e+01 -2.177730260061787533e+02 8.563084172640390079e+01 2.374152431373765282e+01 -1.174416299545846414e+02 -5.627683225315203686e+01 1.331747378679812925e+02 1.414565605373975643e+02 -7.265083135815709170e+01 -1.222295382839556481e+02 -7.969378723373156959e+01 -1.582633143601558459e+02 1.866854096013192787e+01 3.617090120114683316e+01 -1.620443048148443310e+01 -1.178216928011701903e+01 -8.508767833667010905e+01 -8.380548745349082651e+01 -2.339957357814476424e+01 1.266372861941225381e+02 1.286160397380855898e+02 7.653824550867139465e+01 9.157932227259527735e+01 -7.394078773384423187e+01 -1.700116473807979389e+02 -1.239114076491116556e+01 -2.169896574847871662e+01 -6.673629700022553379e+01 1.387696026020219797e+00 6.858546384609697100e+01 -4.967475750981478910e+01 2.322493502371268548e+01 7.435810312545535794e+01 6.582948269191466295e+01 1.038108294597932257e+02 -1.400394616363441003e+02 3.720900208913447926e+01 7.822282912964551826e+01 8.896731769926671518e+01 5.542790692801708019e+01 -9.692369080348257171e+01 1.285483971332241993e+02 1.197050174371067897e+02 9.000098009701612511e+01 9.533527476644114529e+01 -7.905583470641641952e+01 -1.394473166365680505e+01 -1.216865925129175352e+01 7.231926742329673630e+01 6.100627929446040554e+01 5.261666385955012260e+01 9.158851177103666430e+01 1.094026637518453526e+02 1.164129144685751811e+02 -6.084464491436141031e+01 7.569417094097866539e+01 6.123566406475507051e+01 -1.104770719420917686e+02 1.235716931307869686e+02 -9.405201076504280167e+00 -2.623338599183620090e+01 1.872270288207037368e+02 8.316516977343434291e+01 1.166459415984780179e+02 -1.356793861508807879e+02 -1.483414528734903399e+02 -1.444513809050355917e+02 -1.148488135128484373e+02 -4.164812213835942600e+01 1.032270281358872523e+02 -1.587116095954774835e+02 3.057632594559736461e+01 1.358620002206276070e+02 -5.588805397695514188e+01 -8.600314409073992294e+01 -3.310137248901447293e+01 1.279577579369798173e+02 2.141293031751781086e+02 -6.288155670020866239e+01 1.868938660950011510e+01 -2.608106519093619369e+01 6.458365052355171088e+01 5.678810235973787712e+01 -2.011076664794182989e+02 -8.364438413492831614e+01 1.298138157294094697e+02 1.318945589267924561e+02 8.920458148246825658e+01 -4.705337416767294201e+01 -7.152246562016499354e+01 -4.281822806351129884e+01 -1.667241569405121879e+02 6.714721922391612452e+01 -2.420683892395789982e+01 1.571038852448691898e+02 -2.639868839358558006e+01 -2.971849912551438706e+02 1.368311036578992628e+02 4.740788481216193873e+01 -1.114128561949629557e+02 -2.097387626626243673e+01 3.334533062737254738e+01 -1.962530863360079252e+02 -1.079596115262817051e+02 -1.036398195718056741e+02 -5.327238167751463749e+01 5.932376465453747016e+01 -1.558270594258826520e+02 1.019594198449216833e+02 -5.135092864269216051e+01 2.775668467858126931e+00 -1.261254445443608887e+02 -9.804254770131635155e+01 1.662458727127017255e+02 8.194546797970372154e+01 -3.993171672844444942e+01 3.511059731275973661e+01 -2.651484880176220926e+01 4.098889020149917428e+01 -9.895269905918563325e+01 9.360432380275040032e+01 4.774984052351206287e+01 -1.124623709896674342e+02 1.104388416622653466e+02 -4.644322372340059246e+01 9.450700160872237632e+01 -4.672713486973355401e+01 8.359766329994570810e+01 -1.451308794546669674e+02 1.350700395511525471e+02 2.342585990204905855e+01 9.527871610756109533e+01 1.234484854952016804e+02 -1.388204367491311757e+02 -8.131956633134254275e+01 -1.000023580251462363e+02 6.329436969755055031e+01 -1.622302195838782666e+02 1.435173619196697814e+02 1.347645770598149113e+02 5.015344633975008293e+01 -8.039405227090102812e+01 5.404743467679499958e+01 -1.016727574450939926e+02 -1.033323781543179898e+01 3.310823327455870668e+01 -1.740282577316492052e+02 -7.724281551989676586e+01 -1.281951200761760923e+01 9.678542860122749403e+01 -4.758099459634944139e+01 1.030558313531676191e+02 -6.093235512140581989e+01 -1.997155018409262937e+02 -1.014788959428390882e+02 -3.222506346721447557e+01 -5.702456629120416665e+01 2.850524653065160763e+01 4.876824704482830697e+01 5.997103199627020764e+00 2.411249027150487834e+01 -1.113091175507487378e+02 5.112419168986494356e+01 3.095793552226209755e+01 -6.841693224601989698e+01 8.818572511380315504e+00 5.352358549437860091e+01 -9.050791789479073657e+01 -5.229348441056452401e+01 -2.295669867652337715e+01 9.258472547281171217e+01 -1.626171526290474745e+01 3.984070447037929341e+00 -2.165931459671064090e+02 -9.019549139295823181e+01 9.394624512753604506e+01 -8.462427234426442624e+01 2.974980475571239680e+01 2.948485406013725552e+01 3.597133377197990001e+01 6.274735652625075488e+01 -1.685218619942260432e+02 1.367534538809353819e+02 7.749020687858681811e+01 -7.174235501049916586e+00 -7.674633831483994584e+01 1.062266756852199734e+02 5.898838454378673646e+01 -1.910742604172902759e+02 -4.784400954044834009e+01 -7.763878196642576768e+01 -4.919284676053879224e+01 -5.879213691170492950e+01 -9.403141111976955813e+01 -5.733491744135881873e+01 1.819882082286524678e+02 -1.621985695804638112e+02 6.218952410684118348e+01 2.636507772897011037e+01 -7.145097026028963683e+01 9.888300464884235197e+00 -3.748491838544815380e+01 3.274140990235151705e+00 -9.137824065010394747e+01 -1.877624589326035220e+02 1.748227712676223788e+01 3.980168192770945979e+01 -1.215704436129980870e+01 -8.485272345802650662e+00 -3.780190259336549730e+01 -1.804588871185091250e+02 -2.910159561837598474e+01 -6.210718716997742206e+01 1.322818504052397692e+01 -1.484663603026639400e+01 8.612967617238732032e+01 -5.991931891618456518e+01 -9.854345858309049788e+01 -3.390356754461731015e+01 -8.514881485401238237e+00 4.315639322076221163e+01 -2.101092015618054276e+01 -7.021608197592057365e+01 -1.510268216687766163e+01 1.904018527100491198e+01 4.515686530285974243e+01 -1.083460793285668586e+02 -1.321612021251885949e+02 2.190137491505578566e+02 -2.075577991615655833e+02 -7.217521756449387738e+01 -4.402769979982540605e+01 1.329659539455595052e+02 6.016288336010269688e+01 2.177285652285907815e+02 2.327624259158037603e+02 -5.931920212598834041e+01 1.230793638632873126e+02 -5.332933202309944676e+01 -3.882878575481687022e+01 -9.566810640525960707e+01 -7.592382132700677744e+01 -6.611753770321953994e+01 -8.468111203023157429e+01 -2.318551716658280384e+02 -2.575616911099668300e+02 1.280733086659174660e+02 -2.525115809820788115e+01 5.066748770050840989e+01 1.245378077875547547e+02
