# 
#                 ----------------------------------------------------
#                 Data from a 3D direct N-body simulation. 
# 
#                 rows are i-particle; 
#                 coumns are :mass, tag, x ,y, z, vx, vy, vz, ax, ay, az
# 
#                 NTHU, Computational Physics Lab
# 
#                 ----------------------------------------------------
#                 Time = 4.199999999999955
1.000000000000000000e+00 2.000000000000000000e+00 3.000000000000000000e+00 4.000000000000000000e+00 5.000000000000000000e+00 6.000000000000000000e+00 7.000000000000000000e+00 8.000000000000000000e+00 9.000000000000000000e+00 1.000000000000000000e+01 1.100000000000000000e+01 1.200000000000000000e+01 1.300000000000000000e+01 1.400000000000000000e+01 1.500000000000000000e+01 1.600000000000000000e+01 1.700000000000000000e+01 1.800000000000000000e+01 1.900000000000000000e+01 2.000000000000000000e+01 2.100000000000000000e+01 2.200000000000000000e+01 2.300000000000000000e+01 2.400000000000000000e+01 2.500000000000000000e+01 2.600000000000000000e+01 2.700000000000000000e+01 2.800000000000000000e+01 2.900000000000000000e+01 3.000000000000000000e+01 3.100000000000000000e+01 3.200000000000000000e+01 3.300000000000000000e+01 3.400000000000000000e+01 3.500000000000000000e+01 3.600000000000000000e+01 3.700000000000000000e+01 3.800000000000000000e+01 3.900000000000000000e+01 4.000000000000000000e+01 4.100000000000000000e+01 4.200000000000000000e+01 4.300000000000000000e+01 4.400000000000000000e+01 4.500000000000000000e+01 4.600000000000000000e+01 4.700000000000000000e+01 4.800000000000000000e+01 4.900000000000000000e+01 5.000000000000000000e+01 5.100000000000000000e+01 5.200000000000000000e+01 5.300000000000000000e+01 5.400000000000000000e+01 5.500000000000000000e+01 5.600000000000000000e+01 5.700000000000000000e+01 5.800000000000000000e+01 5.900000000000000000e+01 6.000000000000000000e+01 6.100000000000000000e+01 6.200000000000000000e+01 6.300000000000000000e+01 6.400000000000000000e+01 6.500000000000000000e+01 6.600000000000000000e+01 6.700000000000000000e+01 6.800000000000000000e+01 6.900000000000000000e+01 7.000000000000000000e+01 7.100000000000000000e+01 7.200000000000000000e+01 7.300000000000000000e+01 7.400000000000000000e+01 7.500000000000000000e+01 7.600000000000000000e+01 7.700000000000000000e+01 7.800000000000000000e+01 7.900000000000000000e+01 8.000000000000000000e+01 8.100000000000000000e+01 8.200000000000000000e+01 8.300000000000000000e+01 8.400000000000000000e+01 8.500000000000000000e+01 8.600000000000000000e+01 8.700000000000000000e+01 8.800000000000000000e+01 8.900000000000000000e+01 9.000000000000000000e+01 9.100000000000000000e+01 9.200000000000000000e+01 9.300000000000000000e+01 9.400000000000000000e+01 9.500000000000000000e+01 9.600000000000000000e+01 9.700000000000000000e+01 9.800000000000000000e+01 9.900000000000000000e+01 1.000000000000000000e+02 1.010000000000000000e+02 1.020000000000000000e+02 1.030000000000000000e+02 1.040000000000000000e+02 1.050000000000000000e+02 1.060000000000000000e+02 1.070000000000000000e+02 1.080000000000000000e+02 1.090000000000000000e+02 1.100000000000000000e+02 1.110000000000000000e+02 1.120000000000000000e+02 1.130000000000000000e+02 1.140000000000000000e+02 1.150000000000000000e+02 1.160000000000000000e+02 1.170000000000000000e+02 1.180000000000000000e+02 1.190000000000000000e+02 1.200000000000000000e+02 1.210000000000000000e+02 1.220000000000000000e+02 1.230000000000000000e+02 1.240000000000000000e+02 1.250000000000000000e+02 1.260000000000000000e+02 1.270000000000000000e+02 1.280000000000000000e+02 1.290000000000000000e+02 1.300000000000000000e+02 1.310000000000000000e+02 1.320000000000000000e+02 1.330000000000000000e+02 1.340000000000000000e+02 1.350000000000000000e+02 1.360000000000000000e+02 1.370000000000000000e+02 1.380000000000000000e+02 1.390000000000000000e+02 1.400000000000000000e+02 1.410000000000000000e+02 1.420000000000000000e+02 1.430000000000000000e+02 1.440000000000000000e+02 1.450000000000000000e+02 1.460000000000000000e+02 1.470000000000000000e+02 1.480000000000000000e+02 1.490000000000000000e+02 1.500000000000000000e+02 1.510000000000000000e+02 1.520000000000000000e+02 1.530000000000000000e+02 1.540000000000000000e+02 1.550000000000000000e+02 1.560000000000000000e+02 1.570000000000000000e+02 1.580000000000000000e+02 1.590000000000000000e+02 1.600000000000000000e+02 1.610000000000000000e+02 1.620000000000000000e+02 1.630000000000000000e+02 1.640000000000000000e+02 1.650000000000000000e+02 1.660000000000000000e+02 1.670000000000000000e+02 1.680000000000000000e+02 1.690000000000000000e+02 1.700000000000000000e+02 1.710000000000000000e+02 1.720000000000000000e+02 1.730000000000000000e+02 1.740000000000000000e+02 1.750000000000000000e+02 1.760000000000000000e+02 1.770000000000000000e+02 1.780000000000000000e+02 1.790000000000000000e+02 1.800000000000000000e+02 1.810000000000000000e+02 1.820000000000000000e+02 1.830000000000000000e+02 1.840000000000000000e+02 1.850000000000000000e+02 1.860000000000000000e+02 1.870000000000000000e+02 1.880000000000000000e+02 1.890000000000000000e+02 1.900000000000000000e+02 1.910000000000000000e+02 1.920000000000000000e+02 1.930000000000000000e+02 1.940000000000000000e+02 1.950000000000000000e+02 1.960000000000000000e+02 1.970000000000000000e+02 1.980000000000000000e+02 1.990000000000000000e+02 2.000000000000000000e+02 2.010000000000000000e+02 2.020000000000000000e+02 2.030000000000000000e+02 2.040000000000000000e+02 2.050000000000000000e+02 2.060000000000000000e+02 2.070000000000000000e+02 2.080000000000000000e+02 2.090000000000000000e+02 2.100000000000000000e+02 2.110000000000000000e+02 2.120000000000000000e+02 2.130000000000000000e+02 2.140000000000000000e+02 2.150000000000000000e+02 2.160000000000000000e+02 2.170000000000000000e+02 2.180000000000000000e+02 2.190000000000000000e+02 2.200000000000000000e+02 2.210000000000000000e+02 2.220000000000000000e+02 2.230000000000000000e+02 2.240000000000000000e+02 2.250000000000000000e+02 2.260000000000000000e+02 2.270000000000000000e+02 2.280000000000000000e+02 2.290000000000000000e+02 2.300000000000000000e+02 2.310000000000000000e+02 2.320000000000000000e+02 2.330000000000000000e+02 2.340000000000000000e+02 2.350000000000000000e+02 2.360000000000000000e+02 2.370000000000000000e+02 2.380000000000000000e+02 2.390000000000000000e+02 2.400000000000000000e+02 2.410000000000000000e+02 2.420000000000000000e+02 2.430000000000000000e+02 2.440000000000000000e+02 2.450000000000000000e+02 2.460000000000000000e+02 2.470000000000000000e+02 2.480000000000000000e+02 2.490000000000000000e+02 2.500000000000000000e+02 2.510000000000000000e+02 2.520000000000000000e+02 2.530000000000000000e+02 2.540000000000000000e+02 2.550000000000000000e+02 2.560000000000000000e+02 2.570000000000000000e+02 2.580000000000000000e+02 2.590000000000000000e+02 2.600000000000000000e+02 2.610000000000000000e+02 2.620000000000000000e+02 2.630000000000000000e+02 2.640000000000000000e+02 2.650000000000000000e+02 2.660000000000000000e+02 2.670000000000000000e+02 2.680000000000000000e+02 2.690000000000000000e+02 2.700000000000000000e+02 2.710000000000000000e+02 2.720000000000000000e+02 2.730000000000000000e+02 2.740000000000000000e+02 2.750000000000000000e+02 2.760000000000000000e+02 2.770000000000000000e+02 2.780000000000000000e+02 2.790000000000000000e+02 2.800000000000000000e+02 2.810000000000000000e+02 2.820000000000000000e+02 2.830000000000000000e+02 2.840000000000000000e+02 2.850000000000000000e+02 2.860000000000000000e+02 2.870000000000000000e+02 2.880000000000000000e+02 2.890000000000000000e+02 2.900000000000000000e+02 2.910000000000000000e+02 2.920000000000000000e+02 2.930000000000000000e+02 2.940000000000000000e+02 2.950000000000000000e+02 2.960000000000000000e+02 2.970000000000000000e+02 2.980000000000000000e+02 2.990000000000000000e+02 3.000000000000000000e+02 3.010000000000000000e+02 3.020000000000000000e+02 3.030000000000000000e+02 3.040000000000000000e+02 3.050000000000000000e+02 3.060000000000000000e+02 3.070000000000000000e+02 3.080000000000000000e+02 3.090000000000000000e+02 3.100000000000000000e+02 3.110000000000000000e+02 3.120000000000000000e+02 3.130000000000000000e+02 3.140000000000000000e+02 3.150000000000000000e+02 3.160000000000000000e+02 3.170000000000000000e+02 3.180000000000000000e+02 3.190000000000000000e+02 3.200000000000000000e+02 3.210000000000000000e+02 3.220000000000000000e+02 3.230000000000000000e+02 3.240000000000000000e+02 3.250000000000000000e+02 3.260000000000000000e+02 3.270000000000000000e+02 3.280000000000000000e+02 3.290000000000000000e+02 3.300000000000000000e+02 3.310000000000000000e+02 3.320000000000000000e+02 3.330000000000000000e+02 3.340000000000000000e+02 3.350000000000000000e+02 3.360000000000000000e+02 3.370000000000000000e+02 3.380000000000000000e+02 3.390000000000000000e+02 3.400000000000000000e+02 3.410000000000000000e+02 3.420000000000000000e+02 3.430000000000000000e+02 3.440000000000000000e+02 3.450000000000000000e+02 3.460000000000000000e+02 3.470000000000000000e+02 3.480000000000000000e+02 3.490000000000000000e+02 3.500000000000000000e+02 3.510000000000000000e+02 3.520000000000000000e+02 3.530000000000000000e+02 3.540000000000000000e+02 3.550000000000000000e+02 3.560000000000000000e+02 3.570000000000000000e+02 3.580000000000000000e+02 3.590000000000000000e+02 3.600000000000000000e+02 3.610000000000000000e+02 3.620000000000000000e+02 3.630000000000000000e+02 3.640000000000000000e+02 3.650000000000000000e+02 3.660000000000000000e+02 3.670000000000000000e+02 3.680000000000000000e+02 3.690000000000000000e+02 3.700000000000000000e+02 3.710000000000000000e+02 3.720000000000000000e+02 3.730000000000000000e+02 3.740000000000000000e+02 3.750000000000000000e+02 3.760000000000000000e+02 3.770000000000000000e+02 3.780000000000000000e+02 3.790000000000000000e+02 3.800000000000000000e+02 3.810000000000000000e+02 3.820000000000000000e+02 3.830000000000000000e+02 3.840000000000000000e+02 3.850000000000000000e+02 3.860000000000000000e+02 3.870000000000000000e+02 3.880000000000000000e+02 3.890000000000000000e+02 3.900000000000000000e+02 3.910000000000000000e+02 3.920000000000000000e+02 3.930000000000000000e+02 3.940000000000000000e+02 3.950000000000000000e+02 3.960000000000000000e+02 3.970000000000000000e+02 3.980000000000000000e+02 3.990000000000000000e+02 4.000000000000000000e+02 4.010000000000000000e+02 4.020000000000000000e+02 4.030000000000000000e+02 4.040000000000000000e+02 4.050000000000000000e+02 4.060000000000000000e+02 4.070000000000000000e+02 4.080000000000000000e+02 4.090000000000000000e+02 4.100000000000000000e+02 4.110000000000000000e+02 4.120000000000000000e+02 4.130000000000000000e+02 4.140000000000000000e+02 4.150000000000000000e+02 4.160000000000000000e+02 4.170000000000000000e+02 4.180000000000000000e+02 4.190000000000000000e+02 4.200000000000000000e+02 4.210000000000000000e+02 4.220000000000000000e+02 4.230000000000000000e+02 4.240000000000000000e+02 4.250000000000000000e+02 4.260000000000000000e+02 4.270000000000000000e+02 4.280000000000000000e+02 4.290000000000000000e+02 4.300000000000000000e+02 4.310000000000000000e+02 4.320000000000000000e+02 4.330000000000000000e+02 4.340000000000000000e+02 4.350000000000000000e+02 4.360000000000000000e+02 4.370000000000000000e+02 4.380000000000000000e+02 4.390000000000000000e+02 4.400000000000000000e+02 4.410000000000000000e+02 4.420000000000000000e+02 4.430000000000000000e+02 4.440000000000000000e+02 4.450000000000000000e+02 4.460000000000000000e+02 4.470000000000000000e+02 4.480000000000000000e+02 4.490000000000000000e+02 4.500000000000000000e+02 4.510000000000000000e+02 4.520000000000000000e+02 4.530000000000000000e+02 4.540000000000000000e+02 4.550000000000000000e+02 4.560000000000000000e+02 4.570000000000000000e+02 4.580000000000000000e+02 4.590000000000000000e+02 4.600000000000000000e+02 4.610000000000000000e+02 4.620000000000000000e+02 4.630000000000000000e+02 4.640000000000000000e+02 4.650000000000000000e+02 4.660000000000000000e+02 4.670000000000000000e+02 4.680000000000000000e+02 4.690000000000000000e+02 4.700000000000000000e+02 4.710000000000000000e+02 4.720000000000000000e+02 4.730000000000000000e+02 4.740000000000000000e+02 4.750000000000000000e+02 4.760000000000000000e+02 4.770000000000000000e+02 4.780000000000000000e+02 4.790000000000000000e+02 4.800000000000000000e+02 4.810000000000000000e+02 4.820000000000000000e+02 4.830000000000000000e+02 4.840000000000000000e+02 4.850000000000000000e+02 4.860000000000000000e+02 4.870000000000000000e+02 4.880000000000000000e+02 4.890000000000000000e+02 4.900000000000000000e+02 4.910000000000000000e+02 4.920000000000000000e+02 4.930000000000000000e+02 4.940000000000000000e+02 4.950000000000000000e+02 4.960000000000000000e+02 4.970000000000000000e+02 4.980000000000000000e+02 4.990000000000000000e+02 5.000000000000000000e+02 5.010000000000000000e+02 5.020000000000000000e+02 5.030000000000000000e+02 5.040000000000000000e+02 5.050000000000000000e+02 5.060000000000000000e+02 5.070000000000000000e+02 5.080000000000000000e+02 5.090000000000000000e+02 5.100000000000000000e+02 5.110000000000000000e+02 5.120000000000000000e+02 5.130000000000000000e+02 5.140000000000000000e+02 5.150000000000000000e+02 5.160000000000000000e+02 5.170000000000000000e+02 5.180000000000000000e+02 5.190000000000000000e+02 5.200000000000000000e+02 5.210000000000000000e+02 5.220000000000000000e+02 5.230000000000000000e+02 5.240000000000000000e+02 5.250000000000000000e+02 5.260000000000000000e+02 5.270000000000000000e+02 5.280000000000000000e+02 5.290000000000000000e+02 5.300000000000000000e+02 5.310000000000000000e+02 5.320000000000000000e+02 5.330000000000000000e+02 5.340000000000000000e+02 5.350000000000000000e+02 5.360000000000000000e+02 5.370000000000000000e+02 5.380000000000000000e+02 5.390000000000000000e+02 5.400000000000000000e+02 5.410000000000000000e+02 5.420000000000000000e+02 5.430000000000000000e+02 5.440000000000000000e+02 5.450000000000000000e+02 5.460000000000000000e+02 5.470000000000000000e+02 5.480000000000000000e+02 5.490000000000000000e+02 5.500000000000000000e+02 5.510000000000000000e+02 5.520000000000000000e+02 5.530000000000000000e+02 5.540000000000000000e+02 5.550000000000000000e+02 5.560000000000000000e+02 5.570000000000000000e+02 5.580000000000000000e+02 5.590000000000000000e+02 5.600000000000000000e+02 5.610000000000000000e+02 5.620000000000000000e+02 5.630000000000000000e+02 5.640000000000000000e+02 5.650000000000000000e+02 5.660000000000000000e+02 5.670000000000000000e+02 5.680000000000000000e+02 5.690000000000000000e+02 5.700000000000000000e+02 5.710000000000000000e+02 5.720000000000000000e+02 5.730000000000000000e+02 5.740000000000000000e+02 5.750000000000000000e+02 5.760000000000000000e+02 5.770000000000000000e+02 5.780000000000000000e+02 5.790000000000000000e+02 5.800000000000000000e+02 5.810000000000000000e+02 5.820000000000000000e+02 5.830000000000000000e+02 5.840000000000000000e+02 5.850000000000000000e+02 5.860000000000000000e+02 5.870000000000000000e+02 5.880000000000000000e+02 5.890000000000000000e+02 5.900000000000000000e+02 5.910000000000000000e+02 5.920000000000000000e+02 5.930000000000000000e+02 5.940000000000000000e+02 5.950000000000000000e+02 5.960000000000000000e+02 5.970000000000000000e+02 5.980000000000000000e+02 5.990000000000000000e+02 6.000000000000000000e+02 6.010000000000000000e+02 6.020000000000000000e+02 6.030000000000000000e+02 6.040000000000000000e+02 6.050000000000000000e+02 6.060000000000000000e+02 6.070000000000000000e+02 6.080000000000000000e+02 6.090000000000000000e+02 6.100000000000000000e+02 6.110000000000000000e+02 6.120000000000000000e+02 6.130000000000000000e+02 6.140000000000000000e+02 6.150000000000000000e+02 6.160000000000000000e+02 6.170000000000000000e+02 6.180000000000000000e+02 6.190000000000000000e+02 6.200000000000000000e+02 6.210000000000000000e+02 6.220000000000000000e+02 6.230000000000000000e+02 6.240000000000000000e+02 6.250000000000000000e+02 6.260000000000000000e+02 6.270000000000000000e+02 6.280000000000000000e+02 6.290000000000000000e+02 6.300000000000000000e+02 6.310000000000000000e+02 6.320000000000000000e+02 6.330000000000000000e+02 6.340000000000000000e+02 6.350000000000000000e+02 6.360000000000000000e+02 6.370000000000000000e+02 6.380000000000000000e+02 6.390000000000000000e+02 6.400000000000000000e+02 6.410000000000000000e+02 6.420000000000000000e+02 6.430000000000000000e+02 6.440000000000000000e+02 6.450000000000000000e+02 6.460000000000000000e+02 6.470000000000000000e+02 6.480000000000000000e+02 6.490000000000000000e+02 6.500000000000000000e+02 6.510000000000000000e+02 6.520000000000000000e+02 6.530000000000000000e+02 6.540000000000000000e+02 6.550000000000000000e+02 6.560000000000000000e+02 6.570000000000000000e+02 6.580000000000000000e+02 6.590000000000000000e+02 6.600000000000000000e+02 6.610000000000000000e+02 6.620000000000000000e+02 6.630000000000000000e+02 6.640000000000000000e+02 6.650000000000000000e+02 6.660000000000000000e+02 6.670000000000000000e+02 6.680000000000000000e+02 6.690000000000000000e+02 6.700000000000000000e+02 6.710000000000000000e+02 6.720000000000000000e+02 6.730000000000000000e+02 6.740000000000000000e+02 6.750000000000000000e+02 6.760000000000000000e+02 6.770000000000000000e+02 6.780000000000000000e+02 6.790000000000000000e+02 6.800000000000000000e+02 6.810000000000000000e+02 6.820000000000000000e+02 6.830000000000000000e+02 6.840000000000000000e+02 6.850000000000000000e+02 6.860000000000000000e+02 6.870000000000000000e+02 6.880000000000000000e+02 6.890000000000000000e+02 6.900000000000000000e+02 6.910000000000000000e+02 6.920000000000000000e+02 6.930000000000000000e+02 6.940000000000000000e+02 6.950000000000000000e+02 6.960000000000000000e+02 6.970000000000000000e+02 6.980000000000000000e+02 6.990000000000000000e+02 7.000000000000000000e+02 7.010000000000000000e+02 7.020000000000000000e+02 7.030000000000000000e+02 7.040000000000000000e+02 7.050000000000000000e+02 7.060000000000000000e+02 7.070000000000000000e+02 7.080000000000000000e+02 7.090000000000000000e+02 7.100000000000000000e+02 7.110000000000000000e+02 7.120000000000000000e+02 7.130000000000000000e+02 7.140000000000000000e+02 7.150000000000000000e+02 7.160000000000000000e+02 7.170000000000000000e+02 7.180000000000000000e+02 7.190000000000000000e+02 7.200000000000000000e+02 7.210000000000000000e+02 7.220000000000000000e+02 7.230000000000000000e+02 7.240000000000000000e+02 7.250000000000000000e+02 7.260000000000000000e+02 7.270000000000000000e+02 7.280000000000000000e+02 7.290000000000000000e+02 7.300000000000000000e+02 7.310000000000000000e+02 7.320000000000000000e+02 7.330000000000000000e+02 7.340000000000000000e+02 7.350000000000000000e+02 7.360000000000000000e+02 7.370000000000000000e+02 7.380000000000000000e+02 7.390000000000000000e+02 7.400000000000000000e+02 7.410000000000000000e+02 7.420000000000000000e+02 7.430000000000000000e+02 7.440000000000000000e+02 7.450000000000000000e+02 7.460000000000000000e+02 7.470000000000000000e+02 7.480000000000000000e+02 7.490000000000000000e+02 7.500000000000000000e+02 7.510000000000000000e+02 7.520000000000000000e+02 7.530000000000000000e+02 7.540000000000000000e+02 7.550000000000000000e+02 7.560000000000000000e+02 7.570000000000000000e+02 7.580000000000000000e+02 7.590000000000000000e+02 7.600000000000000000e+02 7.610000000000000000e+02 7.620000000000000000e+02 7.630000000000000000e+02 7.640000000000000000e+02 7.650000000000000000e+02 7.660000000000000000e+02 7.670000000000000000e+02 7.680000000000000000e+02 7.690000000000000000e+02 7.700000000000000000e+02 7.710000000000000000e+02 7.720000000000000000e+02 7.730000000000000000e+02 7.740000000000000000e+02 7.750000000000000000e+02 7.760000000000000000e+02 7.770000000000000000e+02 7.780000000000000000e+02 7.790000000000000000e+02 7.800000000000000000e+02 7.810000000000000000e+02 7.820000000000000000e+02 7.830000000000000000e+02 7.840000000000000000e+02 7.850000000000000000e+02 7.860000000000000000e+02 7.870000000000000000e+02 7.880000000000000000e+02 7.890000000000000000e+02 7.900000000000000000e+02 7.910000000000000000e+02 7.920000000000000000e+02 7.930000000000000000e+02 7.940000000000000000e+02 7.950000000000000000e+02 7.960000000000000000e+02 7.970000000000000000e+02 7.980000000000000000e+02 7.990000000000000000e+02 8.000000000000000000e+02 8.010000000000000000e+02 8.020000000000000000e+02 8.030000000000000000e+02 8.040000000000000000e+02 8.050000000000000000e+02 8.060000000000000000e+02 8.070000000000000000e+02 8.080000000000000000e+02 8.090000000000000000e+02 8.100000000000000000e+02 8.110000000000000000e+02 8.120000000000000000e+02 8.130000000000000000e+02 8.140000000000000000e+02 8.150000000000000000e+02 8.160000000000000000e+02 8.170000000000000000e+02 8.180000000000000000e+02 8.190000000000000000e+02 8.200000000000000000e+02 8.210000000000000000e+02 8.220000000000000000e+02 8.230000000000000000e+02 8.240000000000000000e+02 8.250000000000000000e+02 8.260000000000000000e+02 8.270000000000000000e+02 8.280000000000000000e+02 8.290000000000000000e+02 8.300000000000000000e+02 8.310000000000000000e+02 8.320000000000000000e+02 8.330000000000000000e+02 8.340000000000000000e+02 8.350000000000000000e+02 8.360000000000000000e+02 8.370000000000000000e+02 8.380000000000000000e+02 8.390000000000000000e+02 8.400000000000000000e+02 8.410000000000000000e+02 8.420000000000000000e+02 8.430000000000000000e+02 8.440000000000000000e+02 8.450000000000000000e+02 8.460000000000000000e+02 8.470000000000000000e+02 8.480000000000000000e+02 8.490000000000000000e+02 8.500000000000000000e+02 8.510000000000000000e+02 8.520000000000000000e+02 8.530000000000000000e+02 8.540000000000000000e+02 8.550000000000000000e+02 8.560000000000000000e+02 8.570000000000000000e+02 8.580000000000000000e+02 8.590000000000000000e+02 8.600000000000000000e+02 8.610000000000000000e+02 8.620000000000000000e+02 8.630000000000000000e+02 8.640000000000000000e+02 8.650000000000000000e+02 8.660000000000000000e+02 8.670000000000000000e+02 8.680000000000000000e+02 8.690000000000000000e+02 8.700000000000000000e+02 8.710000000000000000e+02 8.720000000000000000e+02 8.730000000000000000e+02 8.740000000000000000e+02 8.750000000000000000e+02 8.760000000000000000e+02 8.770000000000000000e+02 8.780000000000000000e+02 8.790000000000000000e+02 8.800000000000000000e+02 8.810000000000000000e+02 8.820000000000000000e+02 8.830000000000000000e+02 8.840000000000000000e+02 8.850000000000000000e+02 8.860000000000000000e+02 8.870000000000000000e+02 8.880000000000000000e+02 8.890000000000000000e+02 8.900000000000000000e+02 8.910000000000000000e+02 8.920000000000000000e+02 8.930000000000000000e+02 8.940000000000000000e+02 8.950000000000000000e+02 8.960000000000000000e+02 8.970000000000000000e+02 8.980000000000000000e+02 8.990000000000000000e+02 9.000000000000000000e+02 9.010000000000000000e+02 9.020000000000000000e+02 9.030000000000000000e+02 9.040000000000000000e+02 9.050000000000000000e+02 9.060000000000000000e+02 9.070000000000000000e+02 9.080000000000000000e+02 9.090000000000000000e+02 9.100000000000000000e+02 9.110000000000000000e+02 9.120000000000000000e+02 9.130000000000000000e+02 9.140000000000000000e+02 9.150000000000000000e+02 9.160000000000000000e+02 9.170000000000000000e+02 9.180000000000000000e+02 9.190000000000000000e+02 9.200000000000000000e+02 9.210000000000000000e+02 9.220000000000000000e+02 9.230000000000000000e+02 9.240000000000000000e+02 9.250000000000000000e+02 9.260000000000000000e+02 9.270000000000000000e+02 9.280000000000000000e+02 9.290000000000000000e+02 9.300000000000000000e+02 9.310000000000000000e+02 9.320000000000000000e+02 9.330000000000000000e+02 9.340000000000000000e+02 9.350000000000000000e+02 9.360000000000000000e+02 9.370000000000000000e+02 9.380000000000000000e+02 9.390000000000000000e+02 9.400000000000000000e+02 9.410000000000000000e+02 9.420000000000000000e+02 9.430000000000000000e+02 9.440000000000000000e+02 9.450000000000000000e+02 9.460000000000000000e+02 9.470000000000000000e+02 9.480000000000000000e+02 9.490000000000000000e+02 9.500000000000000000e+02 9.510000000000000000e+02 9.520000000000000000e+02 9.530000000000000000e+02 9.540000000000000000e+02 9.550000000000000000e+02 9.560000000000000000e+02 9.570000000000000000e+02 9.580000000000000000e+02 9.590000000000000000e+02 9.600000000000000000e+02 9.610000000000000000e+02 9.620000000000000000e+02 9.630000000000000000e+02 9.640000000000000000e+02 9.650000000000000000e+02 9.660000000000000000e+02 9.670000000000000000e+02 9.680000000000000000e+02 9.690000000000000000e+02 9.700000000000000000e+02 9.710000000000000000e+02 9.720000000000000000e+02 9.730000000000000000e+02 9.740000000000000000e+02 9.750000000000000000e+02 9.760000000000000000e+02 9.770000000000000000e+02 9.780000000000000000e+02 9.790000000000000000e+02 9.800000000000000000e+02 9.810000000000000000e+02 9.820000000000000000e+02 9.830000000000000000e+02 9.840000000000000000e+02 9.850000000000000000e+02 9.860000000000000000e+02 9.870000000000000000e+02 9.880000000000000000e+02 9.890000000000000000e+02 9.900000000000000000e+02 9.910000000000000000e+02 9.920000000000000000e+02 9.930000000000000000e+02 9.940000000000000000e+02 9.950000000000000000e+02 9.960000000000000000e+02 9.970000000000000000e+02 9.980000000000000000e+02 9.990000000000000000e+02 1.000000000000000000e+03
1.000000000000000021e-02 1.000000000000000021e-02 1.000000000000000021e-02 1.000000000000000021e-02 1.000000000000000021e-02 1.000000000000000021e-02 1.000000000000000021e-02 1.000000000000000021e-02 1.000000000000000021e-02 1.000000000000000021e-02 1.000000000000000021e-02 1.000000000000000021e-02 1.000000000000000021e-02 1.000000000000000021e-02 1.000000000000000021e-02 1.000000000000000021e-02 1.000000000000000021e-02 1.000000000000000021e-02 1.000000000000000021e-02 1.000000000000000021e-02 1.000000000000000021e-02 1.000000000000000021e-02 1.000000000000000021e-02 1.000000000000000021e-02 1.000000000000000021e-02 1.000000000000000021e-02 1.000000000000000021e-02 1.000000000000000021e-02 1.000000000000000021e-02 1.000000000000000021e-02 1.000000000000000021e-02 1.000000000000000021e-02 1.000000000000000021e-02 1.000000000000000021e-02 1.000000000000000021e-02 1.000000000000000021e-02 1.000000000000000021e-02 1.000000000000000021e-02 1.000000000000000021e-02 1.000000000000000021e-02 1.000000000000000021e-02 1.000000000000000021e-02 1.000000000000000021e-02 1.000000000000000021e-02 1.000000000000000021e-02 1.000000000000000021e-02 1.000000000000000021e-02 1.000000000000000021e-02 1.000000000000000021e-02 1.000000000000000021e-02 1.000000000000000021e-02 1.000000000000000021e-02 1.000000000000000021e-02 1.000000000000000021e-02 1.000000000000000021e-02 1.000000000000000021e-02 1.000000000000000021e-02 1.000000000000000021e-02 1.000000000000000021e-02 1.000000000000000021e-02 1.000000000000000021e-02 1.000000000000000021e-02 1.000000000000000021e-02 1.000000000000000021e-02 1.000000000000000021e-02 1.000000000000000021e-02 1.000000000000000021e-02 1.000000000000000021e-02 1.000000000000000021e-02 1.000000000000000021e-02 1.000000000000000021e-02 1.000000000000000021e-02 1.000000000000000021e-02 1.000000000000000021e-02 1.000000000000000021e-02 1.000000000000000021e-02 1.000000000000000021e-02 1.000000000000000021e-02 1.000000000000000021e-02 1.000000000000000021e-02 1.000000000000000021e-02 1.000000000000000021e-02 1.000000000000000021e-02 1.000000000000000021e-02 1.000000000000000021e-02 1.000000000000000021e-02 1.000000000000000021e-02 1.000000000000000021e-02 1.000000000000000021e-02 1.000000000000000021e-02 1.000000000000000021e-02 1.000000000000000021e-02 1.000000000000000021e-02 1.000000000000000021e-02 1.000000000000000021e-02 1.000000000000000021e-02 1.000000000000000021e-02 1.000000000000000021e-02 1.000000000000000021e-02 1.000000000000000021e-02 1.000000000000000021e-02 1.000000000000000021e-02 1.000000000000000021e-02 1.000000000000000021e-02 1.000000000000000021e-02 1.000000000000000021e-02 1.000000000000000021e-02 1.000000000000000021e-02 1.000000000000000021e-02 1.000000000000000021e-02 1.000000000000000021e-02 1.000000000000000021e-02 1.000000000000000021e-02 1.000000000000000021e-02 1.000000000000000021e-02 1.000000000000000021e-02 1.000000000000000021e-02 1.000000000000000021e-02 1.000000000000000021e-02 1.000000000000000021e-02 1.000000000000000021e-02 1.000000000000000021e-02 1.000000000000000021e-02 1.000000000000000021e-02 1.000000000000000021e-02 1.000000000000000021e-02 1.000000000000000021e-02 1.000000000000000021e-02 1.000000000000000021e-02 1.000000000000000021e-02 1.000000000000000021e-02 1.000000000000000021e-02 1.000000000000000021e-02 1.000000000000000021e-02 1.000000000000000021e-02 1.000000000000000021e-02 1.000000000000000021e-02 1.000000000000000021e-02 1.000000000000000021e-02 1.000000000000000021e-02 1.000000000000000021e-02 1.000000000000000021e-02 1.000000000000000021e-02 1.000000000000000021e-02 1.000000000000000021e-02 1.000000000000000021e-02 1.000000000000000021e-02 1.000000000000000021e-02 1.000000000000000021e-02 1.000000000000000021e-02 1.000000000000000021e-02 1.000000000000000021e-02 1.000000000000000021e-02 1.000000000000000021e-02 1.000000000000000021e-02 1.000000000000000021e-02 1.000000000000000021e-02 1.000000000000000021e-02 1.000000000000000021e-02 1.000000000000000021e-02 1.000000000000000021e-02 1.000000000000000021e-02 1.000000000000000021e-02 1.000000000000000021e-02 1.000000000000000021e-02 1.000000000000000021e-02 1.000000000000000021e-02 1.000000000000000021e-02 1.000000000000000021e-02 1.000000000000000021e-02 1.000000000000000021e-02 1.000000000000000021e-02 1.000000000000000021e-02 1.000000000000000021e-02 1.000000000000000021e-02 1.000000000000000021e-02 1.000000000000000021e-02 1.000000000000000021e-02 1.000000000000000021e-02 1.000000000000000021e-02 1.000000000000000021e-02 1.000000000000000021e-02 1.000000000000000021e-02 1.000000000000000021e-02 1.000000000000000021e-02 1.000000000000000021e-02 1.000000000000000021e-02 1.000000000000000021e-02 1.000000000000000021e-02 1.000000000000000021e-02 1.000000000000000021e-02 1.000000000000000021e-02 1.000000000000000021e-02 1.000000000000000021e-02 1.000000000000000021e-02 1.000000000000000021e-02 1.000000000000000021e-02 1.000000000000000021e-02 1.000000000000000021e-02 1.000000000000000021e-02 1.000000000000000021e-02 1.000000000000000021e-02 1.000000000000000021e-02 1.000000000000000021e-02 1.000000000000000021e-02 1.000000000000000021e-02 1.000000000000000021e-02 1.000000000000000021e-02 1.000000000000000021e-02 1.000000000000000021e-02 1.000000000000000021e-02 1.000000000000000021e-02 1.000000000000000021e-02 1.000000000000000021e-02 1.000000000000000021e-02 1.000000000000000021e-02 1.000000000000000021e-02 1.000000000000000021e-02 1.000000000000000021e-02 1.000000000000000021e-02 1.000000000000000021e-02 1.000000000000000021e-02 1.000000000000000021e-02 1.000000000000000021e-02 1.000000000000000021e-02 1.000000000000000021e-02 1.000000000000000021e-02 1.000000000000000021e-02 1.000000000000000021e-02 1.000000000000000021e-02 1.000000000000000021e-02 1.000000000000000021e-02 1.000000000000000021e-02 1.000000000000000021e-02 1.000000000000000021e-02 1.000000000000000021e-02 1.000000000000000021e-02 1.000000000000000021e-02 1.000000000000000021e-02 1.000000000000000021e-02 1.000000000000000021e-02 1.000000000000000021e-02 1.000000000000000021e-02 1.000000000000000021e-02 1.000000000000000021e-02 1.000000000000000021e-02 1.000000000000000021e-02 1.000000000000000021e-02 1.000000000000000021e-02 1.000000000000000021e-02 1.000000000000000021e-02 1.000000000000000021e-02 1.000000000000000021e-02 1.000000000000000021e-02 1.000000000000000021e-02 1.000000000000000021e-02 1.000000000000000021e-02 1.000000000000000021e-02 1.000000000000000021e-02 1.000000000000000021e-02 1.000000000000000021e-02 1.000000000000000021e-02 1.000000000000000021e-02 1.000000000000000021e-02 1.000000000000000021e-02 1.000000000000000021e-02 1.000000000000000021e-02 1.000000000000000021e-02 1.000000000000000021e-02 1.000000000000000021e-02 1.000000000000000021e-02 1.000000000000000021e-02 1.000000000000000021e-02 1.000000000000000021e-02 1.000000000000000021e-02 1.000000000000000021e-02 1.000000000000000021e-02 1.000000000000000021e-02 1.000000000000000021e-02 1.000000000000000021e-02 1.000000000000000021e-02 1.000000000000000021e-02 1.000000000000000021e-02 1.000000000000000021e-02 1.000000000000000021e-02 1.000000000000000021e-02 1.000000000000000021e-02 1.000000000000000021e-02 1.000000000000000021e-02 1.000000000000000021e-02 1.000000000000000021e-02 1.000000000000000021e-02 1.000000000000000021e-02 1.000000000000000021e-02 1.000000000000000021e-02 1.000000000000000021e-02 1.000000000000000021e-02 1.000000000000000021e-02 1.000000000000000021e-02 1.000000000000000021e-02 1.000000000000000021e-02 1.000000000000000021e-02 1.000000000000000021e-02 1.000000000000000021e-02 1.000000000000000021e-02 1.000000000000000021e-02 1.000000000000000021e-02 1.000000000000000021e-02 1.000000000000000021e-02 1.000000000000000021e-02 1.000000000000000021e-02 1.000000000000000021e-02 1.000000000000000021e-02 1.000000000000000021e-02 1.000000000000000021e-02 1.000000000000000021e-02 1.000000000000000021e-02 1.000000000000000021e-02 1.000000000000000021e-02 1.000000000000000021e-02 1.000000000000000021e-02 1.000000000000000021e-02 1.000000000000000021e-02 1.000000000000000021e-02 1.000000000000000021e-02 1.000000000000000021e-02 1.000000000000000021e-02 1.000000000000000021e-02 1.000000000000000021e-02 1.000000000000000021e-02 1.000000000000000021e-02 1.000000000000000021e-02 1.000000000000000021e-02 1.000000000000000021e-02 1.000000000000000021e-02 1.000000000000000021e-02 1.000000000000000021e-02 1.000000000000000021e-02 1.000000000000000021e-02 1.000000000000000021e-02 1.000000000000000021e-02 1.000000000000000021e-02 1.000000000000000021e-02 1.000000000000000021e-02 1.000000000000000021e-02 1.000000000000000021e-02 1.000000000000000021e-02 1.000000000000000021e-02 1.000000000000000021e-02 1.000000000000000021e-02 1.000000000000000021e-02 1.000000000000000021e-02 1.000000000000000021e-02 1.000000000000000021e-02 1.000000000000000021e-02 1.000000000000000021e-02 1.000000000000000021e-02 1.000000000000000021e-02 1.000000000000000021e-02 1.000000000000000021e-02 1.000000000000000021e-02 1.000000000000000021e-02 1.000000000000000021e-02 1.000000000000000021e-02 1.000000000000000021e-02 1.000000000000000021e-02 1.000000000000000021e-02 1.000000000000000021e-02 1.000000000000000021e-02 1.000000000000000021e-02 1.000000000000000021e-02 1.000000000000000021e-02 1.000000000000000021e-02 1.000000000000000021e-02 1.000000000000000021e-02 1.000000000000000021e-02 1.000000000000000021e-02 1.000000000000000021e-02 1.000000000000000021e-02 1.000000000000000021e-02 1.000000000000000021e-02 1.000000000000000021e-02 1.000000000000000021e-02 1.000000000000000021e-02 1.000000000000000021e-02 1.000000000000000021e-02 1.000000000000000021e-02 1.000000000000000021e-02 1.000000000000000021e-02 1.000000000000000021e-02 1.000000000000000021e-02 1.000000000000000021e-02 1.000000000000000021e-02 1.000000000000000021e-02 1.000000000000000021e-02 1.000000000000000021e-02 1.000000000000000021e-02 1.000000000000000021e-02 1.000000000000000021e-02 1.000000000000000021e-02 1.000000000000000021e-02 1.000000000000000021e-02 1.000000000000000021e-02 1.000000000000000021e-02 1.000000000000000021e-02 1.000000000000000021e-02 1.000000000000000021e-02 1.000000000000000021e-02 1.000000000000000021e-02 1.000000000000000021e-02 1.000000000000000021e-02 1.000000000000000021e-02 1.000000000000000021e-02 1.000000000000000021e-02 1.000000000000000021e-02 1.000000000000000021e-02 1.000000000000000021e-02 1.000000000000000021e-02 1.000000000000000021e-02 1.000000000000000021e-02 1.000000000000000021e-02 1.000000000000000021e-02 1.000000000000000021e-02 1.000000000000000021e-02 1.000000000000000021e-02 1.000000000000000021e-02 1.000000000000000021e-02 1.000000000000000021e-02 1.000000000000000021e-02 1.000000000000000021e-02 1.000000000000000021e-02 1.000000000000000021e-02 1.000000000000000021e-02 1.000000000000000021e-02 1.000000000000000021e-02 1.000000000000000021e-02 1.000000000000000021e-02 1.000000000000000021e-02 1.000000000000000021e-02 1.000000000000000021e-02 1.000000000000000021e-02 1.000000000000000021e-02 1.000000000000000021e-02 1.000000000000000021e-02 1.000000000000000021e-02 1.000000000000000021e-02 1.000000000000000021e-02 1.000000000000000021e-02 1.000000000000000021e-02 1.000000000000000021e-02 1.000000000000000021e-02 1.000000000000000021e-02 1.000000000000000021e-02 1.000000000000000021e-02 1.000000000000000021e-02 1.000000000000000021e-02 1.000000000000000021e-02 1.000000000000000021e-02 1.000000000000000021e-02 1.000000000000000021e-02 1.000000000000000021e-02 1.000000000000000021e-02 1.000000000000000021e-02 1.000000000000000021e-02 1.000000000000000021e-02 1.000000000000000021e-02 1.000000000000000021e-02 1.000000000000000021e-02 1.000000000000000021e-02 1.000000000000000021e-02 1.000000000000000021e-02 1.000000000000000021e-02 1.000000000000000021e-02 1.000000000000000021e-02 1.000000000000000021e-02 1.000000000000000021e-02 1.000000000000000021e-02 1.000000000000000021e-02 1.000000000000000021e-02 1.000000000000000021e-02 1.000000000000000021e-02 1.000000000000000021e-02 1.000000000000000021e-02 1.000000000000000021e-02 1.000000000000000021e-02 1.000000000000000021e-02 1.000000000000000021e-02 1.000000000000000021e-02 1.000000000000000021e-02 1.000000000000000021e-02 1.000000000000000021e-02 1.000000000000000021e-02 1.000000000000000021e-02 1.000000000000000021e-02 1.000000000000000021e-02 1.000000000000000021e-02 1.000000000000000021e-02 1.000000000000000021e-02 1.000000000000000021e-02 1.000000000000000021e-02 1.000000000000000021e-02 1.000000000000000021e-02 1.000000000000000021e-02 1.000000000000000021e-02 1.000000000000000021e-02 1.000000000000000021e-02 1.000000000000000021e-02 1.000000000000000021e-02 1.000000000000000021e-02 1.000000000000000021e-02 1.000000000000000021e-02 1.000000000000000021e-02 1.000000000000000021e-02 1.000000000000000021e-02 1.000000000000000021e-02 1.000000000000000021e-02 1.000000000000000021e-02 1.000000000000000021e-02 1.000000000000000021e-02 1.000000000000000021e-02 1.000000000000000021e-02 1.000000000000000021e-02 1.000000000000000021e-02 1.000000000000000021e-02 1.000000000000000021e-02 1.000000000000000021e-02 1.000000000000000021e-02 1.000000000000000021e-02 1.000000000000000021e-02 1.000000000000000021e-02 1.000000000000000021e-02 1.000000000000000021e-02 1.000000000000000021e-02 1.000000000000000021e-02 1.000000000000000021e-02 1.000000000000000021e-02 1.000000000000000021e-02 1.000000000000000021e-02 1.000000000000000021e-02 1.000000000000000021e-02 1.000000000000000021e-02 1.000000000000000021e-02 1.000000000000000021e-02 1.000000000000000021e-02 1.000000000000000021e-02 1.000000000000000021e-02 1.000000000000000021e-02 1.000000000000000021e-02 1.000000000000000021e-02 1.000000000000000021e-02 1.000000000000000021e-02 1.000000000000000021e-02 1.000000000000000021e-02 1.000000000000000021e-02 1.000000000000000021e-02 1.000000000000000021e-02 1.000000000000000021e-02 1.000000000000000021e-02 1.000000000000000021e-02 1.000000000000000021e-02 1.000000000000000021e-02 1.000000000000000021e-02 1.000000000000000021e-02 1.000000000000000021e-02 1.000000000000000021e-02 1.000000000000000021e-02 1.000000000000000021e-02 1.000000000000000021e-02 1.000000000000000021e-02 1.000000000000000021e-02 1.000000000000000021e-02 1.000000000000000021e-02 1.000000000000000021e-02 1.000000000000000021e-02 1.000000000000000021e-02 1.000000000000000021e-02 1.000000000000000021e-02 1.000000000000000021e-02 1.000000000000000021e-02 1.000000000000000021e-02 1.000000000000000021e-02 1.000000000000000021e-02 1.000000000000000021e-02 1.000000000000000021e-02 1.000000000000000021e-02 1.000000000000000021e-02 1.000000000000000021e-02 1.000000000000000021e-02 1.000000000000000021e-02 1.000000000000000021e-02 1.000000000000000021e-02 1.000000000000000021e-02 1.000000000000000021e-02 1.000000000000000021e-02 1.000000000000000021e-02 1.000000000000000021e-02 1.000000000000000021e-02 1.000000000000000021e-02 1.000000000000000021e-02 1.000000000000000021e-02 1.000000000000000021e-02 1.000000000000000021e-02 1.000000000000000021e-02 1.000000000000000021e-02 1.000000000000000021e-02 1.000000000000000021e-02 1.000000000000000021e-02 1.000000000000000021e-02 1.000000000000000021e-02 1.000000000000000021e-02 1.000000000000000021e-02 1.000000000000000021e-02 1.000000000000000021e-02 1.000000000000000021e-02 1.000000000000000021e-02 1.000000000000000021e-02 1.000000000000000021e-02 1.000000000000000021e-02 1.000000000000000021e-02 1.000000000000000021e-02 1.000000000000000021e-02 1.000000000000000021e-02 1.000000000000000021e-02 1.000000000000000021e-02 1.000000000000000021e-02 1.000000000000000021e-02 1.000000000000000021e-02 1.000000000000000021e-02 1.000000000000000021e-02 1.000000000000000021e-02 1.000000000000000021e-02 1.000000000000000021e-02 1.000000000000000021e-02 1.000000000000000021e-02 1.000000000000000021e-02 1.000000000000000021e-02 1.000000000000000021e-02 1.000000000000000021e-02 1.000000000000000021e-02 1.000000000000000021e-02 1.000000000000000021e-02 1.000000000000000021e-02 1.000000000000000021e-02 1.000000000000000021e-02 1.000000000000000021e-02 1.000000000000000021e-02 1.000000000000000021e-02 1.000000000000000021e-02 1.000000000000000021e-02 1.000000000000000021e-02 1.000000000000000021e-02 1.000000000000000021e-02 1.000000000000000021e-02 1.000000000000000021e-02 1.000000000000000021e-02 1.000000000000000021e-02 1.000000000000000021e-02 1.000000000000000021e-02 1.000000000000000021e-02 1.000000000000000021e-02 1.000000000000000021e-02 1.000000000000000021e-02 1.000000000000000021e-02 1.000000000000000021e-02 1.000000000000000021e-02 1.000000000000000021e-02 1.000000000000000021e-02 1.000000000000000021e-02 1.000000000000000021e-02 1.000000000000000021e-02 1.000000000000000021e-02 1.000000000000000021e-02 1.000000000000000021e-02 1.000000000000000021e-02 1.000000000000000021e-02 1.000000000000000021e-02 1.000000000000000021e-02 1.000000000000000021e-02 1.000000000000000021e-02 1.000000000000000021e-02 1.000000000000000021e-02 1.000000000000000021e-02 1.000000000000000021e-02 1.000000000000000021e-02 1.000000000000000021e-02 1.000000000000000021e-02 1.000000000000000021e-02 1.000000000000000021e-02 1.000000000000000021e-02 1.000000000000000021e-02 1.000000000000000021e-02 1.000000000000000021e-02 1.000000000000000021e-02 1.000000000000000021e-02 1.000000000000000021e-02 1.000000000000000021e-02 1.000000000000000021e-02 1.000000000000000021e-02 1.000000000000000021e-02 1.000000000000000021e-02 1.000000000000000021e-02 1.000000000000000021e-02 1.000000000000000021e-02 1.000000000000000021e-02 1.000000000000000021e-02 1.000000000000000021e-02 1.000000000000000021e-02 1.000000000000000021e-02 1.000000000000000021e-02 1.000000000000000021e-02 1.000000000000000021e-02 1.000000000000000021e-02 1.000000000000000021e-02 1.000000000000000021e-02 1.000000000000000021e-02 1.000000000000000021e-02 1.000000000000000021e-02 1.000000000000000021e-02 1.000000000000000021e-02 1.000000000000000021e-02 1.000000000000000021e-02 1.000000000000000021e-02 1.000000000000000021e-02 1.000000000000000021e-02 1.000000000000000021e-02 1.000000000000000021e-02 1.000000000000000021e-02 1.000000000000000021e-02 1.000000000000000021e-02 1.000000000000000021e-02 1.000000000000000021e-02 1.000000000000000021e-02 1.000000000000000021e-02 1.000000000000000021e-02 1.000000000000000021e-02 1.000000000000000021e-02 1.000000000000000021e-02 1.000000000000000021e-02 1.000000000000000021e-02 1.000000000000000021e-02 1.000000000000000021e-02 1.000000000000000021e-02 1.000000000000000021e-02 1.000000000000000021e-02 1.000000000000000021e-02 1.000000000000000021e-02 1.000000000000000021e-02 1.000000000000000021e-02 1.000000000000000021e-02 1.000000000000000021e-02 1.000000000000000021e-02 1.000000000000000021e-02 1.000000000000000021e-02 1.000000000000000021e-02 1.000000000000000021e-02 1.000000000000000021e-02 1.000000000000000021e-02 1.000000000000000021e-02 1.000000000000000021e-02 1.000000000000000021e-02 1.000000000000000021e-02 1.000000000000000021e-02 1.000000000000000021e-02 1.000000000000000021e-02 1.000000000000000021e-02 1.000000000000000021e-02 1.000000000000000021e-02 1.000000000000000021e-02 1.000000000000000021e-02 1.000000000000000021e-02 1.000000000000000021e-02 1.000000000000000021e-02 1.000000000000000021e-02 1.000000000000000021e-02 1.000000000000000021e-02 1.000000000000000021e-02 1.000000000000000021e-02 1.000000000000000021e-02 1.000000000000000021e-02 1.000000000000000021e-02 1.000000000000000021e-02 1.000000000000000021e-02 1.000000000000000021e-02 1.000000000000000021e-02 1.000000000000000021e-02 1.000000000000000021e-02 1.000000000000000021e-02 1.000000000000000021e-02 1.000000000000000021e-02 1.000000000000000021e-02 1.000000000000000021e-02 1.000000000000000021e-02 1.000000000000000021e-02 1.000000000000000021e-02 1.000000000000000021e-02 1.000000000000000021e-02 1.000000000000000021e-02 1.000000000000000021e-02 1.000000000000000021e-02 1.000000000000000021e-02 1.000000000000000021e-02 1.000000000000000021e-02 1.000000000000000021e-02 1.000000000000000021e-02 1.000000000000000021e-02 1.000000000000000021e-02 1.000000000000000021e-02 1.000000000000000021e-02 1.000000000000000021e-02 1.000000000000000021e-02 1.000000000000000021e-02 1.000000000000000021e-02 1.000000000000000021e-02 1.000000000000000021e-02 1.000000000000000021e-02 1.000000000000000021e-02 1.000000000000000021e-02 1.000000000000000021e-02 1.000000000000000021e-02 1.000000000000000021e-02 1.000000000000000021e-02 1.000000000000000021e-02 1.000000000000000021e-02 1.000000000000000021e-02 1.000000000000000021e-02 1.000000000000000021e-02 1.000000000000000021e-02 1.000000000000000021e-02 1.000000000000000021e-02 1.000000000000000021e-02 1.000000000000000021e-02 1.000000000000000021e-02 1.000000000000000021e-02 1.000000000000000021e-02 1.000000000000000021e-02 1.000000000000000021e-02 1.000000000000000021e-02 1.000000000000000021e-02 1.000000000000000021e-02 1.000000000000000021e-02 1.000000000000000021e-02 1.000000000000000021e-02 1.000000000000000021e-02 1.000000000000000021e-02 1.000000000000000021e-02 1.000000000000000021e-02 1.000000000000000021e-02 1.000000000000000021e-02 1.000000000000000021e-02 1.000000000000000021e-02 1.000000000000000021e-02 1.000000000000000021e-02 1.000000000000000021e-02 1.000000000000000021e-02 1.000000000000000021e-02 1.000000000000000021e-02 1.000000000000000021e-02 1.000000000000000021e-02 1.000000000000000021e-02 1.000000000000000021e-02 1.000000000000000021e-02 1.000000000000000021e-02 1.000000000000000021e-02 1.000000000000000021e-02 1.000000000000000021e-02 1.000000000000000021e-02 1.000000000000000021e-02 1.000000000000000021e-02 1.000000000000000021e-02 1.000000000000000021e-02 1.000000000000000021e-02 1.000000000000000021e-02 1.000000000000000021e-02 1.000000000000000021e-02 1.000000000000000021e-02 1.000000000000000021e-02 1.000000000000000021e-02 1.000000000000000021e-02 1.000000000000000021e-02 1.000000000000000021e-02 1.000000000000000021e-02 1.000000000000000021e-02 1.000000000000000021e-02 1.000000000000000021e-02 1.000000000000000021e-02 1.000000000000000021e-02 1.000000000000000021e-02 1.000000000000000021e-02 1.000000000000000021e-02 1.000000000000000021e-02 1.000000000000000021e-02 1.000000000000000021e-02 1.000000000000000021e-02 1.000000000000000021e-02 1.000000000000000021e-02 1.000000000000000021e-02 1.000000000000000021e-02 1.000000000000000021e-02 1.000000000000000021e-02 1.000000000000000021e-02 1.000000000000000021e-02 1.000000000000000021e-02 1.000000000000000021e-02 1.000000000000000021e-02 1.000000000000000021e-02 1.000000000000000021e-02 1.000000000000000021e-02 1.000000000000000021e-02 1.000000000000000021e-02 1.000000000000000021e-02 1.000000000000000021e-02 1.000000000000000021e-02 1.000000000000000021e-02 1.000000000000000021e-02 1.000000000000000021e-02 1.000000000000000021e-02 1.000000000000000021e-02 1.000000000000000021e-02 1.000000000000000021e-02 1.000000000000000021e-02 1.000000000000000021e-02 1.000000000000000021e-02 1.000000000000000021e-02 1.000000000000000021e-02 1.000000000000000021e-02 1.000000000000000021e-02 1.000000000000000021e-02 1.000000000000000021e-02 1.000000000000000021e-02 1.000000000000000021e-02 1.000000000000000021e-02 1.000000000000000021e-02 1.000000000000000021e-02 1.000000000000000021e-02 1.000000000000000021e-02 1.000000000000000021e-02 1.000000000000000021e-02 1.000000000000000021e-02 1.000000000000000021e-02 1.000000000000000021e-02 1.000000000000000021e-02 1.000000000000000021e-02 1.000000000000000021e-02 1.000000000000000021e-02 1.000000000000000021e-02 1.000000000000000021e-02 1.000000000000000021e-02 1.000000000000000021e-02 1.000000000000000021e-02 1.000000000000000021e-02 1.000000000000000021e-02 1.000000000000000021e-02 1.000000000000000021e-02 1.000000000000000021e-02 1.000000000000000021e-02 1.000000000000000021e-02 1.000000000000000021e-02 1.000000000000000021e-02 1.000000000000000021e-02 1.000000000000000021e-02 1.000000000000000021e-02 1.000000000000000021e-02 1.000000000000000021e-02 1.000000000000000021e-02 1.000000000000000021e-02 1.000000000000000021e-02 1.000000000000000021e-02 1.000000000000000021e-02 1.000000000000000021e-02 1.000000000000000021e-02 1.000000000000000021e-02 1.000000000000000021e-02 1.000000000000000021e-02 1.000000000000000021e-02 1.000000000000000021e-02 1.000000000000000021e-02 1.000000000000000021e-02 1.000000000000000021e-02 1.000000000000000021e-02 1.000000000000000021e-02 1.000000000000000021e-02 1.000000000000000021e-02 1.000000000000000021e-02 1.000000000000000021e-02 1.000000000000000021e-02 1.000000000000000021e-02 1.000000000000000021e-02 1.000000000000000021e-02 1.000000000000000021e-02 1.000000000000000021e-02 1.000000000000000021e-02 1.000000000000000021e-02 1.000000000000000021e-02 1.000000000000000021e-02 1.000000000000000021e-02 1.000000000000000021e-02 1.000000000000000021e-02 1.000000000000000021e-02 1.000000000000000021e-02 1.000000000000000021e-02
-1.093123805183664956e+02 1.662287182896655793e+02 3.852206727268580266e+01 -8.654025907525531025e+00 -8.610762751220993039e+01 -1.311997581987436945e+01 -2.037590023160706778e+02 6.863880626554366149e-01 -8.300574681514542874e+01 -1.382829848957583074e+01 -1.944572685746918594e+01 6.407173155786457741e+00 -1.746598708760962015e+00 1.644264064436713397e+02 8.293003264637179939e+01 -3.802849057454820070e+01 -5.176755339998189953e+01 7.763124116448697976e+01 3.217144269221753916e+01 -2.487145717720727234e+01 -7.726126608232374338e+01 -7.231710151312564960e+01 -1.352063050306493430e+01 2.835462646800960584e+01 -1.910154228365442179e+02 -9.674507919931977540e+01 -2.557085584773706444e+01 1.975886271629476312e+02 6.934811487482572545e+01 7.521235531820670417e+01 7.869500500760332784e+01 1.158175088768219840e+00 -7.770740820159763018e+01 2.033367772277879340e+02 -2.399915187290048380e+02 5.768919072076946009e+01 -1.177160667502927822e+02 -3.399656719324939758e+01 3.956375174285184038e+00 1.241883444989059200e+02 -1.204410064361090633e+02 -1.335985223144229295e+01 7.579994486588621783e+01 1.701504385977628999e+02 6.991697367333111401e+01 -6.702653806820086402e+01 4.036977236247107470e+01 -2.782777307200823813e+01 -6.474831034228384397e+01 1.534682093032773480e+02 -6.911596892727988006e+01 -5.106158906248023754e+01 -1.365920798518543506e+02 5.680697121748777612e+00 -4.951939845538797869e+01 3.790618409409332656e+01 -8.696810846794177507e+01 -4.905826026596741940e+01 -9.939617709543388457e+01 -1.523703573475194446e+02 1.904590763866502812e+01 4.448818354172684764e+01 -1.206898486638165338e+02 1.259765414392363247e+01 -7.770187656620011296e+01 4.815053049805905516e+01 1.633622141472069416e+02 -1.414198205443167069e+02 -4.244221500587944718e+01 7.069625532543068580e+00 2.878249934262198106e+00 4.155110750090027949e+01 8.232313480860136679e+01 8.121349492351424004e-01 -8.649484041648607402e+00 -6.863232536419165797e+01 7.670636705170336711e+01 -3.209021914659428631e+01 2.578520556413844034e+01 1.019706298713930721e+02 8.646541508880450522e+01 -4.192295033192302611e+01 5.663381038998827677e+01 1.445236983992750766e+02 1.139242426883593424e+02 -3.925763838615535128e+00 1.707589715834689628e+02 -1.093280121020596880e+02 4.096307997414893265e+00 -4.111248792532352070e+01 2.027479755681881670e+02 -2.080542926340588394e+01 2.837182662838184655e+00 -7.527120577398844148e+01 -7.005365820769967833e+00 -6.256801315021690613e+01 6.644715714251198335e+01 -9.269573656686576157e+01 6.726343859622160437e+01 -4.682338833579367332e+01 -4.877097688394104580e+01 -8.986110338782715701e+01 5.202544516200893554e+01 -5.361538052365227003e+01 -1.463899629866459122e+02 -7.789257141002153162e+01 -1.025477041287192179e+02 -1.541325787501410218e+02 1.332543894188146965e+02 -2.692236833429819853e+01 3.141015475976614013e+01 8.790202283595240829e+01 -1.020009320632243686e+02 5.583246910654036554e+01 -4.246483598981861718e+01 -6.801877663381326045e+01 -8.834734268492064757e+01 1.992266745261275673e+02 -5.562231805572693588e+01 -4.853866136557112299e+01 -4.625270868425516824e+01 7.881466932687825988e+01 -4.060377295111075568e+01 1.352536271534736159e+02 -4.893111892331199186e+01 5.403938496922326351e+01 4.453671005029104180e+00 -7.950376614567225886e+01 6.743824987158315309e+01 2.719463543640183616e+02 -9.024806918908785747e+01 4.654516609197363408e+01 -7.477158255402186171e+01 4.435760711623093044e+01 1.286383628935053025e+02 -5.041311469982604621e+01 1.432623590449792950e+01 -2.641753126309957622e+01 -9.997409138459401845e+01 -1.700309869087652359e+01 4.216327967488929573e+00 -7.660823105251951759e+00 -1.465429524746709511e+01 1.159262497197871511e+02 1.278741647305358669e+02 1.828931678423992651e+02 -2.985287471851957548e+02 3.747401976740383844e+01 -1.546846990548720591e+01 -6.115750316206095505e+01 1.769310281044669466e+02 7.472162816000060559e+01 -2.559630224538194110e+00 -1.137620124807081794e+02 -1.067945587677497876e+01 9.822049115281744491e+01 -1.318629537967261172e+02 -1.654754871523020086e+02 1.053782250314805680e+01 4.163474058779891607e+01 -5.990556884690137451e+01 4.126544652509883804e+01 -1.051117614938525691e+02 -1.485385790822893455e+02 2.070867419531888487e+01 4.769461948957878406e+01 4.732318849300217956e+00 -8.194357804366207176e+01 -9.190472986055763727e+01 -8.278263641412999618e+01 -8.599552214398418926e+01 1.243217521916473345e+01 5.582452653332265413e+01 1.144807504122990451e+02 7.804602802755644575e+01 8.797882564949433970e+01 1.056476014204971392e+02 -7.351829876719766332e+01 -8.111994594822324700e+01 6.934728343082133506e+01 6.740023845859838048e+01 5.826066762594294346e+01 -9.231965562319011553e+00 -8.961395701016658677e+01 5.313747011111153284e+01 -1.762578266775897760e+02 6.613815751775203466e+01 -4.383871799343923215e+01 -9.497083064931939589e+01 7.310204306682936704e+01 -1.690434486747366094e+01 -7.598545829460766754e+01 -5.661910909438412887e+01 -9.037101317795677602e+00 2.393104139296691528e+02 7.584906908090988509e+01 5.409986411778876914e+01 -1.024855443384821712e+02 1.463274018440703514e+02 1.050357582501998621e+00 -8.921731934843185741e+01 1.538700417281817749e+02 -1.522343000751818352e+02 1.558574239468496003e+01 -3.213358848559862935e+01 -2.195406076725423361e+02 -1.332146931198204527e+02 -8.712923347440514021e+01 -2.933047437406515101e+01 -1.190840779034638786e+02 5.758037352539273712e+01 6.492542609825102318e+01 -2.756553276739230185e+01 -9.965907145581016380e+01 1.129724577767975688e+02 1.180551954586337331e+02 4.616481549283324881e+01 1.748001922294393395e+01 2.612008620287015219e+02 4.362695829392919222e+01 -1.194201294639762381e+02 -4.505378373670951220e+01 -1.687664146818503355e+02 3.186238087887916137e+01 1.532560614929335827e+02 -1.482877415360886175e+02 1.317241401785726964e+02 -9.096509134470109359e+01 -1.892851554196572650e+01 -7.943781990174579866e-01 5.288615234940492371e+01 -1.158362999068883958e+01 -2.282430626623967385e+01 -1.884700740782698247e+01 -1.268103895224953561e+02 4.642632263562717299e+01 -3.036022962704317507e+01 -1.294493723053985335e+01 -1.072779098942210219e+01 2.261349107339073328e+02 1.743819154459699234e+02 2.328192845702378406e+02 1.319120222144721879e+02 -8.665058211873730443e+01 7.523274425291475609e+01 2.115976961572776460e+01 4.758623276405901947e+01 -3.972213058088320281e+01 2.556731076509314278e+02 -2.333903727055276534e+01 -1.368855380208023576e+02 -1.496143731386985820e+01 -4.589190899575618232e+01 -7.747696666000015853e+01 4.320816425515328518e+01 -1.172688141560377950e+01 1.821455550139031061e+02 9.247544476484769405e+01 4.093263631124373347e+01 9.813058772517081252e+01 9.472378151350866915e+01 -2.301916938420879788e+01 1.398369290374144782e+02 2.656109201225462257e+01 8.973875555423434491e+01 4.775400387771162514e+01 6.937754429002364276e+00 -1.159412944899976878e+02 -1.160505664271548625e+02 -9.018669616556827862e+01 -1.559218563341922703e+01 8.684260047483087419e+01 -3.068644382769720380e+01 9.905664559588404927e+01 4.389737881875463898e+01 -7.285043511536511573e+01 -3.000141499705750547e+01 -5.869050671308072964e+01 1.759856555658102906e+01 -4.638405714517606526e+01 -1.122407829658882150e+02 1.217284227594412869e+02 1.215589037157301817e+02 -7.910957256646319991e+01 5.420752667543410119e+00 -4.540496336339878525e+01 -3.263183608648230205e+01 -1.136154851076049788e+01 -3.129303483171201350e+01 4.456371419369339293e+01 -1.408070883883129056e+02 -5.294196998351086592e+01 -1.520996621931773234e+02 1.743731562963598662e+02 -2.022297078110573665e+01 5.899077918374214846e+01 1.192641500075129279e+01 1.445483142626267750e+02 4.465919240468453921e+01 3.573988264333883080e+01 1.544955594845826568e+02 -4.929668332756381233e+01 -9.768304563510197625e+01 2.721998664360437914e+01 -1.580806990618327461e+02 -5.342498340865576978e+01 1.023521964768476806e+02 -1.276208333187221626e+02 -3.636313614907878389e+01 9.129027764792660093e+01 -9.444865050983247556e+01 -8.945889993281424779e+01 -8.262262255850464499e+01 -6.377972188589210845e+01 2.490097130777201073e+02 1.981248803724248262e+02 1.029341306620931533e+02 -1.021435536767499883e+02 7.479608326947841590e+01 -6.614657679852842875e+01 -3.134961538233592648e+01 1.659959071738875380e+01 -3.222090615893012711e+01 -9.362981081235922431e+01 -2.783351503150747863e+00 1.474193307993185087e+01 1.086329781492462558e+02 -1.282767015932228389e+02 4.187498608163034675e+01 6.364180369994320330e+01 3.444628913643968104e+01 -9.041177604664179057e+01 -1.481724295225691606e+02 1.926729416633409073e+02 -1.775751911742081290e+01 2.511758555874076393e+01 1.561140741713263651e+02 2.658100117639771298e+01 2.764422697985935784e+01 -4.439700556237652052e+01 8.830199951406976311e+01 -1.358487058474336777e+02 -3.068545950422709012e+01 -6.114251444843332273e+00 -5.318992186600966221e+01 6.252025791066590621e+00 2.117853884219766414e+01 -3.564112852189717273e+01 1.360883735781458270e+01 2.128059644874675485e+02 -2.728030169567453100e+01 -2.787423251711736683e+01 -1.012026287405378326e+02 -1.632230161432679960e+00 -8.037001504774704586e+01 6.351790843840483092e+00 1.115553275162915412e+02 -5.177404387153676169e+01 6.014176560842174446e+00 -5.404529779102927023e+01 3.301588206393985647e+00 8.676597051752301581e+01 -1.152728985423407551e+02 -9.634801685974504437e+01 -1.020610478638185441e+02 7.099636546496334688e+01 8.611613358557070796e+01 -9.177293303984168915e+01 6.231348089424628256e+01 2.569933419108867056e+01 3.848704046936963152e+01 -1.765304542582413916e+01 9.087608664010267034e+01 7.928504845527460532e+01 -7.684853457107325880e+01 1.174647369560313592e+01 8.044764655687868071e+01 7.245591956849490600e+01 -1.979661790182124648e+01 2.483316102500354461e+01 -1.318789833322931031e+02 4.827137857581606539e+01 -3.260066917585225355e+01 -3.249937535099569885e+01 1.722417894323977237e+02 4.716415366359975536e+01 1.195458824609987403e+02 1.899236315892019320e+02 -1.369259891096725426e+02 1.482727137440350589e+02 -6.308865904522719603e+01 -1.344013060396631545e+02 8.186370890311285109e+01 -1.333197954802653840e+02 -2.855461129879638804e+01 5.609272763741476808e+01 8.011829885213767710e+00 -1.672347522158281663e+02 8.379511527142125260e+01 2.509401517898633216e+01 6.870840846449117123e+01 3.609910390978225081e+01 9.416003998303395406e+00 -6.674420749326706925e+01 1.150736048147389283e+02 5.419023948845058669e+01 -6.177438858400328314e+01 -1.006815455202343799e+02 3.870366951794584054e+01 2.557123858250636772e+01 8.194265400853717551e+01 1.827619042040806789e+02 -2.448432650956169709e+01 -1.095435019415407254e+02 -8.422181889353436191e+01 -5.103096133970555570e+01 -4.409236699562026018e+01 -1.459006168799051011e+02 -2.239332151059690901e+01 1.287891997333765630e+02 7.411266327033325751e+01 -1.216786806187507750e+02 -1.490583161966931698e+02 -6.770268831584961333e+01 -7.589476826288489519e+01 1.459690214285169816e+02 -1.694979053434936418e+02 8.606845985050368597e+01 -4.580895542444479496e+00 -4.278906666310013662e+01 1.321626474562764031e+01 9.063002758724140051e+01 4.928102331219998433e+01 1.374124091243134274e+02 -1.582237912432483711e+02 -8.050422432950286122e+01 2.521916853921230128e+01 4.168780203600832834e+01 2.049311218156309735e+02 1.446197428595897918e+02 6.516300523391230115e+01 7.168577960864716658e+01 -3.390329880948935681e+01 1.509229058357439044e+02 -1.783164329340059453e+02 -6.304866832383493858e+01 -5.336864363970965286e+01 -5.149000247070015490e+01 -1.026596344868189306e+02 -1.490535926379772746e+01 -6.823093687314268152e+01 7.074856564788714763e+01 -9.094199820217546915e+00 -5.772681990177698452e+01 -6.187972107106307362e+01 1.791214459699641566e+02 5.867774342016069511e+01 -1.364596852212785016e+01 2.076430122788769097e+02 -1.077007911722852640e+02 -3.511797843340644931e+01 6.656159789288221873e+01 -1.343094964744778741e-01 1.487605968475648410e+01 -1.243510825319260249e+02 1.751218698597245407e+02 -4.866288845130002727e+01 -2.674775963715435623e+01 -1.090140805393190817e+02 1.250499295317602702e+02 9.524128474438157355e+01 -7.700845276463500966e+01 -3.736239827704407190e+01 3.869958597910350306e+01 -1.503735309715350468e+02 -1.781867752426536111e-01 -7.419414868617974435e+01 7.637540685633661397e+00 -1.073525553117686968e+02 -1.574225471059268955e+02 -7.018461246800463016e+01 1.471194722749900166e+02 5.614903749272647104e+01 -8.897729050739752665e+01 8.850699906178593324e+01 3.396365060393130619e+01 8.767006304342112344e+01 -4.179707470856489948e+01 -8.343077275298811912e+01 1.696999253074054081e+02 4.131323918893910019e+01 2.871782841828196808e+01 -7.240559032037374720e+01 -4.196829504264296418e+01 9.450300433091587848e+00 -7.110001578325716665e+00 -1.713930479342070043e+02 -3.432390204048573423e+01 6.386154597250992992e+01 1.106323363799600372e+02 1.543740473637812158e+02 -1.316439115289465533e+01 8.882450787496222233e+01 1.563128403010357204e+02 6.283445845352208181e+01 1.463497130501913261e+02 1.591463983970025176e+01 1.300571706216260566e+02 -8.313094600869487749e+01 5.281999119439429080e+01 2.902246769445851271e+01 7.508393165722381468e+01 -1.051059693940090511e+02 1.959532878437899512e+02 -1.273389311005222453e+02 8.734809488293845448e+01 -1.061990235456744216e+02 4.563766774340828647e+01 1.364709161599401988e+01 8.964087295779214060e+01 -7.278656488264735458e+01 -7.460616188361369439e+01 -1.101012994849613591e+01 8.799653678364060738e+01 -2.922145905011523581e+01 -1.609583159725830370e+01 -1.938083826261811993e+01 4.674705089343521358e+00 9.683212968595316283e+01 -6.170428933897755286e+01 -2.670486638293165793e+00 -1.909950103726074815e+02 1.201059075355524470e+02 -1.228844852046881613e+02 -7.269011540789918513e+01 -2.315242099417159949e+01 -1.062111331657973494e+02 -5.229754358666628633e+01 -5.763932789252489641e+01 -1.936852124220592586e+01 1.340402503461399704e+02 5.318580405868440408e+01 9.879266821158647360e+01 -1.338896259464801801e+02 -1.363243198235636839e+02 -2.819812101783172693e+02 1.005182818356227301e+02 1.025493663292138251e+02 4.162195164749559240e+01 -4.176763242838470802e+01 -3.658052287346932019e+01 -1.806858904848561451e+02 1.437346156116277598e+02 -1.056718406009862150e+02 1.052301014019377305e+02 -1.566245824129524351e+02 -1.408531246264959158e+01 -5.448225949499056497e+01 -1.173346064599294607e+02 -4.535976503702809026e+01 -1.232532762854782327e+01 -9.118120413614146003e+01 -1.018130340097829674e+02 -1.216096273700511432e+01 7.004903913403087756e+01 -1.226228043914090193e+02 -1.540461948273515880e+01 -7.257424402359362148e+01 -1.293170694329346304e+02 6.514773537000404069e+00 9.361352570981273402e+01 1.629143319550740330e+02 -1.876134039607112669e+01 -4.532713361291202148e+01 -1.222241556993636777e+02 -1.610713715531764194e+02 1.021865648007213423e+02 -7.161785646464400656e+01 7.778403734806865089e+01 9.255950219354739161e+00 2.877933231953019799e+01 7.272254483995584451e+01 -8.347156315189477027e+01 8.143410216021912618e+01 1.135499522411111712e+02 1.551256883723808073e+02 -1.148037166330825585e+02 1.024083353992350709e+02 -4.707075800301525703e+01 -8.945481908168895302e+01 2.114170702923753993e+02 4.849774855754803582e+01 8.223742052563470395e+01 2.092295110095185962e+01 -6.231545871147715587e+01 -3.442034768230730180e+01 -2.072839928854218385e+02 1.040811877752770016e+02 8.029116178656276759e+01 -7.458324490899347836e+01 -7.204925367302872985e+01 1.430527946973423070e+02 9.957726645705426449e+01 5.036588483024387131e+01 7.495113605703465964e+01 -7.749001402335975897e+00 1.016735226675536410e+02 -1.020445838475146871e+02 1.836264760940803740e+02 -3.890229250251749704e+01 -1.202081425038497429e+02 -3.714072235392197285e+01 7.068767576419189425e+01 1.451687827836709346e+02 1.268524496182062045e+01 1.712687969793929312e+02 5.142509535878651405e+01 3.313546480094631619e+01 -1.096749226989605432e+02 4.413326822389514348e+01 -1.231685792456055850e+02 4.700892114248351561e+01 3.803170482302829214e+01 -1.215557763616004223e+02 -8.378990945344799002e+01 3.926664925709580700e+01 8.597350450183764536e+00 -2.287670547324373516e+01 4.126083920802047800e+01 -2.108745681716134257e+01 -6.216435216774770822e+01 -2.582193728910739594e+01 -2.210225529473690642e+01 -3.923801195326615954e+01 1.849331375006992317e+01 -7.933699459202895810e+01 1.171983033043244689e+02 -7.320175655803994630e+01 -4.170310761616179640e+00 6.462590308404011807e+01 3.825603446449533873e+00 1.572400096345247889e+01 1.573185981427718261e+01 -1.153989073443866431e+02 -4.345988655592233130e+00 6.409024392715413398e+01 -2.280224622371208625e+02 -8.362644178635902392e+01 -1.110413360626470620e+02 4.315030724625935221e+01 9.479573344269701352e+01 -9.040485911749951242e+01 -1.654028171490846830e+02 -1.824335010529899819e+02 1.966487830573038309e+01 -1.427643244466563601e+02 -6.229991790943977925e+00 1.453430681017020447e+02 -6.975042676813954401e+00 3.654596491204949871e+01 -9.727956665116590784e+01 7.850683642207609125e+01 -1.164954125167425616e+02 -1.515413864853612758e+01 -2.974889673376928911e+01 5.654046502744222380e+01 -8.689524968558716367e+00 1.036995107878222484e+02 -1.197604322122438134e+02 -4.912123974828334383e+01 8.493728187494514259e+01 6.484540015868951457e+01 -8.068600587254356071e+01 -5.331255982737295085e+01 -4.836766471110161802e+01 -2.834111872075344536e+02 1.894886899783151932e+02 7.447609444894077058e+01 -2.307666387819435627e+01 -2.903039959077108634e+01 4.062799042897897550e+01 -8.227378725877426291e+01 9.730850901767402661e+01 5.912178002558465550e+01 8.010159389687302678e+01 -8.217944097356675570e+01 -2.591354231406263153e+01 3.255749682114565502e+01 1.697832914962056350e+01 -4.184136691802234509e+01 1.542522745869854646e+02 -1.687877656167280094e+01 3.456958152912583415e+01 -2.244079228591868969e+02 -8.265369847058633468e+01 -7.140172320865305267e+01 2.247334517150569511e+01 1.065605278990710758e+02 -2.261584931033788735e+02 -1.825357152220364867e+02 2.162974253547916419e+02 -1.031117408069423291e+01 9.373108769605593693e+01 6.115177326756148801e+01 -5.401079147763728372e+01 -1.278298212832674494e+02 -9.285720281652736219e+01 -4.903622309591466433e+01 -3.651348788102897203e+01 -3.821119460903938858e+01 1.575472936041148664e+01 3.628756904598477462e+01 1.628076007914148420e+02 1.202493706257825039e+02 6.803181986085091282e+00 -4.294948139535615717e+00 -1.549145227586726321e+02 1.167524318832693950e+02 1.554456387084606774e+02 -1.009407514613991879e+02 7.193830100037592956e+01 1.679381741944178108e+00 5.359309343010727389e+01 1.223592548258124424e+02 6.922463534050932310e+01 -1.308002406549122156e+02 1.573691802639352133e+01 -2.867787030574400831e+01 1.087543976878492202e+01 -2.256618989280478260e+01 4.425369199411179721e+01 -2.543879931115505713e+02 1.768744117593969918e+02 7.107428221534338064e+00 1.556659788037643750e+02 -1.028741896248610033e+01 1.036968889337607465e+02 6.997415388389164548e+01 -4.101738418860990976e+01 2.924817419038433286e+01 -7.116704615921679533e+01 -8.698613602773775710e+01 -7.044164908839691464e+01 -3.134139824988998413e+01 4.417144056608137248e+01 1.077355891814995914e+02 2.785195346370651492e+01 6.079184307313452251e+01 -1.025555534271366156e+02 -1.341790997721167571e+02 -1.319397950540360753e+01 4.539463984330285484e+01 -4.449604144754902535e+01 9.257005260969943095e+01 5.436402509448910791e+01 -2.706060337044420550e+01 2.931634486465757305e+01 6.010094196620968887e+01 -7.059534771044076251e+01 -1.309381960225173316e+02 1.391227799232475775e+02 7.652209606664698072e+00 4.911391876422464264e+01 -1.462780283220895967e+02 -5.233379970249395541e+01 -4.356119680530670113e-01 -6.447482857838988934e+01 4.180176270482545142e+00 5.519350493999752416e+01 1.828286338242252782e+02 3.837652324496414735e+01 -1.075010908890587125e+01 7.086464840697004774e+01 -4.461515671181930998e+01 -1.069358405929526015e+02 -1.356170963796040780e+02 9.193426258087590952e+00 2.465228690564480374e+01 2.338879622797923474e+01 -5.585669714827592713e+01 1.186603372581124347e+02 -7.939647283991367033e+01 1.260673934021792064e+02 8.576976853934304756e+01 -6.391400225692117232e+01 -8.328344014056452238e+01 8.277282857854251574e+01 2.009421041960219867e+01 -5.163097142629563763e+01 -5.294322001533544864e+01 1.344692207049029378e+02 5.638539745419542015e+01 7.861097896526263185e+01 2.572511482512681269e+01 -4.138537585568832355e+01 1.057270600862455723e+02 -5.371001249987059367e+01 5.490759582836824970e-01 7.536300171623055633e+01 9.806366897401585447e+01 2.516241641841454282e+02 -1.725453200619762981e+02 1.585265350684788359e+02 -6.656474053855609441e+01 -1.500720488322184032e+01 -2.473702884250193890e+01 -2.043362082718724437e+01 -5.435237789163945621e+01 9.167564625707558434e+01 1.815138475516824883e+02 -1.171760651091118746e+02 3.052087063397831912e+01 -1.252490969181777984e+02 6.929669019769285399e+01 -4.392140254192956661e+01 -8.002547102469428353e+01 -5.325941686136081898e+01 4.071205871529976150e+01 1.915444812187109846e+01 -8.086262046538861625e+01 -1.395206744464379085e+02 2.054632626535358142e+01 1.559886521145166967e+02 1.414317647762338304e+01 1.806905126569418201e+02 7.387642159248767548e+00 1.333673938956891334e+02 -3.427633032035210192e+01 8.993536900850010340e+01 -7.082210888037747054e+01 -1.119568639088040669e+02 4.903129253603431437e+01 -5.754579526478695328e+01 -7.792546951265495636e+01 7.232931822274302647e+01 6.415780597494685544e+00 -9.361884041815157786e+01 -1.495512143832770278e+02 1.469553526097594158e+02 -8.861685527077624158e+01 -2.345989001603864921e+00 1.193959724619684266e+02 5.769611113837293459e+01 -9.768543090959974506e+01 1.058675198266197093e+01 2.806528097836680331e+02 5.305652742175802672e+01 -1.570176241970960120e+02 -4.751896260596673471e+01 -6.125554900112652490e+01 9.584537870085759081e+00 1.071647871458792167e+02 -1.031237316546331755e+02 2.150856231029161947e+01 1.300659685300667547e+02 1.871729585313374855e+01 -2.106513405867758024e+02 4.817689968147664814e+01 7.527960522373069807e+01 -1.355109337530582181e+01 3.270714658493395888e+01 1.585184798636594117e-01 2.247864842845559963e+01 2.766671734607658806e+01 1.155490339461813534e+02 9.780190374332953240e+01 1.555916235765043254e+01 1.486700569387283508e+02 -6.387109863934995957e+01 2.460826794293760145e+02 6.488885510403621026e+01 1.414038529136036288e+02 -2.192006667855510926e+01 8.988097852348255401e+01 -4.887217803391492055e+01 -1.460773628460898408e+02 2.612081030607502896e+01 9.483485225633980065e+01 -8.741405151133562867e+01 -1.045407139612233038e+02 -6.641336846575690345e+01 3.653936353911566925e+01 -1.139954446415141120e+02 7.457450107155510466e+01 2.800264138855633078e+01 -9.743703920518291284e+01 1.895880917999056692e+02 -1.174114454170592126e+01 -1.015855500907205737e+02 -1.337721415725612673e+01 -2.040025197587093686e+01 -1.399834332828328911e+02 -3.995772197287110572e+01 6.140476721206260891e+01 1.315651993873244692e+02 2.898517339975509088e+01 2.670740521867910644e+01 4.471394372304914810e+01 -3.567317365269925489e+01 -1.453684290602374460e+02 1.585069816512408281e+01 3.091989051410179812e+01 1.328959042303557112e+02 -9.893415659224974235e+00 -7.601091943614376589e+01 7.308786260694391501e+01 9.828602076557464429e-01 3.181265054516021706e+01 1.390292896087361783e+02 -1.772313759060025404e+02 -9.271553691293738098e+01 1.245444914751259944e+02 -2.093159457535295473e+02 -1.784340237239349563e+02 8.830388823006303767e+01 1.494114991647416275e+02 6.151842237683188586e+01 -4.332732202231004415e+00 1.511093348954694875e+02 -2.129803973364099079e+02 1.039663037448096929e+02 4.111715385194941774e+01 1.232926733956077925e+02 -1.829776420342473671e+02 1.033533737518229714e+02 -2.740917491654193228e+01 -1.297143101426894702e+02 -5.165253689227069067e+00 -8.964577468961452666e+01 -1.577412226417092533e+01 -4.193556797541083014e+00 -1.195262333034433198e+02 -1.196476255809448901e+02 -6.070693719418732570e+01 -1.250762016753557617e+02 1.950032212783276577e+02 -1.562857060563882214e+02 -4.868239405876072112e+01 1.674038918702281933e+02 3.291929588838117837e+01 -2.871797778641158061e+02 -1.233290102373695163e+02 3.445285089902988318e+01 5.302939016580526754e+01 8.310545704760624375e+00 -1.500043815887117375e+02 3.462389632683035501e+01 7.267600685412908490e+00 -7.211616443796087594e+01 1.966909335316850900e+02 1.965495884974336036e+02 4.212136795893218988e+00 -2.023329123468856494e+02 1.222320583456265126e+02 2.984239033999229562e+01 3.676116552249144576e+00 7.432109495278925237e+01 -2.013021788814268120e+02 -1.339150656645061019e+02 1.368267889295563577e+02 1.063838620017594252e+02 5.133829022689906196e+01 1.389327385487553670e+02 -1.729533906537843677e+02 -1.984367723350040791e+01 -1.265282551504577384e+02 4.233475665003988553e+01 -1.007759049699315028e+02 8.446796686159285628e+01 -3.289377340505876646e+01 1.201518424112764016e+01 1.721494113264297710e+02 2.767726489009848123e+01 -2.557164816606131694e+02 -1.226122060578257305e+02 -8.086286401151581060e+01 1.533956841142972110e+02 1.216439399367921581e+01 -5.225464349732186520e+01 2.944148366857775656e+01 6.063553127236532703e+01 -3.838181963439645017e+01 1.043077704929979177e+02 -9.773966632015340394e+01 4.774627955173966143e+01 1.085943395500512452e+02 -3.443323486646920628e+01 -9.519997985438172350e+01 -1.100617323042454103e+02 1.161907276179709640e+02 -4.819359966100157777e+01 1.906918230772581069e+02 5.549977797037758620e+01 1.076412084991480071e+02 1.789711973337649624e+02 8.302850910986235178e+00 -1.205927765161712131e+02 -1.608000227072809594e+02 -1.107709476082387283e+02 4.122847099946810800e+01
-1.289042826850562662e+01 -4.581076430243388842e+00 9.812937830292234764e+01 -2.170443690801625394e+02 1.472828745607529868e+02 6.017639980982033876e+01 1.441771583796275991e+02 -1.224001179851263714e+02 -2.626923189636011902e+00 -2.280507409791563234e+01 -2.079932875960593037e+02 3.100385997145779271e+01 -1.736068201224048835e+01 1.158989292075060007e+02 -1.185379865314375110e+02 5.847900755360296898e+01 1.187196663558734144e+02 -4.354358752153088830e+01 -4.701143813545390771e+01 -2.558896735875019246e+01 5.848631212771857690e+01 5.977425599650165111e+01 3.072929850073415992e+01 -2.203171656485081371e+02 -4.887563521717240178e+01 8.673299905207608163e+01 9.390526665849090904e+00 -9.826713963158773879e+00 -6.303402287481744537e+01 -1.467421081757116674e+01 6.948832428804904282e+01 -1.377693900860928693e+02 -5.868763090481604650e+01 8.505993221336511922e+00 1.966588014073493582e+02 2.009161816211248492e+02 -3.043349935559116659e+01 5.294905422050008070e+01 -2.507797719020207206e-01 -1.323105323759097871e+02 9.092888042310546837e+01 1.015892939459731110e+02 1.028087266202381471e+02 1.106652916905583339e+01 5.863098508681726173e+01 4.558941172475206116e+01 3.683484467497711279e+01 2.780817292065176005e+01 1.044808756105865797e+02 8.499110645959673604e+01 6.213433041143642299e+01 1.544171291533630495e+02 2.347369960526176840e+02 1.852947249538760843e+02 -5.602560978133662672e+01 4.667535792447981891e+01 -6.089063364740341910e+01 5.342883453461657695e+01 -1.820745947819613662e+02 5.352688890028966284e+01 -1.939811546303711509e+02 -1.598413309436317320e+02 1.226878985392970911e+01 -8.770603589672781197e+00 1.606072573212174746e+02 -1.970300821932435156e+02 7.131756313498338784e+01 2.177572716511550084e+02 -6.986292573107336423e+00 -1.845437849974744324e+02 3.367910315746497218e+01 1.868355651164706046e+02 -5.790034916826324007e+01 -2.525560991877375159e+02 -9.718567517506069464e+01 8.421974519554879635e+00 -2.180345142908794287e+02 3.039191982508365797e+01 -1.700734555466015649e+02 -1.758776036211654628e+02 -5.417789955286598058e+01 1.445077097996485236e+02 6.585511442989809439e+01 1.006330631750068960e+01 -8.406428927956486064e+01 -4.039572276768663528e+01 6.044370637635908849e+01 -2.201520809985048857e+02 5.131348747373947106e+01 -7.110207329766609519e+01 -7.411655288378160833e+01 -1.677206627964187078e+02 6.171018857287861437e+01 8.796380762038732826e+01 -1.540060019855924907e+02 1.639499815338230633e+02 -3.784556426985252386e+01 -1.605592117409827679e+01 8.315526868183339104e+01 1.483695242473397116e+02 2.062317337923676064e+01 1.437529763297159207e+02 -1.755649382633967193e+01 -8.609977574877432005e+01 -1.861449579605623583e+01 9.594442657751820036e+01 4.389733492731926390e+01 9.549127191904817380e+01 9.213375985780680821e+01 -8.110028788773320230e+01 -1.658633843427976444e+02 1.201199920038824303e+02 5.295459206266379937e+01 1.582953883997677735e+01 2.984766628122119414e+01 -6.631411753421944866e+01 9.375676856989977637e+01 8.773292882973370865e+01 -1.338857750280953951e+01 -6.957464768176467373e+01 2.999814180283779308e+01 6.134751517888536121e+00 -6.005786720824874436e+01 1.656092575365500750e+02 -3.209255448752067963e+01 1.187762892970490896e+02 -6.847373754065749552e+01 3.750045838938984843e+01 -3.525021716693378693e+01 8.742269746512207007e+01 2.293728764213920357e+01 1.129394530434809383e+02 -1.133766215176884913e+02 7.265757144357144170e+01 1.206757972043879903e+02 -4.368891275332383373e+01 7.459461064805899433e+00 -1.245929552829205633e+01 1.141912363680715288e+02 3.539445402779648919e+00 1.648844703544534127e+02 -1.382827219575922015e+02 1.140832192798818454e+02 -8.928896759392604565e+01 9.369597165432981001e+01 -1.340715021255695376e+02 2.887195278335508419e+01 2.421650759152550236e+01 1.752313552195269519e+00 3.553419066555507300e+01 4.498949801825987294e+01 -1.213094279223602712e+01 1.063702740886033915e+01 1.058015993900619947e+02 1.245591329097709234e+02 -8.487589286825465251e+01 -5.304921988556953494e+01 4.634812200312318708e+01 1.491899640580691688e+00 -1.341331762129555898e+02 -5.398556999578521953e+01 -3.469524740631126036e+01 4.789730609400313455e+01 -6.419394879190052450e+01 2.245093513820469511e+01 1.571392890387034242e+02 -7.786308340624508162e+01 7.921488877076970425e+01 8.240774240423721153e+01 1.104150863164111307e+01 1.210369446897359467e+02 6.166817061178749526e+01 1.648223175105851794e+02 -3.393860170430406953e+01 1.103281182279803261e+02 5.451910380430582848e+01 -1.576868995047873234e+01 2.003887209519833164e+02 -1.362708684207420049e+02 4.801266891270133641e+01 -1.842474406382549148e+02 -8.269390341675864420e+01 4.032509146839276326e+01 -7.096884735696704638e+01 -1.531552526382946269e+02 1.959587788293534345e+02 -8.434000104649645380e+01 -4.670214903269103246e+01 -4.551015245579113611e+01 1.197402373746299560e+02 1.915738018771771465e+02 6.369069319348115243e+01 1.438641921526320004e+02 2.159037182059619795e+02 -1.580083977463357936e+00 1.602523875446296131e+02 6.974184033091057699e+01 1.873270501325042403e+02 -1.237734831255550887e+02 -1.165483653277718012e+01 6.249298725287108169e+00 1.868873546831454178e+02 -8.940681083193338452e+01 -5.953562393384223128e+01 -5.208817173664903777e+01 -1.318538249182564641e+02 4.594717057502097468e+00 -9.930958829244892172e+01 1.516801536854900974e+02 2.317452748003719876e+01 1.180319586637769014e+01 7.114612014617829061e+01 -4.840351007152211338e+00 1.151117651382148921e+02 -1.563233018098418086e+02 4.469301788566764344e+01 -1.680715337345212106e+02 1.155428601684845944e+02 9.453873740151472305e+01 -6.621491192637326151e+01 4.604095315633934149e+01 2.343266860498266624e+02 -2.998118423072912719e+01 4.098584065609799865e+01 -3.215480975883981074e+01 5.701414046033403338e+01 6.323899438775951864e+01 -6.180779064792167432e+00 1.002656515009082625e+02 9.983834910428959120e+01 -1.907453545283486562e+02 -1.507651316303052624e+02 -1.178994249138528829e+02 -9.282280466795581830e+00 -1.473473018811075406e+02 1.136773356738892318e+02 1.085453129171932858e+02 5.803763580512967479e+01 1.098240333769471100e+01 1.551100500868533345e+02 8.259119213121373093e+01 6.640510183915029074e+01 -9.994711975455757624e+01 1.499066523735629630e+02 -3.537455507079852790e+00 1.075543906919873649e+02 8.675235084266423868e+00 3.613764205943309804e+01 -7.443778750421400048e+01 -8.923513906869955292e+01 7.039444762820319568e+01 -3.791628651835122099e+00 1.437595793650748135e+02 -1.235028984329063206e+01 -2.799485728104869064e+00 4.507767871969186757e+01 2.224498636478352154e+01 1.389963717758583641e+02 1.442327676407125736e+01 3.523197923994158032e+01 -1.520027041008203526e+02 6.467670233109433298e+01 1.312968127342789728e+02 -1.730297517816980246e+01 -2.239172554796970189e+02 8.287061312908080879e+01 1.335884822508423326e+02 1.996364635452795611e+01 1.852685287828152241e+02 -4.147303326275475044e+00 4.199900430471566182e+01 -4.270094506887731001e+01 -1.356717223793834535e+02 5.480268499098869484e+01 -4.643653151193986162e+01 -7.921434692322293358e+01 4.029751887972703628e+01 -1.805874913084932700e+02 7.003250129449627082e+01 1.606333650753318807e+02 -9.886785559880311780e+01 1.689411295283567824e+02 -9.531412632962414477e+01 -5.827526461216735676e+00 -1.028568522524271600e+01 7.478887470331001452e+01 -4.547787443788048023e+01 -1.051489885929865835e+02 -8.639331550928790193e+01 1.421612700331669998e+02 5.762861942211388566e+01 -1.284720743740876117e+02 4.312675456520820738e+00 4.230816870308667887e+01 8.043429434747048390e+01 -3.928704569014101367e+01 5.840217795677527590e+01 -6.717201615980012264e+01 -1.580761952924156901e+02 -3.371726207884533011e+01 1.372430150436530596e+02 -1.103921097193069443e+02 -6.226216025472583127e+00 -1.585298950295277791e+02 -4.695587377471561297e+00 -1.419647647656866525e+02 3.204308522597307274e+01 5.857556074195497331e+01 -4.896096102869675093e+01 -8.013105690277534165e+01 5.484631271542577124e+00 7.235777127008333309e+01 -6.590264535609495056e+01 1.309557776273147454e+02 1.026140705202544154e+02 -1.240769508379353283e+02 -1.025015117463329943e+02 1.312705455010118953e+02 6.929544453966528295e+01 1.459257522538206047e+02 9.720588531026913870e+01 7.880984141444199054e+01 -5.852884588710188751e+01 -7.937260718373701707e+01 -7.479994526815080746e+01 1.984726540029510318e+02 2.967762511398234793e+01 -2.417096918442859987e+01 -6.645165901099557004e+01 -4.844990716076954129e+01 -1.272516302076645474e+02 -1.597264679635344820e+01 -1.695397007258048916e+02 1.208073416918529830e+02 4.443474346884964632e+01 -1.113237333957273023e+02 -4.676179380808873987e+01 1.156834925024052154e+02 -9.364797655557082123e+01 9.934626340313400306e+01 -1.144506788725737607e+02 -1.137517742705791690e+01 -9.225812208863713693e+01 8.668324071996423186e+01 -4.102840090075910240e+01 9.930969747198679087e+00 2.834525765761376448e+01 -1.223157745610852203e+02 1.207149262679555335e+01 4.670622048820154504e+01 -2.159649053219444070e+01 -6.638402196282142143e+01 1.956085167561303422e+02 8.348260705186342534e+01 4.548665000458230168e+01 -3.032940216162401370e+01 7.744578338983282606e+01 1.618193459641513812e+02 -8.905746991986951855e+01 2.022322016866777403e+02 -1.285014676094881452e+02 -1.775462208593521325e+02 1.465447770874034745e+02 -2.258628085765814149e+02 -9.257426912263247987e-01 -2.364406711968654804e+02 -1.475910870229821512e+02 6.928079843305030749e+01 -1.405581081198712354e+02 5.634646001267134352e+01 1.061282687134514902e+02 -1.547769880211820919e+02 -2.905829330358201545e+01 7.279748314870066395e+01 1.292671982007254314e+02 -1.796560275374024513e+02 8.445292837285973064e+01 -9.456530276480623343e+01 -9.513409579009312722e+00 -1.337962272826312393e+01 -7.680528160415803995e+01 -8.715804480936562015e+01 1.750739953904654840e+02 -2.095061223496112746e+01 1.300208789762565598e+00 1.257352740868941368e+02 -8.373498143314940023e+01 -3.324532086345337945e+01 -1.039990779244085388e+02 -4.716390264158382450e+01 4.980540972120808263e+00 5.735859142743628780e+01 -1.305917825168102411e+02 2.294193583520692243e+02 -5.214644218188497860e+01 1.187094470376182898e+02 -4.727523128801211527e+01 1.160001369390055288e+02 1.347905030653411984e+02 4.646463985752455983e+01 1.182939942125465080e+02 -4.189242296924795994e+01 1.356654198587520739e+02 -1.516930952200364118e+02 -6.340171395212958316e+01 -6.105551931876686922e+01 2.479027664624311456e+01 -1.573779148905768750e+02 7.034805525919381353e+01 -2.990992459068178988e+01 -8.014758337985750813e+01 8.688600220587019862e+01 -1.465552265052455141e+02 -8.848215134593696973e+01 -5.105884075012732382e+01 3.208007621548794930e+01 1.259070526665862673e+02 1.133268837420552728e+02 6.702349846363554775e+01 -1.523119850769783401e+00 1.696437051069128472e+02 1.188439523441487324e+02 -9.163459524664256151e+01 -7.577152739409200422e+01 5.354847267391678400e+01 9.654574090116836871e+00 9.502963786684348690e+01 1.617099950754272868e+02 6.846920993769641939e+01 2.369723819658612385e+01 -9.913308349721528145e+01 1.665916422677834134e+02 -1.102293975162465784e+02 -1.602616070751672623e+02 6.373078879423455589e+01 1.081044406744178161e+02 1.904804236516883975e+01 -1.346019223883003804e+02 2.880433114135176353e+01 4.110753389720192530e+01 -3.425930283656183351e-01 1.268905122775260281e+02 9.470491022165906259e+01 1.658058857338686209e+01 7.590679431917001807e+01 -1.036258887987233663e+02 -6.155988197560959385e+00 9.526556760836673732e+01 2.876130559149321542e+01 -6.298617909779154900e+01 1.918204187073355342e+02 2.238203003770801160e+02 -1.215085176976456438e+02 -2.675121581977608187e+01 -2.034914348184327366e+02 -6.988069889671668022e+01 1.515707112640480148e+02 3.265581788266089802e+00 -6.871288993261858025e+01 1.585090753469872880e+02 -6.047942887231756970e+01 -1.554326640293041351e+02 1.321481262876395704e+02 -6.501676555544776193e+01 3.338700626199297261e+01 8.353086594902715944e+01 1.334163413495334360e+01 -2.304812178828845219e+02 4.093637217153410290e+01 -5.964678412294429855e+00 8.716525200500574044e+01 -2.279468454953184064e+01 9.780051311119190416e+01 1.643542912402879708e+01 -8.192258057934871829e+01 -1.981230886009749881e+01 -1.694874115271653636e+02 1.112041035135221705e+02 2.445052122266022820e+01 -4.024940361010558831e+01 -5.009796401165823454e+01 -6.084185441278231110e+01 3.977139706091576699e+01 1.554091307168079368e+02 1.283280375651237648e+02 4.163047169846119999e+01 -1.913513176369679343e+02 -3.751761294474695063e+01 4.237859152688771047e+01 1.134603478600934920e+02 8.432196136651576523e+01 1.493087983165365351e+01 -1.798914299473332221e+02 1.273381921078099452e+02 -2.163717154092496173e+02 -1.990267068474129246e+02 -1.770728837763808627e+00 -7.133737219968473653e+01 -2.332136636984589373e+01 8.424790322454566649e+01 5.407531784228154237e+01 -1.075245181785282540e+02 -1.464727242282829991e+02 1.410218406222479359e+01 1.196103674504517613e+02 1.999328066572252993e+01 -5.483929898746713860e+01 -4.994582373327997260e+01 -1.133329874636831924e+01 1.560542757901494610e+02 2.162829066167056169e+01 -1.710096181784992098e+02 1.263427175399480547e+02 -6.579253413379765902e+01 -4.109258568985129756e+00 1.516069670527276401e+02 -5.147365899146433321e+01 -1.928849166600681286e+01 -1.081495152014912406e+02 -5.908675077906610618e+00 -2.347918404057206843e+01 1.296418460903323080e+02 1.182094904834959692e+02 6.653438395683720330e+01 6.442971891988977973e+01 -1.841794884453357284e+01 1.330819162428120705e+02 -1.110197889203817567e+02 -4.189761681813078731e+00 -8.964064002241468643e+01 1.546606084688852434e+02 7.180242403533203799e+01 5.087078036109231505e+01 8.128284060157598745e+00 -5.247246011485958661e+01 3.384699129621812830e+01 6.625218099510385983e+00 3.588831161163284378e+00 2.372741733714530810e+01 5.884311067560161490e+01 1.676013138689062600e+02 -3.824912974753333827e+01 -5.116389566434499159e+01 6.574707253316493905e+01 1.138560933684308054e+02 -1.261385826715250147e+01 9.050906743924286957e+01 1.024528660566523257e+02 2.074789507359493541e+02 -8.518140743919383340e+01 -1.207458918916001238e+02 -2.819343196778152816e+01 6.118154008310986569e+01 -9.988010613063300625e+00 1.057127001902878050e+02 3.665590888188598484e+01 -1.600378280904160420e+02 4.433655464363000931e+01 -8.802735978009772566e+01 -1.331217817105748509e+02 1.323362557607972860e+02 -7.481508800529097414e+01 5.821235391156163530e+01 1.093571746710895951e+02 -9.737629450327439429e+01 2.311003881023135520e+01 -7.094724398963326450e+01 3.961206378273982409e+01 -1.127166285922851330e+02 6.056051140071244987e+01 5.375908593554672876e+01 3.816987544599943050e+00 8.260768050344486824e+01 -1.502780556484472072e+02 7.505808960060259949e+01 -2.879506161525122465e+01 -1.648459667061763412e+02 9.221251752681020264e+01 2.394885829439244063e+01 -1.913699517762422317e+02 2.295708950122949830e+02 -5.239138824511347936e-01 1.026119439865437641e+02 -1.176692741716744308e+02 -1.894850304915255776e+02 -9.105363401211398866e+01 2.434731341977443897e+00 1.394101898107976183e+02 3.878872202472841924e+00 -9.325597247507057830e+01 4.914407237608362777e+01 1.337168513684977142e+02 6.339263471394161087e+01 -5.047156210798551967e+01 -5.771001720085064335e+01 8.245320483140491774e+01 2.998049795372602588e+01 -1.908299848902607891e+02 -2.022787484444090822e+01 1.649234498094505739e+02 9.640530440943571477e+01 -5.594343269071492841e+01 -1.090895657377113679e+02 -4.163728067902727759e+01 -4.691410102050333109e+01 -1.116703013795370936e+02 -1.800156807331750741e+01 -4.455089637619771992e+01 -1.108602467922861337e+02 -1.287128201627099315e+02 -2.629628037503164251e+01 -1.226239831434257752e+02 -1.305757725233423798e+02 -3.740122258036373637e+01 -5.399033735268051259e+01 -1.083278236475518668e+02 1.881761776677407170e+02 1.063851918725258727e+01 -2.843520261895776713e+01 -1.718619586809424860e+01 7.952413107530527725e+01 1.581577462135424206e+01 2.531977557500942311e+01 -2.148572377199952044e+01 -4.677417378279654514e+01 2.114015602433087793e+01 -1.469582163217465336e+02 -1.609181372740720803e+02 -9.137814580347568949e+01 -1.929193701095017275e+02 -9.058655262145167342e+01 8.670790486827911536e+01 6.205466862286474594e+01 -2.633624476160067118e+01 6.142773550899086388e+01 -1.582765292140414601e+02 -4.130745671000507713e+01 -1.174023906130368573e+02 -6.747380882469619223e+01 2.132696893085632723e+02 -2.075168184063156218e+02 2.074939931413678664e+02 2.524517785247056523e+01 -5.706828601475706364e+01 9.322005563982565945e+01 1.254289301590068106e+02 -5.245135550848824124e+01 -2.059692440434098444e+02 -1.507165427871644852e+02 1.033904254700109959e+02 8.466945131029989113e+01 -1.370454228245682486e+02 3.228902691920445278e+01 -4.011274266158494584e+01 -7.824309112011300726e+01 -2.873557775361139122e+01 -5.541464933732417819e+01 -8.736696815521915482e+01 -3.442430534058366476e+01 4.557366317869123051e+00 -3.303191055516316510e+01 -3.825950091258292218e-01 -1.448754761051347550e+01 9.295278401101353438e+01 1.284881815466725357e+02 1.330560480512144572e+01 1.698118446674401483e+01 -6.381943940235695578e+01 -1.981863225861986564e+02 3.421845792149890997e+01 -9.272073514019925256e+01 2.611884779662505807e+01 -8.232919521496219417e+00 1.056251434202509110e+00 7.312494118096883255e+01 1.232160376723303443e+02 -7.124669645177203847e+01 3.841303503145972087e+01 -1.949843715277980039e+02 9.786300841202658418e+00 7.033415604796751985e+00 -1.238944771482290435e+02 -3.408368189305610230e+01 -4.481126751336730507e+01 4.818453819128965421e+00 -1.033602686104537725e+02 2.734728001487847138e+01 -9.870928180582932043e+01 5.668848419435896346e+01 6.860282283360413658e+01 3.729376970250819312e+01 -2.933195951682670000e+01 1.086354081380692236e+02 6.174929716515747913e+01 8.086579998750720222e+01 -6.772400213449189721e+01 2.048718946494669169e+01 1.292473963546393350e+02 -5.910753224684545160e+01 -6.989687390141122947e+00 3.232474967212890249e+01 -1.297644628150301855e+02 9.883136189704690366e+01 9.050372774644368690e+01 -1.022044511509650135e+02 -8.319386966233005865e+01 -5.609729008810180773e+01 -4.606709940610627996e+01 -1.618548644739670408e+02 -1.372691545481077071e+02 -1.337988804808994132e+02 1.067046201359216298e+02 6.037863924600605259e+01 1.610769462346622163e+02 7.272274734976645227e+00 -8.652807534227623876e+01 1.892493050383201592e+01 1.395913956236639386e+01 -6.413394477848910924e+01 7.473243283484066524e+01 1.191363939094391355e+02 1.006275563482641289e+01 1.446629726479272051e+02 2.269834349086114500e+01 1.119291921884812666e+02 1.521210661327472735e+01 -2.095838263159546102e+02 2.202534792263953136e+02 -4.935330835221458301e+01 -1.503483346091757653e+02 -6.775146672894211974e+01 -4.323844496639934931e+01 4.154132513622959522e+01 2.568463639925260722e+01 4.590269208928787492e+01 -7.431188303419773433e+01 1.227061499924825085e+02 -8.647192116575192244e+01 -7.027574382433808609e+00 1.427068857815860383e+02 1.097804106217142390e+02 5.809634771091241845e+01 -1.772069499545972917e+02 2.545098658571071937e+01 1.404586437684980353e+02 2.343278327170794384e+01 9.755927551378154305e+01 1.063512487856236106e+02 -2.112216928331421002e+02 7.681499077090835215e+01 -5.765503354670188685e+01 -2.244632719091372621e+02 8.826708570424163725e+01 2.448607623523789201e+01 -1.210756692116230653e+02 -5.802331606974383504e+01 1.373322780599382895e+02 1.458028260238877465e+02 -7.485452717614023754e+01 -1.259936997614871643e+02 -8.216476075464984774e+01 -1.631664420235603643e+02 1.923431641056822983e+01 3.725950423534290223e+01 -1.665767995256178580e+01 -1.213716555258726437e+01 -8.767138268313993876e+01 -8.643355505616885637e+01 -2.410461638563993603e+01 1.305331048987469273e+02 1.326341866311506408e+02 7.892028817911103999e+01 9.438947761698958061e+01 -7.628813744111739936e+01 -1.752219267488110859e+02 -1.280764820090479361e+01 -2.241517172933115631e+01 -6.877443243230705150e+01 1.442647172064014160e+00 7.072939077529358087e+01 -5.122807101503150307e+01 2.389144645072680717e+01 7.665614234983564756e+01 6.786298583478921387e+01 1.070074544466657187e+02 -1.444017393786764103e+02 3.836997885690684029e+01 8.064875160216521977e+01 9.172811092792112220e+01 5.716824897706787567e+01 -9.993475768261762937e+01 1.325489926027362344e+02 1.233974712759126078e+02 9.277975137174762210e+01 9.828718346003414297e+01 -8.152238502280903276e+01 -1.438917707984821348e+01 -1.252656164415273210e+01 7.458258183218937631e+01 6.289351627708612824e+01 5.420660306633293857e+01 9.445017334689006816e+01 1.127693989796331806e+02 1.199599436203007059e+02 -6.279056032137356169e+01 7.802782959179927502e+01 6.315061910022588165e+01 -1.138993980783543378e+02 1.274001912099147660e+02 -9.709904323380538216e+00 -2.703671035378948062e+01 1.929880734548900136e+02 8.570373990215064453e+01 1.202227018142462356e+02 -1.398442037860062044e+02 -1.528975443181629146e+02 -1.489610056855359232e+02 -1.184069497369188184e+02 -4.293135638500822893e+01 1.064512451307017358e+02 -1.635816057619245214e+02 3.154034924047346067e+01 1.400521004246370467e+02 -5.759625484523275674e+01 -8.866098976748314442e+01 -3.410126335282523513e+01 1.319238044395183351e+02 2.207400574681269063e+02 -6.476880857183283524e+01 1.925583518801249738e+01 -2.690094451932460018e+01 6.656305028945909896e+01 5.855558964810165179e+01 -2.072837263318368741e+02 -8.620676904477201674e+01 1.337860702932364916e+02 1.359518296645362909e+02 9.194662629634665052e+01 -4.846891539269442717e+01 -7.373753784920945975e+01 -4.416208980704744391e+01 -1.718020948229444969e+02 6.923300609663382943e+01 -2.497028798662694982e+01 1.619401369101847479e+02 -2.719457155188317543e+01 -3.062648468260834420e+02 1.410473082785962049e+02 4.892985581579279142e+01 -1.148579602281606213e+02 -2.158660875423192849e+01 3.438247482502909236e+01 -2.022724805071937055e+02 -1.113005837785785275e+02 -1.067851267463984328e+02 -5.494974990992412245e+01 6.117138148584398039e+01 -1.605952086373501686e+02 1.051335839284683829e+02 -5.292632639775503378e+01 2.845981740111061864e+00 -1.300083543271264830e+02 -1.009999873763024283e+02 1.713765062318405228e+02 8.446551071036226688e+01 -4.116447509839836272e+01 3.621876346380572897e+01 -2.734390696272482657e+01 4.219010938746281170e+01 -1.019987813323009078e+02 9.642114732797209342e+01 4.923895845091169576e+01 -1.159410480608970886e+02 1.138528650980291417e+02 -4.790320657351099243e+01 9.743444783413987409e+01 -4.818150954246434026e+01 8.619802097476697611e+01 -1.496299957707749684e+02 1.392188093324186866e+02 2.415921441406850789e+01 9.820250472297976785e+01 1.272502188854723926e+02 -1.430987019733358352e+02 -8.382448513903555920e+01 -1.030855809810143313e+02 6.526108492992666754e+01 -1.672367197920735293e+02 1.478961624252078764e+02 1.389665640904930797e+02 5.171381331563014072e+01 -8.287750768812374247e+01 5.570764130107968981e+01 -1.047815488988218959e+02 -1.067730609983614087e+01 3.414884968338876803e+01 -1.794118717303636004e+02 -7.965683967885615857e+01 -1.321696211123997777e+01 9.980341524569251987e+01 -4.904324665224253721e+01 1.062049230659677193e+02 -6.283558160531781311e+01 -2.059246005626451961e+02 -1.046264491176399076e+02 -3.326400988471137055e+01 -5.880352472435597377e+01 2.940226708044718862e+01 5.023905228645146792e+01 6.196354771187962740e+00 2.478828861002623540e+01 -1.147012164170488830e+02 5.266105496805710828e+01 3.190672385480692697e+01 -7.056084349241012887e+01 9.070309262584867582e+00 5.511943866163908723e+01 -9.331132806534333213e+01 -5.388596861830509255e+01 -2.363644302159103816e+01 9.546252739773093765e+01 -1.676028832802215263e+01 4.104514974441548780e+00 -2.232025593861075663e+02 -9.299171128270839404e+01 9.682584809480540855e+01 -8.728913361030203077e+01 3.067079337528243599e+01 3.040089423032664584e+01 3.711194084618522027e+01 6.468466215109353357e+01 -1.737134422571764958e+02 1.409493561994096353e+02 7.981142845024849919e+01 -7.373365839984598047e+00 -7.911252696497859915e+01 1.095449644891786392e+02 6.080114856036779258e+01 -1.969227990666615256e+02 -4.932894322273124033e+01 -8.000595554432614165e+01 -5.074133958011722001e+01 -6.063327678101741469e+01 -9.697141324387179395e+01 -5.911277393663871038e+01 1.875556522609235515e+02 -1.672304382058482020e+02 6.412094928066970567e+01 2.717280807302389789e+01 -7.363760899436348950e+01 1.017873503525413170e+01 -3.861930309632920455e+01 3.364455553910410845e+00 -9.417115401429234112e+01 -1.935183807990185585e+02 1.801814914802693934e+01 4.104366357377599428e+01 -1.253483185472058103e+01 -8.799397055819682123e+00 -3.896738563372618813e+01 -1.860397337464630994e+02 -3.001425829717710769e+01 -6.402939058476195555e+01 1.366406907529613335e+01 -1.529747064072065754e+01 8.874076504366021823e+01 -6.175946108634297360e+01 -1.015909000040950048e+02 -3.499050218840199022e+01 -8.809140038287775809e+00 4.454495591616313277e+01 -2.167988650604346290e+01 -7.230473441042759930e+01 -1.555954244739627867e+01 1.964784536633139567e+01 4.654819580548262792e+01 -1.117089237922747458e+02 -1.362424441859932358e+02 2.257471231895318624e+02 -2.139328822434623589e+02 -7.442269264899009329e+01 -4.540625546525248524e+01 1.370739694047823320e+02 6.202186799907821779e+01 2.243733182634627781e+02 2.399141956673361733e+02 -6.112014023890772307e+01 1.268953594668045923e+02 -5.490033014919101362e+01 -4.001295511195119303e+01 -9.864282954475264376e+01 -7.826608536724744170e+01 -6.818125435626399167e+01 -8.726126638227061960e+01 -2.389827458183148110e+02 -2.655217793620035991e+02 1.320352325411490995e+02 -2.601611592171513365e+01 5.222197385637027622e+01 1.283276162523804658e+02
