# 
#                 ----------------------------------------------------
#                 Data from a 3D direct N-body simulation. 
# 
#                 rows are i-particle; 
#                 coumns are :mass, tag, x ,y, z, vx, vy, vz, ax, ay, az
# 
#                 NTHU, Computational Physics Lab
# 
#                 ----------------------------------------------------
#                 Time = 2.7999999999999843
1.000000000000000000e+00 2.000000000000000000e+00 3.000000000000000000e+00 4.000000000000000000e+00 5.000000000000000000e+00 6.000000000000000000e+00 7.000000000000000000e+00 8.000000000000000000e+00 9.000000000000000000e+00 1.000000000000000000e+01 1.100000000000000000e+01 1.200000000000000000e+01 1.300000000000000000e+01 1.400000000000000000e+01 1.500000000000000000e+01 1.600000000000000000e+01 1.700000000000000000e+01 1.800000000000000000e+01 1.900000000000000000e+01 2.000000000000000000e+01 2.100000000000000000e+01 2.200000000000000000e+01 2.300000000000000000e+01 2.400000000000000000e+01 2.500000000000000000e+01 2.600000000000000000e+01 2.700000000000000000e+01 2.800000000000000000e+01 2.900000000000000000e+01 3.000000000000000000e+01 3.100000000000000000e+01 3.200000000000000000e+01 3.300000000000000000e+01 3.400000000000000000e+01 3.500000000000000000e+01 3.600000000000000000e+01 3.700000000000000000e+01 3.800000000000000000e+01 3.900000000000000000e+01 4.000000000000000000e+01 4.100000000000000000e+01 4.200000000000000000e+01 4.300000000000000000e+01 4.400000000000000000e+01 4.500000000000000000e+01 4.600000000000000000e+01 4.700000000000000000e+01 4.800000000000000000e+01 4.900000000000000000e+01 5.000000000000000000e+01 5.100000000000000000e+01 5.200000000000000000e+01 5.300000000000000000e+01 5.400000000000000000e+01 5.500000000000000000e+01 5.600000000000000000e+01 5.700000000000000000e+01 5.800000000000000000e+01 5.900000000000000000e+01 6.000000000000000000e+01 6.100000000000000000e+01 6.200000000000000000e+01 6.300000000000000000e+01 6.400000000000000000e+01 6.500000000000000000e+01 6.600000000000000000e+01 6.700000000000000000e+01 6.800000000000000000e+01 6.900000000000000000e+01 7.000000000000000000e+01 7.100000000000000000e+01 7.200000000000000000e+01 7.300000000000000000e+01 7.400000000000000000e+01 7.500000000000000000e+01 7.600000000000000000e+01 7.700000000000000000e+01 7.800000000000000000e+01 7.900000000000000000e+01 8.000000000000000000e+01 8.100000000000000000e+01 8.200000000000000000e+01 8.300000000000000000e+01 8.400000000000000000e+01 8.500000000000000000e+01 8.600000000000000000e+01 8.700000000000000000e+01 8.800000000000000000e+01 8.900000000000000000e+01 9.000000000000000000e+01 9.100000000000000000e+01 9.200000000000000000e+01 9.300000000000000000e+01 9.400000000000000000e+01 9.500000000000000000e+01 9.600000000000000000e+01 9.700000000000000000e+01 9.800000000000000000e+01 9.900000000000000000e+01 1.000000000000000000e+02 1.010000000000000000e+02 1.020000000000000000e+02 1.030000000000000000e+02 1.040000000000000000e+02 1.050000000000000000e+02 1.060000000000000000e+02 1.070000000000000000e+02 1.080000000000000000e+02 1.090000000000000000e+02 1.100000000000000000e+02 1.110000000000000000e+02 1.120000000000000000e+02 1.130000000000000000e+02 1.140000000000000000e+02 1.150000000000000000e+02 1.160000000000000000e+02 1.170000000000000000e+02 1.180000000000000000e+02 1.190000000000000000e+02 1.200000000000000000e+02 1.210000000000000000e+02 1.220000000000000000e+02 1.230000000000000000e+02 1.240000000000000000e+02 1.250000000000000000e+02 1.260000000000000000e+02 1.270000000000000000e+02 1.280000000000000000e+02 1.290000000000000000e+02 1.300000000000000000e+02 1.310000000000000000e+02 1.320000000000000000e+02 1.330000000000000000e+02 1.340000000000000000e+02 1.350000000000000000e+02 1.360000000000000000e+02 1.370000000000000000e+02 1.380000000000000000e+02 1.390000000000000000e+02 1.400000000000000000e+02 1.410000000000000000e+02 1.420000000000000000e+02 1.430000000000000000e+02 1.440000000000000000e+02 1.450000000000000000e+02 1.460000000000000000e+02 1.470000000000000000e+02 1.480000000000000000e+02 1.490000000000000000e+02 1.500000000000000000e+02 1.510000000000000000e+02 1.520000000000000000e+02 1.530000000000000000e+02 1.540000000000000000e+02 1.550000000000000000e+02 1.560000000000000000e+02 1.570000000000000000e+02 1.580000000000000000e+02 1.590000000000000000e+02 1.600000000000000000e+02 1.610000000000000000e+02 1.620000000000000000e+02 1.630000000000000000e+02 1.640000000000000000e+02 1.650000000000000000e+02 1.660000000000000000e+02 1.670000000000000000e+02 1.680000000000000000e+02 1.690000000000000000e+02 1.700000000000000000e+02 1.710000000000000000e+02 1.720000000000000000e+02 1.730000000000000000e+02 1.740000000000000000e+02 1.750000000000000000e+02 1.760000000000000000e+02 1.770000000000000000e+02 1.780000000000000000e+02 1.790000000000000000e+02 1.800000000000000000e+02 1.810000000000000000e+02 1.820000000000000000e+02 1.830000000000000000e+02 1.840000000000000000e+02 1.850000000000000000e+02 1.860000000000000000e+02 1.870000000000000000e+02 1.880000000000000000e+02 1.890000000000000000e+02 1.900000000000000000e+02 1.910000000000000000e+02 1.920000000000000000e+02 1.930000000000000000e+02 1.940000000000000000e+02 1.950000000000000000e+02 1.960000000000000000e+02 1.970000000000000000e+02 1.980000000000000000e+02 1.990000000000000000e+02 2.000000000000000000e+02 2.010000000000000000e+02 2.020000000000000000e+02 2.030000000000000000e+02 2.040000000000000000e+02 2.050000000000000000e+02 2.060000000000000000e+02 2.070000000000000000e+02 2.080000000000000000e+02 2.090000000000000000e+02 2.100000000000000000e+02 2.110000000000000000e+02 2.120000000000000000e+02 2.130000000000000000e+02 2.140000000000000000e+02 2.150000000000000000e+02 2.160000000000000000e+02 2.170000000000000000e+02 2.180000000000000000e+02 2.190000000000000000e+02 2.200000000000000000e+02 2.210000000000000000e+02 2.220000000000000000e+02 2.230000000000000000e+02 2.240000000000000000e+02 2.250000000000000000e+02 2.260000000000000000e+02 2.270000000000000000e+02 2.280000000000000000e+02 2.290000000000000000e+02 2.300000000000000000e+02 2.310000000000000000e+02 2.320000000000000000e+02 2.330000000000000000e+02 2.340000000000000000e+02 2.350000000000000000e+02 2.360000000000000000e+02 2.370000000000000000e+02 2.380000000000000000e+02 2.390000000000000000e+02 2.400000000000000000e+02 2.410000000000000000e+02 2.420000000000000000e+02 2.430000000000000000e+02 2.440000000000000000e+02 2.450000000000000000e+02 2.460000000000000000e+02 2.470000000000000000e+02 2.480000000000000000e+02 2.490000000000000000e+02 2.500000000000000000e+02 2.510000000000000000e+02 2.520000000000000000e+02 2.530000000000000000e+02 2.540000000000000000e+02 2.550000000000000000e+02 2.560000000000000000e+02 2.570000000000000000e+02 2.580000000000000000e+02 2.590000000000000000e+02 2.600000000000000000e+02 2.610000000000000000e+02 2.620000000000000000e+02 2.630000000000000000e+02 2.640000000000000000e+02 2.650000000000000000e+02 2.660000000000000000e+02 2.670000000000000000e+02 2.680000000000000000e+02 2.690000000000000000e+02 2.700000000000000000e+02 2.710000000000000000e+02 2.720000000000000000e+02 2.730000000000000000e+02 2.740000000000000000e+02 2.750000000000000000e+02 2.760000000000000000e+02 2.770000000000000000e+02 2.780000000000000000e+02 2.790000000000000000e+02 2.800000000000000000e+02 2.810000000000000000e+02 2.820000000000000000e+02 2.830000000000000000e+02 2.840000000000000000e+02 2.850000000000000000e+02 2.860000000000000000e+02 2.870000000000000000e+02 2.880000000000000000e+02 2.890000000000000000e+02 2.900000000000000000e+02 2.910000000000000000e+02 2.920000000000000000e+02 2.930000000000000000e+02 2.940000000000000000e+02 2.950000000000000000e+02 2.960000000000000000e+02 2.970000000000000000e+02 2.980000000000000000e+02 2.990000000000000000e+02 3.000000000000000000e+02 3.010000000000000000e+02 3.020000000000000000e+02 3.030000000000000000e+02 3.040000000000000000e+02 3.050000000000000000e+02 3.060000000000000000e+02 3.070000000000000000e+02 3.080000000000000000e+02 3.090000000000000000e+02 3.100000000000000000e+02 3.110000000000000000e+02 3.120000000000000000e+02 3.130000000000000000e+02 3.140000000000000000e+02 3.150000000000000000e+02 3.160000000000000000e+02 3.170000000000000000e+02 3.180000000000000000e+02 3.190000000000000000e+02 3.200000000000000000e+02 3.210000000000000000e+02 3.220000000000000000e+02 3.230000000000000000e+02 3.240000000000000000e+02 3.250000000000000000e+02 3.260000000000000000e+02 3.270000000000000000e+02 3.280000000000000000e+02 3.290000000000000000e+02 3.300000000000000000e+02 3.310000000000000000e+02 3.320000000000000000e+02 3.330000000000000000e+02 3.340000000000000000e+02 3.350000000000000000e+02 3.360000000000000000e+02 3.370000000000000000e+02 3.380000000000000000e+02 3.390000000000000000e+02 3.400000000000000000e+02 3.410000000000000000e+02 3.420000000000000000e+02 3.430000000000000000e+02 3.440000000000000000e+02 3.450000000000000000e+02 3.460000000000000000e+02 3.470000000000000000e+02 3.480000000000000000e+02 3.490000000000000000e+02 3.500000000000000000e+02 3.510000000000000000e+02 3.520000000000000000e+02 3.530000000000000000e+02 3.540000000000000000e+02 3.550000000000000000e+02 3.560000000000000000e+02 3.570000000000000000e+02 3.580000000000000000e+02 3.590000000000000000e+02 3.600000000000000000e+02 3.610000000000000000e+02 3.620000000000000000e+02 3.630000000000000000e+02 3.640000000000000000e+02 3.650000000000000000e+02 3.660000000000000000e+02 3.670000000000000000e+02 3.680000000000000000e+02 3.690000000000000000e+02 3.700000000000000000e+02 3.710000000000000000e+02 3.720000000000000000e+02 3.730000000000000000e+02 3.740000000000000000e+02 3.750000000000000000e+02 3.760000000000000000e+02 3.770000000000000000e+02 3.780000000000000000e+02 3.790000000000000000e+02 3.800000000000000000e+02 3.810000000000000000e+02 3.820000000000000000e+02 3.830000000000000000e+02 3.840000000000000000e+02 3.850000000000000000e+02 3.860000000000000000e+02 3.870000000000000000e+02 3.880000000000000000e+02 3.890000000000000000e+02 3.900000000000000000e+02 3.910000000000000000e+02 3.920000000000000000e+02 3.930000000000000000e+02 3.940000000000000000e+02 3.950000000000000000e+02 3.960000000000000000e+02 3.970000000000000000e+02 3.980000000000000000e+02 3.990000000000000000e+02 4.000000000000000000e+02 4.010000000000000000e+02 4.020000000000000000e+02 4.030000000000000000e+02 4.040000000000000000e+02 4.050000000000000000e+02 4.060000000000000000e+02 4.070000000000000000e+02 4.080000000000000000e+02 4.090000000000000000e+02 4.100000000000000000e+02 4.110000000000000000e+02 4.120000000000000000e+02 4.130000000000000000e+02 4.140000000000000000e+02 4.150000000000000000e+02 4.160000000000000000e+02 4.170000000000000000e+02 4.180000000000000000e+02 4.190000000000000000e+02 4.200000000000000000e+02 4.210000000000000000e+02 4.220000000000000000e+02 4.230000000000000000e+02 4.240000000000000000e+02 4.250000000000000000e+02 4.260000000000000000e+02 4.270000000000000000e+02 4.280000000000000000e+02 4.290000000000000000e+02 4.300000000000000000e+02 4.310000000000000000e+02 4.320000000000000000e+02 4.330000000000000000e+02 4.340000000000000000e+02 4.350000000000000000e+02 4.360000000000000000e+02 4.370000000000000000e+02 4.380000000000000000e+02 4.390000000000000000e+02 4.400000000000000000e+02 4.410000000000000000e+02 4.420000000000000000e+02 4.430000000000000000e+02 4.440000000000000000e+02 4.450000000000000000e+02 4.460000000000000000e+02 4.470000000000000000e+02 4.480000000000000000e+02 4.490000000000000000e+02 4.500000000000000000e+02 4.510000000000000000e+02 4.520000000000000000e+02 4.530000000000000000e+02 4.540000000000000000e+02 4.550000000000000000e+02 4.560000000000000000e+02 4.570000000000000000e+02 4.580000000000000000e+02 4.590000000000000000e+02 4.600000000000000000e+02 4.610000000000000000e+02 4.620000000000000000e+02 4.630000000000000000e+02 4.640000000000000000e+02 4.650000000000000000e+02 4.660000000000000000e+02 4.670000000000000000e+02 4.680000000000000000e+02 4.690000000000000000e+02 4.700000000000000000e+02 4.710000000000000000e+02 4.720000000000000000e+02 4.730000000000000000e+02 4.740000000000000000e+02 4.750000000000000000e+02 4.760000000000000000e+02 4.770000000000000000e+02 4.780000000000000000e+02 4.790000000000000000e+02 4.800000000000000000e+02 4.810000000000000000e+02 4.820000000000000000e+02 4.830000000000000000e+02 4.840000000000000000e+02 4.850000000000000000e+02 4.860000000000000000e+02 4.870000000000000000e+02 4.880000000000000000e+02 4.890000000000000000e+02 4.900000000000000000e+02 4.910000000000000000e+02 4.920000000000000000e+02 4.930000000000000000e+02 4.940000000000000000e+02 4.950000000000000000e+02 4.960000000000000000e+02 4.970000000000000000e+02 4.980000000000000000e+02 4.990000000000000000e+02 5.000000000000000000e+02 5.010000000000000000e+02 5.020000000000000000e+02 5.030000000000000000e+02 5.040000000000000000e+02 5.050000000000000000e+02 5.060000000000000000e+02 5.070000000000000000e+02 5.080000000000000000e+02 5.090000000000000000e+02 5.100000000000000000e+02 5.110000000000000000e+02 5.120000000000000000e+02 5.130000000000000000e+02 5.140000000000000000e+02 5.150000000000000000e+02 5.160000000000000000e+02 5.170000000000000000e+02 5.180000000000000000e+02 5.190000000000000000e+02 5.200000000000000000e+02 5.210000000000000000e+02 5.220000000000000000e+02 5.230000000000000000e+02 5.240000000000000000e+02 5.250000000000000000e+02 5.260000000000000000e+02 5.270000000000000000e+02 5.280000000000000000e+02 5.290000000000000000e+02 5.300000000000000000e+02 5.310000000000000000e+02 5.320000000000000000e+02 5.330000000000000000e+02 5.340000000000000000e+02 5.350000000000000000e+02 5.360000000000000000e+02 5.370000000000000000e+02 5.380000000000000000e+02 5.390000000000000000e+02 5.400000000000000000e+02 5.410000000000000000e+02 5.420000000000000000e+02 5.430000000000000000e+02 5.440000000000000000e+02 5.450000000000000000e+02 5.460000000000000000e+02 5.470000000000000000e+02 5.480000000000000000e+02 5.490000000000000000e+02 5.500000000000000000e+02 5.510000000000000000e+02 5.520000000000000000e+02 5.530000000000000000e+02 5.540000000000000000e+02 5.550000000000000000e+02 5.560000000000000000e+02 5.570000000000000000e+02 5.580000000000000000e+02 5.590000000000000000e+02 5.600000000000000000e+02 5.610000000000000000e+02 5.620000000000000000e+02 5.630000000000000000e+02 5.640000000000000000e+02 5.650000000000000000e+02 5.660000000000000000e+02 5.670000000000000000e+02 5.680000000000000000e+02 5.690000000000000000e+02 5.700000000000000000e+02 5.710000000000000000e+02 5.720000000000000000e+02 5.730000000000000000e+02 5.740000000000000000e+02 5.750000000000000000e+02 5.760000000000000000e+02 5.770000000000000000e+02 5.780000000000000000e+02 5.790000000000000000e+02 5.800000000000000000e+02 5.810000000000000000e+02 5.820000000000000000e+02 5.830000000000000000e+02 5.840000000000000000e+02 5.850000000000000000e+02 5.860000000000000000e+02 5.870000000000000000e+02 5.880000000000000000e+02 5.890000000000000000e+02 5.900000000000000000e+02 5.910000000000000000e+02 5.920000000000000000e+02 5.930000000000000000e+02 5.940000000000000000e+02 5.950000000000000000e+02 5.960000000000000000e+02 5.970000000000000000e+02 5.980000000000000000e+02 5.990000000000000000e+02 6.000000000000000000e+02 6.010000000000000000e+02 6.020000000000000000e+02 6.030000000000000000e+02 6.040000000000000000e+02 6.050000000000000000e+02 6.060000000000000000e+02 6.070000000000000000e+02 6.080000000000000000e+02 6.090000000000000000e+02 6.100000000000000000e+02 6.110000000000000000e+02 6.120000000000000000e+02 6.130000000000000000e+02 6.140000000000000000e+02 6.150000000000000000e+02 6.160000000000000000e+02 6.170000000000000000e+02 6.180000000000000000e+02 6.190000000000000000e+02 6.200000000000000000e+02 6.210000000000000000e+02 6.220000000000000000e+02 6.230000000000000000e+02 6.240000000000000000e+02 6.250000000000000000e+02 6.260000000000000000e+02 6.270000000000000000e+02 6.280000000000000000e+02 6.290000000000000000e+02 6.300000000000000000e+02 6.310000000000000000e+02 6.320000000000000000e+02 6.330000000000000000e+02 6.340000000000000000e+02 6.350000000000000000e+02 6.360000000000000000e+02 6.370000000000000000e+02 6.380000000000000000e+02 6.390000000000000000e+02 6.400000000000000000e+02 6.410000000000000000e+02 6.420000000000000000e+02 6.430000000000000000e+02 6.440000000000000000e+02 6.450000000000000000e+02 6.460000000000000000e+02 6.470000000000000000e+02 6.480000000000000000e+02 6.490000000000000000e+02 6.500000000000000000e+02 6.510000000000000000e+02 6.520000000000000000e+02 6.530000000000000000e+02 6.540000000000000000e+02 6.550000000000000000e+02 6.560000000000000000e+02 6.570000000000000000e+02 6.580000000000000000e+02 6.590000000000000000e+02 6.600000000000000000e+02 6.610000000000000000e+02 6.620000000000000000e+02 6.630000000000000000e+02 6.640000000000000000e+02 6.650000000000000000e+02 6.660000000000000000e+02 6.670000000000000000e+02 6.680000000000000000e+02 6.690000000000000000e+02 6.700000000000000000e+02 6.710000000000000000e+02 6.720000000000000000e+02 6.730000000000000000e+02 6.740000000000000000e+02 6.750000000000000000e+02 6.760000000000000000e+02 6.770000000000000000e+02 6.780000000000000000e+02 6.790000000000000000e+02 6.800000000000000000e+02 6.810000000000000000e+02 6.820000000000000000e+02 6.830000000000000000e+02 6.840000000000000000e+02 6.850000000000000000e+02 6.860000000000000000e+02 6.870000000000000000e+02 6.880000000000000000e+02 6.890000000000000000e+02 6.900000000000000000e+02 6.910000000000000000e+02 6.920000000000000000e+02 6.930000000000000000e+02 6.940000000000000000e+02 6.950000000000000000e+02 6.960000000000000000e+02 6.970000000000000000e+02 6.980000000000000000e+02 6.990000000000000000e+02 7.000000000000000000e+02 7.010000000000000000e+02 7.020000000000000000e+02 7.030000000000000000e+02 7.040000000000000000e+02 7.050000000000000000e+02 7.060000000000000000e+02 7.070000000000000000e+02 7.080000000000000000e+02 7.090000000000000000e+02 7.100000000000000000e+02 7.110000000000000000e+02 7.120000000000000000e+02 7.130000000000000000e+02 7.140000000000000000e+02 7.150000000000000000e+02 7.160000000000000000e+02 7.170000000000000000e+02 7.180000000000000000e+02 7.190000000000000000e+02 7.200000000000000000e+02 7.210000000000000000e+02 7.220000000000000000e+02 7.230000000000000000e+02 7.240000000000000000e+02 7.250000000000000000e+02 7.260000000000000000e+02 7.270000000000000000e+02 7.280000000000000000e+02 7.290000000000000000e+02 7.300000000000000000e+02 7.310000000000000000e+02 7.320000000000000000e+02 7.330000000000000000e+02 7.340000000000000000e+02 7.350000000000000000e+02 7.360000000000000000e+02 7.370000000000000000e+02 7.380000000000000000e+02 7.390000000000000000e+02 7.400000000000000000e+02 7.410000000000000000e+02 7.420000000000000000e+02 7.430000000000000000e+02 7.440000000000000000e+02 7.450000000000000000e+02 7.460000000000000000e+02 7.470000000000000000e+02 7.480000000000000000e+02 7.490000000000000000e+02 7.500000000000000000e+02 7.510000000000000000e+02 7.520000000000000000e+02 7.530000000000000000e+02 7.540000000000000000e+02 7.550000000000000000e+02 7.560000000000000000e+02 7.570000000000000000e+02 7.580000000000000000e+02 7.590000000000000000e+02 7.600000000000000000e+02 7.610000000000000000e+02 7.620000000000000000e+02 7.630000000000000000e+02 7.640000000000000000e+02 7.650000000000000000e+02 7.660000000000000000e+02 7.670000000000000000e+02 7.680000000000000000e+02 7.690000000000000000e+02 7.700000000000000000e+02 7.710000000000000000e+02 7.720000000000000000e+02 7.730000000000000000e+02 7.740000000000000000e+02 7.750000000000000000e+02 7.760000000000000000e+02 7.770000000000000000e+02 7.780000000000000000e+02 7.790000000000000000e+02 7.800000000000000000e+02 7.810000000000000000e+02 7.820000000000000000e+02 7.830000000000000000e+02 7.840000000000000000e+02 7.850000000000000000e+02 7.860000000000000000e+02 7.870000000000000000e+02 7.880000000000000000e+02 7.890000000000000000e+02 7.900000000000000000e+02 7.910000000000000000e+02 7.920000000000000000e+02 7.930000000000000000e+02 7.940000000000000000e+02 7.950000000000000000e+02 7.960000000000000000e+02 7.970000000000000000e+02 7.980000000000000000e+02 7.990000000000000000e+02 8.000000000000000000e+02 8.010000000000000000e+02 8.020000000000000000e+02 8.030000000000000000e+02 8.040000000000000000e+02 8.050000000000000000e+02 8.060000000000000000e+02 8.070000000000000000e+02 8.080000000000000000e+02 8.090000000000000000e+02 8.100000000000000000e+02 8.110000000000000000e+02 8.120000000000000000e+02 8.130000000000000000e+02 8.140000000000000000e+02 8.150000000000000000e+02 8.160000000000000000e+02 8.170000000000000000e+02 8.180000000000000000e+02 8.190000000000000000e+02 8.200000000000000000e+02 8.210000000000000000e+02 8.220000000000000000e+02 8.230000000000000000e+02 8.240000000000000000e+02 8.250000000000000000e+02 8.260000000000000000e+02 8.270000000000000000e+02 8.280000000000000000e+02 8.290000000000000000e+02 8.300000000000000000e+02 8.310000000000000000e+02 8.320000000000000000e+02 8.330000000000000000e+02 8.340000000000000000e+02 8.350000000000000000e+02 8.360000000000000000e+02 8.370000000000000000e+02 8.380000000000000000e+02 8.390000000000000000e+02 8.400000000000000000e+02 8.410000000000000000e+02 8.420000000000000000e+02 8.430000000000000000e+02 8.440000000000000000e+02 8.450000000000000000e+02 8.460000000000000000e+02 8.470000000000000000e+02 8.480000000000000000e+02 8.490000000000000000e+02 8.500000000000000000e+02 8.510000000000000000e+02 8.520000000000000000e+02 8.530000000000000000e+02 8.540000000000000000e+02 8.550000000000000000e+02 8.560000000000000000e+02 8.570000000000000000e+02 8.580000000000000000e+02 8.590000000000000000e+02 8.600000000000000000e+02 8.610000000000000000e+02 8.620000000000000000e+02 8.630000000000000000e+02 8.640000000000000000e+02 8.650000000000000000e+02 8.660000000000000000e+02 8.670000000000000000e+02 8.680000000000000000e+02 8.690000000000000000e+02 8.700000000000000000e+02 8.710000000000000000e+02 8.720000000000000000e+02 8.730000000000000000e+02 8.740000000000000000e+02 8.750000000000000000e+02 8.760000000000000000e+02 8.770000000000000000e+02 8.780000000000000000e+02 8.790000000000000000e+02 8.800000000000000000e+02 8.810000000000000000e+02 8.820000000000000000e+02 8.830000000000000000e+02 8.840000000000000000e+02 8.850000000000000000e+02 8.860000000000000000e+02 8.870000000000000000e+02 8.880000000000000000e+02 8.890000000000000000e+02 8.900000000000000000e+02 8.910000000000000000e+02 8.920000000000000000e+02 8.930000000000000000e+02 8.940000000000000000e+02 8.950000000000000000e+02 8.960000000000000000e+02 8.970000000000000000e+02 8.980000000000000000e+02 8.990000000000000000e+02 9.000000000000000000e+02 9.010000000000000000e+02 9.020000000000000000e+02 9.030000000000000000e+02 9.040000000000000000e+02 9.050000000000000000e+02 9.060000000000000000e+02 9.070000000000000000e+02 9.080000000000000000e+02 9.090000000000000000e+02 9.100000000000000000e+02 9.110000000000000000e+02 9.120000000000000000e+02 9.130000000000000000e+02 9.140000000000000000e+02 9.150000000000000000e+02 9.160000000000000000e+02 9.170000000000000000e+02 9.180000000000000000e+02 9.190000000000000000e+02 9.200000000000000000e+02 9.210000000000000000e+02 9.220000000000000000e+02 9.230000000000000000e+02 9.240000000000000000e+02 9.250000000000000000e+02 9.260000000000000000e+02 9.270000000000000000e+02 9.280000000000000000e+02 9.290000000000000000e+02 9.300000000000000000e+02 9.310000000000000000e+02 9.320000000000000000e+02 9.330000000000000000e+02 9.340000000000000000e+02 9.350000000000000000e+02 9.360000000000000000e+02 9.370000000000000000e+02 9.380000000000000000e+02 9.390000000000000000e+02 9.400000000000000000e+02 9.410000000000000000e+02 9.420000000000000000e+02 9.430000000000000000e+02 9.440000000000000000e+02 9.450000000000000000e+02 9.460000000000000000e+02 9.470000000000000000e+02 9.480000000000000000e+02 9.490000000000000000e+02 9.500000000000000000e+02 9.510000000000000000e+02 9.520000000000000000e+02 9.530000000000000000e+02 9.540000000000000000e+02 9.550000000000000000e+02 9.560000000000000000e+02 9.570000000000000000e+02 9.580000000000000000e+02 9.590000000000000000e+02 9.600000000000000000e+02 9.610000000000000000e+02 9.620000000000000000e+02 9.630000000000000000e+02 9.640000000000000000e+02 9.650000000000000000e+02 9.660000000000000000e+02 9.670000000000000000e+02 9.680000000000000000e+02 9.690000000000000000e+02 9.700000000000000000e+02 9.710000000000000000e+02 9.720000000000000000e+02 9.730000000000000000e+02 9.740000000000000000e+02 9.750000000000000000e+02 9.760000000000000000e+02 9.770000000000000000e+02 9.780000000000000000e+02 9.790000000000000000e+02 9.800000000000000000e+02 9.810000000000000000e+02 9.820000000000000000e+02 9.830000000000000000e+02 9.840000000000000000e+02 9.850000000000000000e+02 9.860000000000000000e+02 9.870000000000000000e+02 9.880000000000000000e+02 9.890000000000000000e+02 9.900000000000000000e+02 9.910000000000000000e+02 9.920000000000000000e+02 9.930000000000000000e+02 9.940000000000000000e+02 9.950000000000000000e+02 9.960000000000000000e+02 9.970000000000000000e+02 9.980000000000000000e+02 9.990000000000000000e+02 1.000000000000000000e+03
1.000000000000000021e-02 1.000000000000000021e-02 1.000000000000000021e-02 1.000000000000000021e-02 1.000000000000000021e-02 1.000000000000000021e-02 1.000000000000000021e-02 1.000000000000000021e-02 1.000000000000000021e-02 1.000000000000000021e-02 1.000000000000000021e-02 1.000000000000000021e-02 1.000000000000000021e-02 1.000000000000000021e-02 1.000000000000000021e-02 1.000000000000000021e-02 1.000000000000000021e-02 1.000000000000000021e-02 1.000000000000000021e-02 1.000000000000000021e-02 1.000000000000000021e-02 1.000000000000000021e-02 1.000000000000000021e-02 1.000000000000000021e-02 1.000000000000000021e-02 1.000000000000000021e-02 1.000000000000000021e-02 1.000000000000000021e-02 1.000000000000000021e-02 1.000000000000000021e-02 1.000000000000000021e-02 1.000000000000000021e-02 1.000000000000000021e-02 1.000000000000000021e-02 1.000000000000000021e-02 1.000000000000000021e-02 1.000000000000000021e-02 1.000000000000000021e-02 1.000000000000000021e-02 1.000000000000000021e-02 1.000000000000000021e-02 1.000000000000000021e-02 1.000000000000000021e-02 1.000000000000000021e-02 1.000000000000000021e-02 1.000000000000000021e-02 1.000000000000000021e-02 1.000000000000000021e-02 1.000000000000000021e-02 1.000000000000000021e-02 1.000000000000000021e-02 1.000000000000000021e-02 1.000000000000000021e-02 1.000000000000000021e-02 1.000000000000000021e-02 1.000000000000000021e-02 1.000000000000000021e-02 1.000000000000000021e-02 1.000000000000000021e-02 1.000000000000000021e-02 1.000000000000000021e-02 1.000000000000000021e-02 1.000000000000000021e-02 1.000000000000000021e-02 1.000000000000000021e-02 1.000000000000000021e-02 1.000000000000000021e-02 1.000000000000000021e-02 1.000000000000000021e-02 1.000000000000000021e-02 1.000000000000000021e-02 1.000000000000000021e-02 1.000000000000000021e-02 1.000000000000000021e-02 1.000000000000000021e-02 1.000000000000000021e-02 1.000000000000000021e-02 1.000000000000000021e-02 1.000000000000000021e-02 1.000000000000000021e-02 1.000000000000000021e-02 1.000000000000000021e-02 1.000000000000000021e-02 1.000000000000000021e-02 1.000000000000000021e-02 1.000000000000000021e-02 1.000000000000000021e-02 1.000000000000000021e-02 1.000000000000000021e-02 1.000000000000000021e-02 1.000000000000000021e-02 1.000000000000000021e-02 1.000000000000000021e-02 1.000000000000000021e-02 1.000000000000000021e-02 1.000000000000000021e-02 1.000000000000000021e-02 1.000000000000000021e-02 1.000000000000000021e-02 1.000000000000000021e-02 1.000000000000000021e-02 1.000000000000000021e-02 1.000000000000000021e-02 1.000000000000000021e-02 1.000000000000000021e-02 1.000000000000000021e-02 1.000000000000000021e-02 1.000000000000000021e-02 1.000000000000000021e-02 1.000000000000000021e-02 1.000000000000000021e-02 1.000000000000000021e-02 1.000000000000000021e-02 1.000000000000000021e-02 1.000000000000000021e-02 1.000000000000000021e-02 1.000000000000000021e-02 1.000000000000000021e-02 1.000000000000000021e-02 1.000000000000000021e-02 1.000000000000000021e-02 1.000000000000000021e-02 1.000000000000000021e-02 1.000000000000000021e-02 1.000000000000000021e-02 1.000000000000000021e-02 1.000000000000000021e-02 1.000000000000000021e-02 1.000000000000000021e-02 1.000000000000000021e-02 1.000000000000000021e-02 1.000000000000000021e-02 1.000000000000000021e-02 1.000000000000000021e-02 1.000000000000000021e-02 1.000000000000000021e-02 1.000000000000000021e-02 1.000000000000000021e-02 1.000000000000000021e-02 1.000000000000000021e-02 1.000000000000000021e-02 1.000000000000000021e-02 1.000000000000000021e-02 1.000000000000000021e-02 1.000000000000000021e-02 1.000000000000000021e-02 1.000000000000000021e-02 1.000000000000000021e-02 1.000000000000000021e-02 1.000000000000000021e-02 1.000000000000000021e-02 1.000000000000000021e-02 1.000000000000000021e-02 1.000000000000000021e-02 1.000000000000000021e-02 1.000000000000000021e-02 1.000000000000000021e-02 1.000000000000000021e-02 1.000000000000000021e-02 1.000000000000000021e-02 1.000000000000000021e-02 1.000000000000000021e-02 1.000000000000000021e-02 1.000000000000000021e-02 1.000000000000000021e-02 1.000000000000000021e-02 1.000000000000000021e-02 1.000000000000000021e-02 1.000000000000000021e-02 1.000000000000000021e-02 1.000000000000000021e-02 1.000000000000000021e-02 1.000000000000000021e-02 1.000000000000000021e-02 1.000000000000000021e-02 1.000000000000000021e-02 1.000000000000000021e-02 1.000000000000000021e-02 1.000000000000000021e-02 1.000000000000000021e-02 1.000000000000000021e-02 1.000000000000000021e-02 1.000000000000000021e-02 1.000000000000000021e-02 1.000000000000000021e-02 1.000000000000000021e-02 1.000000000000000021e-02 1.000000000000000021e-02 1.000000000000000021e-02 1.000000000000000021e-02 1.000000000000000021e-02 1.000000000000000021e-02 1.000000000000000021e-02 1.000000000000000021e-02 1.000000000000000021e-02 1.000000000000000021e-02 1.000000000000000021e-02 1.000000000000000021e-02 1.000000000000000021e-02 1.000000000000000021e-02 1.000000000000000021e-02 1.000000000000000021e-02 1.000000000000000021e-02 1.000000000000000021e-02 1.000000000000000021e-02 1.000000000000000021e-02 1.000000000000000021e-02 1.000000000000000021e-02 1.000000000000000021e-02 1.000000000000000021e-02 1.000000000000000021e-02 1.000000000000000021e-02 1.000000000000000021e-02 1.000000000000000021e-02 1.000000000000000021e-02 1.000000000000000021e-02 1.000000000000000021e-02 1.000000000000000021e-02 1.000000000000000021e-02 1.000000000000000021e-02 1.000000000000000021e-02 1.000000000000000021e-02 1.000000000000000021e-02 1.000000000000000021e-02 1.000000000000000021e-02 1.000000000000000021e-02 1.000000000000000021e-02 1.000000000000000021e-02 1.000000000000000021e-02 1.000000000000000021e-02 1.000000000000000021e-02 1.000000000000000021e-02 1.000000000000000021e-02 1.000000000000000021e-02 1.000000000000000021e-02 1.000000000000000021e-02 1.000000000000000021e-02 1.000000000000000021e-02 1.000000000000000021e-02 1.000000000000000021e-02 1.000000000000000021e-02 1.000000000000000021e-02 1.000000000000000021e-02 1.000000000000000021e-02 1.000000000000000021e-02 1.000000000000000021e-02 1.000000000000000021e-02 1.000000000000000021e-02 1.000000000000000021e-02 1.000000000000000021e-02 1.000000000000000021e-02 1.000000000000000021e-02 1.000000000000000021e-02 1.000000000000000021e-02 1.000000000000000021e-02 1.000000000000000021e-02 1.000000000000000021e-02 1.000000000000000021e-02 1.000000000000000021e-02 1.000000000000000021e-02 1.000000000000000021e-02 1.000000000000000021e-02 1.000000000000000021e-02 1.000000000000000021e-02 1.000000000000000021e-02 1.000000000000000021e-02 1.000000000000000021e-02 1.000000000000000021e-02 1.000000000000000021e-02 1.000000000000000021e-02 1.000000000000000021e-02 1.000000000000000021e-02 1.000000000000000021e-02 1.000000000000000021e-02 1.000000000000000021e-02 1.000000000000000021e-02 1.000000000000000021e-02 1.000000000000000021e-02 1.000000000000000021e-02 1.000000000000000021e-02 1.000000000000000021e-02 1.000000000000000021e-02 1.000000000000000021e-02 1.000000000000000021e-02 1.000000000000000021e-02 1.000000000000000021e-02 1.000000000000000021e-02 1.000000000000000021e-02 1.000000000000000021e-02 1.000000000000000021e-02 1.000000000000000021e-02 1.000000000000000021e-02 1.000000000000000021e-02 1.000000000000000021e-02 1.000000000000000021e-02 1.000000000000000021e-02 1.000000000000000021e-02 1.000000000000000021e-02 1.000000000000000021e-02 1.000000000000000021e-02 1.000000000000000021e-02 1.000000000000000021e-02 1.000000000000000021e-02 1.000000000000000021e-02 1.000000000000000021e-02 1.000000000000000021e-02 1.000000000000000021e-02 1.000000000000000021e-02 1.000000000000000021e-02 1.000000000000000021e-02 1.000000000000000021e-02 1.000000000000000021e-02 1.000000000000000021e-02 1.000000000000000021e-02 1.000000000000000021e-02 1.000000000000000021e-02 1.000000000000000021e-02 1.000000000000000021e-02 1.000000000000000021e-02 1.000000000000000021e-02 1.000000000000000021e-02 1.000000000000000021e-02 1.000000000000000021e-02 1.000000000000000021e-02 1.000000000000000021e-02 1.000000000000000021e-02 1.000000000000000021e-02 1.000000000000000021e-02 1.000000000000000021e-02 1.000000000000000021e-02 1.000000000000000021e-02 1.000000000000000021e-02 1.000000000000000021e-02 1.000000000000000021e-02 1.000000000000000021e-02 1.000000000000000021e-02 1.000000000000000021e-02 1.000000000000000021e-02 1.000000000000000021e-02 1.000000000000000021e-02 1.000000000000000021e-02 1.000000000000000021e-02 1.000000000000000021e-02 1.000000000000000021e-02 1.000000000000000021e-02 1.000000000000000021e-02 1.000000000000000021e-02 1.000000000000000021e-02 1.000000000000000021e-02 1.000000000000000021e-02 1.000000000000000021e-02 1.000000000000000021e-02 1.000000000000000021e-02 1.000000000000000021e-02 1.000000000000000021e-02 1.000000000000000021e-02 1.000000000000000021e-02 1.000000000000000021e-02 1.000000000000000021e-02 1.000000000000000021e-02 1.000000000000000021e-02 1.000000000000000021e-02 1.000000000000000021e-02 1.000000000000000021e-02 1.000000000000000021e-02 1.000000000000000021e-02 1.000000000000000021e-02 1.000000000000000021e-02 1.000000000000000021e-02 1.000000000000000021e-02 1.000000000000000021e-02 1.000000000000000021e-02 1.000000000000000021e-02 1.000000000000000021e-02 1.000000000000000021e-02 1.000000000000000021e-02 1.000000000000000021e-02 1.000000000000000021e-02 1.000000000000000021e-02 1.000000000000000021e-02 1.000000000000000021e-02 1.000000000000000021e-02 1.000000000000000021e-02 1.000000000000000021e-02 1.000000000000000021e-02 1.000000000000000021e-02 1.000000000000000021e-02 1.000000000000000021e-02 1.000000000000000021e-02 1.000000000000000021e-02 1.000000000000000021e-02 1.000000000000000021e-02 1.000000000000000021e-02 1.000000000000000021e-02 1.000000000000000021e-02 1.000000000000000021e-02 1.000000000000000021e-02 1.000000000000000021e-02 1.000000000000000021e-02 1.000000000000000021e-02 1.000000000000000021e-02 1.000000000000000021e-02 1.000000000000000021e-02 1.000000000000000021e-02 1.000000000000000021e-02 1.000000000000000021e-02 1.000000000000000021e-02 1.000000000000000021e-02 1.000000000000000021e-02 1.000000000000000021e-02 1.000000000000000021e-02 1.000000000000000021e-02 1.000000000000000021e-02 1.000000000000000021e-02 1.000000000000000021e-02 1.000000000000000021e-02 1.000000000000000021e-02 1.000000000000000021e-02 1.000000000000000021e-02 1.000000000000000021e-02 1.000000000000000021e-02 1.000000000000000021e-02 1.000000000000000021e-02 1.000000000000000021e-02 1.000000000000000021e-02 1.000000000000000021e-02 1.000000000000000021e-02 1.000000000000000021e-02 1.000000000000000021e-02 1.000000000000000021e-02 1.000000000000000021e-02 1.000000000000000021e-02 1.000000000000000021e-02 1.000000000000000021e-02 1.000000000000000021e-02 1.000000000000000021e-02 1.000000000000000021e-02 1.000000000000000021e-02 1.000000000000000021e-02 1.000000000000000021e-02 1.000000000000000021e-02 1.000000000000000021e-02 1.000000000000000021e-02 1.000000000000000021e-02 1.000000000000000021e-02 1.000000000000000021e-02 1.000000000000000021e-02 1.000000000000000021e-02 1.000000000000000021e-02 1.000000000000000021e-02 1.000000000000000021e-02 1.000000000000000021e-02 1.000000000000000021e-02 1.000000000000000021e-02 1.000000000000000021e-02 1.000000000000000021e-02 1.000000000000000021e-02 1.000000000000000021e-02 1.000000000000000021e-02 1.000000000000000021e-02 1.000000000000000021e-02 1.000000000000000021e-02 1.000000000000000021e-02 1.000000000000000021e-02 1.000000000000000021e-02 1.000000000000000021e-02 1.000000000000000021e-02 1.000000000000000021e-02 1.000000000000000021e-02 1.000000000000000021e-02 1.000000000000000021e-02 1.000000000000000021e-02 1.000000000000000021e-02 1.000000000000000021e-02 1.000000000000000021e-02 1.000000000000000021e-02 1.000000000000000021e-02 1.000000000000000021e-02 1.000000000000000021e-02 1.000000000000000021e-02 1.000000000000000021e-02 1.000000000000000021e-02 1.000000000000000021e-02 1.000000000000000021e-02 1.000000000000000021e-02 1.000000000000000021e-02 1.000000000000000021e-02 1.000000000000000021e-02 1.000000000000000021e-02 1.000000000000000021e-02 1.000000000000000021e-02 1.000000000000000021e-02 1.000000000000000021e-02 1.000000000000000021e-02 1.000000000000000021e-02 1.000000000000000021e-02 1.000000000000000021e-02 1.000000000000000021e-02 1.000000000000000021e-02 1.000000000000000021e-02 1.000000000000000021e-02 1.000000000000000021e-02 1.000000000000000021e-02 1.000000000000000021e-02 1.000000000000000021e-02 1.000000000000000021e-02 1.000000000000000021e-02 1.000000000000000021e-02 1.000000000000000021e-02 1.000000000000000021e-02 1.000000000000000021e-02 1.000000000000000021e-02 1.000000000000000021e-02 1.000000000000000021e-02 1.000000000000000021e-02 1.000000000000000021e-02 1.000000000000000021e-02 1.000000000000000021e-02 1.000000000000000021e-02 1.000000000000000021e-02 1.000000000000000021e-02 1.000000000000000021e-02 1.000000000000000021e-02 1.000000000000000021e-02 1.000000000000000021e-02 1.000000000000000021e-02 1.000000000000000021e-02 1.000000000000000021e-02 1.000000000000000021e-02 1.000000000000000021e-02 1.000000000000000021e-02 1.000000000000000021e-02 1.000000000000000021e-02 1.000000000000000021e-02 1.000000000000000021e-02 1.000000000000000021e-02 1.000000000000000021e-02 1.000000000000000021e-02 1.000000000000000021e-02 1.000000000000000021e-02 1.000000000000000021e-02 1.000000000000000021e-02 1.000000000000000021e-02 1.000000000000000021e-02 1.000000000000000021e-02 1.000000000000000021e-02 1.000000000000000021e-02 1.000000000000000021e-02 1.000000000000000021e-02 1.000000000000000021e-02 1.000000000000000021e-02 1.000000000000000021e-02 1.000000000000000021e-02 1.000000000000000021e-02 1.000000000000000021e-02 1.000000000000000021e-02 1.000000000000000021e-02 1.000000000000000021e-02 1.000000000000000021e-02 1.000000000000000021e-02 1.000000000000000021e-02 1.000000000000000021e-02 1.000000000000000021e-02 1.000000000000000021e-02 1.000000000000000021e-02 1.000000000000000021e-02 1.000000000000000021e-02 1.000000000000000021e-02 1.000000000000000021e-02 1.000000000000000021e-02 1.000000000000000021e-02 1.000000000000000021e-02 1.000000000000000021e-02 1.000000000000000021e-02 1.000000000000000021e-02 1.000000000000000021e-02 1.000000000000000021e-02 1.000000000000000021e-02 1.000000000000000021e-02 1.000000000000000021e-02 1.000000000000000021e-02 1.000000000000000021e-02 1.000000000000000021e-02 1.000000000000000021e-02 1.000000000000000021e-02 1.000000000000000021e-02 1.000000000000000021e-02 1.000000000000000021e-02 1.000000000000000021e-02 1.000000000000000021e-02 1.000000000000000021e-02 1.000000000000000021e-02 1.000000000000000021e-02 1.000000000000000021e-02 1.000000000000000021e-02 1.000000000000000021e-02 1.000000000000000021e-02 1.000000000000000021e-02 1.000000000000000021e-02 1.000000000000000021e-02 1.000000000000000021e-02 1.000000000000000021e-02 1.000000000000000021e-02 1.000000000000000021e-02 1.000000000000000021e-02 1.000000000000000021e-02 1.000000000000000021e-02 1.000000000000000021e-02 1.000000000000000021e-02 1.000000000000000021e-02 1.000000000000000021e-02 1.000000000000000021e-02 1.000000000000000021e-02 1.000000000000000021e-02 1.000000000000000021e-02 1.000000000000000021e-02 1.000000000000000021e-02 1.000000000000000021e-02 1.000000000000000021e-02 1.000000000000000021e-02 1.000000000000000021e-02 1.000000000000000021e-02 1.000000000000000021e-02 1.000000000000000021e-02 1.000000000000000021e-02 1.000000000000000021e-02 1.000000000000000021e-02 1.000000000000000021e-02 1.000000000000000021e-02 1.000000000000000021e-02 1.000000000000000021e-02 1.000000000000000021e-02 1.000000000000000021e-02 1.000000000000000021e-02 1.000000000000000021e-02 1.000000000000000021e-02 1.000000000000000021e-02 1.000000000000000021e-02 1.000000000000000021e-02 1.000000000000000021e-02 1.000000000000000021e-02 1.000000000000000021e-02 1.000000000000000021e-02 1.000000000000000021e-02 1.000000000000000021e-02 1.000000000000000021e-02 1.000000000000000021e-02 1.000000000000000021e-02 1.000000000000000021e-02 1.000000000000000021e-02 1.000000000000000021e-02 1.000000000000000021e-02 1.000000000000000021e-02 1.000000000000000021e-02 1.000000000000000021e-02 1.000000000000000021e-02 1.000000000000000021e-02 1.000000000000000021e-02 1.000000000000000021e-02 1.000000000000000021e-02 1.000000000000000021e-02 1.000000000000000021e-02 1.000000000000000021e-02 1.000000000000000021e-02 1.000000000000000021e-02 1.000000000000000021e-02 1.000000000000000021e-02 1.000000000000000021e-02 1.000000000000000021e-02 1.000000000000000021e-02 1.000000000000000021e-02 1.000000000000000021e-02 1.000000000000000021e-02 1.000000000000000021e-02 1.000000000000000021e-02 1.000000000000000021e-02 1.000000000000000021e-02 1.000000000000000021e-02 1.000000000000000021e-02 1.000000000000000021e-02 1.000000000000000021e-02 1.000000000000000021e-02 1.000000000000000021e-02 1.000000000000000021e-02 1.000000000000000021e-02 1.000000000000000021e-02 1.000000000000000021e-02 1.000000000000000021e-02 1.000000000000000021e-02 1.000000000000000021e-02 1.000000000000000021e-02 1.000000000000000021e-02 1.000000000000000021e-02 1.000000000000000021e-02 1.000000000000000021e-02 1.000000000000000021e-02 1.000000000000000021e-02 1.000000000000000021e-02 1.000000000000000021e-02 1.000000000000000021e-02 1.000000000000000021e-02 1.000000000000000021e-02 1.000000000000000021e-02 1.000000000000000021e-02 1.000000000000000021e-02 1.000000000000000021e-02 1.000000000000000021e-02 1.000000000000000021e-02 1.000000000000000021e-02 1.000000000000000021e-02 1.000000000000000021e-02 1.000000000000000021e-02 1.000000000000000021e-02 1.000000000000000021e-02 1.000000000000000021e-02 1.000000000000000021e-02 1.000000000000000021e-02 1.000000000000000021e-02 1.000000000000000021e-02 1.000000000000000021e-02 1.000000000000000021e-02 1.000000000000000021e-02 1.000000000000000021e-02 1.000000000000000021e-02 1.000000000000000021e-02 1.000000000000000021e-02 1.000000000000000021e-02 1.000000000000000021e-02 1.000000000000000021e-02 1.000000000000000021e-02 1.000000000000000021e-02 1.000000000000000021e-02 1.000000000000000021e-02 1.000000000000000021e-02 1.000000000000000021e-02 1.000000000000000021e-02 1.000000000000000021e-02 1.000000000000000021e-02 1.000000000000000021e-02 1.000000000000000021e-02 1.000000000000000021e-02 1.000000000000000021e-02 1.000000000000000021e-02 1.000000000000000021e-02 1.000000000000000021e-02 1.000000000000000021e-02 1.000000000000000021e-02 1.000000000000000021e-02 1.000000000000000021e-02 1.000000000000000021e-02 1.000000000000000021e-02 1.000000000000000021e-02 1.000000000000000021e-02 1.000000000000000021e-02 1.000000000000000021e-02 1.000000000000000021e-02 1.000000000000000021e-02 1.000000000000000021e-02 1.000000000000000021e-02 1.000000000000000021e-02 1.000000000000000021e-02 1.000000000000000021e-02 1.000000000000000021e-02 1.000000000000000021e-02 1.000000000000000021e-02 1.000000000000000021e-02 1.000000000000000021e-02 1.000000000000000021e-02 1.000000000000000021e-02 1.000000000000000021e-02 1.000000000000000021e-02 1.000000000000000021e-02 1.000000000000000021e-02 1.000000000000000021e-02 1.000000000000000021e-02 1.000000000000000021e-02 1.000000000000000021e-02 1.000000000000000021e-02 1.000000000000000021e-02 1.000000000000000021e-02 1.000000000000000021e-02 1.000000000000000021e-02 1.000000000000000021e-02 1.000000000000000021e-02 1.000000000000000021e-02 1.000000000000000021e-02 1.000000000000000021e-02 1.000000000000000021e-02 1.000000000000000021e-02 1.000000000000000021e-02 1.000000000000000021e-02 1.000000000000000021e-02 1.000000000000000021e-02 1.000000000000000021e-02 1.000000000000000021e-02 1.000000000000000021e-02 1.000000000000000021e-02 1.000000000000000021e-02 1.000000000000000021e-02 1.000000000000000021e-02 1.000000000000000021e-02 1.000000000000000021e-02 1.000000000000000021e-02 1.000000000000000021e-02 1.000000000000000021e-02 1.000000000000000021e-02 1.000000000000000021e-02 1.000000000000000021e-02 1.000000000000000021e-02 1.000000000000000021e-02 1.000000000000000021e-02 1.000000000000000021e-02 1.000000000000000021e-02 1.000000000000000021e-02 1.000000000000000021e-02 1.000000000000000021e-02 1.000000000000000021e-02 1.000000000000000021e-02 1.000000000000000021e-02 1.000000000000000021e-02 1.000000000000000021e-02 1.000000000000000021e-02 1.000000000000000021e-02 1.000000000000000021e-02 1.000000000000000021e-02 1.000000000000000021e-02 1.000000000000000021e-02 1.000000000000000021e-02 1.000000000000000021e-02 1.000000000000000021e-02 1.000000000000000021e-02 1.000000000000000021e-02 1.000000000000000021e-02 1.000000000000000021e-02 1.000000000000000021e-02 1.000000000000000021e-02 1.000000000000000021e-02 1.000000000000000021e-02 1.000000000000000021e-02 1.000000000000000021e-02 1.000000000000000021e-02 1.000000000000000021e-02 1.000000000000000021e-02 1.000000000000000021e-02 1.000000000000000021e-02 1.000000000000000021e-02 1.000000000000000021e-02 1.000000000000000021e-02 1.000000000000000021e-02 1.000000000000000021e-02 1.000000000000000021e-02 1.000000000000000021e-02 1.000000000000000021e-02 1.000000000000000021e-02 1.000000000000000021e-02 1.000000000000000021e-02 1.000000000000000021e-02 1.000000000000000021e-02 1.000000000000000021e-02 1.000000000000000021e-02 1.000000000000000021e-02 1.000000000000000021e-02 1.000000000000000021e-02 1.000000000000000021e-02 1.000000000000000021e-02 1.000000000000000021e-02 1.000000000000000021e-02 1.000000000000000021e-02 1.000000000000000021e-02 1.000000000000000021e-02 1.000000000000000021e-02 1.000000000000000021e-02 1.000000000000000021e-02 1.000000000000000021e-02 1.000000000000000021e-02 1.000000000000000021e-02 1.000000000000000021e-02 1.000000000000000021e-02 1.000000000000000021e-02 1.000000000000000021e-02 1.000000000000000021e-02 1.000000000000000021e-02 1.000000000000000021e-02 1.000000000000000021e-02 1.000000000000000021e-02 1.000000000000000021e-02 1.000000000000000021e-02 1.000000000000000021e-02 1.000000000000000021e-02 1.000000000000000021e-02 1.000000000000000021e-02 1.000000000000000021e-02 1.000000000000000021e-02 1.000000000000000021e-02 1.000000000000000021e-02 1.000000000000000021e-02 1.000000000000000021e-02 1.000000000000000021e-02 1.000000000000000021e-02 1.000000000000000021e-02 1.000000000000000021e-02 1.000000000000000021e-02 1.000000000000000021e-02 1.000000000000000021e-02 1.000000000000000021e-02 1.000000000000000021e-02 1.000000000000000021e-02 1.000000000000000021e-02 1.000000000000000021e-02 1.000000000000000021e-02 1.000000000000000021e-02 1.000000000000000021e-02 1.000000000000000021e-02 1.000000000000000021e-02 1.000000000000000021e-02 1.000000000000000021e-02 1.000000000000000021e-02 1.000000000000000021e-02 1.000000000000000021e-02 1.000000000000000021e-02 1.000000000000000021e-02 1.000000000000000021e-02 1.000000000000000021e-02 1.000000000000000021e-02 1.000000000000000021e-02 1.000000000000000021e-02 1.000000000000000021e-02 1.000000000000000021e-02 1.000000000000000021e-02 1.000000000000000021e-02 1.000000000000000021e-02 1.000000000000000021e-02 1.000000000000000021e-02 1.000000000000000021e-02 1.000000000000000021e-02 1.000000000000000021e-02 1.000000000000000021e-02 1.000000000000000021e-02 1.000000000000000021e-02 1.000000000000000021e-02 1.000000000000000021e-02 1.000000000000000021e-02 1.000000000000000021e-02 1.000000000000000021e-02 1.000000000000000021e-02 1.000000000000000021e-02 1.000000000000000021e-02 1.000000000000000021e-02 1.000000000000000021e-02 1.000000000000000021e-02 1.000000000000000021e-02 1.000000000000000021e-02 1.000000000000000021e-02 1.000000000000000021e-02 1.000000000000000021e-02 1.000000000000000021e-02 1.000000000000000021e-02 1.000000000000000021e-02 1.000000000000000021e-02 1.000000000000000021e-02 1.000000000000000021e-02 1.000000000000000021e-02 1.000000000000000021e-02 1.000000000000000021e-02 1.000000000000000021e-02 1.000000000000000021e-02 1.000000000000000021e-02 1.000000000000000021e-02 1.000000000000000021e-02 1.000000000000000021e-02 1.000000000000000021e-02 1.000000000000000021e-02 1.000000000000000021e-02 1.000000000000000021e-02 1.000000000000000021e-02 1.000000000000000021e-02 1.000000000000000021e-02 1.000000000000000021e-02 1.000000000000000021e-02 1.000000000000000021e-02 1.000000000000000021e-02 1.000000000000000021e-02 1.000000000000000021e-02 1.000000000000000021e-02 1.000000000000000021e-02 1.000000000000000021e-02 1.000000000000000021e-02 1.000000000000000021e-02 1.000000000000000021e-02 1.000000000000000021e-02 1.000000000000000021e-02 1.000000000000000021e-02 1.000000000000000021e-02 1.000000000000000021e-02 1.000000000000000021e-02 1.000000000000000021e-02 1.000000000000000021e-02 1.000000000000000021e-02 1.000000000000000021e-02 1.000000000000000021e-02
-1.074619144394896892e+02 1.634742172499398691e+02 3.785601196916294953e+01 -8.501027656542085253e+00 -8.465902771017101713e+01 -1.289825292583286220e+01 -2.003644454466937077e+02 6.848993109092073039e-01 -8.159914431856171291e+01 -1.365033698676805685e+01 -1.912848483295342206e+01 6.315176175991981999e+00 -1.718019803144411384e+00 1.616690732905749712e+02 8.154446490752685861e+01 -3.741078704100741703e+01 -5.092508084038978922e+01 7.633003219275738616e+01 3.163721860947049791e+01 -2.446190382190111734e+01 -7.595791057437959637e+01 -7.109316576228950169e+01 -1.328672455344384851e+01 2.787950943988273522e+01 -1.878088167127100974e+02 -9.511252181901706138e+01 -2.514563270781820492e+01 1.942664413555118870e+02 6.818562901171209489e+01 7.397129156822458640e+01 7.738137575303304061e+01 1.136398700069486178e+00 -7.645077601116994970e+01 1.999655505698680713e+02 -2.360027776485197819e+02 5.675130758701000389e+01 -1.157172347734905458e+02 -3.343300428588684525e+01 3.892648684248900093e+00 1.221113350776774809e+02 -1.184154119773809413e+02 -1.312207649045676483e+01 7.451657630715956770e+01 1.673110602814252559e+02 6.873205033669597697e+01 -6.588115692663018308e+01 3.966721949178502626e+01 -2.737089489509624585e+01 -6.366380467476145810e+01 1.508941174470731141e+02 -6.792084629506582871e+01 -5.019426918952543559e+01 -1.343371577619037112e+02 5.619797553586941774e+00 -4.867955589925871607e+01 3.727852177735055506e+01 -8.551481648029405847e+01 -4.823017008044322296e+01 -9.773288715783409941e+01 -1.498271138033896079e+02 1.870737775265798319e+01 4.376789114261662661e+01 -1.186747509886220797e+02 1.238245342998244247e+01 -7.638333620205271757e+01 4.734751871570872339e+01 1.606561084492897464e+02 -1.390621492145888567e+02 -4.172229309038065992e+01 6.964693259503296652e+00 2.835631022942105339e+00 4.086150642540356159e+01 8.094496400262302416e+01 7.590235494465467081e-01 -8.522793644449164319e+00 -6.747323899687290805e+01 7.541390412220546580e+01 -3.152843561502536929e+01 2.536138373439854377e+01 1.002704987390794429e+02 8.500246923875128857e+01 -4.123010711126256922e+01 5.566172283569769519e+01 1.421000071452327802e+02 1.120225787289115971e+02 -3.845469205436490068e+00 1.678871474219304503e+02 -1.075046595994261338e+02 4.011173843108654324e+00 -4.042466052339727156e+01 1.993422841494131603e+02 -2.045727104489555614e+01 2.799412105408896956e+00 -7.401121955586768308e+01 -6.895546040427968926e+00 -6.150471293163700182e+01 6.534308269306447414e+01 -9.114931353034202743e+01 6.616894948827508927e+01 -4.605132104725412034e+01 -4.794537815357272592e+01 -8.836078226134185343e+01 5.113785090843917658e+01 -5.269877838340953247e+01 -1.439349938063358820e+02 -7.657758890460571877e+01 -1.008238338450148603e+02 -1.515482711227672894e+02 1.310125436570963018e+02 -2.644604050649682492e+01 3.089126450287145431e+01 8.642834040750658176e+01 -1.002739315543687439e+02 5.488495084395977130e+01 -4.175018538239441312e+01 -6.691645720576377698e+01 -8.689216905402113866e+01 1.958530797025773609e+02 -5.468699719863217723e+01 -4.773994428486508212e+01 -4.545412467909408605e+01 7.748936307616796171e+01 -3.993065181801559760e+01 1.329713302775674322e+02 -4.813877207115918822e+01 5.315500187338695071e+01 4.379520413059970529e+00 -7.814237304258358563e+01 6.628880882856689993e+01 2.673964207495724850e+02 -8.875788945390023343e+01 4.575356440664871371e+01 -7.353940638280528219e+01 4.361866773577131795e+01 1.264911587337797982e+02 -4.959333990464755004e+01 1.410044580544438375e+01 -2.598680364057173620e+01 -9.831246137702996180e+01 -1.674716430474152773e+01 4.161663778471840658e+00 -7.526999845937793587e+00 -1.440214591785840526e+01 1.139679989705672796e+02 1.257591914481830031e+02 1.798511187721223621e+02 -2.935702455216509179e+02 3.684311619929680859e+01 -1.522193090538141114e+01 -6.013086616747908408e+01 1.739845431231803161e+02 7.344409588771510755e+01 -2.535236549383374616e+00 -1.118504094713397450e+02 -1.048850034311712420e+01 9.658359514135518964e+01 -1.296436711308868155e+02 -1.627009991736070447e+02 1.036270110983003789e+01 4.093047024505249709e+01 -5.891389247300767806e+01 4.057823303452933317e+01 -1.033510482975054572e+02 -1.460440405555860366e+02 2.034977287155640369e+01 4.689496064663048003e+01 4.663113454416274450e+00 -8.054741100424546119e+01 -9.036122721767578980e+01 -8.137376691328854861e+01 -8.455739120514218143e+01 1.224001229378437294e+01 5.487961208599434570e+01 1.125683249435784603e+02 7.672949838581141080e+01 8.651124174865078942e+01 1.038964944602602003e+02 -7.227985639283762964e+01 -7.975393818177518312e+01 6.818547882232333279e+01 6.631092629318811760e+01 5.728324319814353061e+01 -9.072127754898122731e+00 -8.811021386903496477e+01 5.225280376126335113e+01 -1.733552497916271591e+02 6.504263075241752290e+01 -4.308951392729092333e+01 -9.337209305639419199e+01 7.188096456042470095e+01 -1.663601046992901189e+01 -7.469791203487052655e+01 -5.565646676417276240e+01 -8.897447430424335835e+00 2.353237458121319889e+02 7.462429419513594553e+01 5.320045422971768545e+01 -1.007554550672166016e+02 1.438899765543930016e+02 1.045022359783173371e+00 -8.771496118580409984e+01 1.513144991902964591e+02 -1.496867031556297150e+02 1.532719870971651588e+01 -3.158204853671806589e+01 -2.158837624402204654e+02 -1.309572962590006853e+02 -8.566192140602264260e+01 -2.888212870679538824e+01 -1.170720813333182946e+02 5.660504274717163753e+01 6.384468036846587324e+01 -2.711861650823182757e+01 -9.801573317642865391e+01 1.110783901712788975e+02 1.160552030829421852e+02 4.538850013543899564e+01 1.720612953256078015e+01 2.568519407505240224e+02 4.288746589552973631e+01 -1.174601154084825652e+02 -4.431496981442738559e+01 -1.659258235462815207e+02 3.133037079617535881e+01 1.506728074889466598e+02 -1.457627978595515401e+02 1.295184347711750092e+02 -8.944222664978492787e+01 -1.862663276583319671e+01 -8.056753388507070790e-01 5.201056804408380430e+01 -1.137681434435327787e+01 -2.245763577670294353e+01 -1.849200385299173277e+01 -1.247258967109746237e+02 4.563766901922705443e+01 -2.984176469644505403e+01 -1.270300904577626078e+01 -1.055233355662266348e+01 2.223604493492271672e+02 1.714943882796727621e+02 2.289313935237292128e+02 1.297087707168525981e+02 -8.520405120020443235e+01 7.395861495157704724e+01 2.082061228038271139e+01 4.676070508039783391e+01 -3.903133363831539526e+01 2.513922402371318583e+02 -2.295849455254379023e+01 -1.346004714222839311e+02 -1.470423453604946751e+01 -4.513228939989962640e+01 -7.616978324505544151e+01 4.248269322551714566e+01 -1.153008954763378036e+01 1.790970039034595800e+02 9.089566132908349516e+01 4.024252040277488618e+01 9.646609355697783883e+01 9.319122971170135372e+01 -2.263235342680398077e+01 1.374930066579845231e+02 2.613541720481677544e+01 8.825239310150128347e+01 4.697056918192308217e+01 6.816758360852515075e+00 -1.139928208605357867e+02 -1.141254322918630777e+02 -8.868949961393867909e+01 -1.532690008650457258e+01 8.539678222996028012e+01 -3.015797906125655459e+01 9.739760724201802589e+01 4.317140455158427415e+01 -7.163193268370829969e+01 -2.948921451233109181e+01 -5.770387442936799971e+01 1.730717558805353207e+01 -4.559116233519461758e+01 -1.103633176211356783e+02 1.196806056384184274e+02 1.195319248478223955e+02 -7.780028678409060205e+01 5.306897762302255295e+00 -4.465422400475511466e+01 -3.206411890775935092e+01 -1.117118855886156759e+01 -3.078018997364566545e+01 4.383958335222155256e+01 -1.384766655228848151e+02 -5.206841304225670797e+01 -1.495431084712762697e+02 1.714553856366223670e+02 -1.986203235537596967e+01 5.798613520438119195e+01 1.171655622863690560e+01 1.421228496576157454e+02 4.389252510002089025e+01 3.512469976769889968e+01 1.519215737580044561e+02 -4.846958335113475869e+01 -9.606490341072462513e+01 2.678722314401805704e+01 -1.554340386722847711e+02 -5.253510862779673829e+01 1.006545592072167636e+02 -1.254204496475633022e+02 -3.575040196473339904e+01 8.975525088056663492e+01 -9.284249447435843194e+01 -8.793750213466157106e+01 -8.122702155583993999e+01 -6.268691200464383684e+01 2.448528086947652582e+02 1.948030844703017124e+02 1.011905870983397620e+02 -1.004258730072794776e+02 7.352859151788142356e+01 -6.506777673124069850e+01 -3.089594085905493515e+01 1.632763320625388914e+01 -3.171381925471623475e+01 -9.204955685815757249e+01 -2.771131513225066012e+00 1.447579355536182888e+01 1.068280785692248713e+02 -1.261340795374059098e+02 4.120979122118815496e+01 6.258401999565595730e+01 3.385281903166937667e+01 -8.890403294026131675e+01 -1.457127384706681994e+02 1.894277893700317179e+02 -1.745485240609624356e+01 2.469634413090102498e+01 1.535322837581554438e+02 2.613351772268024575e+01 2.717561073089822798e+01 -4.366247248947387050e+01 8.683457035714397421e+01 -1.335710746080313527e+02 -3.016673722861383666e+01 -6.013417587269883846e+00 -5.228910936095268625e+01 6.193613059675685761e+00 2.080224783011688672e+01 -3.504443442081930726e+01 1.338083542277491667e+01 2.092468428354641787e+02 -2.682974081718476711e+01 -2.742387837297072295e+01 -9.950808506572491297e+01 -1.597311860390843830e+00 -7.901590271781958563e+01 6.232548122633014387e+00 1.096946117024574221e+02 -5.090171541649038289e+01 5.909749055891848180e+00 -5.313092602612196202e+01 3.238055537601623346e+00 8.530270405110226761e+01 -1.133355070762836192e+02 -9.474507488010340239e+01 -1.003611183722522497e+02 6.978628404767802351e+01 8.466915175315412512e+01 -9.020323689232836273e+01 6.128515904767319000e+01 2.527849806248043762e+01 3.784125242025594105e+01 -1.735065396309516572e+01 8.936021828425319313e+01 7.793872345989802852e+01 -7.554587249091319734e+01 1.152454520268392635e+01 7.908498040705467247e+01 7.122912265330403159e+01 -1.947629799919420890e+01 2.440616890448319865e+01 -1.296670080711286346e+02 4.747171148034598787e+01 -3.205893006633460374e+01 -3.196947407331652258e+01 1.693477875537562056e+02 4.636204368671351261e+01 1.175290840050651440e+02 1.867454063342828192e+02 -1.346172034447165800e+02 1.457964060309422791e+02 -6.205651123514701339e+01 -1.321511750410394370e+02 8.048566736649723907e+01 -1.310669731357402554e+02 -2.807986476510758322e+01 5.514077141403630833e+01 7.860377360983484607e+00 -1.644567109041339279e+02 8.240782632207273650e+01 2.468291006238599650e+01 6.754980185979410123e+01 3.550718557331401115e+01 9.253610673096467565e+00 -6.562169280558636331e+01 1.131264058599288660e+02 5.328373535574117170e+01 -6.073276419403702420e+01 -9.899265840672818229e+01 3.803597720855739794e+01 2.516813119254153008e+01 8.057617381267796475e+01 1.797222706315575920e+02 -2.406342540530697960e+01 -1.077117237111227581e+02 -8.278131699920483300e+01 -5.017197913092752515e+01 -4.332746683508089802e+01 -1.434432585681256285e+02 -2.202906250534227794e+01 1.266435209202681875e+02 7.286035053742443779e+01 -1.196336465420392159e+02 -1.465959539488958399e+02 -6.655365908898133398e+01 -7.459468902054308614e+01 1.435507036289155849e+02 -1.666589388523563855e+02 8.464136553403184848e+01 -4.503469456950971228e+00 -4.207889006489281769e+01 1.298587429319236897e+01 8.909279000069585663e+01 4.843339520862988223e+01 1.351056163283045919e+02 -1.555736641632881003e+02 -7.915257277082729104e+01 2.481363756611245108e+01 4.098423386495715448e+01 2.014755812813733655e+02 1.422011240747670797e+02 6.408258042481199368e+01 7.048232699088265463e+01 -3.326911209690083382e+01 1.483743614014484251e+02 -1.753478813909098903e+02 -6.200511106205241418e+01 -5.247027268785950582e+01 -5.062518398434129097e+01 -1.009218784911581679e+02 -1.466156009933486537e+01 -6.707985549346774690e+01 6.955063431471637614e+01 -8.932379169034762256e+00 -5.673607038402621328e+01 -6.080494996818089248e+01 1.761121783838987369e+02 5.771575563468761061e+01 -1.343293286747274173e+01 2.041644933388055563e+02 -1.059075528096122554e+02 -3.452336953042716772e+01 6.544854700179774909e+01 -1.356500506605611278e-01 1.464395946215160293e+01 -1.222950559563631288e+02 1.721887514669652717e+02 -4.782563406107020398e+01 -2.627754078760601075e+01 -1.071803923257704270e+02 1.229512741938883522e+02 9.362074844728009282e+01 -7.570734947060242348e+01 -3.676337185457084189e+01 3.806184820426197746e+01 -1.478399748265060225e+02 -1.966739655441872847e-01 -7.294920306422125122e+01 7.499568453343005814e+00 -1.055372748773242364e+02 -1.547790593943093427e+02 -6.901124484823887428e+01 1.446591945030878605e+02 5.518812867419055834e+01 -8.749621638889306041e+01 8.700953367182489728e+01 3.337881604592964635e+01 8.622235252794337157e+01 -4.109825085541118028e+01 -8.201990456747627434e+01 1.668631626693550629e+02 4.060682181509685051e+01 2.823165547926959817e+01 -7.118032671542040646e+01 -4.126630037507261761e+01 9.272959063981625505e+00 -6.997523527070047322e+00 -1.685275824027150406e+02 -3.375691068726450084e+01 6.278524986420542575e+01 1.087623905787024228e+02 1.518023388226135069e+02 -1.295232305302591413e+01 8.733916021120867867e+01 1.537099178016420069e+02 6.177530966620027186e+01 1.438567326386062746e+02 1.564975688983682112e+01 1.278851593288795812e+02 -8.174091609231049915e+01 5.192194967911768089e+01 2.851977549590176864e+01 7.381957066308893900e+01 -1.033486412478649612e+02 1.926918558727727770e+02 -1.251660340298891043e+02 8.589785169327758751e+01 -1.043912991473331147e+02 4.488549367006813640e+01 1.342276270535792548e+01 8.812723032261116884e+01 -7.155176493972534502e+01 -7.335192039702080535e+01 -1.081162008602850833e+01 8.651721625030269536e+01 -2.873307622000952577e+01 -1.581889726157970877e+01 -1.905391254165871828e+01 4.595070040330882399e+00 9.519468535852259095e+01 -6.065082628240343610e+01 -2.620628140414584806e+00 -1.877877888634789088e+02 1.181216072935776964e+02 -1.208259635879790181e+02 -7.146329334591612792e+01 -2.275424673188266667e+01 -1.044376123762220629e+02 -5.141292272297693700e+01 -5.668055920996867059e+01 -1.905410671792246546e+01 1.317719963225595734e+02 5.229236948315097067e+01 9.712291686316744688e+01 -1.316394644567863565e+02 -1.340264653581718903e+02 -2.772972138976158476e+02 9.884648846808808287e+01 1.008039700104611853e+02 4.094122037472894249e+01 -4.108772498903137205e+01 -3.594397686032007044e+01 -1.776622286998271818e+02 1.412942569784002558e+02 -1.038870160715020319e+02 1.034593323189619980e+02 -1.539710914100497519e+02 -1.385330707096059299e+01 -5.356507247782666781e+01 -1.153637611463053929e+02 -4.459966794305125148e+01 -1.214041891845373122e+01 -8.965472636836776132e+01 -1.000820896778644311e+02 -1.195918634964528948e+01 6.886085731577172453e+01 -1.205463103770338478e+02 -1.513618234324816925e+01 -7.134723221240874125e+01 -1.271337900664811968e+02 6.373183994845337708e+00 9.200052912710853548e+01 1.601812424811482458e+02 -1.843805395952102444e+01 -4.455884259378559875e+01 -1.201798559619510911e+02 -1.583852641230192546e+02 1.004834134078733996e+02 -7.040944196670196220e+01 7.646278438952894874e+01 9.097645191989975899e+00 2.827938286026365589e+01 7.149622155377497279e+01 -8.208511071544594984e+01 8.007590743709268111e+01 1.116492821559191668e+02 1.525580582989835250e+02 -1.128513480220169214e+02 1.006996525154977462e+02 -4.629259601835020277e+01 -8.795956512058965870e+01 2.078950773344991489e+02 4.766678414176995204e+01 8.086224505093018422e+01 2.054145644783491420e+01 -6.131125811869864606e+01 -3.384296810046379989e+01 -2.038218154479211535e+02 1.023441403428839465e+02 7.893716689565547995e+01 -7.333312756764895823e+01 -7.082529428553530693e+01 1.406539366941062497e+02 9.790965581507818172e+01 4.952572591011293213e+01 7.368730255991540901e+01 -7.598461688286876736e+00 9.996726289860494319e+01 -1.003560685876305030e+02 1.805259766917204161e+02 -3.825079324931861180e+01 -1.182024921013194216e+02 -3.653705110814899371e+01 6.950104291896087716e+01 1.427301047751025465e+02 1.244235619136788529e+01 1.683979840101179661e+02 5.055367209931917216e+01 3.258905001471933360e+01 -1.078292857663784616e+02 4.337900386662094832e+01 -1.210811812029377563e+02 4.623135771437000585e+01 3.736691483345546061e+01 -1.195332236066000320e+02 -8.238613959795358710e+01 3.861879972672502248e+01 8.452693430036472222e+00 -2.248096064914399861e+01 4.058223195289701835e+01 -2.073549778544893840e+01 -6.111982826791469847e+01 -2.542615680084796637e+01 -2.171522511253997223e+01 -3.857506210089710663e+01 1.817620660546717914e+01 -7.802208644109772706e+01 1.152263800178361208e+02 -7.195019188548825184e+01 -4.066573069830235809e+00 6.358339158986101580e+01 3.750977492200000984e+00 1.546912715187152010e+01 1.547366259521764498e+01 -1.134506852493509257e+02 -4.267895619122910489e+00 6.301015635859236141e+01 -2.241868734286531435e+02 -8.223779214651565894e+01 -1.091613232760717693e+02 4.242953717433167071e+01 9.319817527806509361e+01 -8.889371919804493416e+01 -1.626204673468119211e+02 -1.793878555505272914e+02 1.932643901444211565e+01 -1.403544678652813502e+02 -6.129231911536675348e+00 1.429008676448793267e+02 -6.841804112920926606e+00 3.592215993093615367e+01 -9.561931693917402697e+01 7.718803945225234031e+01 -1.145272835629597949e+02 -1.491029025041489220e+01 -2.923362247499170863e+01 5.559857851324812117e+01 -8.525102386188251558e+00 1.019505256640934476e+02 -1.177613820348889249e+02 -4.829777987606035339e+01 8.355892107822876369e+01 6.375838014553109190e+01 -7.931573199638590665e+01 -5.242731228329131454e+01 -4.756948384182700096e+01 -2.786789822630190088e+02 1.863182210066004814e+02 7.320955054818851693e+01 -2.267571069042251963e+01 -2.854724367723910206e+01 3.994642654836477647e+01 -8.086754851937165256e+01 9.565808447722142205e+01 5.814407673726365999e+01 7.871529669150272923e+01 -8.079670599517712049e+01 -2.544818970013559678e+01 3.199447646884119578e+01 1.669227086073980360e+01 -4.115313027117745293e+01 1.516886248080361099e+02 -1.658955376198948173e+01 3.400171524095206621e+01 -2.206684800010090157e+02 -8.125399847123391339e+01 -7.019362875158536497e+01 2.210101371657529157e+01 1.047706443613745932e+02 -2.224068184982933190e+02 -1.794832573839769907e+02 2.126571287944117898e+02 -1.013630153329235561e+01 9.214735312277406365e+01 6.009453685549119939e+01 -5.309287298720799697e+01 -1.256856334637215866e+02 -9.130002079278264659e+01 -4.820790029094074924e+01 -3.588953829625659608e+01 -3.757322223121625626e+01 1.547394644321470558e+01 3.570700771097948945e+01 1.601012306451472682e+02 1.182575102514573899e+02 6.714607522287211694e+00 -4.233011110036598801e+00 -1.522971934511249970e+02 1.147978322080819709e+02 1.528304994394571850e+02 -9.926985635418868981e+01 7.072871991167058070e+01 1.620925499963105310e+00 5.271503256347581612e+01 1.202843127006109967e+02 6.806535744723018411e+01 -1.286216027109796869e+02 1.546042642520876242e+01 -2.819875386928915262e+01 1.069565058184740103e+01 -2.216026923985883101e+01 4.350379119095504166e+01 -2.501735430185524081e+02 1.738945528980589756e+02 6.967349735561274571e+00 1.530482495383936339e+02 -1.009793075828235764e+01 1.019426329407620813e+02 6.879757004384285324e+01 -4.031259962519791884e+01 2.877829795134973523e+01 -6.998962613525590371e+01 -8.554114648618352135e+01 -6.924562822341657409e+01 -3.081927926893172298e+01 4.342294667385895224e+01 1.059184192235580326e+02 2.737070901969577008e+01 5.980102325049413281e+01 -1.008403757692803282e+02 -1.319264595655432970e+02 -1.297218975494756421e+01 4.462183259531815338e+01 -4.371779224805623443e+01 9.104014866553492880e+01 5.346463067168083683e+01 -2.660090367275754986e+01 2.882034328426445668e+01 5.910323899302839834e+01 -6.940041590939522109e+01 -1.287384183851096111e+02 1.367738140335158619e+02 7.522220153844554780e+00 4.828619797802953428e+01 -1.438326416514273092e+02 -5.145755464174320082e+01 -4.164666437516193476e-01 -6.342889321604623376e+01 4.104982524017533940e+00 5.427610934197810622e+01 1.797720687769785570e+02 3.773696242831820769e+01 -1.056747189264096676e+01 6.970130716802383120e+01 -4.386060974588084349e+01 -1.051442011249098698e+02 -1.333377992408870227e+02 9.034412659680143065e+00 2.423882237605568690e+01 2.301386035494837401e+01 -5.492349526244915836e+01 1.166665415036939635e+02 -7.806058639625112505e+01 1.239536722517474487e+02 8.432922440267188335e+01 -6.284183067862775118e+01 -8.191950654282365463e+01 8.139600621545091030e+01 1.973309228411943295e+01 -5.078233795074402224e+01 -5.205264266124101624e+01 1.322535252746835113e+02 5.545759846374662061e+01 7.731588257300023770e+01 2.529610079790385413e+01 -4.067949084201534049e+01 1.039402387376090076e+02 -5.281628110293131328e+01 5.537339331998328840e-01 7.409042395692647176e+01 9.643359511450540822e+01 2.474549782705017549e+02 -1.696918983823155145e+02 1.558733306867970327e+02 -6.543307170589044119e+01 -1.476069546180594116e+01 -2.435334405712763584e+01 -2.009158248295136318e+01 -5.341996438810666348e+01 9.017218373904937323e+01 1.784648066854982744e+02 -1.152051474865701266e+02 3.001086788983511155e+01 -1.231539358398818820e+02 6.813916452321417694e+01 -4.317337071418087646e+01 -7.870657666594004809e+01 -5.238151178946861108e+01 4.004189637895047582e+01 1.882403171744483572e+01 -7.949553798302719088e+01 -1.371760944403517044e+02 2.019803844147456928e+01 1.533744146505308947e+02 1.390687496174394333e+01 1.776619082661155460e+02 7.259801533020195485e+00 1.311382812310646955e+02 -3.369704047102316480e+01 8.844679771229388621e+01 -6.963227265848279046e+01 -1.100788691193765061e+02 4.820970976378723805e+01 -5.657292438523142408e+01 -7.662676609243565906e+01 7.109582934156152589e+01 6.321206783877728164e+00 -9.203562033687441613e+01 -1.470586006562794523e+02 1.445039165739521820e+02 -8.713118082046374013e+01 -2.319124232786078821e+00 1.174033349005571836e+02 5.671771479209360933e+01 -9.605694179385525899e+01 1.042356287901268708e+01 2.759543662089811278e+02 5.215564809075179653e+01 -1.543760053716607104e+02 -4.672931750132963913e+01 -6.021273099791998362e+01 9.416507478401170417e+00 1.053706705988068819e+02 -1.014083953509700393e+02 2.116055812079300935e+01 1.278775817422037875e+02 1.840138158640960953e+01 -2.071298614910188860e+02 4.734658696223293362e+01 7.402204722446528251e+01 -1.333253677984829721e+01 3.215240820732944371e+01 1.714734435116216371e-01 2.212810696708478986e+01 2.720346535170027735e+01 1.136276964403387666e+02 9.618250791818388734e+01 1.533435515224044643e+01 1.461828781169068066e+02 -6.280384388875412327e+01 2.419754460374761322e+02 6.381240712296731488e+01 1.390610131151996427e+02 -2.154957608059689633e+01 8.838840091849148450e+01 -4.801348841880821539e+01 -1.436408508957855190e+02 2.567175392688925939e+01 9.321305173320884307e+01 -8.593449109881485981e+01 -1.027969042161240765e+02 -6.530540576662535557e+01 3.594081313735599537e+01 -1.120713417714882638e+02 7.331532831510686776e+01 2.751995463909177886e+01 -9.580830976585804137e+01 1.864055206641403686e+02 -1.154364662690228727e+01 -9.989945973734717199e+01 -1.316841976776573020e+01 -2.005966269877974639e+01 -1.376362887142445004e+02 -3.928156999199941879e+01 6.038282261617644053e+01 1.293759053103836720e+02 2.851201825113095012e+01 2.624995287952068423e+01 4.396512041122766590e+01 -3.505833752011433546e+01 -1.429496367312071072e+02 1.560374908849146003e+01 3.038495512705879165e+01 1.306853860281916582e+02 -9.706146253275752755e+00 -7.473164398785209528e+01 7.186100620042905973e+01 9.568286539186537931e-01 3.122951960907991520e+01 1.366746591721054358e+02 -1.742364754825674709e+02 -9.116841851266632091e+01 1.224631466623889651e+02 -2.058107248757014247e+02 -1.754461368999621413e+02 8.684321851700826755e+01 1.469106772172519300e+02 6.050570385316513722e+01 -4.272262723899066472e+00 1.485588639899775103e+02 -2.094362709071023403e+02 1.022259134814804469e+02 4.042727407990580701e+01 1.212271009314716679e+02 -1.799144763200215777e+02 1.015905652288598162e+02 -2.692726201149000076e+01 -1.275391082388518527e+02 -5.076958905149300705e+00 -8.813753973163458966e+01 -1.547208232788122118e+01 -4.149806389406721863e+00 -1.175268730513474935e+02 -1.176452102234155035e+02 -5.968607553773895802e+01 -1.229731467379025247e+02 1.917309154794949393e+02 -1.537085870683544897e+02 -4.787352392139979429e+01 1.646043663236885948e+02 3.237119496483244774e+01 -2.823785291246429665e+02 -1.212867058851432631e+02 3.386653827881793433e+01 5.214942387128461831e+01 8.145574216109567445e+00 -1.474773208676001275e+02 3.404352774364065226e+01 7.162343601013404282e+00 -7.091036436200825221e+01 1.934115868090876518e+02 1.932482172904365996e+02 4.149102160937682804e+00 -1.989572123467158633e+02 1.201809198380490216e+02 2.933339986993146908e+01 3.639336838981510613e+00 7.305792420152192790e+01 -1.979438614747273846e+02 -1.316654765377835758e+02 1.345247249803093723e+02 1.046092879093413615e+02 5.046622850337418242e+01 1.365862280150680590e+02 -1.700598966988526684e+02 -1.952531070542814717e+01 -1.243969693045965101e+02 4.165901494336245747e+01 -9.909437341298917090e+01 8.306614067365957510e+01 -3.236243423529398910e+01 1.181554356058324728e+01 1.692758746190866930e+02 2.723749909629396626e+01 -2.514403484147098027e+02 -1.205760668238558253e+02 -7.950484548852747935e+01 1.508319645196584986e+02 1.196328615316541644e+01 -5.141205928985891660e+01 2.892315695586612279e+01 5.960693825912505872e+01 -3.772470936419339438e+01 1.025620222170139328e+02 -9.610981990932533847e+01 4.694806354447135988e+01 1.067809423687127577e+02 -3.388972248431828405e+01 -9.360909457372711984e+01 -1.082412155565143053e+02 1.142494439628717799e+02 -4.739849318016212010e+01 1.875032589870981781e+02 5.457219920437540139e+01 1.058360720136881952e+02 1.760196466722185562e+02 8.161562501052342711e+00 -1.185918629990302122e+02 -1.580938128403063274e+02 -1.089076549222790220e+02 4.055481858817652352e+01
-1.266177075894617055e+01 -4.517712834630710717e+00 9.647755192454638973e+01 -2.134236089930730316e+02 1.448210559114736498e+02 5.915519644537906174e+01 1.417699013774758043e+02 -1.203584882541958763e+02 -2.575393766767713810e+00 -2.241664023997563149e+01 -2.045200692213162768e+02 3.047215384440394814e+01 -1.706687844060851589e+01 1.139673321898224856e+02 -1.165765494140861591e+02 5.750307822146730530e+01 1.167209968945093976e+02 -4.282080895086073014e+01 -4.619347286695536781e+01 -2.513206254709282916e+01 5.752017872490473138e+01 5.875289794678545263e+01 3.022406846428723171e+01 -2.166178582506821044e+02 -4.803054882846994644e+01 8.530565499551360631e+01 9.237806264916283538e+00 -9.674087980054844493e+00 -6.197220867781491194e+01 -1.444643542091046662e+01 6.832436867566671879e+01 -1.354596823437131832e+02 -5.772526999561405603e+01 8.353142987591388291e+00 1.933945614134262598e+02 1.975591326794583722e+02 -2.995356381489644804e+01 5.206103254578432882e+01 -2.398063065338072175e-01 -1.300844891595952504e+02 8.939806712832181290e+01 9.987616706307959191e+01 1.010809985236038813e+02 1.087348311525309441e+01 5.763998741567146311e+01 4.482145718909578136e+01 3.621307190572057522e+01 2.735754602768294674e+01 1.027239850715301088e+02 8.355795659975991896e+01 6.108007617182826010e+01 1.518352628992931841e+02 2.308568229800513336e+02 1.821943688815791802e+02 -5.509060891511730063e+01 4.589332683572789762e+01 -5.985668502771000021e+01 5.251931838266313690e+01 -1.790428904242526755e+02 5.262802407221096956e+01 -1.907138951840261996e+02 -1.571644755871185168e+02 1.206737918987924196e+01 -8.634878103549034734e+00 1.579041574840282749e+02 -1.937466234771855227e+02 7.011635734706941037e+01 2.141244179332348381e+02 -6.894609905202306877e+00 -1.814882676907827488e+02 3.309127516545566294e+01 1.836875415908252194e+02 -5.693439561533136128e+01 -2.483591169422538769e+02 -9.555817192806844673e+01 8.310097983184652648e+00 -2.143814866425724119e+02 2.991074854153703200e+01 -1.672231132413388366e+02 -1.729169461160833805e+02 -5.329991494700708188e+01 1.420645888851212817e+02 6.472789262175028568e+01 9.900298953515189737e+00 -8.267577466226254046e+01 -3.971553707820560675e+01 5.942148769889310245e+01 -2.164865884631175277e+02 5.045013480006030449e+01 -6.987994925304678873e+01 -7.289062244039325833e+01 -1.649086872781117279e+02 6.065235407615348606e+01 8.646495788515044012e+01 -1.514138056188088228e+02 1.612122160004282705e+02 -3.720024119661634643e+01 -1.578831123341265652e+01 8.179318402477377958e+01 1.458949982562210153e+02 2.030149488219121778e+01 1.413492488310378121e+02 -1.727905977318414443e+01 -8.465536893982498157e+01 -1.829706687071573512e+01 9.432724407733900307e+01 4.316520513016051552e+01 9.389915088104456231e+01 9.058848583989131953e+01 -7.976550163894552270e+01 -1.630969929478208371e+02 1.181123374508152608e+02 5.206509391214974869e+01 1.559509777802830754e+01 2.934605830959841910e+01 -6.520708888583679652e+01 9.218733010928200144e+01 8.628037695178319666e+01 -1.318765335596498467e+01 -6.842042524205824350e+01 2.946997819220796799e+01 6.037166495198454719e+00 -5.903373606251847150e+01 1.628599141093309299e+02 -3.149133983391351777e+01 1.167888666836686156e+02 -6.731987739857359543e+01 3.687447967221949341e+01 -3.464159713619151404e+01 8.597119370737905797e+01 2.254715205682099466e+01 1.110530738667840467e+02 -1.114946044821623872e+02 7.144277355113031547e+01 1.186444216657369140e+02 -4.294605530394884596e+01 7.360582944569791231e+00 -1.229492237447629144e+01 1.122966154642808760e+02 3.522996114863961914e+00 1.620943043823386631e+02 -1.359649132431240730e+02 1.121541773972215452e+02 -8.776266190237433307e+01 9.214472229096894296e+01 -1.318239620596818042e+02 2.838194206152270738e+01 2.381642248099347725e+01 1.707450089370665003e+00 3.493808337631137562e+01 4.427265460299001631e+01 -1.190690328955460409e+01 1.049623216760828193e+01 1.040269767403938204e+02 1.224565471677622241e+02 -8.346668706437671403e+01 -5.213688608167686311e+01 4.555191612413774038e+01 1.456422305792277161e+00 -1.318938436776255685e+02 -5.310045798455764299e+01 -3.409103873178663235e+01 4.708051287397005069e+01 -6.309726953276833683e+01 2.206459136941646193e+01 1.545029698656962012e+02 -7.654499879028942644e+01 7.790439975747321455e+01 8.100969586292063696e+01 1.087702168563962601e+01 1.190093535505228033e+02 6.063152470897365021e+01 1.620530196256063675e+02 -3.339672088670199912e+01 1.084645310534200462e+02 5.361282597793812954e+01 -1.549726930241402378e+01 1.970330439338940778e+02 -1.339763150961519500e+02 4.721547024879235011e+01 -1.811692369116406951e+02 -8.130521306711759166e+01 3.966075727392485817e+01 -6.978782131144211576e+01 -1.505806903321437176e+02 1.926929793159101507e+02 -8.293132981192334796e+01 -4.592472615070869324e+01 -4.474808417395812654e+01 1.177431145200335294e+02 1.883701519574269412e+02 6.262399806072487252e+01 1.414607722623206882e+02 2.123084501782509221e+02 -1.541341395462638486e+00 1.575601836965638256e+02 6.857416189451684829e+01 1.841980323179610650e+02 -1.217198286347953342e+02 -1.144435264483575132e+01 6.154018747530720645e+00 1.837558936988889968e+02 -8.789239651282301224e+01 -5.856609426336163438e+01 -5.120961812991522777e+01 -1.296812734685718453e+02 4.521922198805931714e+00 -9.764445460331695870e+01 1.491770821732382046e+02 2.277583373175286141e+01 1.159645390148813249e+01 6.995536541514117346e+01 -4.747941479613571047e+00 1.132123366151174650e+02 -1.537272749391186721e+02 4.395723021173438383e+01 -1.652363823382691237e+02 1.136124516691642867e+02 9.299402963806761591e+01 -6.509406501967588099e+01 4.528884531898042809e+01 2.304150903526929142e+02 -2.948972181410294979e+01 4.029669565319685631e+01 -3.162149497077721350e+01 5.606556883110115308e+01 6.217055944969177972e+01 -6.083924749720996950e+00 9.857516644304467945e+01 9.814225823726279430e+01 -1.875537189336113215e+02 -1.482418472526332494e+02 -1.159430963435926287e+02 -9.115028079330853572e+00 -1.448694143297548749e+02 1.117789433757128563e+02 1.067175622014599981e+02 5.708263261891777773e+01 1.080081585653569753e+01 1.525095807522236555e+02 8.120881030883474239e+01 6.530281120346312207e+01 -9.825530302704211749e+01 1.474376138427517162e+02 -3.491266823804855868e+00 1.057712115067647147e+02 8.533140256016091385e+00 3.553207848416782610e+01 -7.318075578086639155e+01 -8.773348473493656741e+01 6.921932134539544279e+01 -3.742627709065263097e+00 1.413263078831426469e+02 -1.213497719119944840e+01 -2.746467690669246675e+00 4.432383516307432814e+01 2.186446922626143774e+01 1.366699639848600327e+02 1.420842138690561640e+01 3.464908244053225417e+01 -1.494456160069132693e+02 6.357893734502594185e+01 1.290890042949275482e+02 -1.697698035784703663e+01 -2.201588517862016943e+02 8.147792151653281678e+01 1.313608893293282165e+02 1.965629196259077105e+01 1.821895034001483111e+02 -4.125735744522664561e+00 4.128503231921845185e+01 -4.200410208588566263e+01 -1.333820126865093414e+02 5.390179910864965507e+01 -4.566594904928211918e+01 -7.786004792036943911e+01 3.962895250170895878e+01 -1.775525996280551340e+02 6.882823311975018044e+01 1.579744221517225924e+02 -9.720946708270076897e+01 1.661358967706406133e+02 -9.369196548092097032e+01 -5.720246387246935349e+00 -1.012559182832076488e+01 7.355620259767353275e+01 -4.473747365292205558e+01 -1.033740216531358982e+02 -8.497165151379918768e+01 1.397928029502060383e+02 5.666886598796105545e+01 -1.263632236449161752e+02 4.230550084702194624e+00 4.158837916321611061e+01 7.908313430923674048e+01 -3.862716117350775846e+01 5.740743259334039550e+01 -6.604829406141094239e+01 -1.554079413715219857e+02 -3.314811168656473228e+01 1.349351195130984706e+02 -1.085619585304649490e+02 -6.107286294780818636e+00 -1.558456841802568817e+02 -4.646195070357760137e+00 -1.395887336476300504e+02 3.152657078303185756e+01 5.762663446354032715e+01 -4.813776400129126642e+01 -7.877527219808831660e+01 5.397516314944494020e+00 7.114947679273115000e+01 -6.479745847698836769e+01 1.287459818359613735e+02 1.009177237373599922e+02 -1.219939757283064949e+02 -1.007871463163912011e+02 1.290658916716731710e+02 6.811653889893464964e+01 1.434820962425806670e+02 9.549108365359870731e+01 7.746972769919013047e+01 -5.755149632801090576e+01 -7.802332734273323922e+01 -7.353110821628932570e+01 1.951283558563494580e+02 2.920766114530984936e+01 -2.377250110675306161e+01 -6.531185824900504144e+01 -4.759728868260376800e+01 -1.251216764298002602e+02 -1.568835754250772752e+01 -1.667023200902666247e+02 1.187738268772201167e+02 4.367066442887037425e+01 -1.094407892613228199e+02 -4.598500158777012103e+01 1.137339215262388308e+02 -9.204775605716737630e+01 9.768306420386366540e+01 -1.125393159554190845e+02 -1.118964172420223235e+01 -9.070970670884419462e+01 8.524298465608943332e+01 -4.033523044202723895e+01 9.736388878468542174e+00 2.788074173429922809e+01 -1.202540843293306807e+02 1.186686196203820209e+01 4.593960587891756830e+01 -2.120882446360285556e+01 -6.526822969535231778e+01 1.923604490255384292e+02 8.208728130273489398e+01 4.470878476168164894e+01 -2.981579748179826694e+01 7.613100778861897311e+01 1.591084974473832574e+02 -8.753898883690990829e+01 1.988510966102444115e+02 -1.263486383889864157e+02 -1.745551552786427578e+02 1.440554529726199178e+02 -2.220818712059910638e+02 -8.900501290385001152e-01 -2.324788300817586446e+02 -1.450970169515422015e+02 6.812665934193003636e+01 -1.381821376483785002e+02 5.539412270683374118e+01 1.043771965890638143e+02 -1.521586049778029235e+02 -2.855093948235361268e+01 7.158397319657876778e+01 1.270907399850490265e+02 -1.766608009684352680e+02 8.305345129221296929e+01 -9.298719174219527872e+01 -9.342312493887424907e+00 -1.313974035478954505e+01 -7.550856616916972541e+01 -8.568417845825520374e+01 1.721414791883950954e+02 -2.061565736348374145e+01 1.286994042817870776e+00 1.236373777150731428e+02 -8.235810264187588814e+01 -3.269083693057646656e+01 -1.022770279282863868e+02 -4.636697150683220059e+01 4.882338534671178287e+00 5.638496758717709412e+01 -1.284040811704212786e+02 2.255808472545783729e+02 -5.126272498228549779e+01 1.166934566329060061e+02 -4.647973889965948047e+01 1.140370994088095529e+02 1.325598845370347192e+02 4.565737774862881793e+01 1.162887589358670084e+02 -4.118916684826353958e+01 1.333872641959624161e+02 -1.491694334406201676e+02 -6.234036359780687775e+01 -6.003032829478075172e+01 2.439491281531837785e+01 -1.547310490261522489e+02 6.916131532675211702e+01 -2.941071015088976282e+01 -7.880238658056561007e+01 8.541535662711299892e+01 -1.440995570889152191e+02 -8.700714035867818552e+01 -5.022550835134548208e+01 3.153695633258034547e+01 1.237866645408226702e+02 1.114060307158625136e+02 6.588088871454567652e+01 -1.475668271916509067e+00 1.668231961365207212e+02 1.168516672513011514e+02 -9.012164673656515390e+01 -7.447946171947451433e+01 5.253501281110163035e+01 9.474063822894338571e+00 9.343756354892126126e+01 1.590370810608136480e+02 6.733039364594404219e+01 2.332696518501300176e+01 -9.748953619086560707e+01 1.637880528455361002e+02 -1.083780648921575533e+02 -1.575767468177658088e+02 6.267080031704267640e+01 1.063077475533482499e+02 1.874041870885163874e+01 -1.323547141968093399e+02 2.831049131216347448e+01 4.040993078711090192e+01 -3.584001534368722042e-01 1.247785981622308498e+02 9.320130327778650781e+01 1.630686373016299839e+01 7.463768153791596660e+01 -1.018578686276830183e+02 -6.079407419281994684e+00 9.368275914749634126e+01 2.828573772361371752e+01 -6.193009815634555792e+01 1.886319232596925701e+02 2.200876768008513693e+02 -1.194509834810595379e+02 -2.631684091410981807e+01 -2.000655197632080444e+02 -6.871135935766918124e+01 1.490075818187022776e+02 3.191240317935901238e+00 -6.756440867858563593e+01 1.558370810651983334e+02 -5.945142423376434238e+01 -1.528364972738787628e+02 1.299396952137569770e+02 -6.391022368620853911e+01 3.285623326880497075e+01 8.211745150857588271e+01 1.312502028824177636e+01 -2.266334560604071271e+02 4.026788070215648929e+01 -5.885015373847255482e+00 8.572383295546050874e+01 -2.241558817640254020e+01 9.613393557056443228e+01 1.617532705308175167e+01 -8.051587126753177870e+01 -1.948587660943960742e+01 -1.666617246262213712e+02 1.093353911775865726e+02 2.404806202301222839e+01 -3.956847647662664258e+01 -4.925200724060862711e+01 -5.984649734043692604e+01 3.911925799824094696e+01 1.528131245106651477e+02 1.261755637826983047e+02 4.092001131443823425e+01 -1.881516764632905279e+02 -3.689090706330799208e+01 4.167546092629626742e+01 1.115489916382131810e+02 8.288930587371424963e+01 1.467144313333237093e+01 -1.768660680734936932e+02 1.251802343603322356e+02 -2.127372007148941577e+02 -1.956898993545490555e+02 -1.730877921026647837e+00 -7.013670357873992600e+01 -2.295157238774915598e+01 8.282827113132759678e+01 5.316619272360072301e+01 -1.057079855891172002e+02 -1.440276061224501802e+02 1.385829738317059956e+01 1.176015544991331581e+02 1.963939161916801979e+01 -5.391854603252542688e+01 -4.912821504622776558e+01 -1.110894695713359859e+01 1.534360175240167621e+02 2.125909574089082099e+01 -1.681750969063803893e+02 1.242596076146993767e+02 -6.471125082053477229e+01 -4.039096394395009781e+00 1.490681364508086517e+02 -5.059640741177214096e+01 -1.897212748023860840e+01 -1.063391100832449325e+02 -5.804859539846053629e+00 -2.307934581083968695e+01 1.274503944334414030e+02 1.162128801329588583e+02 6.541950079105380667e+01 6.336893083008235550e+01 -1.810596684317731686e+01 1.308230432087565589e+02 -1.091714066665851846e+02 -4.114555507724537264e+00 -8.813719018875785594e+01 1.520383223149655691e+02 7.059100715607402776e+01 5.000201574580130881e+01 7.977582670963589528e+00 -5.160654482167829826e+01 3.327767616387559002e+01 6.499916103917649401e+00 3.557952164355641766e+00 2.331947634369433331e+01 5.785493213083086061e+01 1.647924209999366383e+02 -3.762622952759029715e+01 -5.029650411615133265e+01 6.464885154334137951e+01 1.119411399971618692e+02 -1.240604338408071960e+01 8.900833844426558983e+01 1.007703154058780513e+02 2.040239947517166001e+02 -8.374896551634058994e+01 -1.187100248542913192e+02 -2.772615175653213271e+01 6.017093452789137586e+01 -9.821752368259200949e+00 1.039391920010635175e+02 3.605065306248413037e+01 -1.573542929981476277e+02 4.359009598876643565e+01 -8.655221193457754225e+01 -1.308883817553716824e+02 1.301219960777186486e+02 -7.357781455162489692e+01 5.725774528170084920e+01 1.075036901377671086e+02 -9.572340131446081557e+01 2.273866876378014723e+01 -6.975465569196678928e+01 3.896331816451068164e+01 -1.108611083902044925e+02 5.956425161127248913e+01 5.287053324595026993e+01 3.726801320762656466e+00 8.120549275980542347e+01 -1.477370435824086599e+02 7.379591020254265743e+01 -2.834614349049332560e+01 -1.620893778383322115e+02 9.068903934858413152e+01 2.356396635763846348e+01 -1.881436654350171978e+02 2.257525188641003808e+02 -5.191286000920930510e-01 1.008892185848168310e+02 -1.156968406262584352e+02 -1.863112442585664610e+02 -8.953152202510848667e+01 2.407058621648018093e+00 1.370600607510819486e+02 3.791598404736370220e+00 -9.170072541627126839e+01 4.829376327899885979e+01 1.314772818416520579e+02 6.231975117111004181e+01 -4.961359860756553530e+01 -5.674821292078638635e+01 8.107072115877306828e+01 2.946098595085667782e+01 -1.876570471912880009e+02 -1.988755262785455713e+01 1.621555331645665206e+02 9.477120418528463119e+01 -5.501710722356320105e+01 -1.072631853340275825e+02 -4.093481191824593424e+01 -4.612935367187800750e+01 -1.097987998639119525e+02 -1.767612033021823237e+01 -4.380234009750505919e+01 -1.090068683831221534e+02 -1.265814172058491067e+02 -2.587213668533029676e+01 -1.205811503768435955e+02 -1.284195780629050034e+02 -3.677541179802176430e+01 -5.307334850526564907e+01 -1.065319302235102015e+02 1.850122657779706685e+02 1.045474363552842156e+01 -2.795291963407061431e+01 -1.689107824156356230e+01 7.818754361133186137e+01 1.555580837524197513e+01 2.489348764086678045e+01 -2.109923219778379533e+01 -4.601648268111129170e+01 2.077909047347619875e+01 -1.444967430500060175e+02 -1.582029121136637855e+02 -8.981214657948864044e+01 -1.896732635319085034e+02 -8.905341907227865761e+01 8.522574475245735925e+01 6.101442479496733284e+01 -2.588569936024176243e+01 6.039204373041902585e+01 -1.556284141551254550e+02 -4.064484621166344880e+01 -1.154362731722620055e+02 -6.633444916453176177e+01 2.097101210425629461e+02 -2.040234430450637717e+02 2.039982880444886462e+02 2.480251620344930430e+01 -5.609169005793177121e+01 9.162555175385807615e+01 1.233144718782314015e+02 -5.156567749722539418e+01 -2.025224734016477441e+02 -1.481766992768547766e+02 1.016585195170706299e+02 8.324160866469902942e+01 -1.347267973374025871e+02 3.173203396201842708e+01 -3.945075938002675286e+01 -7.692677500173432747e+01 -2.825363777523291020e+01 -5.447310269006446504e+01 -8.588425533526589106e+01 -3.385869209318768469e+01 4.505274736845383821e+00 -3.245053655254275782e+01 -3.621391816606479575e-01 -1.422110561757830283e+01 9.136581889506700804e+01 1.263431536551526904e+02 1.307625371890179444e+01 1.670277363710673413e+01 -6.276473047956623930e+01 -1.948737073424942992e+02 3.363924329486206233e+01 -9.114893654459747552e+01 2.568636951499251708e+01 -8.064071616453395208e+00 1.060134205151218589e+00 7.194671373829660865e+01 1.211496278220099185e+02 -7.006130446356092989e+01 3.776678703424065731e+01 -1.917375748465825893e+02 9.631174895652211632e+00 6.880927718441681940e+00 -1.218184725360259080e+02 -3.350114633639247330e+01 -4.405814020849509660e+01 4.732707101638403024e+00 -1.016157709665792339e+02 2.688412024225192809e+01 -9.704336404524822512e+01 5.570211452873230229e+01 6.746272129166251830e+01 3.667626235216137331e+01 -2.883682977928804192e+01 1.068240941087469480e+02 6.072676677641635479e+01 7.951332819906515681e+01 -6.659627529098045784e+01 2.012018468884641464e+01 1.270707255492571619e+02 -5.812786106264269392e+01 -6.875347226783632415e+00 3.177898830681327169e+01 -1.276017163261878267e+02 9.716552406845970324e+01 8.898728778319411958e+01 -1.005143536396753916e+02 -8.179682652660279985e+01 -5.516659216725425097e+01 -4.533356439656927250e+01 -1.591191720141767405e+02 -1.349579916238753867e+02 -1.315684602682520676e+02 1.049202559370317260e+02 5.938679977252785847e+01 1.583941715010546432e+02 7.156490745745579751e+00 -8.505346933781018492e+01 1.862241364189071291e+01 1.372303209117212219e+01 -6.308953105940562978e+01 7.348445065181805091e+01 1.171438443341294260e+02 9.877757085701333040e+00 1.422172544369168179e+02 2.230774627476590410e+01 1.100500760562830038e+02 1.494385603444349897e+01 -2.060823994772082131e+02 2.165715855453507857e+02 -4.852744523540170007e+01 -1.478059467250072601e+02 -6.661772026703918925e+01 -4.248260582535210972e+01 4.087385342739234062e+01 2.526307880764579394e+01 4.515407445923542440e+01 -7.305979225018543843e+01 1.206702621375682298e+02 -8.503635423095155943e+01 -6.912071401086410383e+00 1.403077060605053816e+02 1.079292984391244943e+02 5.714468154771315511e+01 -1.742512476540224782e+02 2.502546742046551387e+01 1.380969731889210266e+02 2.303541188230100545e+01 9.592715753034173076e+01 1.045645713131147545e+02 -2.077228302729225504e+02 7.552852975436327654e+01 -5.668831071516779474e+01 -2.207166980138932502e+02 8.679076220273145736e+01 2.406911803153154139e+01 -1.190405571903598911e+02 -5.704527022680522919e+01 1.350040066975002162e+02 1.433688967360322124e+02 -7.362042660010749273e+01 -1.238857439228792288e+02 -8.078100057855607474e+01 -1.604206446840170202e+02 1.891747620708178701e+01 3.664987835654855530e+01 -1.640384974400947726e+01 -1.193835958932751673e+01 -8.622448990711912131e+01 -8.496180291185781641e+01 -2.370979916284117905e+01 1.283514289545394433e+02 1.303840050748272574e+02 7.758632134069750919e+01 9.281576158462742399e+01 -7.497360152714459502e+01 -1.723041457570682837e+02 -1.257440565984466296e+01 -2.201409240141813584e+01 -6.763304011556425621e+01 1.411888793526627106e+00 6.952876629410354781e+01 -5.035819487491137636e+01 2.351820319008153248e+01 7.536922921393561126e+01 6.672420842558167919e+01 1.052172971881880699e+02 -1.419588054374227966e+02 3.771982376753828703e+01 7.929024425538474929e+01 9.018203164686076434e+01 5.619364853064323739e+01 -9.824853656916346267e+01 1.303086235741585597e+02 1.213296498102139083e+02 9.122361909085201148e+01 9.663408776334240713e+01 -8.014109283600988931e+01 -1.414029091917177183e+01 -1.232613720731916374e+01 7.331510232173995689e+01 6.183664714705478360e+01 5.331623018088743038e+01 9.284763241078059082e+01 1.108840026915720927e+02 1.179735784427034275e+02 -6.170082072492138536e+01 7.672095654864797609e+01 6.207825231976217850e+01 -1.119828407552492280e+02 1.252561942923498037e+02 -9.539265354618915893e+00 -2.658684305990018615e+01 1.897618594798681499e+02 8.428210208321036134e+01 1.182197022307702383e+02 -1.375118684885782727e+02 -1.503461022147071162e+02 -1.464355805392837908e+02 -1.164143643580304541e+02 -4.221276666971276370e+01 1.046456569669636707e+02 -1.608543843963554139e+02 3.100048890340506702e+01 1.377056195314853539e+02 -5.663963794655125383e+01 -8.717258324745758102e+01 -3.354132634627065812e+01 1.297027883336448042e+02 2.170380080184955887e+02 -6.371194059209930316e+01 1.893861533095732241e+01 -2.644180245127166273e+01 6.545457115593006847e+01 5.756578953726466352e+01 -2.038251051521467616e+02 -8.477181863928292671e+01 1.315615708700353252e+02 1.336797283298549814e+02 9.041106043076467813e+01 -4.767620097906464594e+01 -7.249708343521896836e+01 -4.340951342493695364e+01 -1.689584278300920346e+02 6.806495436690842382e+01 -2.454275073599978896e+01 1.592318079359477565e+02 -2.674887600358421125e+01 -3.011801071400033720e+02 1.386862136927541940e+02 4.807753313126745098e+01 -1.129286783976203310e+02 -2.124343911829310372e+01 3.380165767775804397e+01 -1.989015892739213598e+02 -1.094296167821827339e+02 -1.050237333477891184e+02 -5.401039824766967001e+01 6.013670129668189901e+01 -1.579250206616698051e+02 1.033560164715303955e+02 -5.204408961175591486e+01 2.806613147251431517e+00 -1.278338978768869652e+02 -9.934377861107900287e+01 1.685033064751709446e+02 8.305426990427656619e+01 -4.047410740877442947e+01 3.559819586262943858e+01 -2.687963007087792633e+01 4.151741641599312516e+01 -1.002929672001359904e+02 9.484374895313655429e+01 4.840492193274048560e+01 -1.139929738359706306e+02 1.119409969457429952e+02 -4.708560735451806067e+01 9.579504594143291740e+01 -4.736700253711672559e+01 8.474180889131632455e+01 -1.471104667274495910e+02 1.368954643799875441e+02 2.374852887531680778e+01 9.656516260354538872e+01 1.251212003953879019e+02 -1.407028435107824009e+02 -8.242171487444710465e+01 -1.013589585597913185e+02 6.415970894290403237e+01 -1.644330441300251096e+02 1.454440286530839899e+02 1.366134103068938543e+02 5.083996480652935190e+01 -8.148675339439523668e+01 5.477790500580435662e+01 -1.030405886100727315e+02 -1.048462779137684109e+01 3.356610124524296168e+01 -1.763970264922896263e+02 -7.830495414861786685e+01 -1.299437780831236466e+01 9.811331790806266895e+01 -4.822437689135486494e+01 1.044414046390419486e+02 -6.176976397447350564e+01 -2.024474770564938808e+02 -1.028638046914033168e+02 -3.268219236538221395e+01 -5.780730022900795717e+01 2.889990405210292934e+01 4.941552548309688575e+01 6.084773559291799749e+00 2.440984038803863498e+01 -1.128016081747828139e+02 5.180040902304448025e+01 3.137539942826068540e+01 -6.936022314306997316e+01 8.929329136075143225e+00 5.422573848229630045e+01 -9.174141430651219764e+01 -5.299416921259309277e+01 -2.325577769394819327e+01 9.385093857851093446e+01 -1.648108540551072210e+01 4.037065357339168159e+00 -2.195012708980231650e+02 -9.142579918677360240e+01 9.521323545110554676e+01 -8.579680420134320684e+01 3.015502751801018633e+01 2.988789970087668024e+01 3.647319364934675434e+01 6.359975444242460441e+01 -1.708061358361150610e+02 1.385996150432148681e+02 7.851151854190256074e+01 -7.261852305778663030e+00 -7.778745262321693588e+01 1.076867101881915545e+02 5.978598392930401673e+01 -1.936475960738043796e+02 -4.849736966259200699e+01 -7.868033151684610971e+01 -4.987415866109209617e+01 -5.960222219600458970e+01 -9.532498979730922883e+01 -5.811717398618117159e+01 1.844378633279604855e+02 -1.644125641588315148e+02 6.303933682974571440e+01 2.672047743975897660e+01 -7.241307683886323332e+01 1.001609189188177496e+01 -3.798404357743104498e+01 3.313877296569839093e+00 -9.260709881453639980e+01 -1.902950260579109170e+02 1.771807116742637689e+01 4.034814944285039218e+01 -1.232327465471590067e+01 -8.623486676425841324e+00 -3.831471347800016503e+01 -1.829144310546290342e+02 -2.950315757609225287e+01 -6.295294162164636731e+01 1.341997282066246377e+01 -1.504500617974977494e+01 8.727853144090569515e+01 -6.072898003288310775e+01 -9.988431819632010900e+01 -3.438180995826571262e+01 -8.644352892585205339e+00 4.376734311725346060e+01 -2.130525787312830488e+01 -7.113508455054491719e+01 -1.530370028919856829e+01 1.930755213460395581e+01 4.576904047022684807e+01 -1.098257138834486852e+02 -1.339569187840456550e+02 2.219764106921780638e+02 -2.103628017956912970e+02 -7.316409342949789618e+01 -4.463425246160959858e+01 1.347734511886231417e+02 6.098082457965905689e+01 2.206522309078853823e+02 2.359091816272457152e+02 -6.011160726641961816e+01 1.247583788520622790e+02 -5.402055698911500770e+01 -3.934980970101125308e+01 -9.697695984118594481e+01 -7.695440644894837590e+01 -6.702555996294981355e+01 -8.581637604410796882e+01 -2.349912927243713625e+02 -2.610641027705635224e+02 1.298165607382782696e+02 -2.558773468385120609e+01 5.135144984578515448e+01 1.262052938004193123e+02
