# 
#                 ----------------------------------------------------
#                 Data from a 3D direct N-body simulation. 
# 
#                 rows are i-particle; 
#                 coumns are :mass, tag, x ,y, z, vx, vy, vz, ax, ay, az
# 
#                 NTHU, Computational Physics Lab
# 
#                 ----------------------------------------------------
#                 Time = 0.20000000000000004
1.000000000000000000e+00 2.000000000000000000e+00 3.000000000000000000e+00 4.000000000000000000e+00 5.000000000000000000e+00 6.000000000000000000e+00 7.000000000000000000e+00 8.000000000000000000e+00 9.000000000000000000e+00 1.000000000000000000e+01 1.100000000000000000e+01 1.200000000000000000e+01 1.300000000000000000e+01 1.400000000000000000e+01 1.500000000000000000e+01 1.600000000000000000e+01 1.700000000000000000e+01 1.800000000000000000e+01 1.900000000000000000e+01 2.000000000000000000e+01 2.100000000000000000e+01 2.200000000000000000e+01 2.300000000000000000e+01 2.400000000000000000e+01 2.500000000000000000e+01 2.600000000000000000e+01 2.700000000000000000e+01 2.800000000000000000e+01 2.900000000000000000e+01 3.000000000000000000e+01 3.100000000000000000e+01 3.200000000000000000e+01 3.300000000000000000e+01 3.400000000000000000e+01 3.500000000000000000e+01 3.600000000000000000e+01 3.700000000000000000e+01 3.800000000000000000e+01 3.900000000000000000e+01 4.000000000000000000e+01 4.100000000000000000e+01 4.200000000000000000e+01 4.300000000000000000e+01 4.400000000000000000e+01 4.500000000000000000e+01 4.600000000000000000e+01 4.700000000000000000e+01 4.800000000000000000e+01 4.900000000000000000e+01 5.000000000000000000e+01 5.100000000000000000e+01 5.200000000000000000e+01 5.300000000000000000e+01 5.400000000000000000e+01 5.500000000000000000e+01 5.600000000000000000e+01 5.700000000000000000e+01 5.800000000000000000e+01 5.900000000000000000e+01 6.000000000000000000e+01 6.100000000000000000e+01 6.200000000000000000e+01 6.300000000000000000e+01 6.400000000000000000e+01 6.500000000000000000e+01 6.600000000000000000e+01 6.700000000000000000e+01 6.800000000000000000e+01 6.900000000000000000e+01 7.000000000000000000e+01 7.100000000000000000e+01 7.200000000000000000e+01 7.300000000000000000e+01 7.400000000000000000e+01 7.500000000000000000e+01 7.600000000000000000e+01 7.700000000000000000e+01 7.800000000000000000e+01 7.900000000000000000e+01 8.000000000000000000e+01 8.100000000000000000e+01 8.200000000000000000e+01 8.300000000000000000e+01 8.400000000000000000e+01 8.500000000000000000e+01 8.600000000000000000e+01 8.700000000000000000e+01 8.800000000000000000e+01 8.900000000000000000e+01 9.000000000000000000e+01 9.100000000000000000e+01 9.200000000000000000e+01 9.300000000000000000e+01 9.400000000000000000e+01 9.500000000000000000e+01 9.600000000000000000e+01 9.700000000000000000e+01 9.800000000000000000e+01 9.900000000000000000e+01 1.000000000000000000e+02 1.010000000000000000e+02 1.020000000000000000e+02 1.030000000000000000e+02 1.040000000000000000e+02 1.050000000000000000e+02 1.060000000000000000e+02 1.070000000000000000e+02 1.080000000000000000e+02 1.090000000000000000e+02 1.100000000000000000e+02 1.110000000000000000e+02 1.120000000000000000e+02 1.130000000000000000e+02 1.140000000000000000e+02 1.150000000000000000e+02 1.160000000000000000e+02 1.170000000000000000e+02 1.180000000000000000e+02 1.190000000000000000e+02 1.200000000000000000e+02 1.210000000000000000e+02 1.220000000000000000e+02 1.230000000000000000e+02 1.240000000000000000e+02 1.250000000000000000e+02 1.260000000000000000e+02 1.270000000000000000e+02 1.280000000000000000e+02 1.290000000000000000e+02 1.300000000000000000e+02 1.310000000000000000e+02 1.320000000000000000e+02 1.330000000000000000e+02 1.340000000000000000e+02 1.350000000000000000e+02 1.360000000000000000e+02 1.370000000000000000e+02 1.380000000000000000e+02 1.390000000000000000e+02 1.400000000000000000e+02 1.410000000000000000e+02 1.420000000000000000e+02 1.430000000000000000e+02 1.440000000000000000e+02 1.450000000000000000e+02 1.460000000000000000e+02 1.470000000000000000e+02 1.480000000000000000e+02 1.490000000000000000e+02 1.500000000000000000e+02 1.510000000000000000e+02 1.520000000000000000e+02 1.530000000000000000e+02 1.540000000000000000e+02 1.550000000000000000e+02 1.560000000000000000e+02 1.570000000000000000e+02 1.580000000000000000e+02 1.590000000000000000e+02 1.600000000000000000e+02 1.610000000000000000e+02 1.620000000000000000e+02 1.630000000000000000e+02 1.640000000000000000e+02 1.650000000000000000e+02 1.660000000000000000e+02 1.670000000000000000e+02 1.680000000000000000e+02 1.690000000000000000e+02 1.700000000000000000e+02 1.710000000000000000e+02 1.720000000000000000e+02 1.730000000000000000e+02 1.740000000000000000e+02 1.750000000000000000e+02 1.760000000000000000e+02 1.770000000000000000e+02 1.780000000000000000e+02 1.790000000000000000e+02 1.800000000000000000e+02 1.810000000000000000e+02 1.820000000000000000e+02 1.830000000000000000e+02 1.840000000000000000e+02 1.850000000000000000e+02 1.860000000000000000e+02 1.870000000000000000e+02 1.880000000000000000e+02 1.890000000000000000e+02 1.900000000000000000e+02 1.910000000000000000e+02 1.920000000000000000e+02 1.930000000000000000e+02 1.940000000000000000e+02 1.950000000000000000e+02 1.960000000000000000e+02 1.970000000000000000e+02 1.980000000000000000e+02 1.990000000000000000e+02 2.000000000000000000e+02 2.010000000000000000e+02 2.020000000000000000e+02 2.030000000000000000e+02 2.040000000000000000e+02 2.050000000000000000e+02 2.060000000000000000e+02 2.070000000000000000e+02 2.080000000000000000e+02 2.090000000000000000e+02 2.100000000000000000e+02 2.110000000000000000e+02 2.120000000000000000e+02 2.130000000000000000e+02 2.140000000000000000e+02 2.150000000000000000e+02 2.160000000000000000e+02 2.170000000000000000e+02 2.180000000000000000e+02 2.190000000000000000e+02 2.200000000000000000e+02 2.210000000000000000e+02 2.220000000000000000e+02 2.230000000000000000e+02 2.240000000000000000e+02 2.250000000000000000e+02 2.260000000000000000e+02 2.270000000000000000e+02 2.280000000000000000e+02 2.290000000000000000e+02 2.300000000000000000e+02 2.310000000000000000e+02 2.320000000000000000e+02 2.330000000000000000e+02 2.340000000000000000e+02 2.350000000000000000e+02 2.360000000000000000e+02 2.370000000000000000e+02 2.380000000000000000e+02 2.390000000000000000e+02 2.400000000000000000e+02 2.410000000000000000e+02 2.420000000000000000e+02 2.430000000000000000e+02 2.440000000000000000e+02 2.450000000000000000e+02 2.460000000000000000e+02 2.470000000000000000e+02 2.480000000000000000e+02 2.490000000000000000e+02 2.500000000000000000e+02 2.510000000000000000e+02 2.520000000000000000e+02 2.530000000000000000e+02 2.540000000000000000e+02 2.550000000000000000e+02 2.560000000000000000e+02 2.570000000000000000e+02 2.580000000000000000e+02 2.590000000000000000e+02 2.600000000000000000e+02 2.610000000000000000e+02 2.620000000000000000e+02 2.630000000000000000e+02 2.640000000000000000e+02 2.650000000000000000e+02 2.660000000000000000e+02 2.670000000000000000e+02 2.680000000000000000e+02 2.690000000000000000e+02 2.700000000000000000e+02 2.710000000000000000e+02 2.720000000000000000e+02 2.730000000000000000e+02 2.740000000000000000e+02 2.750000000000000000e+02 2.760000000000000000e+02 2.770000000000000000e+02 2.780000000000000000e+02 2.790000000000000000e+02 2.800000000000000000e+02 2.810000000000000000e+02 2.820000000000000000e+02 2.830000000000000000e+02 2.840000000000000000e+02 2.850000000000000000e+02 2.860000000000000000e+02 2.870000000000000000e+02 2.880000000000000000e+02 2.890000000000000000e+02 2.900000000000000000e+02 2.910000000000000000e+02 2.920000000000000000e+02 2.930000000000000000e+02 2.940000000000000000e+02 2.950000000000000000e+02 2.960000000000000000e+02 2.970000000000000000e+02 2.980000000000000000e+02 2.990000000000000000e+02 3.000000000000000000e+02 3.010000000000000000e+02 3.020000000000000000e+02 3.030000000000000000e+02 3.040000000000000000e+02 3.050000000000000000e+02 3.060000000000000000e+02 3.070000000000000000e+02 3.080000000000000000e+02 3.090000000000000000e+02 3.100000000000000000e+02 3.110000000000000000e+02 3.120000000000000000e+02 3.130000000000000000e+02 3.140000000000000000e+02 3.150000000000000000e+02 3.160000000000000000e+02 3.170000000000000000e+02 3.180000000000000000e+02 3.190000000000000000e+02 3.200000000000000000e+02 3.210000000000000000e+02 3.220000000000000000e+02 3.230000000000000000e+02 3.240000000000000000e+02 3.250000000000000000e+02 3.260000000000000000e+02 3.270000000000000000e+02 3.280000000000000000e+02 3.290000000000000000e+02 3.300000000000000000e+02 3.310000000000000000e+02 3.320000000000000000e+02 3.330000000000000000e+02 3.340000000000000000e+02 3.350000000000000000e+02 3.360000000000000000e+02 3.370000000000000000e+02 3.380000000000000000e+02 3.390000000000000000e+02 3.400000000000000000e+02 3.410000000000000000e+02 3.420000000000000000e+02 3.430000000000000000e+02 3.440000000000000000e+02 3.450000000000000000e+02 3.460000000000000000e+02 3.470000000000000000e+02 3.480000000000000000e+02 3.490000000000000000e+02 3.500000000000000000e+02 3.510000000000000000e+02 3.520000000000000000e+02 3.530000000000000000e+02 3.540000000000000000e+02 3.550000000000000000e+02 3.560000000000000000e+02 3.570000000000000000e+02 3.580000000000000000e+02 3.590000000000000000e+02 3.600000000000000000e+02 3.610000000000000000e+02 3.620000000000000000e+02 3.630000000000000000e+02 3.640000000000000000e+02 3.650000000000000000e+02 3.660000000000000000e+02 3.670000000000000000e+02 3.680000000000000000e+02 3.690000000000000000e+02 3.700000000000000000e+02 3.710000000000000000e+02 3.720000000000000000e+02 3.730000000000000000e+02 3.740000000000000000e+02 3.750000000000000000e+02 3.760000000000000000e+02 3.770000000000000000e+02 3.780000000000000000e+02 3.790000000000000000e+02 3.800000000000000000e+02 3.810000000000000000e+02 3.820000000000000000e+02 3.830000000000000000e+02 3.840000000000000000e+02 3.850000000000000000e+02 3.860000000000000000e+02 3.870000000000000000e+02 3.880000000000000000e+02 3.890000000000000000e+02 3.900000000000000000e+02 3.910000000000000000e+02 3.920000000000000000e+02 3.930000000000000000e+02 3.940000000000000000e+02 3.950000000000000000e+02 3.960000000000000000e+02 3.970000000000000000e+02 3.980000000000000000e+02 3.990000000000000000e+02 4.000000000000000000e+02 4.010000000000000000e+02 4.020000000000000000e+02 4.030000000000000000e+02 4.040000000000000000e+02 4.050000000000000000e+02 4.060000000000000000e+02 4.070000000000000000e+02 4.080000000000000000e+02 4.090000000000000000e+02 4.100000000000000000e+02 4.110000000000000000e+02 4.120000000000000000e+02 4.130000000000000000e+02 4.140000000000000000e+02 4.150000000000000000e+02 4.160000000000000000e+02 4.170000000000000000e+02 4.180000000000000000e+02 4.190000000000000000e+02 4.200000000000000000e+02 4.210000000000000000e+02 4.220000000000000000e+02 4.230000000000000000e+02 4.240000000000000000e+02 4.250000000000000000e+02 4.260000000000000000e+02 4.270000000000000000e+02 4.280000000000000000e+02 4.290000000000000000e+02 4.300000000000000000e+02 4.310000000000000000e+02 4.320000000000000000e+02 4.330000000000000000e+02 4.340000000000000000e+02 4.350000000000000000e+02 4.360000000000000000e+02 4.370000000000000000e+02 4.380000000000000000e+02 4.390000000000000000e+02 4.400000000000000000e+02 4.410000000000000000e+02 4.420000000000000000e+02 4.430000000000000000e+02 4.440000000000000000e+02 4.450000000000000000e+02 4.460000000000000000e+02 4.470000000000000000e+02 4.480000000000000000e+02 4.490000000000000000e+02 4.500000000000000000e+02 4.510000000000000000e+02 4.520000000000000000e+02 4.530000000000000000e+02 4.540000000000000000e+02 4.550000000000000000e+02 4.560000000000000000e+02 4.570000000000000000e+02 4.580000000000000000e+02 4.590000000000000000e+02 4.600000000000000000e+02 4.610000000000000000e+02 4.620000000000000000e+02 4.630000000000000000e+02 4.640000000000000000e+02 4.650000000000000000e+02 4.660000000000000000e+02 4.670000000000000000e+02 4.680000000000000000e+02 4.690000000000000000e+02 4.700000000000000000e+02 4.710000000000000000e+02 4.720000000000000000e+02 4.730000000000000000e+02 4.740000000000000000e+02 4.750000000000000000e+02 4.760000000000000000e+02 4.770000000000000000e+02 4.780000000000000000e+02 4.790000000000000000e+02 4.800000000000000000e+02 4.810000000000000000e+02 4.820000000000000000e+02 4.830000000000000000e+02 4.840000000000000000e+02 4.850000000000000000e+02 4.860000000000000000e+02 4.870000000000000000e+02 4.880000000000000000e+02 4.890000000000000000e+02 4.900000000000000000e+02 4.910000000000000000e+02 4.920000000000000000e+02 4.930000000000000000e+02 4.940000000000000000e+02 4.950000000000000000e+02 4.960000000000000000e+02 4.970000000000000000e+02 4.980000000000000000e+02 4.990000000000000000e+02 5.000000000000000000e+02 5.010000000000000000e+02 5.020000000000000000e+02 5.030000000000000000e+02 5.040000000000000000e+02 5.050000000000000000e+02 5.060000000000000000e+02 5.070000000000000000e+02 5.080000000000000000e+02 5.090000000000000000e+02 5.100000000000000000e+02 5.110000000000000000e+02 5.120000000000000000e+02 5.130000000000000000e+02 5.140000000000000000e+02 5.150000000000000000e+02 5.160000000000000000e+02 5.170000000000000000e+02 5.180000000000000000e+02 5.190000000000000000e+02 5.200000000000000000e+02 5.210000000000000000e+02 5.220000000000000000e+02 5.230000000000000000e+02 5.240000000000000000e+02 5.250000000000000000e+02 5.260000000000000000e+02 5.270000000000000000e+02 5.280000000000000000e+02 5.290000000000000000e+02 5.300000000000000000e+02 5.310000000000000000e+02 5.320000000000000000e+02 5.330000000000000000e+02 5.340000000000000000e+02 5.350000000000000000e+02 5.360000000000000000e+02 5.370000000000000000e+02 5.380000000000000000e+02 5.390000000000000000e+02 5.400000000000000000e+02 5.410000000000000000e+02 5.420000000000000000e+02 5.430000000000000000e+02 5.440000000000000000e+02 5.450000000000000000e+02 5.460000000000000000e+02 5.470000000000000000e+02 5.480000000000000000e+02 5.490000000000000000e+02 5.500000000000000000e+02 5.510000000000000000e+02 5.520000000000000000e+02 5.530000000000000000e+02 5.540000000000000000e+02 5.550000000000000000e+02 5.560000000000000000e+02 5.570000000000000000e+02 5.580000000000000000e+02 5.590000000000000000e+02 5.600000000000000000e+02 5.610000000000000000e+02 5.620000000000000000e+02 5.630000000000000000e+02 5.640000000000000000e+02 5.650000000000000000e+02 5.660000000000000000e+02 5.670000000000000000e+02 5.680000000000000000e+02 5.690000000000000000e+02 5.700000000000000000e+02 5.710000000000000000e+02 5.720000000000000000e+02 5.730000000000000000e+02 5.740000000000000000e+02 5.750000000000000000e+02 5.760000000000000000e+02 5.770000000000000000e+02 5.780000000000000000e+02 5.790000000000000000e+02 5.800000000000000000e+02 5.810000000000000000e+02 5.820000000000000000e+02 5.830000000000000000e+02 5.840000000000000000e+02 5.850000000000000000e+02 5.860000000000000000e+02 5.870000000000000000e+02 5.880000000000000000e+02 5.890000000000000000e+02 5.900000000000000000e+02 5.910000000000000000e+02 5.920000000000000000e+02 5.930000000000000000e+02 5.940000000000000000e+02 5.950000000000000000e+02 5.960000000000000000e+02 5.970000000000000000e+02 5.980000000000000000e+02 5.990000000000000000e+02 6.000000000000000000e+02 6.010000000000000000e+02 6.020000000000000000e+02 6.030000000000000000e+02 6.040000000000000000e+02 6.050000000000000000e+02 6.060000000000000000e+02 6.070000000000000000e+02 6.080000000000000000e+02 6.090000000000000000e+02 6.100000000000000000e+02 6.110000000000000000e+02 6.120000000000000000e+02 6.130000000000000000e+02 6.140000000000000000e+02 6.150000000000000000e+02 6.160000000000000000e+02 6.170000000000000000e+02 6.180000000000000000e+02 6.190000000000000000e+02 6.200000000000000000e+02 6.210000000000000000e+02 6.220000000000000000e+02 6.230000000000000000e+02 6.240000000000000000e+02 6.250000000000000000e+02 6.260000000000000000e+02 6.270000000000000000e+02 6.280000000000000000e+02 6.290000000000000000e+02 6.300000000000000000e+02 6.310000000000000000e+02 6.320000000000000000e+02 6.330000000000000000e+02 6.340000000000000000e+02 6.350000000000000000e+02 6.360000000000000000e+02 6.370000000000000000e+02 6.380000000000000000e+02 6.390000000000000000e+02 6.400000000000000000e+02 6.410000000000000000e+02 6.420000000000000000e+02 6.430000000000000000e+02 6.440000000000000000e+02 6.450000000000000000e+02 6.460000000000000000e+02 6.470000000000000000e+02 6.480000000000000000e+02 6.490000000000000000e+02 6.500000000000000000e+02 6.510000000000000000e+02 6.520000000000000000e+02 6.530000000000000000e+02 6.540000000000000000e+02 6.550000000000000000e+02 6.560000000000000000e+02 6.570000000000000000e+02 6.580000000000000000e+02 6.590000000000000000e+02 6.600000000000000000e+02 6.610000000000000000e+02 6.620000000000000000e+02 6.630000000000000000e+02 6.640000000000000000e+02 6.650000000000000000e+02 6.660000000000000000e+02 6.670000000000000000e+02 6.680000000000000000e+02 6.690000000000000000e+02 6.700000000000000000e+02 6.710000000000000000e+02 6.720000000000000000e+02 6.730000000000000000e+02 6.740000000000000000e+02 6.750000000000000000e+02 6.760000000000000000e+02 6.770000000000000000e+02 6.780000000000000000e+02 6.790000000000000000e+02 6.800000000000000000e+02 6.810000000000000000e+02 6.820000000000000000e+02 6.830000000000000000e+02 6.840000000000000000e+02 6.850000000000000000e+02 6.860000000000000000e+02 6.870000000000000000e+02 6.880000000000000000e+02 6.890000000000000000e+02 6.900000000000000000e+02 6.910000000000000000e+02 6.920000000000000000e+02 6.930000000000000000e+02 6.940000000000000000e+02 6.950000000000000000e+02 6.960000000000000000e+02 6.970000000000000000e+02 6.980000000000000000e+02 6.990000000000000000e+02 7.000000000000000000e+02 7.010000000000000000e+02 7.020000000000000000e+02 7.030000000000000000e+02 7.040000000000000000e+02 7.050000000000000000e+02 7.060000000000000000e+02 7.070000000000000000e+02 7.080000000000000000e+02 7.090000000000000000e+02 7.100000000000000000e+02 7.110000000000000000e+02 7.120000000000000000e+02 7.130000000000000000e+02 7.140000000000000000e+02 7.150000000000000000e+02 7.160000000000000000e+02 7.170000000000000000e+02 7.180000000000000000e+02 7.190000000000000000e+02 7.200000000000000000e+02 7.210000000000000000e+02 7.220000000000000000e+02 7.230000000000000000e+02 7.240000000000000000e+02 7.250000000000000000e+02 7.260000000000000000e+02 7.270000000000000000e+02 7.280000000000000000e+02 7.290000000000000000e+02 7.300000000000000000e+02 7.310000000000000000e+02 7.320000000000000000e+02 7.330000000000000000e+02 7.340000000000000000e+02 7.350000000000000000e+02 7.360000000000000000e+02 7.370000000000000000e+02 7.380000000000000000e+02 7.390000000000000000e+02 7.400000000000000000e+02 7.410000000000000000e+02 7.420000000000000000e+02 7.430000000000000000e+02 7.440000000000000000e+02 7.450000000000000000e+02 7.460000000000000000e+02 7.470000000000000000e+02 7.480000000000000000e+02 7.490000000000000000e+02 7.500000000000000000e+02 7.510000000000000000e+02 7.520000000000000000e+02 7.530000000000000000e+02 7.540000000000000000e+02 7.550000000000000000e+02 7.560000000000000000e+02 7.570000000000000000e+02 7.580000000000000000e+02 7.590000000000000000e+02 7.600000000000000000e+02 7.610000000000000000e+02 7.620000000000000000e+02 7.630000000000000000e+02 7.640000000000000000e+02 7.650000000000000000e+02 7.660000000000000000e+02 7.670000000000000000e+02 7.680000000000000000e+02 7.690000000000000000e+02 7.700000000000000000e+02 7.710000000000000000e+02 7.720000000000000000e+02 7.730000000000000000e+02 7.740000000000000000e+02 7.750000000000000000e+02 7.760000000000000000e+02 7.770000000000000000e+02 7.780000000000000000e+02 7.790000000000000000e+02 7.800000000000000000e+02 7.810000000000000000e+02 7.820000000000000000e+02 7.830000000000000000e+02 7.840000000000000000e+02 7.850000000000000000e+02 7.860000000000000000e+02 7.870000000000000000e+02 7.880000000000000000e+02 7.890000000000000000e+02 7.900000000000000000e+02 7.910000000000000000e+02 7.920000000000000000e+02 7.930000000000000000e+02 7.940000000000000000e+02 7.950000000000000000e+02 7.960000000000000000e+02 7.970000000000000000e+02 7.980000000000000000e+02 7.990000000000000000e+02 8.000000000000000000e+02 8.010000000000000000e+02 8.020000000000000000e+02 8.030000000000000000e+02 8.040000000000000000e+02 8.050000000000000000e+02 8.060000000000000000e+02 8.070000000000000000e+02 8.080000000000000000e+02 8.090000000000000000e+02 8.100000000000000000e+02 8.110000000000000000e+02 8.120000000000000000e+02 8.130000000000000000e+02 8.140000000000000000e+02 8.150000000000000000e+02 8.160000000000000000e+02 8.170000000000000000e+02 8.180000000000000000e+02 8.190000000000000000e+02 8.200000000000000000e+02 8.210000000000000000e+02 8.220000000000000000e+02 8.230000000000000000e+02 8.240000000000000000e+02 8.250000000000000000e+02 8.260000000000000000e+02 8.270000000000000000e+02 8.280000000000000000e+02 8.290000000000000000e+02 8.300000000000000000e+02 8.310000000000000000e+02 8.320000000000000000e+02 8.330000000000000000e+02 8.340000000000000000e+02 8.350000000000000000e+02 8.360000000000000000e+02 8.370000000000000000e+02 8.380000000000000000e+02 8.390000000000000000e+02 8.400000000000000000e+02 8.410000000000000000e+02 8.420000000000000000e+02 8.430000000000000000e+02 8.440000000000000000e+02 8.450000000000000000e+02 8.460000000000000000e+02 8.470000000000000000e+02 8.480000000000000000e+02 8.490000000000000000e+02 8.500000000000000000e+02 8.510000000000000000e+02 8.520000000000000000e+02 8.530000000000000000e+02 8.540000000000000000e+02 8.550000000000000000e+02 8.560000000000000000e+02 8.570000000000000000e+02 8.580000000000000000e+02 8.590000000000000000e+02 8.600000000000000000e+02 8.610000000000000000e+02 8.620000000000000000e+02 8.630000000000000000e+02 8.640000000000000000e+02 8.650000000000000000e+02 8.660000000000000000e+02 8.670000000000000000e+02 8.680000000000000000e+02 8.690000000000000000e+02 8.700000000000000000e+02 8.710000000000000000e+02 8.720000000000000000e+02 8.730000000000000000e+02 8.740000000000000000e+02 8.750000000000000000e+02 8.760000000000000000e+02 8.770000000000000000e+02 8.780000000000000000e+02 8.790000000000000000e+02 8.800000000000000000e+02 8.810000000000000000e+02 8.820000000000000000e+02 8.830000000000000000e+02 8.840000000000000000e+02 8.850000000000000000e+02 8.860000000000000000e+02 8.870000000000000000e+02 8.880000000000000000e+02 8.890000000000000000e+02 8.900000000000000000e+02 8.910000000000000000e+02 8.920000000000000000e+02 8.930000000000000000e+02 8.940000000000000000e+02 8.950000000000000000e+02 8.960000000000000000e+02 8.970000000000000000e+02 8.980000000000000000e+02 8.990000000000000000e+02 9.000000000000000000e+02 9.010000000000000000e+02 9.020000000000000000e+02 9.030000000000000000e+02 9.040000000000000000e+02 9.050000000000000000e+02 9.060000000000000000e+02 9.070000000000000000e+02 9.080000000000000000e+02 9.090000000000000000e+02 9.100000000000000000e+02 9.110000000000000000e+02 9.120000000000000000e+02 9.130000000000000000e+02 9.140000000000000000e+02 9.150000000000000000e+02 9.160000000000000000e+02 9.170000000000000000e+02 9.180000000000000000e+02 9.190000000000000000e+02 9.200000000000000000e+02 9.210000000000000000e+02 9.220000000000000000e+02 9.230000000000000000e+02 9.240000000000000000e+02 9.250000000000000000e+02 9.260000000000000000e+02 9.270000000000000000e+02 9.280000000000000000e+02 9.290000000000000000e+02 9.300000000000000000e+02 9.310000000000000000e+02 9.320000000000000000e+02 9.330000000000000000e+02 9.340000000000000000e+02 9.350000000000000000e+02 9.360000000000000000e+02 9.370000000000000000e+02 9.380000000000000000e+02 9.390000000000000000e+02 9.400000000000000000e+02 9.410000000000000000e+02 9.420000000000000000e+02 9.430000000000000000e+02 9.440000000000000000e+02 9.450000000000000000e+02 9.460000000000000000e+02 9.470000000000000000e+02 9.480000000000000000e+02 9.490000000000000000e+02 9.500000000000000000e+02 9.510000000000000000e+02 9.520000000000000000e+02 9.530000000000000000e+02 9.540000000000000000e+02 9.550000000000000000e+02 9.560000000000000000e+02 9.570000000000000000e+02 9.580000000000000000e+02 9.590000000000000000e+02 9.600000000000000000e+02 9.610000000000000000e+02 9.620000000000000000e+02 9.630000000000000000e+02 9.640000000000000000e+02 9.650000000000000000e+02 9.660000000000000000e+02 9.670000000000000000e+02 9.680000000000000000e+02 9.690000000000000000e+02 9.700000000000000000e+02 9.710000000000000000e+02 9.720000000000000000e+02 9.730000000000000000e+02 9.740000000000000000e+02 9.750000000000000000e+02 9.760000000000000000e+02 9.770000000000000000e+02 9.780000000000000000e+02 9.790000000000000000e+02 9.800000000000000000e+02 9.810000000000000000e+02 9.820000000000000000e+02 9.830000000000000000e+02 9.840000000000000000e+02 9.850000000000000000e+02 9.860000000000000000e+02 9.870000000000000000e+02 9.880000000000000000e+02 9.890000000000000000e+02 9.900000000000000000e+02 9.910000000000000000e+02 9.920000000000000000e+02 9.930000000000000000e+02 9.940000000000000000e+02 9.950000000000000000e+02 9.960000000000000000e+02 9.970000000000000000e+02 9.980000000000000000e+02 9.990000000000000000e+02 1.000000000000000000e+03
1.000000000000000021e-02 1.000000000000000021e-02 1.000000000000000021e-02 1.000000000000000021e-02 1.000000000000000021e-02 1.000000000000000021e-02 1.000000000000000021e-02 1.000000000000000021e-02 1.000000000000000021e-02 1.000000000000000021e-02 1.000000000000000021e-02 1.000000000000000021e-02 1.000000000000000021e-02 1.000000000000000021e-02 1.000000000000000021e-02 1.000000000000000021e-02 1.000000000000000021e-02 1.000000000000000021e-02 1.000000000000000021e-02 1.000000000000000021e-02 1.000000000000000021e-02 1.000000000000000021e-02 1.000000000000000021e-02 1.000000000000000021e-02 1.000000000000000021e-02 1.000000000000000021e-02 1.000000000000000021e-02 1.000000000000000021e-02 1.000000000000000021e-02 1.000000000000000021e-02 1.000000000000000021e-02 1.000000000000000021e-02 1.000000000000000021e-02 1.000000000000000021e-02 1.000000000000000021e-02 1.000000000000000021e-02 1.000000000000000021e-02 1.000000000000000021e-02 1.000000000000000021e-02 1.000000000000000021e-02 1.000000000000000021e-02 1.000000000000000021e-02 1.000000000000000021e-02 1.000000000000000021e-02 1.000000000000000021e-02 1.000000000000000021e-02 1.000000000000000021e-02 1.000000000000000021e-02 1.000000000000000021e-02 1.000000000000000021e-02 1.000000000000000021e-02 1.000000000000000021e-02 1.000000000000000021e-02 1.000000000000000021e-02 1.000000000000000021e-02 1.000000000000000021e-02 1.000000000000000021e-02 1.000000000000000021e-02 1.000000000000000021e-02 1.000000000000000021e-02 1.000000000000000021e-02 1.000000000000000021e-02 1.000000000000000021e-02 1.000000000000000021e-02 1.000000000000000021e-02 1.000000000000000021e-02 1.000000000000000021e-02 1.000000000000000021e-02 1.000000000000000021e-02 1.000000000000000021e-02 1.000000000000000021e-02 1.000000000000000021e-02 1.000000000000000021e-02 1.000000000000000021e-02 1.000000000000000021e-02 1.000000000000000021e-02 1.000000000000000021e-02 1.000000000000000021e-02 1.000000000000000021e-02 1.000000000000000021e-02 1.000000000000000021e-02 1.000000000000000021e-02 1.000000000000000021e-02 1.000000000000000021e-02 1.000000000000000021e-02 1.000000000000000021e-02 1.000000000000000021e-02 1.000000000000000021e-02 1.000000000000000021e-02 1.000000000000000021e-02 1.000000000000000021e-02 1.000000000000000021e-02 1.000000000000000021e-02 1.000000000000000021e-02 1.000000000000000021e-02 1.000000000000000021e-02 1.000000000000000021e-02 1.000000000000000021e-02 1.000000000000000021e-02 1.000000000000000021e-02 1.000000000000000021e-02 1.000000000000000021e-02 1.000000000000000021e-02 1.000000000000000021e-02 1.000000000000000021e-02 1.000000000000000021e-02 1.000000000000000021e-02 1.000000000000000021e-02 1.000000000000000021e-02 1.000000000000000021e-02 1.000000000000000021e-02 1.000000000000000021e-02 1.000000000000000021e-02 1.000000000000000021e-02 1.000000000000000021e-02 1.000000000000000021e-02 1.000000000000000021e-02 1.000000000000000021e-02 1.000000000000000021e-02 1.000000000000000021e-02 1.000000000000000021e-02 1.000000000000000021e-02 1.000000000000000021e-02 1.000000000000000021e-02 1.000000000000000021e-02 1.000000000000000021e-02 1.000000000000000021e-02 1.000000000000000021e-02 1.000000000000000021e-02 1.000000000000000021e-02 1.000000000000000021e-02 1.000000000000000021e-02 1.000000000000000021e-02 1.000000000000000021e-02 1.000000000000000021e-02 1.000000000000000021e-02 1.000000000000000021e-02 1.000000000000000021e-02 1.000000000000000021e-02 1.000000000000000021e-02 1.000000000000000021e-02 1.000000000000000021e-02 1.000000000000000021e-02 1.000000000000000021e-02 1.000000000000000021e-02 1.000000000000000021e-02 1.000000000000000021e-02 1.000000000000000021e-02 1.000000000000000021e-02 1.000000000000000021e-02 1.000000000000000021e-02 1.000000000000000021e-02 1.000000000000000021e-02 1.000000000000000021e-02 1.000000000000000021e-02 1.000000000000000021e-02 1.000000000000000021e-02 1.000000000000000021e-02 1.000000000000000021e-02 1.000000000000000021e-02 1.000000000000000021e-02 1.000000000000000021e-02 1.000000000000000021e-02 1.000000000000000021e-02 1.000000000000000021e-02 1.000000000000000021e-02 1.000000000000000021e-02 1.000000000000000021e-02 1.000000000000000021e-02 1.000000000000000021e-02 1.000000000000000021e-02 1.000000000000000021e-02 1.000000000000000021e-02 1.000000000000000021e-02 1.000000000000000021e-02 1.000000000000000021e-02 1.000000000000000021e-02 1.000000000000000021e-02 1.000000000000000021e-02 1.000000000000000021e-02 1.000000000000000021e-02 1.000000000000000021e-02 1.000000000000000021e-02 1.000000000000000021e-02 1.000000000000000021e-02 1.000000000000000021e-02 1.000000000000000021e-02 1.000000000000000021e-02 1.000000000000000021e-02 1.000000000000000021e-02 1.000000000000000021e-02 1.000000000000000021e-02 1.000000000000000021e-02 1.000000000000000021e-02 1.000000000000000021e-02 1.000000000000000021e-02 1.000000000000000021e-02 1.000000000000000021e-02 1.000000000000000021e-02 1.000000000000000021e-02 1.000000000000000021e-02 1.000000000000000021e-02 1.000000000000000021e-02 1.000000000000000021e-02 1.000000000000000021e-02 1.000000000000000021e-02 1.000000000000000021e-02 1.000000000000000021e-02 1.000000000000000021e-02 1.000000000000000021e-02 1.000000000000000021e-02 1.000000000000000021e-02 1.000000000000000021e-02 1.000000000000000021e-02 1.000000000000000021e-02 1.000000000000000021e-02 1.000000000000000021e-02 1.000000000000000021e-02 1.000000000000000021e-02 1.000000000000000021e-02 1.000000000000000021e-02 1.000000000000000021e-02 1.000000000000000021e-02 1.000000000000000021e-02 1.000000000000000021e-02 1.000000000000000021e-02 1.000000000000000021e-02 1.000000000000000021e-02 1.000000000000000021e-02 1.000000000000000021e-02 1.000000000000000021e-02 1.000000000000000021e-02 1.000000000000000021e-02 1.000000000000000021e-02 1.000000000000000021e-02 1.000000000000000021e-02 1.000000000000000021e-02 1.000000000000000021e-02 1.000000000000000021e-02 1.000000000000000021e-02 1.000000000000000021e-02 1.000000000000000021e-02 1.000000000000000021e-02 1.000000000000000021e-02 1.000000000000000021e-02 1.000000000000000021e-02 1.000000000000000021e-02 1.000000000000000021e-02 1.000000000000000021e-02 1.000000000000000021e-02 1.000000000000000021e-02 1.000000000000000021e-02 1.000000000000000021e-02 1.000000000000000021e-02 1.000000000000000021e-02 1.000000000000000021e-02 1.000000000000000021e-02 1.000000000000000021e-02 1.000000000000000021e-02 1.000000000000000021e-02 1.000000000000000021e-02 1.000000000000000021e-02 1.000000000000000021e-02 1.000000000000000021e-02 1.000000000000000021e-02 1.000000000000000021e-02 1.000000000000000021e-02 1.000000000000000021e-02 1.000000000000000021e-02 1.000000000000000021e-02 1.000000000000000021e-02 1.000000000000000021e-02 1.000000000000000021e-02 1.000000000000000021e-02 1.000000000000000021e-02 1.000000000000000021e-02 1.000000000000000021e-02 1.000000000000000021e-02 1.000000000000000021e-02 1.000000000000000021e-02 1.000000000000000021e-02 1.000000000000000021e-02 1.000000000000000021e-02 1.000000000000000021e-02 1.000000000000000021e-02 1.000000000000000021e-02 1.000000000000000021e-02 1.000000000000000021e-02 1.000000000000000021e-02 1.000000000000000021e-02 1.000000000000000021e-02 1.000000000000000021e-02 1.000000000000000021e-02 1.000000000000000021e-02 1.000000000000000021e-02 1.000000000000000021e-02 1.000000000000000021e-02 1.000000000000000021e-02 1.000000000000000021e-02 1.000000000000000021e-02 1.000000000000000021e-02 1.000000000000000021e-02 1.000000000000000021e-02 1.000000000000000021e-02 1.000000000000000021e-02 1.000000000000000021e-02 1.000000000000000021e-02 1.000000000000000021e-02 1.000000000000000021e-02 1.000000000000000021e-02 1.000000000000000021e-02 1.000000000000000021e-02 1.000000000000000021e-02 1.000000000000000021e-02 1.000000000000000021e-02 1.000000000000000021e-02 1.000000000000000021e-02 1.000000000000000021e-02 1.000000000000000021e-02 1.000000000000000021e-02 1.000000000000000021e-02 1.000000000000000021e-02 1.000000000000000021e-02 1.000000000000000021e-02 1.000000000000000021e-02 1.000000000000000021e-02 1.000000000000000021e-02 1.000000000000000021e-02 1.000000000000000021e-02 1.000000000000000021e-02 1.000000000000000021e-02 1.000000000000000021e-02 1.000000000000000021e-02 1.000000000000000021e-02 1.000000000000000021e-02 1.000000000000000021e-02 1.000000000000000021e-02 1.000000000000000021e-02 1.000000000000000021e-02 1.000000000000000021e-02 1.000000000000000021e-02 1.000000000000000021e-02 1.000000000000000021e-02 1.000000000000000021e-02 1.000000000000000021e-02 1.000000000000000021e-02 1.000000000000000021e-02 1.000000000000000021e-02 1.000000000000000021e-02 1.000000000000000021e-02 1.000000000000000021e-02 1.000000000000000021e-02 1.000000000000000021e-02 1.000000000000000021e-02 1.000000000000000021e-02 1.000000000000000021e-02 1.000000000000000021e-02 1.000000000000000021e-02 1.000000000000000021e-02 1.000000000000000021e-02 1.000000000000000021e-02 1.000000000000000021e-02 1.000000000000000021e-02 1.000000000000000021e-02 1.000000000000000021e-02 1.000000000000000021e-02 1.000000000000000021e-02 1.000000000000000021e-02 1.000000000000000021e-02 1.000000000000000021e-02 1.000000000000000021e-02 1.000000000000000021e-02 1.000000000000000021e-02 1.000000000000000021e-02 1.000000000000000021e-02 1.000000000000000021e-02 1.000000000000000021e-02 1.000000000000000021e-02 1.000000000000000021e-02 1.000000000000000021e-02 1.000000000000000021e-02 1.000000000000000021e-02 1.000000000000000021e-02 1.000000000000000021e-02 1.000000000000000021e-02 1.000000000000000021e-02 1.000000000000000021e-02 1.000000000000000021e-02 1.000000000000000021e-02 1.000000000000000021e-02 1.000000000000000021e-02 1.000000000000000021e-02 1.000000000000000021e-02 1.000000000000000021e-02 1.000000000000000021e-02 1.000000000000000021e-02 1.000000000000000021e-02 1.000000000000000021e-02 1.000000000000000021e-02 1.000000000000000021e-02 1.000000000000000021e-02 1.000000000000000021e-02 1.000000000000000021e-02 1.000000000000000021e-02 1.000000000000000021e-02 1.000000000000000021e-02 1.000000000000000021e-02 1.000000000000000021e-02 1.000000000000000021e-02 1.000000000000000021e-02 1.000000000000000021e-02 1.000000000000000021e-02 1.000000000000000021e-02 1.000000000000000021e-02 1.000000000000000021e-02 1.000000000000000021e-02 1.000000000000000021e-02 1.000000000000000021e-02 1.000000000000000021e-02 1.000000000000000021e-02 1.000000000000000021e-02 1.000000000000000021e-02 1.000000000000000021e-02 1.000000000000000021e-02 1.000000000000000021e-02 1.000000000000000021e-02 1.000000000000000021e-02 1.000000000000000021e-02 1.000000000000000021e-02 1.000000000000000021e-02 1.000000000000000021e-02 1.000000000000000021e-02 1.000000000000000021e-02 1.000000000000000021e-02 1.000000000000000021e-02 1.000000000000000021e-02 1.000000000000000021e-02 1.000000000000000021e-02 1.000000000000000021e-02 1.000000000000000021e-02 1.000000000000000021e-02 1.000000000000000021e-02 1.000000000000000021e-02 1.000000000000000021e-02 1.000000000000000021e-02 1.000000000000000021e-02 1.000000000000000021e-02 1.000000000000000021e-02 1.000000000000000021e-02 1.000000000000000021e-02 1.000000000000000021e-02 1.000000000000000021e-02 1.000000000000000021e-02 1.000000000000000021e-02 1.000000000000000021e-02 1.000000000000000021e-02 1.000000000000000021e-02 1.000000000000000021e-02 1.000000000000000021e-02 1.000000000000000021e-02 1.000000000000000021e-02 1.000000000000000021e-02 1.000000000000000021e-02 1.000000000000000021e-02 1.000000000000000021e-02 1.000000000000000021e-02 1.000000000000000021e-02 1.000000000000000021e-02 1.000000000000000021e-02 1.000000000000000021e-02 1.000000000000000021e-02 1.000000000000000021e-02 1.000000000000000021e-02 1.000000000000000021e-02 1.000000000000000021e-02 1.000000000000000021e-02 1.000000000000000021e-02 1.000000000000000021e-02 1.000000000000000021e-02 1.000000000000000021e-02 1.000000000000000021e-02 1.000000000000000021e-02 1.000000000000000021e-02 1.000000000000000021e-02 1.000000000000000021e-02 1.000000000000000021e-02 1.000000000000000021e-02 1.000000000000000021e-02 1.000000000000000021e-02 1.000000000000000021e-02 1.000000000000000021e-02 1.000000000000000021e-02 1.000000000000000021e-02 1.000000000000000021e-02 1.000000000000000021e-02 1.000000000000000021e-02 1.000000000000000021e-02 1.000000000000000021e-02 1.000000000000000021e-02 1.000000000000000021e-02 1.000000000000000021e-02 1.000000000000000021e-02 1.000000000000000021e-02 1.000000000000000021e-02 1.000000000000000021e-02 1.000000000000000021e-02 1.000000000000000021e-02 1.000000000000000021e-02 1.000000000000000021e-02 1.000000000000000021e-02 1.000000000000000021e-02 1.000000000000000021e-02 1.000000000000000021e-02 1.000000000000000021e-02 1.000000000000000021e-02 1.000000000000000021e-02 1.000000000000000021e-02 1.000000000000000021e-02 1.000000000000000021e-02 1.000000000000000021e-02 1.000000000000000021e-02 1.000000000000000021e-02 1.000000000000000021e-02 1.000000000000000021e-02 1.000000000000000021e-02 1.000000000000000021e-02 1.000000000000000021e-02 1.000000000000000021e-02 1.000000000000000021e-02 1.000000000000000021e-02 1.000000000000000021e-02 1.000000000000000021e-02 1.000000000000000021e-02 1.000000000000000021e-02 1.000000000000000021e-02 1.000000000000000021e-02 1.000000000000000021e-02 1.000000000000000021e-02 1.000000000000000021e-02 1.000000000000000021e-02 1.000000000000000021e-02 1.000000000000000021e-02 1.000000000000000021e-02 1.000000000000000021e-02 1.000000000000000021e-02 1.000000000000000021e-02 1.000000000000000021e-02 1.000000000000000021e-02 1.000000000000000021e-02 1.000000000000000021e-02 1.000000000000000021e-02 1.000000000000000021e-02 1.000000000000000021e-02 1.000000000000000021e-02 1.000000000000000021e-02 1.000000000000000021e-02 1.000000000000000021e-02 1.000000000000000021e-02 1.000000000000000021e-02 1.000000000000000021e-02 1.000000000000000021e-02 1.000000000000000021e-02 1.000000000000000021e-02 1.000000000000000021e-02 1.000000000000000021e-02 1.000000000000000021e-02 1.000000000000000021e-02 1.000000000000000021e-02 1.000000000000000021e-02 1.000000000000000021e-02 1.000000000000000021e-02 1.000000000000000021e-02 1.000000000000000021e-02 1.000000000000000021e-02 1.000000000000000021e-02 1.000000000000000021e-02 1.000000000000000021e-02 1.000000000000000021e-02 1.000000000000000021e-02 1.000000000000000021e-02 1.000000000000000021e-02 1.000000000000000021e-02 1.000000000000000021e-02 1.000000000000000021e-02 1.000000000000000021e-02 1.000000000000000021e-02 1.000000000000000021e-02 1.000000000000000021e-02 1.000000000000000021e-02 1.000000000000000021e-02 1.000000000000000021e-02 1.000000000000000021e-02 1.000000000000000021e-02 1.000000000000000021e-02 1.000000000000000021e-02 1.000000000000000021e-02 1.000000000000000021e-02 1.000000000000000021e-02 1.000000000000000021e-02 1.000000000000000021e-02 1.000000000000000021e-02 1.000000000000000021e-02 1.000000000000000021e-02 1.000000000000000021e-02 1.000000000000000021e-02 1.000000000000000021e-02 1.000000000000000021e-02 1.000000000000000021e-02 1.000000000000000021e-02 1.000000000000000021e-02 1.000000000000000021e-02 1.000000000000000021e-02 1.000000000000000021e-02 1.000000000000000021e-02 1.000000000000000021e-02 1.000000000000000021e-02 1.000000000000000021e-02 1.000000000000000021e-02 1.000000000000000021e-02 1.000000000000000021e-02 1.000000000000000021e-02 1.000000000000000021e-02 1.000000000000000021e-02 1.000000000000000021e-02 1.000000000000000021e-02 1.000000000000000021e-02 1.000000000000000021e-02 1.000000000000000021e-02 1.000000000000000021e-02 1.000000000000000021e-02 1.000000000000000021e-02 1.000000000000000021e-02 1.000000000000000021e-02 1.000000000000000021e-02 1.000000000000000021e-02 1.000000000000000021e-02 1.000000000000000021e-02 1.000000000000000021e-02 1.000000000000000021e-02 1.000000000000000021e-02 1.000000000000000021e-02 1.000000000000000021e-02 1.000000000000000021e-02 1.000000000000000021e-02 1.000000000000000021e-02 1.000000000000000021e-02 1.000000000000000021e-02 1.000000000000000021e-02 1.000000000000000021e-02 1.000000000000000021e-02 1.000000000000000021e-02 1.000000000000000021e-02 1.000000000000000021e-02 1.000000000000000021e-02 1.000000000000000021e-02 1.000000000000000021e-02 1.000000000000000021e-02 1.000000000000000021e-02 1.000000000000000021e-02 1.000000000000000021e-02 1.000000000000000021e-02 1.000000000000000021e-02 1.000000000000000021e-02 1.000000000000000021e-02 1.000000000000000021e-02 1.000000000000000021e-02 1.000000000000000021e-02 1.000000000000000021e-02 1.000000000000000021e-02 1.000000000000000021e-02 1.000000000000000021e-02 1.000000000000000021e-02 1.000000000000000021e-02 1.000000000000000021e-02 1.000000000000000021e-02 1.000000000000000021e-02 1.000000000000000021e-02 1.000000000000000021e-02 1.000000000000000021e-02 1.000000000000000021e-02 1.000000000000000021e-02 1.000000000000000021e-02 1.000000000000000021e-02 1.000000000000000021e-02 1.000000000000000021e-02 1.000000000000000021e-02 1.000000000000000021e-02 1.000000000000000021e-02 1.000000000000000021e-02 1.000000000000000021e-02 1.000000000000000021e-02 1.000000000000000021e-02 1.000000000000000021e-02 1.000000000000000021e-02 1.000000000000000021e-02 1.000000000000000021e-02 1.000000000000000021e-02 1.000000000000000021e-02 1.000000000000000021e-02 1.000000000000000021e-02 1.000000000000000021e-02 1.000000000000000021e-02 1.000000000000000021e-02 1.000000000000000021e-02 1.000000000000000021e-02 1.000000000000000021e-02 1.000000000000000021e-02 1.000000000000000021e-02 1.000000000000000021e-02 1.000000000000000021e-02 1.000000000000000021e-02 1.000000000000000021e-02 1.000000000000000021e-02 1.000000000000000021e-02 1.000000000000000021e-02 1.000000000000000021e-02 1.000000000000000021e-02 1.000000000000000021e-02 1.000000000000000021e-02 1.000000000000000021e-02 1.000000000000000021e-02 1.000000000000000021e-02 1.000000000000000021e-02 1.000000000000000021e-02 1.000000000000000021e-02 1.000000000000000021e-02 1.000000000000000021e-02 1.000000000000000021e-02 1.000000000000000021e-02 1.000000000000000021e-02 1.000000000000000021e-02 1.000000000000000021e-02 1.000000000000000021e-02 1.000000000000000021e-02 1.000000000000000021e-02 1.000000000000000021e-02 1.000000000000000021e-02 1.000000000000000021e-02 1.000000000000000021e-02 1.000000000000000021e-02 1.000000000000000021e-02 1.000000000000000021e-02 1.000000000000000021e-02 1.000000000000000021e-02 1.000000000000000021e-02 1.000000000000000021e-02 1.000000000000000021e-02 1.000000000000000021e-02 1.000000000000000021e-02 1.000000000000000021e-02 1.000000000000000021e-02 1.000000000000000021e-02 1.000000000000000021e-02 1.000000000000000021e-02 1.000000000000000021e-02 1.000000000000000021e-02 1.000000000000000021e-02 1.000000000000000021e-02 1.000000000000000021e-02 1.000000000000000021e-02 1.000000000000000021e-02 1.000000000000000021e-02 1.000000000000000021e-02 1.000000000000000021e-02 1.000000000000000021e-02 1.000000000000000021e-02 1.000000000000000021e-02 1.000000000000000021e-02 1.000000000000000021e-02 1.000000000000000021e-02 1.000000000000000021e-02 1.000000000000000021e-02 1.000000000000000021e-02 1.000000000000000021e-02 1.000000000000000021e-02 1.000000000000000021e-02 1.000000000000000021e-02 1.000000000000000021e-02 1.000000000000000021e-02 1.000000000000000021e-02 1.000000000000000021e-02 1.000000000000000021e-02 1.000000000000000021e-02 1.000000000000000021e-02 1.000000000000000021e-02 1.000000000000000021e-02 1.000000000000000021e-02 1.000000000000000021e-02 1.000000000000000021e-02 1.000000000000000021e-02 1.000000000000000021e-02 1.000000000000000021e-02 1.000000000000000021e-02 1.000000000000000021e-02 1.000000000000000021e-02 1.000000000000000021e-02 1.000000000000000021e-02 1.000000000000000021e-02 1.000000000000000021e-02 1.000000000000000021e-02 1.000000000000000021e-02 1.000000000000000021e-02 1.000000000000000021e-02 1.000000000000000021e-02 1.000000000000000021e-02 1.000000000000000021e-02 1.000000000000000021e-02 1.000000000000000021e-02 1.000000000000000021e-02 1.000000000000000021e-02 1.000000000000000021e-02 1.000000000000000021e-02 1.000000000000000021e-02 1.000000000000000021e-02 1.000000000000000021e-02 1.000000000000000021e-02 1.000000000000000021e-02 1.000000000000000021e-02 1.000000000000000021e-02 1.000000000000000021e-02 1.000000000000000021e-02 1.000000000000000021e-02 1.000000000000000021e-02 1.000000000000000021e-02 1.000000000000000021e-02 1.000000000000000021e-02 1.000000000000000021e-02 1.000000000000000021e-02 1.000000000000000021e-02 1.000000000000000021e-02 1.000000000000000021e-02 1.000000000000000021e-02 1.000000000000000021e-02 1.000000000000000021e-02 1.000000000000000021e-02 1.000000000000000021e-02 1.000000000000000021e-02 1.000000000000000021e-02 1.000000000000000021e-02 1.000000000000000021e-02 1.000000000000000021e-02 1.000000000000000021e-02 1.000000000000000021e-02 1.000000000000000021e-02 1.000000000000000021e-02 1.000000000000000021e-02 1.000000000000000021e-02 1.000000000000000021e-02 1.000000000000000021e-02 1.000000000000000021e-02 1.000000000000000021e-02 1.000000000000000021e-02 1.000000000000000021e-02 1.000000000000000021e-02 1.000000000000000021e-02 1.000000000000000021e-02 1.000000000000000021e-02 1.000000000000000021e-02 1.000000000000000021e-02 1.000000000000000021e-02 1.000000000000000021e-02 1.000000000000000021e-02 1.000000000000000021e-02 1.000000000000000021e-02 1.000000000000000021e-02 1.000000000000000021e-02 1.000000000000000021e-02 1.000000000000000021e-02 1.000000000000000021e-02 1.000000000000000021e-02 1.000000000000000021e-02 1.000000000000000021e-02 1.000000000000000021e-02 1.000000000000000021e-02 1.000000000000000021e-02 1.000000000000000021e-02 1.000000000000000021e-02 1.000000000000000021e-02 1.000000000000000021e-02 1.000000000000000021e-02 1.000000000000000021e-02 1.000000000000000021e-02 1.000000000000000021e-02 1.000000000000000021e-02 1.000000000000000021e-02 1.000000000000000021e-02 1.000000000000000021e-02 1.000000000000000021e-02 1.000000000000000021e-02 1.000000000000000021e-02 1.000000000000000021e-02 1.000000000000000021e-02 1.000000000000000021e-02 1.000000000000000021e-02 1.000000000000000021e-02 1.000000000000000021e-02 1.000000000000000021e-02 1.000000000000000021e-02 1.000000000000000021e-02 1.000000000000000021e-02 1.000000000000000021e-02 1.000000000000000021e-02 1.000000000000000021e-02 1.000000000000000021e-02 1.000000000000000021e-02 1.000000000000000021e-02 1.000000000000000021e-02 1.000000000000000021e-02 1.000000000000000021e-02 1.000000000000000021e-02 1.000000000000000021e-02 1.000000000000000021e-02 1.000000000000000021e-02 1.000000000000000021e-02 1.000000000000000021e-02 1.000000000000000021e-02 1.000000000000000021e-02 1.000000000000000021e-02 1.000000000000000021e-02 1.000000000000000021e-02 1.000000000000000021e-02 1.000000000000000021e-02 1.000000000000000021e-02 1.000000000000000021e-02 1.000000000000000021e-02 1.000000000000000021e-02 1.000000000000000021e-02 1.000000000000000021e-02 1.000000000000000021e-02 1.000000000000000021e-02 1.000000000000000021e-02 1.000000000000000021e-02 1.000000000000000021e-02 1.000000000000000021e-02 1.000000000000000021e-02 1.000000000000000021e-02 1.000000000000000021e-02 1.000000000000000021e-02 1.000000000000000021e-02 1.000000000000000021e-02 1.000000000000000021e-02 1.000000000000000021e-02 1.000000000000000021e-02 1.000000000000000021e-02 1.000000000000000021e-02 1.000000000000000021e-02 1.000000000000000021e-02 1.000000000000000021e-02 1.000000000000000021e-02 1.000000000000000021e-02 1.000000000000000021e-02 1.000000000000000021e-02 1.000000000000000021e-02 1.000000000000000021e-02 1.000000000000000021e-02 1.000000000000000021e-02 1.000000000000000021e-02 1.000000000000000021e-02 1.000000000000000021e-02 1.000000000000000021e-02 1.000000000000000021e-02 1.000000000000000021e-02 1.000000000000000021e-02 1.000000000000000021e-02 1.000000000000000021e-02 1.000000000000000021e-02 1.000000000000000021e-02 1.000000000000000021e-02 1.000000000000000021e-02 1.000000000000000021e-02 1.000000000000000021e-02 1.000000000000000021e-02 1.000000000000000021e-02 1.000000000000000021e-02 1.000000000000000021e-02 1.000000000000000021e-02 1.000000000000000021e-02 1.000000000000000021e-02 1.000000000000000021e-02 1.000000000000000021e-02 1.000000000000000021e-02 1.000000000000000021e-02 1.000000000000000021e-02 1.000000000000000021e-02 1.000000000000000021e-02 1.000000000000000021e-02 1.000000000000000021e-02 1.000000000000000021e-02 1.000000000000000021e-02 1.000000000000000021e-02 1.000000000000000021e-02 1.000000000000000021e-02 1.000000000000000021e-02 1.000000000000000021e-02 1.000000000000000021e-02 1.000000000000000021e-02 1.000000000000000021e-02 1.000000000000000021e-02 1.000000000000000021e-02 1.000000000000000021e-02
-1.040255289332806683e+02 1.583589050377141518e+02 3.661913231775942990e+01 -8.216905908617498255e+00 -8.196891279002218766e+01 -1.248650334851927290e+01 -1.940604164514619470e+02 6.821584105776214990e-01 -7.898699746869039018e+01 -1.331985477660768780e+01 -1.853934254118749436e+01 6.144328385877251719e+00 -1.664892257640996576e+00 1.565484882624785996e+02 7.897139568218958061e+01 -3.626373842691052829e+01 -4.936054230222040218e+01 7.391366893721729525e+01 3.064518078097309228e+01 -2.370132190611643708e+01 -7.353752735219980252e+01 -6.882023335981315881e+01 -1.285229267238506523e+01 2.699716216498113397e+01 -1.818538904799634679e+02 -9.208087016187309359e+01 -2.435599794298353871e+01 1.880968544300799579e+02 6.602683824389231404e+01 7.166651252676462036e+01 7.494198831511056369e+01 1.095970143154733289e+00 -7.411724281780551848e+01 1.937048680188224523e+02 -2.285952164978652377e+02 5.500956528321867012e+01 -1.120053220334645658e+02 -3.238640793259954620e+01 3.774321601294595485e+00 1.182541724430875405e+02 -1.146537520227523146e+02 -1.268048319900083243e+01 7.213334485823159525e+01 1.620380898547601873e+02 6.653157194802081165e+01 -6.375404997719622457e+01 3.836269715321322593e+01 -2.652250287732099920e+01 -6.164983421469781888e+01 1.461137894116151585e+02 -6.570139247861379772e+01 -4.858347219588058863e+01 -1.301494971225577331e+02 5.506712045314338333e+00 -4.711999486104017620e+01 3.611291111917378771e+01 -8.281595788342843889e+01 -4.669228358992666017e+01 -9.464403903908018378e+01 -1.451042788583891365e+02 1.807866089783696140e+01 4.243028393103747931e+01 -1.149326579017981373e+02 1.198281711531646820e+01 -7.393472310013795834e+01 4.585627769874114534e+01 1.556306559935162284e+02 -1.346837288104503045e+02 -4.038554212230947371e+01 6.769899549353209700e+00 2.756547136626075645e+00 3.958087247752136051e+01 7.838561617690322691e+01 6.603820922210736910e-01 -8.287515118640079947e+00 -6.532066542368093565e+01 7.301366936871876590e+01 -3.048538564339405355e+01 2.457428001558105635e+01 9.711321792118165774e+01 8.228563171255173359e+01 -3.994348458948456226e+01 5.385646580257366622e+01 1.375990554935440002e+02 1.084910052363795785e+02 -3.696329955712715165e+00 1.625539718932818971e+02 -1.041185222466625504e+02 3.853127695836237265e+00 -3.914741837995300955e+01 1.930176241933563119e+02 -1.981071296414256722e+01 2.729277890120713312e+00 -7.167126863069589149e+01 -6.691601093614901075e+00 -5.953017333840902126e+01 6.329282096324576656e+01 -8.827757253040927310e+01 6.413636952450529805e+01 -4.461751994242941777e+01 -4.641224586874288605e+01 -8.557462653703353794e+01 4.948958947061012026e+01 -5.099666509957310723e+01 -1.393759727565704907e+02 -7.413554513249972899e+01 -9.762258531993019517e+01 -1.467489902663527914e+02 1.268492388510711493e+02 -2.556156574359529898e+01 2.992759304410716581e+01 8.369174976854166914e+01 -9.706694490935073816e+01 5.312539735942254282e+01 -4.042302276180566167e+01 -6.486939174797311125e+01 -8.418981568650158920e+01 1.895880426053134329e+02 -5.295007485469944442e+01 -4.625656166940362368e+01 -4.397111163909482201e+01 7.502819598851755245e+01 -3.868063203457729315e+01 1.287329022042948452e+02 -4.666742926701215310e+01 5.151267203969161557e+01 4.241812801555379764e+00 -7.561423505648495791e+01 6.415411620253681235e+01 2.589466952726290288e+02 -8.599059898561949922e+01 4.428362873846882053e+01 -7.125123747350789927e+01 4.224644954225365723e+01 1.225036382780420041e+02 -4.807101323195115583e+01 1.368119043467131490e+01 -2.518685157127141139e+01 -9.522667551730161506e+01 -1.627127077846541781e+01 4.060170078748813971e+00 -7.278474914565606468e+00 -1.393390072971651250e+01 1.103314506590229627e+02 1.218315627866894459e+02 1.742017717740498313e+02 -2.843617493335693212e+02 3.567144158883527894e+01 -1.476456179297389681e+01 -5.822444773974460475e+01 1.685122628775498015e+02 7.107173104282792053e+01 -2.490067916001230675e+00 -1.083004858963678458e+02 -1.013383629800597951e+01 9.354379864960652924e+01 -1.255223737849427437e+02 -1.575485263417351689e+02 1.003753791930624750e+01 3.962277899338262444e+01 -5.707230495611565146e+01 3.930205721357162929e+01 -1.000812645802269429e+02 -1.414115846209642484e+02 1.968331394491708153e+01 4.541000153475478385e+01 4.534643788942988252e+00 -7.795465564337497710e+01 -8.749494214920387947e+01 -7.875761907549487262e+01 -8.188672185366390011e+01 1.188316332413602439e+01 5.312483419039194388e+01 1.090168482758799229e+02 7.428464553211711063e+01 8.378595281052484722e+01 1.006446636939385542e+02 -6.997996088308566698e+01 -7.721719814361112810e+01 6.602804891093376227e+01 6.428798552499243613e+01 5.546819460766007381e+01 -8.775138559570061503e+00 -8.531770161186105383e+01 5.060994335982179848e+01 -1.679648653080449492e+02 6.300817736960058824e+01 -4.169813245490347953e+01 -9.040322657536324868e+01 6.961329313153234466e+01 -1.613773191955493758e+01 -7.230696557405472902e+01 -5.386881373713755039e+01 -8.638116259163682642e+00 2.279201435594301586e+02 7.234978129911729638e+01 5.153029852870811567e+01 -9.754259654163324456e+01 1.393635036589698188e+02 1.035177496398677288e+00 -8.492491897236482146e+01 1.465686611115674793e+02 -1.449557201557993835e+02 1.484702791720758697e+01 -3.055790191889592933e+01 -2.090926380881441276e+02 -1.267653285365505695e+02 -8.293713701111835235e+01 -2.804951315645295651e+01 -1.133356796416942274e+02 5.479405999642389702e+01 6.183771827782623376e+01 -2.628831254542823714e+01 -9.496391362133279301e+01 1.075610005726055931e+02 1.123411209878815242e+02 4.394683634722784404e+01 1.669737100300342192e+01 2.487754535628383223e+02 4.151430769597620696e+01 -1.138203039346891359e+02 -4.294290665805789331e+01 -1.606507436924697174e+02 3.034248377228086113e+01 1.458756257559773530e+02 -1.410738826503672101e+02 1.254223658510500741e+02 -8.661429368534111006e+01 -1.806604545720302823e+01 -8.265411816656630384e-01 5.038456221245798616e+01 -1.099284346988318362e+01 -2.177667642596267328e+01 -1.783287979452623873e+01 -1.208548479005915084e+02 4.417319287735274713e+01 -2.887893343493286125e+01 -1.225375742915648658e+01 -1.022624031175016768e+01 2.153508998648096622e+02 1.661319424492103849e+02 2.217112408401596042e+02 1.256172736596410431e+02 -8.251778733413478051e+01 7.159261730370647570e+01 2.019074320056525451e+01 4.522765605599251160e+01 -3.774853876277838793e+01 2.434422436576877828e+02 -2.225178854101473291e+01 -1.303570973637617101e+02 -1.422658570027893532e+01 -4.372159481055922470e+01 -7.374249335197660571e+01 4.113555170208244505e+01 -1.116456723090502479e+01 1.734357389830499301e+02 8.796195857511045801e+01 3.896112651908952529e+01 9.337507194083464412e+01 9.034518236478626818e+01 -2.191400281459737798e+01 1.331402988788234438e+02 2.534501677235491002e+01 8.549208185342808974e+01 4.551576392798098425e+01 6.592188364688341906e+00 -1.103746246895027809e+02 -1.105503467156033679e+02 -8.590903945859382418e+01 -1.483442068953860016e+01 8.271188485382342037e+01 -2.917665012031162064e+01 9.431679555330674702e+01 4.182325531208407909e+01 -6.936924773939432498e+01 -2.853806305338387261e+01 -5.587158973667957440e+01 1.676623063180386453e+01 -4.411872226876945291e+01 -1.068767854508716226e+02 1.158777047953907413e+02 1.157677491832108814e+02 -7.536893721451127703e+01 5.095516818026742278e+00 -4.326020402003528886e+01 -3.100983329701696434e+01 -1.081773197698530353e+01 -2.982773477458166766e+01 4.249485635681865148e+01 -1.341491462053697603e+02 -5.044612036729238724e+01 -1.447955031612083872e+02 1.660374094157092770e+02 -1.919177487715372266e+01 5.612074898658064370e+01 1.132689866582494354e+01 1.376186737863540657e+02 4.246890375246274374e+01 3.398243284127777741e+01 1.471414177930427911e+02 -4.693357793898359631e+01 -9.306017672428180276e+01 2.598350302858802863e+01 -1.505189617259199224e+02 -5.088256111926476422e+01 9.750207453861695228e+01 -1.213343627318665909e+02 -3.461259373902021252e+01 8.690465096853316140e+01 -8.985989922944371244e+01 -8.511227776520821919e+01 -7.863547070375881276e+01 -6.065761044376770883e+01 2.371330504183486028e+02 1.886342340758754688e+02 9.795273514174191121e+01 -9.723600460511357824e+01 7.117492908245355920e+01 -6.306435317537242469e+01 -3.005302348410872071e+01 1.582270627028552035e+01 -3.077216231658398371e+01 -8.911494049145663610e+01 -2.748369990663255713e+00 1.398158766569728861e+01 1.034763749576698757e+02 -1.221550646802564586e+02 3.997443455434988380e+01 6.061979422141398288e+01 3.275062326091488529e+01 -8.610410979036083745e+01 -1.411448608237526514e+02 1.834013128585179686e+02 -1.689272617989113812e+01 2.391414228235312578e+01 1.487376784432976251e+02 2.530272405471767172e+01 2.630538607542113638e+01 -4.229851432565993719e+01 8.410957560417138268e+01 -1.293415454869814312e+02 -2.920340358999659713e+01 -5.826158658002631441e+00 -5.061638199789354786e+01 6.085103130430973728e+00 2.010349036315400184e+01 -3.393628571844232766e+01 1.295745045249429417e+01 2.026372359536241561e+02 -2.599300497657684517e+01 -2.658750886869453112e+01 -9.636114331284186107e+01 -1.532422048158345040e+00 -7.650124416804800376e+01 6.011248712867899968e+00 1.062392853713211167e+02 -4.928170298683880191e+01 5.715874367841706771e+00 -5.143284476430168439e+01 3.120122287328365385e+00 8.258537735666018875e+01 -1.097377878501048940e+02 -9.176829569458351443e+01 -9.720419808623491065e+01 6.753904990408967990e+01 8.198207461946567776e+01 -8.728837134854690305e+01 5.937548349387995472e+01 2.449707106575926829e+01 3.664189133387765906e+01 -1.678908949053674959e+01 8.654533428780561621e+01 7.543863070595469367e+01 -7.312687388654617848e+01 1.111239928419779766e+01 7.655446696942487961e+01 6.895104833482186280e+01 -1.888136123155963375e+01 2.361299808607265760e+01 -1.255593397907778979e+02 4.598672894257818911e+01 -3.105291403929193450e+01 -3.098546477792626064e+01 1.639734710454465016e+02 4.487259289494772219e+01 1.137839665158460321e+02 1.808432410556685568e+02 -1.303296992260835623e+02 1.411980199540882381e+02 -6.013991171077868358e+01 -1.279725843757293973e+02 7.792663691138194793e+01 -1.268832631414336589e+02 -2.719807581156779008e+01 5.337286594191523648e+01 7.579194745338019956e+00 -1.592977139690834747e+02 7.983172590540796421e+01 2.391948729728342471e+01 6.539826252261708817e+01 3.440803424804462196e+01 8.951974057226887993e+00 -6.353722478989408273e+01 1.095104485479981236e+02 5.160047863266859025e+01 -5.879849178586596281e+01 -9.585637172358951830e+01 3.679611443411703675e+01 2.441956072064660788e+01 7.803866559347221710e+01 1.740774684380261021e+02 -2.328167836319770956e+01 -1.043101248283316949e+02 -8.010635508915693492e+01 -4.857687677042427765e+01 -4.190708105032543784e+01 -1.388799105091589183e+02 -2.135258148728458849e+01 1.226586589146744757e+02 7.053483305928119762e+01 -1.158359794268298799e+02 -1.420233438677022946e+02 -6.441997982553405677e+01 -7.218039340212968114e+01 1.390597767150406412e+02 -1.613867864961810881e+02 8.199117063314669451e+01 -4.359732182138031042e+00 -4.076012573833093455e+01 1.255813827212214129e+01 8.623808113876131642e+01 4.685936910129176169e+01 1.308217862729585477e+02 -1.506523900462725010e+02 -7.664253003433577760e+01 2.406060697989218866e+01 3.967768983590825371e+01 1.950584699023333428e+02 1.377096243512044964e+02 6.207631848981996825e+01 6.824752082237972672e+01 -3.209218963966831950e+01 1.436416333030424823e+02 -1.698351767924273474e+02 -6.006735417443282188e+01 -5.080207839037448281e+01 -4.901911255875825191e+01 -9.769514162641463884e+01 -1.420872014604394096e+01 -6.494225938435477019e+01 6.732598197089799896e+01 -8.631920458631613613e+00 -5.489637295030703257e+01 -5.880901473358227349e+01 1.705238058587096930e+02 5.592909188651126584e+01 -1.303720744354772165e+01 1.977047876413141978e+02 -1.025774390986267548e+02 -3.341922824064078412e+01 6.338158846295036142e+01 -1.382192426737520186e-01 1.421292768762021019e+01 -1.184771110648823793e+02 1.667419108418931444e+02 -4.627090202130050756e+01 -2.540431199955406427e+01 -1.037752292526363220e+02 1.190544279085778783e+02 9.061147811696906729e+01 -7.329115704985929369e+01 -3.565101493176034353e+01 3.687746977180815833e+01 -1.431351420750196723e+02 -2.308491839553616087e-01 -7.063729615849000254e+01 7.243340750598591171e+00 -1.021661191825034081e+02 -1.498700871515572146e+02 -6.683162617778828007e+01 1.400903780930406128e+02 5.340391385528423740e+01 -8.474588915530560485e+01 8.422864006221584532e+01 3.229289968558566670e+01 8.353389507018707150e+01 -3.980063730362645202e+01 -7.940001164922708199e+01 1.615951461018371162e+02 3.929495821751213214e+01 2.732883025532707677e+01 -6.890497427446014456e+01 -3.996267676633134158e+01 8.943657422051359163e+00 -6.788685516302952472e+00 -1.632063658552754646e+02 -3.270409957488240593e+01 6.078662472913069337e+01 1.052898976254809895e+02 1.470266171531216628e+02 -1.255851569210492968e+01 8.458086083638472985e+01 1.488763673154227831e+02 5.980846133280380883e+01 1.392271652586186690e+02 1.515785431666248151e+01 1.238516689383299791e+02 -7.915965482186048519e+01 5.025446664499931870e+01 2.758623327788725277e+01 7.147148865447530852e+01 -1.000851900591476493e+02 1.866351065927341324e+02 -1.211310453966777771e+02 8.320469696919670355e+01 -1.010343809867386966e+02 4.348887550573763150e+01 1.300618527221327270e+01 8.531638997421562465e+01 -6.925883153665225223e+01 -7.102269149058508901e+01 -1.044302051375977314e+01 8.377011912237293245e+01 -2.782617529144594570e+01 -1.530462045656465797e+01 -1.844675069436680204e+01 4.447087714370771216e+00 9.215400480638334102e+01 -5.869456955304537615e+01 -2.528062807456407768e+00 -1.818318825518799997e+02 1.144367724037691403e+02 -1.170032047127357231e+02 -6.918610784030116179e+01 -2.201489100015538369e+01 -1.011441647058190370e+02 -4.977022421118577000e+01 -5.490019477997100239e+01 -1.847026649842176482e+01 1.275598353892824974e+02 5.063327999542890723e+01 9.402216363249233666e+01 -1.274609412947795448e+02 -1.297593416050930841e+02 -2.685984853545655824e+02 9.574184125128039113e+01 9.756258658890781987e+01 3.967705363294933107e+01 -3.982518853909851231e+01 -3.476192614922035773e+01 -1.720470667578939583e+02 1.367624484464158172e+02 -1.005726404972287611e+02 1.001712514856147180e+02 -1.490436245541752385e+02 -1.342246122295519761e+01 -5.186186354732895865e+01 -1.117037671379588204e+02 -4.318815918559126743e+01 -1.179709914187332132e+01 -8.682011362803449117e+01 -9.686766254222230543e+01 -1.158446667003639163e+01 6.665442410337020362e+01 -1.166902953958087039e+02 -1.463770742102003197e+01 -6.906877769573543446e+01 -1.230793841725436977e+02 6.110312991755249890e+00 8.900510017303298582e+01 1.551058684023578849e+02 -1.783769504471864664e+01 -4.313211240752236364e+01 -1.163835631214030997e+02 -1.533970861923562552e+02 9.732059424495140831e+01 -6.816545650973183967e+01 7.400926081317761884e+01 8.803726493114330864e+00 2.735090981812196631e+01 6.921907032291244377e+01 -7.951044389246673916e+01 7.755376581618818932e+01 1.081196518855206534e+02 1.477898980035729153e+02 -1.092260098731261024e+02 9.752659646772285384e+01 -4.484758652198274120e+01 -8.518292372180414418e+01 2.013543575480999266e+02 4.612357560695237169e+01 7.830862804023496437e+01 1.983305719593366945e+01 -5.944641048114905857e+01 -3.277075144624990344e+01 -1.973923078060842045e+02 9.911829282944060537e+01 7.642286989917610640e+01 -7.101162902072708505e+01 -6.855248496751927689e+01 1.361990853633287770e+02 9.481290968602675662e+01 4.796564799922783351e+01 7.134040108025641302e+01 -7.318932329169950179e+00 9.679889420199857852e+01 -9.722056198878424027e+01 1.747681661114476981e+02 -3.704099731211626079e+01 -1.144778385143402915e+02 -3.541599280238305170e+01 6.729746051800505313e+01 1.382013863689785182e+02 1.199123553177230050e+01 1.630666774637629715e+02 4.893541021597055618e+01 3.157435741241774352e+01 -1.044019008809378306e+02 4.197841902023491656e+01 -1.172047913998597153e+02 4.478740898914043811e+01 3.613257407031189672e+01 -1.157772608440564710e+02 -7.977913010371557334e+01 3.741603001550618757e+01 8.184078900222639064e+00 -2.174605104523822874e+01 3.932214806283316477e+01 -2.008200827778862063e+01 -5.918012383070789895e+01 -2.469098257998475177e+01 -2.099653875688768423e+01 -3.734406059481123918e+01 1.758741530872936210e+01 -7.558027778129397234e+01 1.115645559883432867e+02 -6.962604485503047158e+01 -3.873918907237708709e+00 6.164737756382496769e+01 3.612362563893122047e+00 1.499578204192996012e+01 1.499412312822970073e+01 -1.098328165626110717e+02 -4.122885123304899757e+00 6.100427121575358314e+01 -2.170638816739865717e+02 -7.965902082948205987e+01 -1.056700800903638680e+02 4.109077648690632145e+01 9.023168098168959261e+01 -8.608758749113361830e+01 -1.574534223336892751e+02 -1.737319429432472759e+02 1.869798837333564734e+01 -1.358793338928348646e+02 -5.942079350469000154e+00 1.383655988900239322e+02 -6.594406687510321774e+00 3.476450492447100515e+01 -9.253639565550673751e+01 7.473906454828718893e+01 -1.108723192611699773e+02 -1.445745213003502805e+01 -2.827676465937099692e+01 5.384955556490604067e+01 -8.219765409877762607e+00 9.870266145561471660e+01 -1.140490124998125054e+02 -4.676859747565301717e+01 8.099926315861630144e+01 6.173981925517101388e+01 -7.677116792680757840e+01 -5.078337988575988504e+01 -4.608731968156398295e+01 -2.698907367018063610e+02 1.804304638337780773e+02 7.085789621399584348e+01 -2.193103611442219858e+01 -2.764997979356533619e+01 3.868006510667467523e+01 -7.825611391522163274e+01 9.259315152315275554e+01 5.632843701274333625e+01 7.614090191661787799e+01 -7.822901164473688596e+01 -2.458465502665662328e+01 3.094893354063567514e+01 1.616102825894723338e+01 -3.987509324168099312e+01 1.469278858652398867e+02 -1.605255135930901744e+01 3.294719745397898691e+01 -2.137240464843566770e+02 -7.865484391635544625e+01 -6.795026383185063423e+01 2.140953552745572708e+01 1.014467816254690007e+02 -2.154396568162204630e+02 -1.738145720899577213e+02 2.058967957731698277e+02 -9.811605778848942805e+00 8.920636072292855090e+01 5.813136865993308788e+01 -5.138842263103004626e+01 -1.217039487747341724e+02 -8.840840160788771129e+01 -4.666977147702246498e+01 -3.473081247310881992e+01 -3.638845305079803438e+01 1.495255151904332891e+01 3.462904073663340654e+01 1.550753688504708521e+02 1.145584509687138848e+02 6.549802896438245092e+00 -4.118055815925361074e+00 -1.474368296013070392e+02 1.111681440873888960e+02 1.479741958310557948e+02 -9.616691296756708596e+01 6.848244199226883211e+01 1.512566019637811898e+00 5.108448146777030274e+01 1.164311465695814718e+02 6.591243031264174590e+01 -1.245759114410968493e+02 1.494694976839442546e+01 -2.730898366990421167e+01 1.036122074298825524e+01 -2.140658017931754387e+01 4.211129480333660524e+01 -2.423468298677975383e+02 1.683608428492279359e+02 6.707082902312985873e+00 1.481870676035212568e+02 -9.746087924751481779e+00 9.868496246151133278e+01 6.661262628260428187e+01 -3.900390173907350544e+01 2.790575435843978269e+01 -6.780277055002565589e+01 -8.285784178780001241e+01 -6.702457267204947300e+01 -2.984914195764616451e+01 4.203280052173552406e+01 1.025436992797323654e+02 2.647710979935120434e+01 5.796102133142159829e+01 -9.765512818233329995e+01 -1.277431527976862213e+02 -1.256042798600602595e+01 4.318667952680428357e+01 -4.227254035435419155e+01 8.819901888169377457e+01 5.179445399260410454e+01 -2.574722749381635722e+01 2.789925071781568278e+01 5.725038860290932519e+01 -6.718139078343260451e+01 -1.246533278742921311e+02 1.324115324589134275e+02 7.280828966502700617e+00 4.674921645150826777e+01 -1.392914756039945416e+02 -4.983040078626534353e+01 -3.809715803070357065e-01 -6.148645683928948102e+01 3.965406341340318885e+00 5.257241118732232366e+01 1.740957701088479723e+02 3.654933129245512902e+01 -1.022831119895857555e+01 6.754090409495566405e+01 -4.245939513742202820e+01 -1.018169802669519584e+02 -1.291050954246263700e+02 8.739057820228849138e+00 2.347097348393253569e+01 2.231753316447059632e+01 -5.319053397484969281e+01 1.129640045483935609e+02 -7.557987401112480086e+01 1.200284431203694311e+02 8.165410858633619284e+01 -6.085114073774155941e+01 -7.938658632054242048e+01 7.883893708989505456e+01 1.906242376664813776e+01 -4.920634908614166392e+01 -5.039879703514307607e+01 1.281388899610188616e+02 5.373485687800030774e+01 7.491075858967627710e+01 2.449937753117425387e+01 -3.936873133677289616e+01 1.006220949123229929e+02 -5.115662732581476035e+01 5.622958965925317631e-01 7.172725670370390105e+01 9.340652655581828867e+01 2.397124176029988405e+02 -1.643928676940237779e+02 1.509461936035660869e+02 -6.333157115656228342e+01 -1.430299257399261847e+01 -2.364082708523249821e+01 -1.945648353899800753e+01 -5.168844383881938143e+01 8.738011583518854763e+01 1.728025111523436124e+02 -1.115450593707257525e+02 2.906373451463704072e+01 -1.192630641266223535e+02 6.598972700578981687e+01 -4.178433140139407698e+01 -7.625731619263041239e+01 -5.075107654290550130e+01 3.879740705837556902e+01 1.821035666139957954e+01 -7.695685104288790512e+01 -1.328220753293289533e+02 1.955134835024476914e+01 1.485195605483176848e+02 1.346790969847750752e+01 1.720375191486031952e+02 7.022454012423870573e+00 1.269987175070162237e+02 -3.262126038660688465e+01 8.568256712186695268e+01 -6.742270105348563902e+01 -1.065913157302101268e+02 4.668402537711642708e+01 -5.476619893208188472e+01 -7.421498496936236222e+01 6.880525613154173925e+01 6.145582307918356690e+00 -8.909544883637279611e+01 -1.424297178914427775e+02 1.399514784227241648e+02 -8.437225260462670917e+01 -2.269303996451925265e+00 1.137029036376038391e+02 5.490078714727198417e+01 -9.303280967646590227e+01 1.012054719079451637e+01 2.672288469564018669e+02 5.048261171766348809e+01 -1.494702875942087701e+02 -4.526301227363244806e+01 -5.827616520336876960e+01 9.104574971370755776e+00 1.020389522407919998e+02 -9.822286943614804500e+01 2.051433438179186908e+01 1.238136241524508563e+02 1.781486223809134728e+01 -2.005901940695713677e+02 4.580461759657896437e+01 7.168671799740133110e+01 -1.292661740600677867e+01 3.112228378369450965e+01 1.955759879018747760e-01 2.147700555313842941e+01 2.634316231700676880e+01 1.100597470469392505e+02 9.317527761624117488e+01 1.491690787511993221e+01 1.415640999519424668e+02 -6.082184788919138185e+01 2.343478436429186331e+02 6.181328074243715776e+01 1.347081459967857882e+02 -2.086155021849873137e+01 8.561667892674300617e+01 -4.641887966106826013e+01 -1.391160516486983170e+02 2.483788214524522076e+01 9.020127900622733819e+01 -8.318685512911837066e+01 -9.955844597537678453e+01 -6.324791020459159085e+01 3.482922249797977088e+01 -1.084983753155068200e+02 7.097699506961242832e+01 2.662368324524505780e+01 -9.278367166827335666e+01 1.804952450617524278e+02 -1.117686529465681033e+01 -9.676823354818336043e+01 -1.278072192653012706e+01 -1.942725479323746285e+01 -1.332773848388419822e+02 -3.802589230460305458e+01 5.848500141338268321e+01 1.253102855741998525e+02 2.763341236719195848e+01 2.540042778993936068e+01 4.257448667009623477e+01 -3.391666568674201443e+01 -1.384578932889853320e+02 1.514564060437837512e+01 2.939150428825782413e+01 1.265802910076796337e+02 -9.358357671242938380e+00 -7.235592601250910150e+01 6.958281508315378971e+01 9.085061525275084371e-01 3.014658543752521780e+01 1.323039978782395849e+02 -1.686747609502750436e+02 -8.829540572551161404e+01 1.185979551460554120e+02 -1.993012289598676432e+02 -1.698973578674786609e+02 8.413064675496750056e+01 1.422664797314251643e+02 5.862499522469919810e+01 -4.159995293324988630e+00 1.438225193582650263e+02 -2.028545851253346370e+02 9.899396586940939358e+01 3.914615400436666448e+01 1.173912893106327857e+02 -1.742258491935460540e+02 9.831694949366607261e+01 -2.603234405658435335e+01 -1.234997821466535015e+02 -4.913129263298354310e+00 -8.533676096401508460e+01 -1.491118498798391201e+01 -4.068574524761413791e+00 -1.138139095935366072e+02 -1.139266071443683188e+02 -5.779031818984844193e+01 -1.190676265701818579e+02 1.856539073955179617e+02 -1.489226387327263126e+02 -4.637145812167909043e+01 1.594053754385824391e+02 3.135334452569604835e+01 -2.734620576528387232e+02 -1.174940301340874669e+02 3.277782133581045798e+01 5.051530402831156863e+01 7.839302602054060820e+00 -1.427843239940507658e+02 3.296574853695847196e+01 6.966883403263858909e+00 -6.867116356427901280e+01 1.873215755593948302e+02 1.871173141772949009e+02 4.032026544693468217e+00 -1.926883290338724919e+02 1.163718019261487626e+02 2.838820784263388930e+01 3.571042126002703210e+00 7.071215608664627439e+01 -1.917071312405778656e+02 -1.274878605527350857e+02 1.302496810722960277e+02 1.013137267675259778e+02 4.884680736578594207e+01 1.322285730862740820e+02 -1.646864751447703838e+02 -1.893411910248795138e+01 -1.204390536831566862e+02 4.040394881789239179e+01 -9.597165565668244369e+01 8.046288759350979092e+01 -3.137564698268867858e+01 1.144483340366917012e+01 1.639395216068176921e+02 2.642081676988025407e+01 -2.434990054325507742e+02 -1.167948188809627794e+02 -7.698295172357953220e+01 1.460709615426596883e+02 1.158981791141603779e+01 -4.984730109970928424e+01 2.796058950985950986e+01 5.769677415909417562e+01 -3.650446050686682753e+01 9.932007340809775542e+01 -9.308314563093895799e+01 4.546569575470348923e+01 1.034132817423627415e+02 -3.288026403356747807e+01 -9.065471710659203097e+01 -1.048604367858490747e+02 1.106443198044939891e+02 -4.592194621246802200e+01 1.815818548058604165e+02 5.284969333121701851e+01 1.024838474774701496e+02 1.705382660657773215e+02 7.899173305494104902e+00 -1.148758736363031829e+02 -1.530681794044674007e+02 -1.054474135757967304e+02 3.930370410285357252e+01
-1.223716938831586631e+01 -4.400042982017848381e+00 9.341003414373236069e+01 -2.066994980191473701e+02 1.402493020671587658e+02 5.725881787704570058e+01 1.372993701957867074e+02 -1.165670494242340141e+02 -2.479716041016954531e+00 -2.169527682167996474e+01 -1.980700051537225193e+02 2.948477455711569917e+01 -1.652131204649929686e+01 1.103801858325751510e+02 -1.129340459799627894e+02 5.569077976795859541e+01 1.130093338768167683e+02 -4.147861270173682868e+01 -4.467452750827299468e+01 -2.428363097261512138e+01 5.572599279724475707e+01 5.685624863152825270e+01 2.928586057640795559e+01 -2.097478834369738365e+02 -4.646116329456812366e+01 8.265503187364710413e+01 8.954198721293611385e+00 -9.390660492144764504e+00 -6.000034824517088339e+01 -1.402331892029001459e+01 6.616283513975066910e+01 -1.311703591654791978e+02 -5.593805121628302857e+01 8.069279369671471969e+00 1.873324809354315619e+02 1.913247869749465053e+02 -2.906228995925384595e+01 5.041193348818642050e+01 -2.194849562248091801e-01 -1.259505226357656795e+02 8.655524675599870932e+01 9.669474276426102222e+01 9.787247398068522841e+01 1.051497601098503409e+01 5.579962468037921042e+01 4.339527104638205657e+01 3.505853761677015967e+01 2.652076608031838489e+01 9.946133029773986323e+01 8.089645028239735325e+01 5.912234802343505180e+01 1.470404846375775207e+02 2.236508768206558102e+02 1.764367486322998673e+02 -5.335427802045477819e+01 4.444103499018920189e+01 -5.793657861153196365e+01 5.083028446058136041e+01 -1.734127681335747866e+02 5.095875505659768834e+01 -1.846463661006861798e+02 -1.521934270272573144e+02 1.169335348420089105e+01 -8.382822780921756589e+00 1.528843228196010102e+02 -1.876490320569263304e+02 6.788560962926614195e+01 2.073778421036301154e+02 -6.724432198162165975e+00 -1.758137535332183745e+02 3.199973781998161471e+01 1.778414822209741430e+02 -5.514051480911938086e+01 -2.405647834869859878e+02 -9.253587876149397573e+01 8.102347519856598623e+00 -2.075974499181412796e+02 2.901724093505811553e+01 -1.619298609903757722e+02 -1.674187528397287110e+02 -5.166942334388345870e+01 1.375276206118912796e+02 6.263462590893168169e+01 9.597567235736482516e+00 -8.009716134404615673e+01 -3.845238614704864943e+01 5.752314324933984580e+01 -2.096794285145598167e+02 4.884662115547305916e+01 -6.761053162867239053e+01 -7.061395916601946965e+01 -1.596867049189941383e+02 5.868810544870026291e+01 8.368159178836951639e+01 -1.465999339629884162e+02 1.561280947179749887e+02 -3.600182157764570690e+01 -1.529134924669822304e+01 7.926365705788398941e+01 1.412996368501450206e+02 1.970401035665739187e+01 1.368853521698798090e+02 -1.676387624204315330e+01 -8.197300096048060425e+01 -1.770760438238170309e+01 9.132400896757221176e+01 4.180564331379780185e+01 9.094244630713171773e+01 8.771876244593934757e+01 -7.728667494033541630e+01 -1.579595998245888211e+02 1.143840242007124175e+02 5.041304408537735782e+01 1.515976562450209997e+01 2.841453672811811160e+01 -6.315133332917069708e+01 8.927280822454721942e+01 8.358286006348043884e+01 -1.281457501260556953e+01 -6.627702939759518586e+01 2.848921098258620077e+01 5.855931439507767067e+00 -5.713183523901981431e+01 1.577541619265234090e+02 -3.037477874600132211e+01 1.130981133905199130e+02 -6.517705563477478847e+01 3.571191261732228384e+01 -3.351147623376303386e+01 8.327558876834552848e+01 2.182266837119769676e+01 1.075501604200480870e+02 -1.079996955294651571e+02 6.918677502562879056e+01 1.148720309228147443e+02 -4.156658023238131960e+01 7.176892706712354020e+00 -1.198955319343118120e+01 1.087781944090205428e+02 3.491829084578240039e+00 1.569128126281771358e+02 -1.316606691079057896e+02 1.085718753675270563e+02 -8.492819726510009559e+01 8.926395440639396384e+01 -1.276500946146919091e+02 2.747193316428517207e+01 2.307333097187395055e+01 1.624735563187604148e+00 3.383107427532927147e+01 4.294091687220868891e+01 -1.149089198038686455e+01 1.023458660969811085e+01 1.007314044927114338e+02 1.185520130641310885e+02 -8.084966799002177140e+01 -5.044266833210624412e+01 4.407332358917381043e+01 1.390520230360916765e+00 -1.277353846112766860e+02 -5.145677139538324241e+01 -3.296902604566405159e+01 4.556373776685986599e+01 -6.106067535028596893e+01 2.134710525291730576e+01 1.496071964224154840e+02 -7.409723784973648719e+01 7.547075255716836750e+01 7.841350944943644663e+01 1.057158742031266918e+01 1.152440252316037572e+02 5.870627310097255958e+01 1.569102228245932622e+02 -3.239038637779312779e+01 1.050037801237780997e+02 5.192981204140201612e+01 -1.499326661251627790e+01 1.908013067435437335e+02 -1.297152012278157827e+02 4.573498865423637483e+01 -1.754527519139320759e+02 -7.872636153333601783e+01 3.842696923837527834e+01 -6.759461870168800601e+01 -1.457994860333998304e+02 1.866280661639240179e+02 -8.031533681549990433e+01 -4.448119385814329263e+01 -4.333292797245076855e+01 1.140343709439218287e+02 1.824207814951766409e+02 6.064308033056562408e+01 1.369976127887181860e+02 2.056318324109686557e+02 -1.469405886176092135e+00 1.525605703188919904e+02 6.640568525704131275e+01 1.783872090258045091e+02 -1.179060484899789714e+02 -1.105343035125142848e+01 5.977070999697398967e+00 1.779405126267548098e+02 -8.508008957024021868e+01 -5.676558142157377063e+01 -4.957801299563123365e+01 -1.256466340491091813e+02 4.386781940711775185e+00 -9.455225217840626328e+01 1.445287596952416038e+02 2.203540497474469007e+01 1.121258119022937372e+01 6.774405958312630105e+01 -4.576472772095566022e+00 1.096849972338504244e+02 -1.489062293448974685e+02 4.259080111378008837e+01 -1.599712650064005857e+02 1.100275831418687034e+02 9.012532525990738463e+01 -6.301262409671443976e+01 4.389211725343351134e+01 2.231509267577505398e+02 -2.857704614194060611e+01 3.901691197345496676e+01 -3.063098481349292257e+01 5.430405657421756160e+01 6.018643621057678672e+01 -5.904043823029060611e+00 9.543601593551809970e+01 9.499267085797693255e+01 -1.816265971396665577e+02 -1.435559792253826572e+02 -1.123101142226249181e+02 -8.804358891321768965e+00 -1.402678134355579118e+02 1.082535053968640142e+02 1.033233386559327442e+02 5.530917798822054721e+01 1.046355599599738717e+01 1.476802561599149897e+02 7.864148514281512803e+01 6.325575126009388072e+01 -9.511349682970529784e+01 1.428524859527833542e+02 -3.405581752947274055e+00 1.024597978296917375e+02 8.269172179561897096e+00 3.440765469355552852e+01 -7.084631197092046762e+01 -8.494491956784936804e+01 6.703702429061445400e+01 -3.651654585417846821e+00 1.368076568112890357e+02 -1.173515682320723386e+01 -2.648028880282027764e+00 4.292425067083205192e+01 2.115781445228735791e+01 1.323497979344347470e+02 1.380935791652688671e+01 3.356651483835443628e+01 -1.446970345552562947e+02 6.154031718141786200e+01 1.249889813823092055e+02 -1.637221176352191421e+01 -2.131791605094357749e+02 7.889178313659081709e+01 1.272243017633777100e+02 1.908552005330909296e+01 1.764715114989017479e+02 -4.085663246074600075e+00 3.995907797940435557e+01 -4.071003748409929557e+01 -1.291298600881557377e+02 5.222881786680213878e+01 -4.423502288856008846e+01 -7.534520168118071126e+01 3.838735244508492173e+01 -1.719164853763045073e+02 6.659207404580843104e+01 1.530367375598040951e+02 -9.412981071315697079e+01 1.609264028291959505e+02 -9.067974054244859872e+01 -5.521145096929202190e+00 -9.828278074568833844e+00 7.126704537589017718e+01 -4.336254623957266574e+01 -1.000779842520677505e+02 -8.233154978651943168e+01 1.353945293250206987e+02 5.488661107003082407e+01 -1.224468472124758733e+02 4.078006110814194507e+00 4.025217394253572678e+01 7.657396684748336213e+01 -3.740162449910327069e+01 5.556016320017351262e+01 -6.396147892401547352e+01 -1.504529081711444007e+02 -3.209123848219975628e+01 1.306491606613989518e+02 -1.051634432277042350e+02 -5.886243314494336687e+00 -1.508610182247963962e+02 -4.554465400937077746e+00 -1.351763688856600822e+02 3.056738505715208731e+01 5.586456046974815592e+01 -4.660914691931441922e+01 -7.625762596402881854e+01 5.235758433145816682e+00 6.890576891819966932e+01 -6.274519027856219822e+01 1.246423135966957005e+02 9.776745066148271235e+01 -1.181257062910661091e+02 -9.760357788646770416e+01 1.249716975803999475e+02 6.592738077121339302e+01 1.389440939647226116e+02 9.230718723472385534e+01 7.498122464350151972e+01 -5.573670694045380003e+01 -7.551769425226123644e+01 -7.117497804851059584e+01 1.889178150547661517e+02 2.833489738834344962e+01 -2.303250555726489424e+01 -6.319524147152789340e+01 -4.601404552235992185e+01 -1.211661949486898067e+02 -1.516048101484691735e+01 -1.614330033552927546e+02 1.149974150423135626e+02 4.225192268628924097e+01 -1.059440940324374338e+02 -4.454252387157793436e+01 1.101135407823651207e+02 -8.907612256513057503e+01 9.459451753361305748e+01 -1.089898354559860678e+02 -1.084515041945896030e+01 -8.783458407999579265e+01 8.256835245901484654e+01 -3.904813418594395102e+01 9.375017466394975685e+00 2.701790765570433805e+01 -1.164254187434971470e+02 1.148685230337329344e+01 4.451592407604994861e+01 -2.048904750761479576e+01 -6.319639271595062979e+01 1.863285911778548893e+02 7.949627228482205510e+01 4.326423239828187661e+01 -2.886210412837935380e+01 7.368939778559143861e+01 1.540741908094194628e+02 -8.471916866615806896e+01 1.925722514666740892e+02 -1.223508699077468407e+02 -1.690005394351728683e+02 1.394327009697913127e+02 -2.150603656701507589e+02 -8.240205660979115221e-01 -2.251212664361123927e+02 -1.404654816678711029e+02 6.598346878807565474e+01 -1.337697783059037988e+02 5.362563182441328280e+01 1.011253324893387600e+02 -1.472961813569215224e+02 -2.760881036582328818e+01 6.933043749730931893e+01 1.230489910555625528e+02 -1.710985077797407712e+02 8.045448280691442733e+01 -9.005664579733046082e+01 -9.024452421287614712e+00 -1.269388475233698976e+01 -7.310050213730575308e+01 -8.294729784045054544e+01 1.666956949328764495e+02 -1.999366703343715912e+01 1.262413382879347568e+00 1.197414785044540650e+02 -7.980107673178035554e+01 -3.166109636189214527e+01 -9.907917881869521182e+01 -4.488710295391027216e+01 4.700003764549615326e+00 5.457694880354390676e+01 -1.243414235560855587e+02 2.184523637916767882e+02 -4.962159945136683348e+01 1.129497664082248605e+02 -4.500255129205888238e+01 1.103915829660958821e+02 1.284174996563085358e+02 4.415837718860936434e+01 1.125650122826313861e+02 -3.988328273474436259e+01 1.291566857564553743e+02 -1.444829301347633077e+02 -6.036942161909727389e+01 -5.812653121945278656e+01 2.366074040182048677e+01 -1.498156867778474179e+02 6.695756001728976514e+01 -2.848351678679782495e+01 -7.630436751110636351e+01 8.268426235456927031e+01 -1.395391749223806812e+02 -8.426802839827659852e+01 -4.867803044081343700e+01 3.052839154731397642e+01 1.198491238421719487e+02 1.078388963784741179e+02 6.375907783846735555e+01 -1.387949152128838293e+00 1.615854884869454793e+02 1.131519495051680622e+02 -8.731202393991893018e+01 -7.208013562893512471e+01 5.065303247483598881e+01 9.138797980134473420e+00 9.048104353331024186e+01 1.540732979960342561e+02 6.521560167488408410e+01 2.263949026497306249e+01 -9.443746979124438212e+01 1.585817695580348357e+02 -1.049400346366900862e+02 -1.525907982548551729e+02 6.070237396121397921e+01 1.029712084832852383e+02 1.816920390898595628e+01 -1.281816368363413687e+02 2.739340119457544986e+01 3.911443821530588139e+01 -3.877582243379145144e-01 1.208567470423247840e+02 9.040865960079551655e+01 1.579852480496430012e+01 7.228086229233323934e+01 -9.857463932654793837e+01 -5.937181151034121918e+00 9.074353007019847439e+01 2.740235619429538616e+01 -5.996889589226555017e+01 1.827107005909952306e+02 2.131558631194861562e+02 -1.156300873158286890e+02 -2.551022563024724121e+01 -1.937034167074645836e+02 -6.653982020911691109e+01 1.442480549225258244e+02 3.053231233542907042e+00 -6.543162668269779658e+01 1.508751033306113527e+02 -5.754248067254788168e+01 -1.480154215541726330e+02 1.258385244459963275e+02 -6.185529055255366870e+01 3.187049828051823042e+01 7.949281692339380356e+01 1.272294050262075160e+01 -2.194879033923184011e+02 3.902644800684523574e+01 -5.736662925709337557e+00 8.304709473295616817e+01 -2.171157395049033312e+01 9.303915535034424522e+01 1.569230722887741969e+01 -7.790351847823365006e+01 -1.887966336227557562e+01 -1.614142996906986696e+02 1.058652721109594950e+02 2.330098091963639817e+01 -3.830400021757251494e+01 -4.768019441901837041e+01 -5.799809290305064735e+01 3.790828246194570283e+01 1.479922649769414988e+02 1.221784094513680401e+02 3.960078860999052353e+01 -1.822097613825118572e+02 -3.572712520022117388e+01 4.036974034885288631e+01 1.079994304189819871e+02 8.022883414345864139e+01 1.418971735699631687e+01 -1.712478075170819807e+02 1.211729376031419747e+02 -2.059877315452230846e+02 -1.894933171520765711e+02 -1.656919257927877087e+00 -6.790718598713679910e+01 -2.226487896606991512e+01 8.019198842914258307e+01 5.147799881679058842e+01 -1.023347162530072865e+02 -1.394869115738043774e+02 1.340532936855787050e+01 1.138711823545370407e+02 1.898223611541894584e+01 -5.220888234401556360e+01 -4.760986979120719553e+01 -1.069249328259333076e+01 1.485737744107869389e+02 2.057342559964120809e+01 -1.629110420009244820e+02 1.203911577299491711e+02 -6.270322401793092837e+01 -3.908889735006911614e+00 1.443534779693063399e+02 -4.896737033249313953e+01 -1.838469427686597868e+01 -1.029772262091750719e+02 -5.612042159322882640e+00 -2.233688581512373617e+01 1.233808827762545235e+02 1.125053094294661378e+02 6.334903266434475455e+01 6.139914119002040849e+01 -1.752668127053475189e+01 1.266282511831855260e+02 -1.057389567966199735e+02 -3.974911180891838036e+00 -8.534525177934200713e+01 1.471687653116594845e+02 6.834131486400603706e+01 4.838866742570321833e+01 7.697757418166778720e+00 -4.999936086799376511e+01 3.222047486333199373e+01 6.267118756552221726e+00 3.500540788936145731e+00 2.256192222339219100e+01 5.601980982027696143e+01 1.595762065463945589e+02 -3.646954547961100701e+01 -4.868576897476660292e+01 6.260944646940065184e+01 1.083850001816773840e+02 -1.202011524583700997e+01 8.622110641303163447e+01 9.764562021977756956e+01 1.976079278648392972e+02 -8.108888297464184802e+01 -1.149294778164228887e+02 -2.685838063947676702e+01 5.829421026844598686e+01 -9.513073512681467392e+00 1.006460177183364237e+02 3.492650407080922292e+01 -1.523708561790013789e+02 4.220392325293050817e+01 -8.381291322235050245e+01 -1.267408442705742715e+02 1.260100792675506227e+02 -7.128014156913498311e+01 5.548499155157040263e+01 1.040618287360137941e+02 -9.265407343147776942e+01 2.204894828563730513e+01 -6.754017310440993072e+01 3.775864964513672106e+01 -1.074153369754364036e+02 5.771418183821865711e+01 5.122055589162050637e+01 3.559269347186002630e+00 7.860172156017384282e+01 -1.430183543169165432e+02 7.145181441410291256e+01 -2.751251129845493182e+01 -1.569702431463539938e+02 8.785995064145852496e+01 2.284926737916266504e+01 -1.821522300701153370e+02 2.186614461518566372e+02 -5.101552893871952321e-01 9.769005019771518050e+01 -1.120338904777198650e+02 -1.804173256797178055e+02 -8.670494088597658333e+01 2.355705240321330773e+00 1.326958459170029698e+02 3.629362341444759554e+00 -8.881260752846429796e+01 4.671461049560826950e+01 1.273182708854793077e+02 6.032733991908674653e+01 -4.802032378454595118e+01 -5.496219394130429237e+01 7.850363502474172606e+01 2.849620896455081009e+01 -1.817646569255046529e+02 -1.925559818779905896e+01 1.570153980313304487e+02 9.173665462934195602e+01 -5.329680590035508914e+01 -1.038716056073649554e+02 -3.963033591971480263e+01 -4.467208470408696286e+01 -1.063233362292242106e+02 -1.707183630172051991e+01 -4.241223401955813443e+01 -1.055650651541881189e+02 -1.226230992934351036e+02 -2.508451626005333779e+01 -1.167875095771386924e+02 -1.244154724336794686e+02 -3.561322237390711365e+01 -5.137048315380809527e+01 -1.031968135989066582e+02 1.791368140237628381e+02 1.011335638438805518e+01 -2.705741305404770713e+01 -1.634312096767139622e+01 7.570547588280011553e+01 1.507339101893028577e+01 2.410190188944237022e+01 -2.038146596538051369e+01 -4.460952982439899017e+01 2.010876081947666094e+01 -1.399257506345043964e+02 -1.531607226721719712e+02 -8.690396201893214823e+01 -1.836452203352610582e+02 -8.620645068357815433e+01 8.247324571467339638e+01 5.908275777092422487e+01 -2.504917788478871188e+01 5.846879635423125876e+01 -1.507105521008289202e+02 -3.941429283541548756e+01 -1.117851865893702694e+02 -6.421876127692037528e+01 2.030997797781493830e+02 -1.975360545134447818e+02 1.975066175941544486e+02 2.398064418508934281e+01 -5.427819456010551846e+01 8.866455878284789094e+01 1.193879829058540736e+02 -4.992094445146788217e+01 -1.961216062528202713e+02 -1.434600672010685685e+02 9.844234013989783705e+01 8.059020116956145330e+01 -1.304210121726838167e+02 3.069767554851551949e+01 -3.822146089983615269e+01 -7.448245275029481149e+01 -2.735876215524631405e+01 -5.272464322647338264e+01 -8.313081036844153004e+01 -3.280829519318200482e+01 4.408845855020919302e+00 -3.137092753973902859e+01 -3.241195607700774195e-01 -1.372625065694704816e+01 8.841873214129959990e+01 1.223598244220137587e+02 1.265033899089778835e+01 1.618575529725656992e+01 -6.080613098255201265e+01 -1.887219081914869321e+02 3.256366248500614091e+01 -8.823013079496485034e+01 2.488325678002129493e+01 -7.750541416051238031e+00 1.067256928900879087e+00 6.975866952568331669e+01 1.173120576972175400e+02 -6.785994901324501427e+01 3.656671314241206261e+01 -1.857079504080266190e+02 9.343127003904736938e+00 6.597088001241805166e+00 -1.179631718619944962e+02 -3.241926965366464941e+01 -4.265962033717101320e+01 4.573437238726865139e+00 -9.837623418954058252e+01 2.602382103684174197e+01 -9.394983316223466829e+01 5.387041287955508295e+01 6.534552754064419844e+01 3.552979463624954093e+01 -2.791741163932351100e+01 1.034604349883212961e+02 5.882781740114933200e+01 7.700176260352036195e+01 -6.450200933008123627e+01 1.943862909088505830e+01 1.230284643806405143e+02 -5.630847044176133664e+01 -6.663034542213310374e+00 3.076549398458020690e+01 -1.235853441429508024e+02 9.407198569566084245e+01 8.617138903242684478e+01 -9.737562329921355797e+01 -7.920239811592534807e+01 -5.343835479805765232e+01 -4.397138269949628864e+01 -1.540388386573849573e+02 -1.306662579788826406e+02 -1.274265319810762094e+02 1.016064898406730208e+02 5.754487076100972587e+01 1.534120236825060601e+02 6.941618336951616008e+00 -8.231519059785759396e+01 1.806069610571214668e+01 1.328458860682545151e+01 -6.115003805761678279e+01 7.116694434635680011e+01 1.134435923450293444e+02 9.534138933941452621e+00 1.376755111760952559e+02 2.158236833609287686e+01 1.065604229356258799e+02 1.444569556168028157e+01 -1.995800098274390564e+02 2.097340384529805135e+02 -4.699387020411229088e+01 -1.430846994592644137e+02 -6.451235750913711797e+01 -4.107894331153503487e+01 3.963430219578565783e+01 2.448032318991345591e+01 4.376360790353696473e+01 -7.073457317805598166e+01 1.168895925522065937e+02 -8.237055532960684445e+01 -6.697586663214647906e+00 1.358523649111012901e+02 1.044916965724695359e+02 5.537742623126285935e+01 -1.687622882606339374e+02 2.423550527874947846e+01 1.337113460698727465e+02 2.229750963909349082e+01 9.289634131443564513e+01 1.012466111881624471e+02 -2.012251713670276843e+02 7.313946076597569856e+01 -5.489313471844128145e+01 -2.137590224826784322e+02 8.404920234584866989e+01 2.329482950351065185e+01 -1.152614056022125197e+02 -5.522900135005334477e+01 1.306804081860270514e+02 1.388488833476036461e+02 -7.132873700027381858e+01 -1.199711425210842748e+02 -7.821126286194559896e+01 -1.553216203162649549e+02 1.832909940183954944e+01 3.551777195108104479e+01 -1.593252266408005369e+01 -1.156920355921930010e+01 -8.353752856016143369e+01 -8.222878346073943590e+01 -2.297652253864508864e+01 1.242998645195612539e+02 1.262052286338957430e+02 7.510911116223870465e+01 8.989334458417114604e+01 -7.253245778666988031e+01 -1.668855774792273508e+02 -1.214122996272951305e+01 -2.126925794737744724e+01 -6.551356090619636063e+01 1.354668788556737669e+00 6.729920879092065888e+01 -4.874285127200671752e+01 2.282501571400993967e+01 7.297932408147308081e+01 6.460944303593528559e+01 1.018930419861047625e+02 -1.374223273537873808e+02 3.651244815240039543e+01 7.676723890907287284e+01 8.731098133394786487e+01 5.438373702065365478e+01 -9.511714485553844156e+01 1.261481814379253450e+02 1.174897335247937775e+02 8.833379835462831409e+01 9.356423633053319122e+01 -7.757600005539845256e+01 -1.367805133191035338e+01 -1.195391404807857327e+01 7.096137200746355234e+01 5.987400243737776151e+01 5.166272791237351214e+01 8.987155646779005735e+01 1.073827203793338185e+02 1.142848119281913597e+02 -5.967720322017907364e+01 7.429407212435785368e+01 6.008665891643372703e+01 -1.084238935894233009e+02 1.212747454841876049e+02 -9.222399622333666613e+00 -2.575141397579465874e+01 1.837705173632461708e+02 8.164218122783685772e+01 1.144999409809802842e+02 -1.331806445561042835e+02 -1.456079210419203207e+02 -1.417457462870312384e+02 -1.127140476079400884e+02 -4.087809580733144088e+01 1.012926040051501815e+02 -1.557897054924422662e+02 2.999794098207911830e+01 1.333480387193496881e+02 -5.486323073130298411e+01 -8.440848826598123367e+01 -3.250143006932242429e+01 1.255782496979495022e+02 2.101629582518667121e+02 -6.174923290170935530e+01 1.834955196870673433e+01 -2.558917594372309168e+01 6.339607145959742951e+01 5.572763876831660923e+01 -1.974021406477930327e+02 -8.210701223269802540e+01 1.274306097346065627e+02 1.294603148140578526e+02 8.755943716016852818e+01 -4.620409466333627790e+01 -7.019347783303719268e+01 -4.201196599219250771e+01 -1.636774809037189300e+02 6.589579124859913861e+01 -2.374879247539860572e+01 1.542022458239728451e+02 -2.592116240170967600e+01 -2.917371597576689624e+02 1.343014604785066695e+02 4.649477753292261184e+01 -1.093458876382914440e+02 -2.060639386511822124e+01 3.272310931366177300e+01 -1.926415712189343310e+02 -1.059551178491916090e+02 -1.017527203310203987e+02 -5.226606272720324142e+01 5.821525329026891171e+01 -1.529662670830735181e+02 1.000550630958426979e+02 -5.040574570695950030e+01 2.733453193274982596e+00 -1.237958060396348259e+02 -9.626825344824258934e+01 1.631676717390691067e+02 8.043350949690345431e+01 -3.919215322407183777e+01 3.444567252339636099e+01 -2.601743117467972155e+01 4.026819942769053284e+01 -9.712508177131192610e+01 9.191413956674860231e+01 4.685687569889886817e+01 -1.103752246788164939e+02 1.083904873956616655e+02 -4.556726909949749427e+01 9.275066129797613712e+01 -4.585473763150581306e+01 8.203749557894832378e+01 -1.424315047777438394e+02 1.325809124653126219e+02 2.298587515460929964e+01 9.352452449678573032e+01 1.211676351807450374e+02 -1.362535967691837868e+02 -7.981667765987428709e+01 -9.815249418120293967e+01 6.211440201477832090e+01 -1.592264609331125200e+02 1.408901036132575371e+02 1.322435481739979366e+02 4.921739720770732873e+01 -7.890405563762207919e+01 5.305139266817359811e+01 -9.980763035994577592e+01 -1.012679709762914548e+01 3.248387606858976540e+01 -1.707981744869590273e+02 -7.579452838485647703e+01 -1.258109081203202706e+01 9.497473537117855358e+01 -4.670367879990011062e+01 1.011664841356818982e+02 -5.979046208281233277e+01 -1.959901549313213138e+02 -9.959042235404071164e+01 -3.160172542284762187e+01 -5.595722256008903628e+01 2.796715986644420937e+01 4.788528262905951038e+01 5.877553609468619378e+00 2.370701594260320988e+01 -1.092739891521367213e+02 5.020208370281925880e+01 3.038867429913619844e+01 -6.713070513230954361e+01 8.667560436790642697e+00 5.256616272347962848e+01 -8.882588764269371495e+01 -5.133802677788334989e+01 -2.254888587401835665e+01 9.085812296977596247e+01 -1.596257942226153759e+01 3.911806385171948008e+00 -2.126275654726781283e+02 -8.851787480440049194e+01 9.221862263714821495e+01 -8.302538384814626227e+01 2.919726012382321301e+01 2.893527788604169615e+01 3.528699837891375779e+01 6.158503907188877236e+01 -1.654069993004060848e+02 1.342360552657270034e+02 7.609757686488659090e+01 -7.054759456718421973e+00 -7.532665974327392178e+01 1.042357524210010951e+02 5.790079305113017227e+01 -1.875652222094680326e+02 -4.695309193112805701e+01 -7.621850497088914267e+01 -4.826385033394317503e+01 -5.768751771726983435e+01 -9.226749842312977989e+01 -5.626820468433567157e+01 1.786478225130340434e+02 -1.591795583165252879e+02 6.103072606328354510e+01 2.588044609840412136e+01 -7.013904456003129440e+01 9.714038870108380408e+00 -3.680430380700381932e+01 3.219960700139756771e+00 -8.970258705660344845e+01 -1.843090589663107153e+02 1.716071269093464835e+01 3.905651042940178996e+01 -1.193035678177618308e+01 -8.296799680720098991e+00 -3.710261924536961686e+01 -1.771104929456655839e+02 -2.855403631412878696e+01 -6.095392506383740994e+01 1.296665939737290785e+01 -1.457612375032682372e+01 8.456311775023989696e+01 -5.881523935510261225e+01 -9.671505189380845025e+01 -3.325144188591642092e+01 -8.338335745295916368e+00 4.232332608689275588e+01 -2.060957011036032327e+01 -6.896290847850124806e+01 -1.482856759453378892e+01 1.867560350489736010e+01 4.432210776540345876e+01 -1.063284403856948899e+02 -1.297125756973262014e+02 2.149738164107947966e+02 -2.037328842657776988e+02 -7.082678494061414654e+01 -4.320061349478488211e+01 1.305012623452897742e+02 5.904754042566675309e+01 2.137418154861276207e+02 2.284714555213024880e+02 -5.823866976435633802e+01 1.207898583669852854e+02 -5.238678958754305626e+01 -3.811832630877038497e+01 -9.388337100663487433e+01 -7.451850692475127858e+01 -6.487935976761751533e+01 -8.313303505052769538e+01 -2.275786732162992507e+02 -2.527857463080381990e+02 1.256961327183129384e+02 -2.479220272242832124e+01 4.973484284418726276e+01 1.222640409747507704e+02
