# 
#                 ----------------------------------------------------
#                 Data from a 3D direct N-body simulation. 
# 
#                 rows are i-particle; 
#                 coumns are :mass, tag, x ,y, z, vx, vy, vz, ax, ay, az
# 
#                 NTHU, Computational Physics Lab
# 
#                 ----------------------------------------------------
#                 Time = 7.199999999999891
1.000000000000000000e+00 2.000000000000000000e+00 3.000000000000000000e+00 4.000000000000000000e+00 5.000000000000000000e+00 6.000000000000000000e+00 7.000000000000000000e+00 8.000000000000000000e+00 9.000000000000000000e+00 1.000000000000000000e+01 1.100000000000000000e+01 1.200000000000000000e+01 1.300000000000000000e+01 1.400000000000000000e+01 1.500000000000000000e+01 1.600000000000000000e+01 1.700000000000000000e+01 1.800000000000000000e+01 1.900000000000000000e+01 2.000000000000000000e+01 2.100000000000000000e+01 2.200000000000000000e+01 2.300000000000000000e+01 2.400000000000000000e+01 2.500000000000000000e+01 2.600000000000000000e+01 2.700000000000000000e+01 2.800000000000000000e+01 2.900000000000000000e+01 3.000000000000000000e+01 3.100000000000000000e+01 3.200000000000000000e+01 3.300000000000000000e+01 3.400000000000000000e+01 3.500000000000000000e+01 3.600000000000000000e+01 3.700000000000000000e+01 3.800000000000000000e+01 3.900000000000000000e+01 4.000000000000000000e+01 4.100000000000000000e+01 4.200000000000000000e+01 4.300000000000000000e+01 4.400000000000000000e+01 4.500000000000000000e+01 4.600000000000000000e+01 4.700000000000000000e+01 4.800000000000000000e+01 4.900000000000000000e+01 5.000000000000000000e+01 5.100000000000000000e+01 5.200000000000000000e+01 5.300000000000000000e+01 5.400000000000000000e+01 5.500000000000000000e+01 5.600000000000000000e+01 5.700000000000000000e+01 5.800000000000000000e+01 5.900000000000000000e+01 6.000000000000000000e+01 6.100000000000000000e+01 6.200000000000000000e+01 6.300000000000000000e+01 6.400000000000000000e+01 6.500000000000000000e+01 6.600000000000000000e+01 6.700000000000000000e+01 6.800000000000000000e+01 6.900000000000000000e+01 7.000000000000000000e+01 7.100000000000000000e+01 7.200000000000000000e+01 7.300000000000000000e+01 7.400000000000000000e+01 7.500000000000000000e+01 7.600000000000000000e+01 7.700000000000000000e+01 7.800000000000000000e+01 7.900000000000000000e+01 8.000000000000000000e+01 8.100000000000000000e+01 8.200000000000000000e+01 8.300000000000000000e+01 8.400000000000000000e+01 8.500000000000000000e+01 8.600000000000000000e+01 8.700000000000000000e+01 8.800000000000000000e+01 8.900000000000000000e+01 9.000000000000000000e+01 9.100000000000000000e+01 9.200000000000000000e+01 9.300000000000000000e+01 9.400000000000000000e+01 9.500000000000000000e+01 9.600000000000000000e+01 9.700000000000000000e+01 9.800000000000000000e+01 9.900000000000000000e+01 1.000000000000000000e+02 1.010000000000000000e+02 1.020000000000000000e+02 1.030000000000000000e+02 1.040000000000000000e+02 1.050000000000000000e+02 1.060000000000000000e+02 1.070000000000000000e+02 1.080000000000000000e+02 1.090000000000000000e+02 1.100000000000000000e+02 1.110000000000000000e+02 1.120000000000000000e+02 1.130000000000000000e+02 1.140000000000000000e+02 1.150000000000000000e+02 1.160000000000000000e+02 1.170000000000000000e+02 1.180000000000000000e+02 1.190000000000000000e+02 1.200000000000000000e+02 1.210000000000000000e+02 1.220000000000000000e+02 1.230000000000000000e+02 1.240000000000000000e+02 1.250000000000000000e+02 1.260000000000000000e+02 1.270000000000000000e+02 1.280000000000000000e+02 1.290000000000000000e+02 1.300000000000000000e+02 1.310000000000000000e+02 1.320000000000000000e+02 1.330000000000000000e+02 1.340000000000000000e+02 1.350000000000000000e+02 1.360000000000000000e+02 1.370000000000000000e+02 1.380000000000000000e+02 1.390000000000000000e+02 1.400000000000000000e+02 1.410000000000000000e+02 1.420000000000000000e+02 1.430000000000000000e+02 1.440000000000000000e+02 1.450000000000000000e+02 1.460000000000000000e+02 1.470000000000000000e+02 1.480000000000000000e+02 1.490000000000000000e+02 1.500000000000000000e+02 1.510000000000000000e+02 1.520000000000000000e+02 1.530000000000000000e+02 1.540000000000000000e+02 1.550000000000000000e+02 1.560000000000000000e+02 1.570000000000000000e+02 1.580000000000000000e+02 1.590000000000000000e+02 1.600000000000000000e+02 1.610000000000000000e+02 1.620000000000000000e+02 1.630000000000000000e+02 1.640000000000000000e+02 1.650000000000000000e+02 1.660000000000000000e+02 1.670000000000000000e+02 1.680000000000000000e+02 1.690000000000000000e+02 1.700000000000000000e+02 1.710000000000000000e+02 1.720000000000000000e+02 1.730000000000000000e+02 1.740000000000000000e+02 1.750000000000000000e+02 1.760000000000000000e+02 1.770000000000000000e+02 1.780000000000000000e+02 1.790000000000000000e+02 1.800000000000000000e+02 1.810000000000000000e+02 1.820000000000000000e+02 1.830000000000000000e+02 1.840000000000000000e+02 1.850000000000000000e+02 1.860000000000000000e+02 1.870000000000000000e+02 1.880000000000000000e+02 1.890000000000000000e+02 1.900000000000000000e+02 1.910000000000000000e+02 1.920000000000000000e+02 1.930000000000000000e+02 1.940000000000000000e+02 1.950000000000000000e+02 1.960000000000000000e+02 1.970000000000000000e+02 1.980000000000000000e+02 1.990000000000000000e+02 2.000000000000000000e+02 2.010000000000000000e+02 2.020000000000000000e+02 2.030000000000000000e+02 2.040000000000000000e+02 2.050000000000000000e+02 2.060000000000000000e+02 2.070000000000000000e+02 2.080000000000000000e+02 2.090000000000000000e+02 2.100000000000000000e+02 2.110000000000000000e+02 2.120000000000000000e+02 2.130000000000000000e+02 2.140000000000000000e+02 2.150000000000000000e+02 2.160000000000000000e+02 2.170000000000000000e+02 2.180000000000000000e+02 2.190000000000000000e+02 2.200000000000000000e+02 2.210000000000000000e+02 2.220000000000000000e+02 2.230000000000000000e+02 2.240000000000000000e+02 2.250000000000000000e+02 2.260000000000000000e+02 2.270000000000000000e+02 2.280000000000000000e+02 2.290000000000000000e+02 2.300000000000000000e+02 2.310000000000000000e+02 2.320000000000000000e+02 2.330000000000000000e+02 2.340000000000000000e+02 2.350000000000000000e+02 2.360000000000000000e+02 2.370000000000000000e+02 2.380000000000000000e+02 2.390000000000000000e+02 2.400000000000000000e+02 2.410000000000000000e+02 2.420000000000000000e+02 2.430000000000000000e+02 2.440000000000000000e+02 2.450000000000000000e+02 2.460000000000000000e+02 2.470000000000000000e+02 2.480000000000000000e+02 2.490000000000000000e+02 2.500000000000000000e+02 2.510000000000000000e+02 2.520000000000000000e+02 2.530000000000000000e+02 2.540000000000000000e+02 2.550000000000000000e+02 2.560000000000000000e+02 2.570000000000000000e+02 2.580000000000000000e+02 2.590000000000000000e+02 2.600000000000000000e+02 2.610000000000000000e+02 2.620000000000000000e+02 2.630000000000000000e+02 2.640000000000000000e+02 2.650000000000000000e+02 2.660000000000000000e+02 2.670000000000000000e+02 2.680000000000000000e+02 2.690000000000000000e+02 2.700000000000000000e+02 2.710000000000000000e+02 2.720000000000000000e+02 2.730000000000000000e+02 2.740000000000000000e+02 2.750000000000000000e+02 2.760000000000000000e+02 2.770000000000000000e+02 2.780000000000000000e+02 2.790000000000000000e+02 2.800000000000000000e+02 2.810000000000000000e+02 2.820000000000000000e+02 2.830000000000000000e+02 2.840000000000000000e+02 2.850000000000000000e+02 2.860000000000000000e+02 2.870000000000000000e+02 2.880000000000000000e+02 2.890000000000000000e+02 2.900000000000000000e+02 2.910000000000000000e+02 2.920000000000000000e+02 2.930000000000000000e+02 2.940000000000000000e+02 2.950000000000000000e+02 2.960000000000000000e+02 2.970000000000000000e+02 2.980000000000000000e+02 2.990000000000000000e+02 3.000000000000000000e+02 3.010000000000000000e+02 3.020000000000000000e+02 3.030000000000000000e+02 3.040000000000000000e+02 3.050000000000000000e+02 3.060000000000000000e+02 3.070000000000000000e+02 3.080000000000000000e+02 3.090000000000000000e+02 3.100000000000000000e+02 3.110000000000000000e+02 3.120000000000000000e+02 3.130000000000000000e+02 3.140000000000000000e+02 3.150000000000000000e+02 3.160000000000000000e+02 3.170000000000000000e+02 3.180000000000000000e+02 3.190000000000000000e+02 3.200000000000000000e+02 3.210000000000000000e+02 3.220000000000000000e+02 3.230000000000000000e+02 3.240000000000000000e+02 3.250000000000000000e+02 3.260000000000000000e+02 3.270000000000000000e+02 3.280000000000000000e+02 3.290000000000000000e+02 3.300000000000000000e+02 3.310000000000000000e+02 3.320000000000000000e+02 3.330000000000000000e+02 3.340000000000000000e+02 3.350000000000000000e+02 3.360000000000000000e+02 3.370000000000000000e+02 3.380000000000000000e+02 3.390000000000000000e+02 3.400000000000000000e+02 3.410000000000000000e+02 3.420000000000000000e+02 3.430000000000000000e+02 3.440000000000000000e+02 3.450000000000000000e+02 3.460000000000000000e+02 3.470000000000000000e+02 3.480000000000000000e+02 3.490000000000000000e+02 3.500000000000000000e+02 3.510000000000000000e+02 3.520000000000000000e+02 3.530000000000000000e+02 3.540000000000000000e+02 3.550000000000000000e+02 3.560000000000000000e+02 3.570000000000000000e+02 3.580000000000000000e+02 3.590000000000000000e+02 3.600000000000000000e+02 3.610000000000000000e+02 3.620000000000000000e+02 3.630000000000000000e+02 3.640000000000000000e+02 3.650000000000000000e+02 3.660000000000000000e+02 3.670000000000000000e+02 3.680000000000000000e+02 3.690000000000000000e+02 3.700000000000000000e+02 3.710000000000000000e+02 3.720000000000000000e+02 3.730000000000000000e+02 3.740000000000000000e+02 3.750000000000000000e+02 3.760000000000000000e+02 3.770000000000000000e+02 3.780000000000000000e+02 3.790000000000000000e+02 3.800000000000000000e+02 3.810000000000000000e+02 3.820000000000000000e+02 3.830000000000000000e+02 3.840000000000000000e+02 3.850000000000000000e+02 3.860000000000000000e+02 3.870000000000000000e+02 3.880000000000000000e+02 3.890000000000000000e+02 3.900000000000000000e+02 3.910000000000000000e+02 3.920000000000000000e+02 3.930000000000000000e+02 3.940000000000000000e+02 3.950000000000000000e+02 3.960000000000000000e+02 3.970000000000000000e+02 3.980000000000000000e+02 3.990000000000000000e+02 4.000000000000000000e+02 4.010000000000000000e+02 4.020000000000000000e+02 4.030000000000000000e+02 4.040000000000000000e+02 4.050000000000000000e+02 4.060000000000000000e+02 4.070000000000000000e+02 4.080000000000000000e+02 4.090000000000000000e+02 4.100000000000000000e+02 4.110000000000000000e+02 4.120000000000000000e+02 4.130000000000000000e+02 4.140000000000000000e+02 4.150000000000000000e+02 4.160000000000000000e+02 4.170000000000000000e+02 4.180000000000000000e+02 4.190000000000000000e+02 4.200000000000000000e+02 4.210000000000000000e+02 4.220000000000000000e+02 4.230000000000000000e+02 4.240000000000000000e+02 4.250000000000000000e+02 4.260000000000000000e+02 4.270000000000000000e+02 4.280000000000000000e+02 4.290000000000000000e+02 4.300000000000000000e+02 4.310000000000000000e+02 4.320000000000000000e+02 4.330000000000000000e+02 4.340000000000000000e+02 4.350000000000000000e+02 4.360000000000000000e+02 4.370000000000000000e+02 4.380000000000000000e+02 4.390000000000000000e+02 4.400000000000000000e+02 4.410000000000000000e+02 4.420000000000000000e+02 4.430000000000000000e+02 4.440000000000000000e+02 4.450000000000000000e+02 4.460000000000000000e+02 4.470000000000000000e+02 4.480000000000000000e+02 4.490000000000000000e+02 4.500000000000000000e+02 4.510000000000000000e+02 4.520000000000000000e+02 4.530000000000000000e+02 4.540000000000000000e+02 4.550000000000000000e+02 4.560000000000000000e+02 4.570000000000000000e+02 4.580000000000000000e+02 4.590000000000000000e+02 4.600000000000000000e+02 4.610000000000000000e+02 4.620000000000000000e+02 4.630000000000000000e+02 4.640000000000000000e+02 4.650000000000000000e+02 4.660000000000000000e+02 4.670000000000000000e+02 4.680000000000000000e+02 4.690000000000000000e+02 4.700000000000000000e+02 4.710000000000000000e+02 4.720000000000000000e+02 4.730000000000000000e+02 4.740000000000000000e+02 4.750000000000000000e+02 4.760000000000000000e+02 4.770000000000000000e+02 4.780000000000000000e+02 4.790000000000000000e+02 4.800000000000000000e+02 4.810000000000000000e+02 4.820000000000000000e+02 4.830000000000000000e+02 4.840000000000000000e+02 4.850000000000000000e+02 4.860000000000000000e+02 4.870000000000000000e+02 4.880000000000000000e+02 4.890000000000000000e+02 4.900000000000000000e+02 4.910000000000000000e+02 4.920000000000000000e+02 4.930000000000000000e+02 4.940000000000000000e+02 4.950000000000000000e+02 4.960000000000000000e+02 4.970000000000000000e+02 4.980000000000000000e+02 4.990000000000000000e+02 5.000000000000000000e+02 5.010000000000000000e+02 5.020000000000000000e+02 5.030000000000000000e+02 5.040000000000000000e+02 5.050000000000000000e+02 5.060000000000000000e+02 5.070000000000000000e+02 5.080000000000000000e+02 5.090000000000000000e+02 5.100000000000000000e+02 5.110000000000000000e+02 5.120000000000000000e+02 5.130000000000000000e+02 5.140000000000000000e+02 5.150000000000000000e+02 5.160000000000000000e+02 5.170000000000000000e+02 5.180000000000000000e+02 5.190000000000000000e+02 5.200000000000000000e+02 5.210000000000000000e+02 5.220000000000000000e+02 5.230000000000000000e+02 5.240000000000000000e+02 5.250000000000000000e+02 5.260000000000000000e+02 5.270000000000000000e+02 5.280000000000000000e+02 5.290000000000000000e+02 5.300000000000000000e+02 5.310000000000000000e+02 5.320000000000000000e+02 5.330000000000000000e+02 5.340000000000000000e+02 5.350000000000000000e+02 5.360000000000000000e+02 5.370000000000000000e+02 5.380000000000000000e+02 5.390000000000000000e+02 5.400000000000000000e+02 5.410000000000000000e+02 5.420000000000000000e+02 5.430000000000000000e+02 5.440000000000000000e+02 5.450000000000000000e+02 5.460000000000000000e+02 5.470000000000000000e+02 5.480000000000000000e+02 5.490000000000000000e+02 5.500000000000000000e+02 5.510000000000000000e+02 5.520000000000000000e+02 5.530000000000000000e+02 5.540000000000000000e+02 5.550000000000000000e+02 5.560000000000000000e+02 5.570000000000000000e+02 5.580000000000000000e+02 5.590000000000000000e+02 5.600000000000000000e+02 5.610000000000000000e+02 5.620000000000000000e+02 5.630000000000000000e+02 5.640000000000000000e+02 5.650000000000000000e+02 5.660000000000000000e+02 5.670000000000000000e+02 5.680000000000000000e+02 5.690000000000000000e+02 5.700000000000000000e+02 5.710000000000000000e+02 5.720000000000000000e+02 5.730000000000000000e+02 5.740000000000000000e+02 5.750000000000000000e+02 5.760000000000000000e+02 5.770000000000000000e+02 5.780000000000000000e+02 5.790000000000000000e+02 5.800000000000000000e+02 5.810000000000000000e+02 5.820000000000000000e+02 5.830000000000000000e+02 5.840000000000000000e+02 5.850000000000000000e+02 5.860000000000000000e+02 5.870000000000000000e+02 5.880000000000000000e+02 5.890000000000000000e+02 5.900000000000000000e+02 5.910000000000000000e+02 5.920000000000000000e+02 5.930000000000000000e+02 5.940000000000000000e+02 5.950000000000000000e+02 5.960000000000000000e+02 5.970000000000000000e+02 5.980000000000000000e+02 5.990000000000000000e+02 6.000000000000000000e+02 6.010000000000000000e+02 6.020000000000000000e+02 6.030000000000000000e+02 6.040000000000000000e+02 6.050000000000000000e+02 6.060000000000000000e+02 6.070000000000000000e+02 6.080000000000000000e+02 6.090000000000000000e+02 6.100000000000000000e+02 6.110000000000000000e+02 6.120000000000000000e+02 6.130000000000000000e+02 6.140000000000000000e+02 6.150000000000000000e+02 6.160000000000000000e+02 6.170000000000000000e+02 6.180000000000000000e+02 6.190000000000000000e+02 6.200000000000000000e+02 6.210000000000000000e+02 6.220000000000000000e+02 6.230000000000000000e+02 6.240000000000000000e+02 6.250000000000000000e+02 6.260000000000000000e+02 6.270000000000000000e+02 6.280000000000000000e+02 6.290000000000000000e+02 6.300000000000000000e+02 6.310000000000000000e+02 6.320000000000000000e+02 6.330000000000000000e+02 6.340000000000000000e+02 6.350000000000000000e+02 6.360000000000000000e+02 6.370000000000000000e+02 6.380000000000000000e+02 6.390000000000000000e+02 6.400000000000000000e+02 6.410000000000000000e+02 6.420000000000000000e+02 6.430000000000000000e+02 6.440000000000000000e+02 6.450000000000000000e+02 6.460000000000000000e+02 6.470000000000000000e+02 6.480000000000000000e+02 6.490000000000000000e+02 6.500000000000000000e+02 6.510000000000000000e+02 6.520000000000000000e+02 6.530000000000000000e+02 6.540000000000000000e+02 6.550000000000000000e+02 6.560000000000000000e+02 6.570000000000000000e+02 6.580000000000000000e+02 6.590000000000000000e+02 6.600000000000000000e+02 6.610000000000000000e+02 6.620000000000000000e+02 6.630000000000000000e+02 6.640000000000000000e+02 6.650000000000000000e+02 6.660000000000000000e+02 6.670000000000000000e+02 6.680000000000000000e+02 6.690000000000000000e+02 6.700000000000000000e+02 6.710000000000000000e+02 6.720000000000000000e+02 6.730000000000000000e+02 6.740000000000000000e+02 6.750000000000000000e+02 6.760000000000000000e+02 6.770000000000000000e+02 6.780000000000000000e+02 6.790000000000000000e+02 6.800000000000000000e+02 6.810000000000000000e+02 6.820000000000000000e+02 6.830000000000000000e+02 6.840000000000000000e+02 6.850000000000000000e+02 6.860000000000000000e+02 6.870000000000000000e+02 6.880000000000000000e+02 6.890000000000000000e+02 6.900000000000000000e+02 6.910000000000000000e+02 6.920000000000000000e+02 6.930000000000000000e+02 6.940000000000000000e+02 6.950000000000000000e+02 6.960000000000000000e+02 6.970000000000000000e+02 6.980000000000000000e+02 6.990000000000000000e+02 7.000000000000000000e+02 7.010000000000000000e+02 7.020000000000000000e+02 7.030000000000000000e+02 7.040000000000000000e+02 7.050000000000000000e+02 7.060000000000000000e+02 7.070000000000000000e+02 7.080000000000000000e+02 7.090000000000000000e+02 7.100000000000000000e+02 7.110000000000000000e+02 7.120000000000000000e+02 7.130000000000000000e+02 7.140000000000000000e+02 7.150000000000000000e+02 7.160000000000000000e+02 7.170000000000000000e+02 7.180000000000000000e+02 7.190000000000000000e+02 7.200000000000000000e+02 7.210000000000000000e+02 7.220000000000000000e+02 7.230000000000000000e+02 7.240000000000000000e+02 7.250000000000000000e+02 7.260000000000000000e+02 7.270000000000000000e+02 7.280000000000000000e+02 7.290000000000000000e+02 7.300000000000000000e+02 7.310000000000000000e+02 7.320000000000000000e+02 7.330000000000000000e+02 7.340000000000000000e+02 7.350000000000000000e+02 7.360000000000000000e+02 7.370000000000000000e+02 7.380000000000000000e+02 7.390000000000000000e+02 7.400000000000000000e+02 7.410000000000000000e+02 7.420000000000000000e+02 7.430000000000000000e+02 7.440000000000000000e+02 7.450000000000000000e+02 7.460000000000000000e+02 7.470000000000000000e+02 7.480000000000000000e+02 7.490000000000000000e+02 7.500000000000000000e+02 7.510000000000000000e+02 7.520000000000000000e+02 7.530000000000000000e+02 7.540000000000000000e+02 7.550000000000000000e+02 7.560000000000000000e+02 7.570000000000000000e+02 7.580000000000000000e+02 7.590000000000000000e+02 7.600000000000000000e+02 7.610000000000000000e+02 7.620000000000000000e+02 7.630000000000000000e+02 7.640000000000000000e+02 7.650000000000000000e+02 7.660000000000000000e+02 7.670000000000000000e+02 7.680000000000000000e+02 7.690000000000000000e+02 7.700000000000000000e+02 7.710000000000000000e+02 7.720000000000000000e+02 7.730000000000000000e+02 7.740000000000000000e+02 7.750000000000000000e+02 7.760000000000000000e+02 7.770000000000000000e+02 7.780000000000000000e+02 7.790000000000000000e+02 7.800000000000000000e+02 7.810000000000000000e+02 7.820000000000000000e+02 7.830000000000000000e+02 7.840000000000000000e+02 7.850000000000000000e+02 7.860000000000000000e+02 7.870000000000000000e+02 7.880000000000000000e+02 7.890000000000000000e+02 7.900000000000000000e+02 7.910000000000000000e+02 7.920000000000000000e+02 7.930000000000000000e+02 7.940000000000000000e+02 7.950000000000000000e+02 7.960000000000000000e+02 7.970000000000000000e+02 7.980000000000000000e+02 7.990000000000000000e+02 8.000000000000000000e+02 8.010000000000000000e+02 8.020000000000000000e+02 8.030000000000000000e+02 8.040000000000000000e+02 8.050000000000000000e+02 8.060000000000000000e+02 8.070000000000000000e+02 8.080000000000000000e+02 8.090000000000000000e+02 8.100000000000000000e+02 8.110000000000000000e+02 8.120000000000000000e+02 8.130000000000000000e+02 8.140000000000000000e+02 8.150000000000000000e+02 8.160000000000000000e+02 8.170000000000000000e+02 8.180000000000000000e+02 8.190000000000000000e+02 8.200000000000000000e+02 8.210000000000000000e+02 8.220000000000000000e+02 8.230000000000000000e+02 8.240000000000000000e+02 8.250000000000000000e+02 8.260000000000000000e+02 8.270000000000000000e+02 8.280000000000000000e+02 8.290000000000000000e+02 8.300000000000000000e+02 8.310000000000000000e+02 8.320000000000000000e+02 8.330000000000000000e+02 8.340000000000000000e+02 8.350000000000000000e+02 8.360000000000000000e+02 8.370000000000000000e+02 8.380000000000000000e+02 8.390000000000000000e+02 8.400000000000000000e+02 8.410000000000000000e+02 8.420000000000000000e+02 8.430000000000000000e+02 8.440000000000000000e+02 8.450000000000000000e+02 8.460000000000000000e+02 8.470000000000000000e+02 8.480000000000000000e+02 8.490000000000000000e+02 8.500000000000000000e+02 8.510000000000000000e+02 8.520000000000000000e+02 8.530000000000000000e+02 8.540000000000000000e+02 8.550000000000000000e+02 8.560000000000000000e+02 8.570000000000000000e+02 8.580000000000000000e+02 8.590000000000000000e+02 8.600000000000000000e+02 8.610000000000000000e+02 8.620000000000000000e+02 8.630000000000000000e+02 8.640000000000000000e+02 8.650000000000000000e+02 8.660000000000000000e+02 8.670000000000000000e+02 8.680000000000000000e+02 8.690000000000000000e+02 8.700000000000000000e+02 8.710000000000000000e+02 8.720000000000000000e+02 8.730000000000000000e+02 8.740000000000000000e+02 8.750000000000000000e+02 8.760000000000000000e+02 8.770000000000000000e+02 8.780000000000000000e+02 8.790000000000000000e+02 8.800000000000000000e+02 8.810000000000000000e+02 8.820000000000000000e+02 8.830000000000000000e+02 8.840000000000000000e+02 8.850000000000000000e+02 8.860000000000000000e+02 8.870000000000000000e+02 8.880000000000000000e+02 8.890000000000000000e+02 8.900000000000000000e+02 8.910000000000000000e+02 8.920000000000000000e+02 8.930000000000000000e+02 8.940000000000000000e+02 8.950000000000000000e+02 8.960000000000000000e+02 8.970000000000000000e+02 8.980000000000000000e+02 8.990000000000000000e+02 9.000000000000000000e+02 9.010000000000000000e+02 9.020000000000000000e+02 9.030000000000000000e+02 9.040000000000000000e+02 9.050000000000000000e+02 9.060000000000000000e+02 9.070000000000000000e+02 9.080000000000000000e+02 9.090000000000000000e+02 9.100000000000000000e+02 9.110000000000000000e+02 9.120000000000000000e+02 9.130000000000000000e+02 9.140000000000000000e+02 9.150000000000000000e+02 9.160000000000000000e+02 9.170000000000000000e+02 9.180000000000000000e+02 9.190000000000000000e+02 9.200000000000000000e+02 9.210000000000000000e+02 9.220000000000000000e+02 9.230000000000000000e+02 9.240000000000000000e+02 9.250000000000000000e+02 9.260000000000000000e+02 9.270000000000000000e+02 9.280000000000000000e+02 9.290000000000000000e+02 9.300000000000000000e+02 9.310000000000000000e+02 9.320000000000000000e+02 9.330000000000000000e+02 9.340000000000000000e+02 9.350000000000000000e+02 9.360000000000000000e+02 9.370000000000000000e+02 9.380000000000000000e+02 9.390000000000000000e+02 9.400000000000000000e+02 9.410000000000000000e+02 9.420000000000000000e+02 9.430000000000000000e+02 9.440000000000000000e+02 9.450000000000000000e+02 9.460000000000000000e+02 9.470000000000000000e+02 9.480000000000000000e+02 9.490000000000000000e+02 9.500000000000000000e+02 9.510000000000000000e+02 9.520000000000000000e+02 9.530000000000000000e+02 9.540000000000000000e+02 9.550000000000000000e+02 9.560000000000000000e+02 9.570000000000000000e+02 9.580000000000000000e+02 9.590000000000000000e+02 9.600000000000000000e+02 9.610000000000000000e+02 9.620000000000000000e+02 9.630000000000000000e+02 9.640000000000000000e+02 9.650000000000000000e+02 9.660000000000000000e+02 9.670000000000000000e+02 9.680000000000000000e+02 9.690000000000000000e+02 9.700000000000000000e+02 9.710000000000000000e+02 9.720000000000000000e+02 9.730000000000000000e+02 9.740000000000000000e+02 9.750000000000000000e+02 9.760000000000000000e+02 9.770000000000000000e+02 9.780000000000000000e+02 9.790000000000000000e+02 9.800000000000000000e+02 9.810000000000000000e+02 9.820000000000000000e+02 9.830000000000000000e+02 9.840000000000000000e+02 9.850000000000000000e+02 9.860000000000000000e+02 9.870000000000000000e+02 9.880000000000000000e+02 9.890000000000000000e+02 9.900000000000000000e+02 9.910000000000000000e+02 9.920000000000000000e+02 9.930000000000000000e+02 9.940000000000000000e+02 9.950000000000000000e+02 9.960000000000000000e+02 9.970000000000000000e+02 9.980000000000000000e+02 9.990000000000000000e+02 1.000000000000000000e+03
1.000000000000000021e-02 1.000000000000000021e-02 1.000000000000000021e-02 1.000000000000000021e-02 1.000000000000000021e-02 1.000000000000000021e-02 1.000000000000000021e-02 1.000000000000000021e-02 1.000000000000000021e-02 1.000000000000000021e-02 1.000000000000000021e-02 1.000000000000000021e-02 1.000000000000000021e-02 1.000000000000000021e-02 1.000000000000000021e-02 1.000000000000000021e-02 1.000000000000000021e-02 1.000000000000000021e-02 1.000000000000000021e-02 1.000000000000000021e-02 1.000000000000000021e-02 1.000000000000000021e-02 1.000000000000000021e-02 1.000000000000000021e-02 1.000000000000000021e-02 1.000000000000000021e-02 1.000000000000000021e-02 1.000000000000000021e-02 1.000000000000000021e-02 1.000000000000000021e-02 1.000000000000000021e-02 1.000000000000000021e-02 1.000000000000000021e-02 1.000000000000000021e-02 1.000000000000000021e-02 1.000000000000000021e-02 1.000000000000000021e-02 1.000000000000000021e-02 1.000000000000000021e-02 1.000000000000000021e-02 1.000000000000000021e-02 1.000000000000000021e-02 1.000000000000000021e-02 1.000000000000000021e-02 1.000000000000000021e-02 1.000000000000000021e-02 1.000000000000000021e-02 1.000000000000000021e-02 1.000000000000000021e-02 1.000000000000000021e-02 1.000000000000000021e-02 1.000000000000000021e-02 1.000000000000000021e-02 1.000000000000000021e-02 1.000000000000000021e-02 1.000000000000000021e-02 1.000000000000000021e-02 1.000000000000000021e-02 1.000000000000000021e-02 1.000000000000000021e-02 1.000000000000000021e-02 1.000000000000000021e-02 1.000000000000000021e-02 1.000000000000000021e-02 1.000000000000000021e-02 1.000000000000000021e-02 1.000000000000000021e-02 1.000000000000000021e-02 1.000000000000000021e-02 1.000000000000000021e-02 1.000000000000000021e-02 1.000000000000000021e-02 1.000000000000000021e-02 1.000000000000000021e-02 1.000000000000000021e-02 1.000000000000000021e-02 1.000000000000000021e-02 1.000000000000000021e-02 1.000000000000000021e-02 1.000000000000000021e-02 1.000000000000000021e-02 1.000000000000000021e-02 1.000000000000000021e-02 1.000000000000000021e-02 1.000000000000000021e-02 1.000000000000000021e-02 1.000000000000000021e-02 1.000000000000000021e-02 1.000000000000000021e-02 1.000000000000000021e-02 1.000000000000000021e-02 1.000000000000000021e-02 1.000000000000000021e-02 1.000000000000000021e-02 1.000000000000000021e-02 1.000000000000000021e-02 1.000000000000000021e-02 1.000000000000000021e-02 1.000000000000000021e-02 1.000000000000000021e-02 1.000000000000000021e-02 1.000000000000000021e-02 1.000000000000000021e-02 1.000000000000000021e-02 1.000000000000000021e-02 1.000000000000000021e-02 1.000000000000000021e-02 1.000000000000000021e-02 1.000000000000000021e-02 1.000000000000000021e-02 1.000000000000000021e-02 1.000000000000000021e-02 1.000000000000000021e-02 1.000000000000000021e-02 1.000000000000000021e-02 1.000000000000000021e-02 1.000000000000000021e-02 1.000000000000000021e-02 1.000000000000000021e-02 1.000000000000000021e-02 1.000000000000000021e-02 1.000000000000000021e-02 1.000000000000000021e-02 1.000000000000000021e-02 1.000000000000000021e-02 1.000000000000000021e-02 1.000000000000000021e-02 1.000000000000000021e-02 1.000000000000000021e-02 1.000000000000000021e-02 1.000000000000000021e-02 1.000000000000000021e-02 1.000000000000000021e-02 1.000000000000000021e-02 1.000000000000000021e-02 1.000000000000000021e-02 1.000000000000000021e-02 1.000000000000000021e-02 1.000000000000000021e-02 1.000000000000000021e-02 1.000000000000000021e-02 1.000000000000000021e-02 1.000000000000000021e-02 1.000000000000000021e-02 1.000000000000000021e-02 1.000000000000000021e-02 1.000000000000000021e-02 1.000000000000000021e-02 1.000000000000000021e-02 1.000000000000000021e-02 1.000000000000000021e-02 1.000000000000000021e-02 1.000000000000000021e-02 1.000000000000000021e-02 1.000000000000000021e-02 1.000000000000000021e-02 1.000000000000000021e-02 1.000000000000000021e-02 1.000000000000000021e-02 1.000000000000000021e-02 1.000000000000000021e-02 1.000000000000000021e-02 1.000000000000000021e-02 1.000000000000000021e-02 1.000000000000000021e-02 1.000000000000000021e-02 1.000000000000000021e-02 1.000000000000000021e-02 1.000000000000000021e-02 1.000000000000000021e-02 1.000000000000000021e-02 1.000000000000000021e-02 1.000000000000000021e-02 1.000000000000000021e-02 1.000000000000000021e-02 1.000000000000000021e-02 1.000000000000000021e-02 1.000000000000000021e-02 1.000000000000000021e-02 1.000000000000000021e-02 1.000000000000000021e-02 1.000000000000000021e-02 1.000000000000000021e-02 1.000000000000000021e-02 1.000000000000000021e-02 1.000000000000000021e-02 1.000000000000000021e-02 1.000000000000000021e-02 1.000000000000000021e-02 1.000000000000000021e-02 1.000000000000000021e-02 1.000000000000000021e-02 1.000000000000000021e-02 1.000000000000000021e-02 1.000000000000000021e-02 1.000000000000000021e-02 1.000000000000000021e-02 1.000000000000000021e-02 1.000000000000000021e-02 1.000000000000000021e-02 1.000000000000000021e-02 1.000000000000000021e-02 1.000000000000000021e-02 1.000000000000000021e-02 1.000000000000000021e-02 1.000000000000000021e-02 1.000000000000000021e-02 1.000000000000000021e-02 1.000000000000000021e-02 1.000000000000000021e-02 1.000000000000000021e-02 1.000000000000000021e-02 1.000000000000000021e-02 1.000000000000000021e-02 1.000000000000000021e-02 1.000000000000000021e-02 1.000000000000000021e-02 1.000000000000000021e-02 1.000000000000000021e-02 1.000000000000000021e-02 1.000000000000000021e-02 1.000000000000000021e-02 1.000000000000000021e-02 1.000000000000000021e-02 1.000000000000000021e-02 1.000000000000000021e-02 1.000000000000000021e-02 1.000000000000000021e-02 1.000000000000000021e-02 1.000000000000000021e-02 1.000000000000000021e-02 1.000000000000000021e-02 1.000000000000000021e-02 1.000000000000000021e-02 1.000000000000000021e-02 1.000000000000000021e-02 1.000000000000000021e-02 1.000000000000000021e-02 1.000000000000000021e-02 1.000000000000000021e-02 1.000000000000000021e-02 1.000000000000000021e-02 1.000000000000000021e-02 1.000000000000000021e-02 1.000000000000000021e-02 1.000000000000000021e-02 1.000000000000000021e-02 1.000000000000000021e-02 1.000000000000000021e-02 1.000000000000000021e-02 1.000000000000000021e-02 1.000000000000000021e-02 1.000000000000000021e-02 1.000000000000000021e-02 1.000000000000000021e-02 1.000000000000000021e-02 1.000000000000000021e-02 1.000000000000000021e-02 1.000000000000000021e-02 1.000000000000000021e-02 1.000000000000000021e-02 1.000000000000000021e-02 1.000000000000000021e-02 1.000000000000000021e-02 1.000000000000000021e-02 1.000000000000000021e-02 1.000000000000000021e-02 1.000000000000000021e-02 1.000000000000000021e-02 1.000000000000000021e-02 1.000000000000000021e-02 1.000000000000000021e-02 1.000000000000000021e-02 1.000000000000000021e-02 1.000000000000000021e-02 1.000000000000000021e-02 1.000000000000000021e-02 1.000000000000000021e-02 1.000000000000000021e-02 1.000000000000000021e-02 1.000000000000000021e-02 1.000000000000000021e-02 1.000000000000000021e-02 1.000000000000000021e-02 1.000000000000000021e-02 1.000000000000000021e-02 1.000000000000000021e-02 1.000000000000000021e-02 1.000000000000000021e-02 1.000000000000000021e-02 1.000000000000000021e-02 1.000000000000000021e-02 1.000000000000000021e-02 1.000000000000000021e-02 1.000000000000000021e-02 1.000000000000000021e-02 1.000000000000000021e-02 1.000000000000000021e-02 1.000000000000000021e-02 1.000000000000000021e-02 1.000000000000000021e-02 1.000000000000000021e-02 1.000000000000000021e-02 1.000000000000000021e-02 1.000000000000000021e-02 1.000000000000000021e-02 1.000000000000000021e-02 1.000000000000000021e-02 1.000000000000000021e-02 1.000000000000000021e-02 1.000000000000000021e-02 1.000000000000000021e-02 1.000000000000000021e-02 1.000000000000000021e-02 1.000000000000000021e-02 1.000000000000000021e-02 1.000000000000000021e-02 1.000000000000000021e-02 1.000000000000000021e-02 1.000000000000000021e-02 1.000000000000000021e-02 1.000000000000000021e-02 1.000000000000000021e-02 1.000000000000000021e-02 1.000000000000000021e-02 1.000000000000000021e-02 1.000000000000000021e-02 1.000000000000000021e-02 1.000000000000000021e-02 1.000000000000000021e-02 1.000000000000000021e-02 1.000000000000000021e-02 1.000000000000000021e-02 1.000000000000000021e-02 1.000000000000000021e-02 1.000000000000000021e-02 1.000000000000000021e-02 1.000000000000000021e-02 1.000000000000000021e-02 1.000000000000000021e-02 1.000000000000000021e-02 1.000000000000000021e-02 1.000000000000000021e-02 1.000000000000000021e-02 1.000000000000000021e-02 1.000000000000000021e-02 1.000000000000000021e-02 1.000000000000000021e-02 1.000000000000000021e-02 1.000000000000000021e-02 1.000000000000000021e-02 1.000000000000000021e-02 1.000000000000000021e-02 1.000000000000000021e-02 1.000000000000000021e-02 1.000000000000000021e-02 1.000000000000000021e-02 1.000000000000000021e-02 1.000000000000000021e-02 1.000000000000000021e-02 1.000000000000000021e-02 1.000000000000000021e-02 1.000000000000000021e-02 1.000000000000000021e-02 1.000000000000000021e-02 1.000000000000000021e-02 1.000000000000000021e-02 1.000000000000000021e-02 1.000000000000000021e-02 1.000000000000000021e-02 1.000000000000000021e-02 1.000000000000000021e-02 1.000000000000000021e-02 1.000000000000000021e-02 1.000000000000000021e-02 1.000000000000000021e-02 1.000000000000000021e-02 1.000000000000000021e-02 1.000000000000000021e-02 1.000000000000000021e-02 1.000000000000000021e-02 1.000000000000000021e-02 1.000000000000000021e-02 1.000000000000000021e-02 1.000000000000000021e-02 1.000000000000000021e-02 1.000000000000000021e-02 1.000000000000000021e-02 1.000000000000000021e-02 1.000000000000000021e-02 1.000000000000000021e-02 1.000000000000000021e-02 1.000000000000000021e-02 1.000000000000000021e-02 1.000000000000000021e-02 1.000000000000000021e-02 1.000000000000000021e-02 1.000000000000000021e-02 1.000000000000000021e-02 1.000000000000000021e-02 1.000000000000000021e-02 1.000000000000000021e-02 1.000000000000000021e-02 1.000000000000000021e-02 1.000000000000000021e-02 1.000000000000000021e-02 1.000000000000000021e-02 1.000000000000000021e-02 1.000000000000000021e-02 1.000000000000000021e-02 1.000000000000000021e-02 1.000000000000000021e-02 1.000000000000000021e-02 1.000000000000000021e-02 1.000000000000000021e-02 1.000000000000000021e-02 1.000000000000000021e-02 1.000000000000000021e-02 1.000000000000000021e-02 1.000000000000000021e-02 1.000000000000000021e-02 1.000000000000000021e-02 1.000000000000000021e-02 1.000000000000000021e-02 1.000000000000000021e-02 1.000000000000000021e-02 1.000000000000000021e-02 1.000000000000000021e-02 1.000000000000000021e-02 1.000000000000000021e-02 1.000000000000000021e-02 1.000000000000000021e-02 1.000000000000000021e-02 1.000000000000000021e-02 1.000000000000000021e-02 1.000000000000000021e-02 1.000000000000000021e-02 1.000000000000000021e-02 1.000000000000000021e-02 1.000000000000000021e-02 1.000000000000000021e-02 1.000000000000000021e-02 1.000000000000000021e-02 1.000000000000000021e-02 1.000000000000000021e-02 1.000000000000000021e-02 1.000000000000000021e-02 1.000000000000000021e-02 1.000000000000000021e-02 1.000000000000000021e-02 1.000000000000000021e-02 1.000000000000000021e-02 1.000000000000000021e-02 1.000000000000000021e-02 1.000000000000000021e-02 1.000000000000000021e-02 1.000000000000000021e-02 1.000000000000000021e-02 1.000000000000000021e-02 1.000000000000000021e-02 1.000000000000000021e-02 1.000000000000000021e-02 1.000000000000000021e-02 1.000000000000000021e-02 1.000000000000000021e-02 1.000000000000000021e-02 1.000000000000000021e-02 1.000000000000000021e-02 1.000000000000000021e-02 1.000000000000000021e-02 1.000000000000000021e-02 1.000000000000000021e-02 1.000000000000000021e-02 1.000000000000000021e-02 1.000000000000000021e-02 1.000000000000000021e-02 1.000000000000000021e-02 1.000000000000000021e-02 1.000000000000000021e-02 1.000000000000000021e-02 1.000000000000000021e-02 1.000000000000000021e-02 1.000000000000000021e-02 1.000000000000000021e-02 1.000000000000000021e-02 1.000000000000000021e-02 1.000000000000000021e-02 1.000000000000000021e-02 1.000000000000000021e-02 1.000000000000000021e-02 1.000000000000000021e-02 1.000000000000000021e-02 1.000000000000000021e-02 1.000000000000000021e-02 1.000000000000000021e-02 1.000000000000000021e-02 1.000000000000000021e-02 1.000000000000000021e-02 1.000000000000000021e-02 1.000000000000000021e-02 1.000000000000000021e-02 1.000000000000000021e-02 1.000000000000000021e-02 1.000000000000000021e-02 1.000000000000000021e-02 1.000000000000000021e-02 1.000000000000000021e-02 1.000000000000000021e-02 1.000000000000000021e-02 1.000000000000000021e-02 1.000000000000000021e-02 1.000000000000000021e-02 1.000000000000000021e-02 1.000000000000000021e-02 1.000000000000000021e-02 1.000000000000000021e-02 1.000000000000000021e-02 1.000000000000000021e-02 1.000000000000000021e-02 1.000000000000000021e-02 1.000000000000000021e-02 1.000000000000000021e-02 1.000000000000000021e-02 1.000000000000000021e-02 1.000000000000000021e-02 1.000000000000000021e-02 1.000000000000000021e-02 1.000000000000000021e-02 1.000000000000000021e-02 1.000000000000000021e-02 1.000000000000000021e-02 1.000000000000000021e-02 1.000000000000000021e-02 1.000000000000000021e-02 1.000000000000000021e-02 1.000000000000000021e-02 1.000000000000000021e-02 1.000000000000000021e-02 1.000000000000000021e-02 1.000000000000000021e-02 1.000000000000000021e-02 1.000000000000000021e-02 1.000000000000000021e-02 1.000000000000000021e-02 1.000000000000000021e-02 1.000000000000000021e-02 1.000000000000000021e-02 1.000000000000000021e-02 1.000000000000000021e-02 1.000000000000000021e-02 1.000000000000000021e-02 1.000000000000000021e-02 1.000000000000000021e-02 1.000000000000000021e-02 1.000000000000000021e-02 1.000000000000000021e-02 1.000000000000000021e-02 1.000000000000000021e-02 1.000000000000000021e-02 1.000000000000000021e-02 1.000000000000000021e-02 1.000000000000000021e-02 1.000000000000000021e-02 1.000000000000000021e-02 1.000000000000000021e-02 1.000000000000000021e-02 1.000000000000000021e-02 1.000000000000000021e-02 1.000000000000000021e-02 1.000000000000000021e-02 1.000000000000000021e-02 1.000000000000000021e-02 1.000000000000000021e-02 1.000000000000000021e-02 1.000000000000000021e-02 1.000000000000000021e-02 1.000000000000000021e-02 1.000000000000000021e-02 1.000000000000000021e-02 1.000000000000000021e-02 1.000000000000000021e-02 1.000000000000000021e-02 1.000000000000000021e-02 1.000000000000000021e-02 1.000000000000000021e-02 1.000000000000000021e-02 1.000000000000000021e-02 1.000000000000000021e-02 1.000000000000000021e-02 1.000000000000000021e-02 1.000000000000000021e-02 1.000000000000000021e-02 1.000000000000000021e-02 1.000000000000000021e-02 1.000000000000000021e-02 1.000000000000000021e-02 1.000000000000000021e-02 1.000000000000000021e-02 1.000000000000000021e-02 1.000000000000000021e-02 1.000000000000000021e-02 1.000000000000000021e-02 1.000000000000000021e-02 1.000000000000000021e-02 1.000000000000000021e-02 1.000000000000000021e-02 1.000000000000000021e-02 1.000000000000000021e-02 1.000000000000000021e-02 1.000000000000000021e-02 1.000000000000000021e-02 1.000000000000000021e-02 1.000000000000000021e-02 1.000000000000000021e-02 1.000000000000000021e-02 1.000000000000000021e-02 1.000000000000000021e-02 1.000000000000000021e-02 1.000000000000000021e-02 1.000000000000000021e-02 1.000000000000000021e-02 1.000000000000000021e-02 1.000000000000000021e-02 1.000000000000000021e-02 1.000000000000000021e-02 1.000000000000000021e-02 1.000000000000000021e-02 1.000000000000000021e-02 1.000000000000000021e-02 1.000000000000000021e-02 1.000000000000000021e-02 1.000000000000000021e-02 1.000000000000000021e-02 1.000000000000000021e-02 1.000000000000000021e-02 1.000000000000000021e-02 1.000000000000000021e-02 1.000000000000000021e-02 1.000000000000000021e-02 1.000000000000000021e-02 1.000000000000000021e-02 1.000000000000000021e-02 1.000000000000000021e-02 1.000000000000000021e-02 1.000000000000000021e-02 1.000000000000000021e-02 1.000000000000000021e-02 1.000000000000000021e-02 1.000000000000000021e-02 1.000000000000000021e-02 1.000000000000000021e-02 1.000000000000000021e-02 1.000000000000000021e-02 1.000000000000000021e-02 1.000000000000000021e-02 1.000000000000000021e-02 1.000000000000000021e-02 1.000000000000000021e-02 1.000000000000000021e-02 1.000000000000000021e-02 1.000000000000000021e-02 1.000000000000000021e-02 1.000000000000000021e-02 1.000000000000000021e-02 1.000000000000000021e-02 1.000000000000000021e-02 1.000000000000000021e-02 1.000000000000000021e-02 1.000000000000000021e-02 1.000000000000000021e-02 1.000000000000000021e-02 1.000000000000000021e-02 1.000000000000000021e-02 1.000000000000000021e-02 1.000000000000000021e-02 1.000000000000000021e-02 1.000000000000000021e-02 1.000000000000000021e-02 1.000000000000000021e-02 1.000000000000000021e-02 1.000000000000000021e-02 1.000000000000000021e-02 1.000000000000000021e-02 1.000000000000000021e-02 1.000000000000000021e-02 1.000000000000000021e-02 1.000000000000000021e-02 1.000000000000000021e-02 1.000000000000000021e-02 1.000000000000000021e-02 1.000000000000000021e-02 1.000000000000000021e-02 1.000000000000000021e-02 1.000000000000000021e-02 1.000000000000000021e-02 1.000000000000000021e-02 1.000000000000000021e-02 1.000000000000000021e-02 1.000000000000000021e-02 1.000000000000000021e-02 1.000000000000000021e-02 1.000000000000000021e-02 1.000000000000000021e-02 1.000000000000000021e-02 1.000000000000000021e-02 1.000000000000000021e-02 1.000000000000000021e-02 1.000000000000000021e-02 1.000000000000000021e-02 1.000000000000000021e-02 1.000000000000000021e-02 1.000000000000000021e-02 1.000000000000000021e-02 1.000000000000000021e-02 1.000000000000000021e-02 1.000000000000000021e-02 1.000000000000000021e-02 1.000000000000000021e-02 1.000000000000000021e-02 1.000000000000000021e-02 1.000000000000000021e-02 1.000000000000000021e-02 1.000000000000000021e-02 1.000000000000000021e-02 1.000000000000000021e-02 1.000000000000000021e-02 1.000000000000000021e-02 1.000000000000000021e-02 1.000000000000000021e-02 1.000000000000000021e-02 1.000000000000000021e-02 1.000000000000000021e-02 1.000000000000000021e-02 1.000000000000000021e-02 1.000000000000000021e-02 1.000000000000000021e-02 1.000000000000000021e-02 1.000000000000000021e-02 1.000000000000000021e-02 1.000000000000000021e-02 1.000000000000000021e-02 1.000000000000000021e-02 1.000000000000000021e-02 1.000000000000000021e-02 1.000000000000000021e-02 1.000000000000000021e-02 1.000000000000000021e-02 1.000000000000000021e-02 1.000000000000000021e-02 1.000000000000000021e-02 1.000000000000000021e-02 1.000000000000000021e-02 1.000000000000000021e-02 1.000000000000000021e-02 1.000000000000000021e-02 1.000000000000000021e-02 1.000000000000000021e-02 1.000000000000000021e-02 1.000000000000000021e-02 1.000000000000000021e-02 1.000000000000000021e-02 1.000000000000000021e-02 1.000000000000000021e-02 1.000000000000000021e-02 1.000000000000000021e-02 1.000000000000000021e-02 1.000000000000000021e-02 1.000000000000000021e-02 1.000000000000000021e-02 1.000000000000000021e-02 1.000000000000000021e-02 1.000000000000000021e-02 1.000000000000000021e-02 1.000000000000000021e-02 1.000000000000000021e-02 1.000000000000000021e-02 1.000000000000000021e-02 1.000000000000000021e-02 1.000000000000000021e-02 1.000000000000000021e-02 1.000000000000000021e-02 1.000000000000000021e-02 1.000000000000000021e-02 1.000000000000000021e-02 1.000000000000000021e-02 1.000000000000000021e-02 1.000000000000000021e-02 1.000000000000000021e-02 1.000000000000000021e-02 1.000000000000000021e-02 1.000000000000000021e-02 1.000000000000000021e-02 1.000000000000000021e-02 1.000000000000000021e-02 1.000000000000000021e-02 1.000000000000000021e-02 1.000000000000000021e-02 1.000000000000000021e-02 1.000000000000000021e-02 1.000000000000000021e-02 1.000000000000000021e-02 1.000000000000000021e-02 1.000000000000000021e-02 1.000000000000000021e-02 1.000000000000000021e-02 1.000000000000000021e-02 1.000000000000000021e-02 1.000000000000000021e-02 1.000000000000000021e-02 1.000000000000000021e-02 1.000000000000000021e-02 1.000000000000000021e-02 1.000000000000000021e-02 1.000000000000000021e-02 1.000000000000000021e-02 1.000000000000000021e-02 1.000000000000000021e-02 1.000000000000000021e-02 1.000000000000000021e-02 1.000000000000000021e-02 1.000000000000000021e-02 1.000000000000000021e-02 1.000000000000000021e-02 1.000000000000000021e-02 1.000000000000000021e-02 1.000000000000000021e-02 1.000000000000000021e-02 1.000000000000000021e-02 1.000000000000000021e-02 1.000000000000000021e-02 1.000000000000000021e-02 1.000000000000000021e-02 1.000000000000000021e-02 1.000000000000000021e-02 1.000000000000000021e-02 1.000000000000000021e-02 1.000000000000000021e-02 1.000000000000000021e-02 1.000000000000000021e-02 1.000000000000000021e-02 1.000000000000000021e-02 1.000000000000000021e-02 1.000000000000000021e-02 1.000000000000000021e-02 1.000000000000000021e-02 1.000000000000000021e-02 1.000000000000000021e-02 1.000000000000000021e-02 1.000000000000000021e-02 1.000000000000000021e-02 1.000000000000000021e-02 1.000000000000000021e-02 1.000000000000000021e-02 1.000000000000000021e-02 1.000000000000000021e-02 1.000000000000000021e-02 1.000000000000000021e-02 1.000000000000000021e-02 1.000000000000000021e-02 1.000000000000000021e-02 1.000000000000000021e-02 1.000000000000000021e-02 1.000000000000000021e-02 1.000000000000000021e-02 1.000000000000000021e-02 1.000000000000000021e-02 1.000000000000000021e-02 1.000000000000000021e-02 1.000000000000000021e-02 1.000000000000000021e-02 1.000000000000000021e-02 1.000000000000000021e-02 1.000000000000000021e-02 1.000000000000000021e-02 1.000000000000000021e-02 1.000000000000000021e-02 1.000000000000000021e-02 1.000000000000000021e-02 1.000000000000000021e-02 1.000000000000000021e-02 1.000000000000000021e-02 1.000000000000000021e-02 1.000000000000000021e-02 1.000000000000000021e-02 1.000000000000000021e-02 1.000000000000000021e-02 1.000000000000000021e-02 1.000000000000000021e-02 1.000000000000000021e-02 1.000000000000000021e-02 1.000000000000000021e-02 1.000000000000000021e-02 1.000000000000000021e-02 1.000000000000000021e-02 1.000000000000000021e-02 1.000000000000000021e-02 1.000000000000000021e-02 1.000000000000000021e-02 1.000000000000000021e-02 1.000000000000000021e-02 1.000000000000000021e-02 1.000000000000000021e-02 1.000000000000000021e-02 1.000000000000000021e-02 1.000000000000000021e-02 1.000000000000000021e-02 1.000000000000000021e-02 1.000000000000000021e-02 1.000000000000000021e-02 1.000000000000000021e-02 1.000000000000000021e-02 1.000000000000000021e-02 1.000000000000000021e-02 1.000000000000000021e-02 1.000000000000000021e-02 1.000000000000000021e-02 1.000000000000000021e-02 1.000000000000000021e-02 1.000000000000000021e-02 1.000000000000000021e-02 1.000000000000000021e-02 1.000000000000000021e-02 1.000000000000000021e-02 1.000000000000000021e-02 1.000000000000000021e-02 1.000000000000000021e-02 1.000000000000000021e-02 1.000000000000000021e-02 1.000000000000000021e-02 1.000000000000000021e-02 1.000000000000000021e-02 1.000000000000000021e-02 1.000000000000000021e-02 1.000000000000000021e-02 1.000000000000000021e-02 1.000000000000000021e-02 1.000000000000000021e-02 1.000000000000000021e-02 1.000000000000000021e-02 1.000000000000000021e-02 1.000000000000000021e-02 1.000000000000000021e-02 1.000000000000000021e-02 1.000000000000000021e-02 1.000000000000000021e-02 1.000000000000000021e-02 1.000000000000000021e-02 1.000000000000000021e-02 1.000000000000000021e-02 1.000000000000000021e-02 1.000000000000000021e-02 1.000000000000000021e-02 1.000000000000000021e-02 1.000000000000000021e-02 1.000000000000000021e-02 1.000000000000000021e-02 1.000000000000000021e-02 1.000000000000000021e-02 1.000000000000000021e-02 1.000000000000000021e-02 1.000000000000000021e-02 1.000000000000000021e-02 1.000000000000000021e-02 1.000000000000000021e-02 1.000000000000000021e-02 1.000000000000000021e-02 1.000000000000000021e-02 1.000000000000000021e-02 1.000000000000000021e-02 1.000000000000000021e-02 1.000000000000000021e-02 1.000000000000000021e-02 1.000000000000000021e-02 1.000000000000000021e-02 1.000000000000000021e-02 1.000000000000000021e-02 1.000000000000000021e-02 1.000000000000000021e-02 1.000000000000000021e-02 1.000000000000000021e-02 1.000000000000000021e-02 1.000000000000000021e-02 1.000000000000000021e-02 1.000000000000000021e-02 1.000000000000000021e-02 1.000000000000000021e-02 1.000000000000000021e-02 1.000000000000000021e-02 1.000000000000000021e-02 1.000000000000000021e-02 1.000000000000000021e-02 1.000000000000000021e-02 1.000000000000000021e-02 1.000000000000000021e-02 1.000000000000000021e-02 1.000000000000000021e-02 1.000000000000000021e-02 1.000000000000000021e-02 1.000000000000000021e-02 1.000000000000000021e-02
-1.132778981587697160e+02 1.721314481568514339e+02 3.994942489341052294e+01 -8.981900734244169016e+00 -8.921194013715529536e+01 -1.359512204846241445e+01 -2.110332303688780087e+02 6.896067725660595116e-01 -8.602003298555436572e+01 -1.420966599300861333e+01 -2.012555693302202542e+01 6.604313992772770980e+00 -1.807776280732556140e+00 1.703351893047175452e+02 8.589925995782962787e+01 -3.935227928153080512e+01 -5.357291595886268709e+01 8.041974729476009998e+01 3.331631974141976826e+01 -2.574909184849411403e+01 -8.005433173169758732e+01 -7.493993018349245006e+01 -1.402181522735254227e+01 2.937274989059917019e+01 -1.978869609416861408e+02 -1.002437051388003653e+02 -2.648212679919255308e+01 2.047078207906801879e+02 7.183928982470997937e+01 7.787184316681455698e+01 8.151017651186819535e+01 1.204854739802487140e+00 -8.040044529840270116e+01 2.105610347845203592e+02 -2.485389420792813553e+02 5.969898904765812375e+01 -1.219995227587787809e+02 -3.520422659908162188e+01 4.092958450625879152e+00 1.286392476272940542e+02 -1.247817558655017081e+02 -1.386936001729451640e+01 7.855022119475343345e+01 1.762350135496326402e+02 7.245620734098277183e+01 -6.948096205612959864e+01 4.187550509333787119e+01 -2.880691124395978164e+01 -6.707238469884734400e+01 1.589842743435679040e+02 -7.167701762612311711e+01 -5.292005932491260722e+01 -1.414241178412189299e+02 5.811212600871439093e+00 -5.131923653186502321e+01 3.925123229643293143e+01 -9.008244023167178227e+01 -5.083273354606863847e+01 -1.029605125296012886e+02 -1.578205622946082940e+02 1.977130669627361925e+01 4.603176165355706217e+01 -1.250081924954985055e+02 1.305882501938388707e+01 -8.052744620324800451e+01 4.987134999401471447e+01 1.691612190370057931e+02 -1.464721078805560808e+02 -4.398520503208312249e+01 7.294577401431066477e+00 2.969654985639789135e+00 4.302888866143240421e+01 8.527649271342102111e+01 9.259379090929619194e-01 -8.920967863495318895e+00 -7.111610081043826881e+01 7.947599471167374929e+01 -3.329435755116230666e+01 2.669338779073832413e+01 1.056138946577295599e+02 8.960037323994983183e+01 -4.340771835829285408e+01 5.871691298262368264e+01 1.497175495891310106e+02 1.179993443914281954e+02 -4.097799176626370610e+00 1.769131350149858406e+02 -1.132353025297026932e+02 4.278810961980824779e+00 -4.258658497307708757e+01 2.100461203600368663e+02 -2.155150820967234893e+01 2.918132335441145475e+00 -7.797120467419961187e+01 -7.240701279356028586e+00 -6.484670648790806524e+01 6.881322457846160034e+01 -9.600972529316497628e+01 6.960882357568702616e+01 -4.847786399849933758e+01 -5.054026314829491184e+01 -9.307626319327812325e+01 5.392758626455893989e+01 -5.557970513465603801e+01 -1.516508600891734773e+02 -8.071047094262058863e+01 -1.062419816525406020e+02 -1.596705580332454417e+02 1.380584922504728524e+02 -2.794323124553444515e+01 3.252204063828448710e+01 9.106021096508834489e+01 -1.057020074004492329e+02 5.786302010709407995e+01 -4.399628477335328114e+01 -7.038100867533627536e+01 -9.146570612468562445e+01 2.064560587895207391e+02 -5.762669966063992888e+01 -5.025013771508887572e+01 -4.796404516033804555e+01 8.165475039372230981e+01 -4.204625024785065079e+01 1.401444112662127566e+02 -5.062919551503516402e+01 5.593460625276092202e+01 4.612565887968759881e+00 -8.242123338431912316e+01 6.990131945472907660e+01 2.816963936075858328e+02 -9.344153667560740928e+01 4.824167301479333503e+01 -7.741215014646441261e+01 4.594116644509067271e+01 1.332396879507220149e+02 -5.216990924900698445e+01 1.481015488255151880e+01 -2.734048467782369585e+01 -1.035348448948702469e+02 -1.755079167330652723e+01 4.333496087818000220e+00 -7.947592240139952580e+00 -1.519465368535139405e+01 1.201227450842916653e+02 1.324064650842504705e+02 1.894120515235156290e+02 -3.091542876646527134e+02 3.882595961235163173e+01 -1.599738580007939426e+01 -6.335767255738900872e+01 1.832446199394490520e+02 7.745943117577934345e+01 -2.612066268705971250e+00 -1.178585405393354506e+02 -1.108860730735173128e+01 1.017283096403115223e+02 -1.366188325090757303e+02 -1.714209964362075596e+02 1.091315680197510396e+01 4.314417762726635885e+01 -6.203070619427541033e+01 4.273813986712318780e+01 -1.088848533580789706e+02 -1.538843288766661033e+02 2.147783533052062666e+01 4.940832004297082847e+01 4.880681658990327243e+00 -8.493551607047228913e+01 -9.521249928809442054e+01 -8.580203093823342897e+01 -8.907740581962974602e+01 1.284398458935297782e+01 5.784941901020763311e+01 1.185790105723289400e+02 8.086731998832064505e+01 9.112391686732796359e+01 1.094002435468306373e+02 -7.617218657507663693e+01 -8.404726324447798902e+01 7.183711349364949683e+01 6.973455980453638858e+01 6.035535043811101730e+01 -9.574300270770189414e+00 -9.283644775710720864e+01 5.503329289941328994e+01 -1.824777728706594644e+02 6.848583044557483390e+01 -4.544415123138957568e+01 -9.839695808292961487e+01 7.571869599340122647e+01 -1.747941537795674449e+01 -7.874473797282931287e+01 -5.868204816003242996e+01 -9.336390947185549294e+00 2.478535262469014526e+02 7.847366965942661921e+01 5.602738365978338919e+01 -1.061930737701846112e+02 1.515506650772601347e+02 1.061867138255299103e+00 -9.243671996170418481e+01 1.593464076738348751e+02 -1.576937584669792329e+02 1.613974288764848453e+01 -3.331563017590353581e+01 -2.273768962702327485e+02 -1.380523809427284050e+02 -9.027374208453755955e+01 -3.029124679945299192e+01 -1.233956949543949548e+02 5.967078584105136230e+01 6.724147425022439961e+01 -2.852282406195216780e+01 -1.031806245861554743e+02 1.170313715064381626e+02 1.223411208921985320e+02 4.782842621678358341e+01 1.806679753844175806e+01 2.705200761907684068e+02 4.521180673217569534e+01 -1.236204164469933886e+02 -4.663698023429723349e+01 -1.748537600058911323e+02 3.300256062395214229e+01 1.587919539327481857e+02 -1.536986551281464131e+02 1.364509410376501535e+02 -9.422866517629057626e+01 -1.957546921855974276e+01 -7.700328522899135830e-01 5.476249959112463017e+01 -1.202694588455273461e+01 -2.361002836252030335e+01 -1.960793253423350535e+01 -1.312773422743052834e+02 4.811649469761906062e+01 -3.147126478433596120e+01 -1.346340702136263445e+01 -1.110347628025971822e+01 2.342232397375536266e+02 1.805695997571772295e+02 2.411507394275420495e+02 1.366335822373725648e+02 -8.975047215126721767e+01 7.796331158396472460e+01 2.188652836343672092e+01 4.935530709319939291e+01 -4.120254617199547909e+01 2.648466178614107776e+02 -2.415450554568021602e+01 -1.417824936689904121e+02 -1.551260173713955659e+01 -4.751969805065087371e+01 -8.027847683189716577e+01 4.476293877349490202e+01 -1.214851972093399013e+01 1.886785606062372551e+02 9.586091187830115246e+01 4.241174925305215737e+01 1.016975795078175082e+02 9.800796500770329089e+01 -2.384808695453420668e+01 1.448599692093721103e+02 2.747339847696839499e+01 9.292390939459984622e+01 4.943296660030662792e+01 7.197197710100723178e+00 -1.201170723764602144e+02 -1.201760525143510989e+02 -9.339503277853951602e+01 -1.616088656240506793e+01 8.994101480783095326e+01 -3.181899474667950756e+01 1.026120391465596384e+02 4.545314443426121187e+01 -7.546181020567114217e+01 -3.109908029992135425e+01 -6.080475766120729730e+01 1.822322112585013443e+01 -4.808321265948564616e+01 -1.162641499089498609e+02 1.261168282109267835e+02 1.259026831599491771e+02 -8.191540189900054258e+01 5.664803173505334577e+00 -4.701394199594788859e+01 -3.384842925783880929e+01 -1.176954599780179400e+01 -3.239195349870300333e+01 4.611552794313319481e+01 -1.458013372090473183e+02 -5.481391049363780610e+01 -1.575783277576325929e+02 1.806264302856702670e+02 -2.099647927540874193e+01 6.114404565706453809e+01 1.237620891957778113e+01 1.497460486311358920e+02 4.630227810865098803e+01 3.705839025559960476e+01 1.600113668319060594e+02 -5.106908502715351261e+01 -1.011509716192136068e+02 2.814731759928814370e+01 -1.637522937227271314e+02 -5.533195067210760243e+01 1.059903149707946000e+02 -1.323363535983556005e+02 -3.767629067121146136e+01 9.457981787854353684e+01 -9.789073254276806324e+01 -9.271931202577154352e+01 -8.561353127859973711e+01 -6.612170013704684379e+01 2.579176137943715617e+02 2.052432534731146063e+02 1.066704855639819272e+02 -1.058244301376407321e+02 7.751243781354179418e+01 -6.845836598989940569e+01 -3.232145233810955176e+01 1.718252138594221634e+01 -3.330761013956902872e+01 -9.701623857817146757e+01 -2.809456997479844453e+00 1.531229602840229731e+01 1.125009235507244512e+02 -1.328682034463085131e+02 4.330041114399734425e+01 6.590875863416374614e+01 3.571796752901077809e+01 -9.364285990695387341e+01 -1.534433401584956869e+02 1.996271213091273751e+02 -1.840605036209356626e+01 2.602037019724866695e+01 1.616466579563953303e+02 2.754019111157158406e+01 2.864847918257274983e+01 -4.597121443909794891e+01 9.144676787116948447e+01 -1.407297731341867859e+02 -3.179701764153542243e+01 -6.330326086122528118e+00 -5.512048722701440795e+01 6.377161696690524018e+00 2.198495792382768954e+01 -3.691975546464254876e+01 1.409746897824829048e+01 2.204328825148610633e+02 -2.824581283072232907e+01 -2.883927928101303451e+01 -1.048338752292061429e+02 -1.707005727278525065e+00 -8.327182996683015404e+01 6.607491938680360555e+00 1.155429220896628237e+02 -5.364334972006877678e+01 6.238024697702393873e+00 -5.600471131122274215e+01 3.437796818213903816e+00 8.990174190424693279e+01 -1.194248036965453821e+02 -9.978302821211683238e+01 -1.057038591317667056e+02 7.358946901475418656e+01 8.921701869809587038e+01 -9.513690990625323707e+01 6.451710549533225958e+01 2.660127640019565476e+01 3.987082406673241053e+01 -1.830105036530041573e+01 9.412473509661175797e+01 8.217030061657989393e+01 -7.964023047863773286e+01 1.222204255207095969e+01 8.336782757944448008e+01 7.508508533907104265e+01 -2.048294835662567337e+01 2.574794123679158631e+01 -1.366192733373937926e+02 4.998508746457535779e+01 -3.376162312420331801e+01 -3.363499106543422101e+01 1.784435321988646024e+02 4.888318188037310108e+01 1.238680318404407927e+02 1.967344179384416805e+02 -1.418736757338321866e+02 1.535796544444734764e+02 -6.530070278223462310e+01 -1.392232845188301269e+02 8.481688281962668441e+01 -1.381473956061925890e+02 -2.957178654527430695e+01 5.813264748719016239e+01 8.336474488308171615e+00 -1.731879649057277391e+02 8.676823193426000103e+01 2.597502405486507371e+01 7.119132717566043311e+01 3.736765109400588614e+01 9.763929841971119572e+00 -6.914983924983133079e+01 1.192464969524698688e+02 5.613304879370600986e+01 -6.400664825584765083e+01 -1.043008509645481894e+02 4.013460382606501042e+01 2.643510937404941785e+01 8.487111497542379368e+01 1.892756820833645577e+02 -2.538616836153523337e+01 -1.134690709103440582e+02 -8.730891500082888967e+01 -5.287181736433151968e+01 -4.573161041095196566e+01 -1.511667659646315087e+02 -2.317387456913179733e+01 1.333870343010123918e+02 7.679643833203621739e+01 -1.260612002126806459e+02 -1.543352246835271444e+02 -7.016517227231221909e+01 -7.868081745757069712e+01 1.511514122572800716e+02 -1.755816616965143453e+02 8.912666690637853151e+01 -4.746874932369162359e+00 -4.431103623282199067e+01 1.371011727240635025e+01 9.392430089454333597e+01 5.109753772312222964e+01 1.423557930414833095e+02 -1.639031038303162404e+02 -8.340082177195237989e+01 2.608828208192654330e+01 4.319554733630914001e+01 2.123362367201260383e+02 1.498027625279673600e+02 6.747849084293686417e+01 7.426481851417068469e+01 -3.526315978142019247e+01 1.563844122829836749e+02 -1.846779985310988934e+02 -6.528519640289350434e+01 -5.529397161298877705e+01 -5.334321288647743131e+01 -1.063840271459637847e+02 -1.542770192867044265e+01 -7.069769154634427366e+01 7.331565419398877737e+01 -9.441035527993578924e+00 -5.985017329165645350e+01 -6.418288391750441235e+01 1.855701972600510032e+02 6.073900247263248531e+01 -1.410236736701600613e+01 2.150974617680291203e+02 -1.115436678296782986e+02 -3.639230076289933891e+01 6.894687022412202282e+01 -1.315326610110907901e-01 1.537343065912163453e+01 -1.287573218477392061e+02 1.814075785103934209e+02 -5.045721098461777387e+01 -2.775541325799744996e+01 -1.129437220095631460e+02 1.295478486472543125e+02 9.871421950803602385e+01 -7.979670182865513084e+01 -3.864617027936749594e+01 4.006615731198527186e+01 -1.558029917581385746e+02 -1.383809441100926629e-01 -7.686205121228883286e+01 7.933202848087820946e+00 -1.112425358068975072e+02 -1.630875984185509537e+02 -7.269843971421164497e+01 1.523918216949406315e+02 5.820852406638415744e+01 -9.215130761202372867e+01 9.171598891893242467e+01 3.521711315820428467e+01 9.077247722200820590e+01 -4.329479705237919518e+01 -8.645441066349526693e+01 1.757790106564275732e+02 4.282705608919231821e+01 2.975970877854419427e+01 -7.503131962433970159e+01 -4.347266622753664223e+01 9.830373777290132509e+00 -7.351085476309500599e+00 -1.775337660264353019e+02 -3.553908978834270727e+01 6.616814723844269963e+01 1.146396798882813073e+02 1.598852217260118778e+02 -1.361886339806373591e+01 9.200764017903721026e+01 1.618910700798485607e+02 6.510423349526858772e+01 1.516921172689364141e+02 1.648227306676011139e+01 1.347117742209446760e+02 -8.610985032738328471e+01 5.474474083893569087e+01 3.009969982349574025e+01 7.779329873639319715e+01 -1.088718622307403763e+02 2.029423062333257235e+02 -1.319956086189396842e+02 9.045594393159024094e+01 -1.100730609437605523e+02 4.724980132058004045e+01 1.412783693729599754e+01 9.288464560690309213e+01 -7.543288430614936146e+01 -7.729391432119136596e+01 -1.143558164273086319e+01 9.116676453544792480e+01 -3.026810908002936173e+01 -1.668929833674668117e+01 -2.008137649774860378e+01 4.845244942190373827e+00 1.003412831868915873e+02 -6.396192005701669103e+01 -2.777361215563638464e+00 -1.978680626912685057e+02 1.243583326433167713e+02 -1.272958550395062645e+02 -7.532038237180245233e+01 -2.400578440885336562e+01 -1.100118175898357862e+02 -5.419336260160731200e+01 -5.969407826245451076e+01 -2.004235225095793993e+01 1.389011662124042630e+02 5.510048156246510587e+01 1.023709629824339942e+02 -1.387118182940404267e+02 -1.412486777846197867e+02 -2.920184911621269634e+02 1.041008324668104308e+02 1.062894146389206611e+02 4.308071953556193989e+01 -4.322475502738263486e+01 -3.794467561089476249e+01 -1.871654177537925534e+02 1.489642988861706385e+02 -1.094968221570879194e+02 1.090253656217252711e+02 -1.623111672862060004e+02 -1.458249226274832999e+01 -5.644782615667943304e+01 -1.215580238455776367e+02 -4.698866450767830116e+01 -1.272165884928710256e+01 -9.445255790878734103e+01 -1.055224235989338410e+02 -1.259334967340510225e+01 7.259537123229787881e+01 -1.270728317597524040e+02 -1.597990419805376838e+01 -7.520389369739508822e+01 -1.339958321268950385e+02 6.818277341275573278e+00 9.707011066120365683e+01 1.687713887007543576e+02 -1.945413393616337672e+01 -4.697358670471114550e+01 -1.266051138302719039e+02 -1.668276861922683452e+02 1.058363865607904302e+02 -7.420757107013393750e+01 8.061557184589960912e+01 9.595266617604442771e+00 2.985065801612854486e+01 7.535074803036384594e+01 -8.644274096038878952e+01 8.434478354496840780e+01 1.176230394007498035e+02 1.606281076023667538e+02 -1.189879485763712665e+02 1.060700532158993497e+02 -4.873842389951212795e+01 -9.265924518453257974e+01 2.189643476687400607e+02 5.027840121133395002e+01 8.518456110869988152e+01 2.174054883641515090e+01 -6.446743288266144134e+01 -3.565766245233334075e+01 -2.147032452445952515e+02 1.078035496107052751e+02 8.319289626337848631e+01 -7.726224536841947099e+01 -7.467233329254241880e+01 1.481934077940911152e+02 1.031510117149670123e+02 5.216648646085331364e+01 7.765961213371427618e+01 -8.071639978121469383e+00 1.053302730673897969e+02 -1.056632010382777906e+02 1.902707149991463496e+02 -4.029851937683585561e+01 -1.245061166891764799e+02 -3.843436003578967330e+01 7.323065734709051355e+01 1.503948275511380075e+02 1.320567234152168190e+01 1.774207830796557630e+02 5.329254568013011806e+01 3.430644533901987359e+01 -1.136301307136399998e+02 4.574977383647826201e+01 -1.276418229139191709e+02 4.867525054914235483e+01 3.945657844015906335e+01 -1.258900671258599857e+02 -8.679797457312936615e+01 4.065535413379132734e+01 8.907370924093230613e+00 -2.372478414662641910e+01 4.271522449670128196e+01 -2.184183779102221834e+01 -6.440276949368961823e+01 -2.666985548569890696e+01 -2.293170668883737306e+01 -4.065884843887845079e+01 1.917297538565373216e+01 -8.215485220452384851e+01 1.214242359524698003e+02 -7.588390551615559332e+01 -4.392607586396853669e+00 6.685995076830816686e+01 3.985487594681425882e+00 1.627014970721040044e+01 1.628510488436635839e+01 -1.195739786483124760e+02 -4.513353642936980492e+00 6.640471164437398954e+01 -2.362418739813814739e+02 -8.660229890088244531e+01 -1.150701857776597734e+02 4.469458759158973749e+01 9.821954840540733755e+01 -9.364334125724252544e+01 -1.713652081234758384e+02 -1.889602278998251279e+02 2.039020075878136495e+01 -1.479286787036885187e+02 -6.445873353890688939e+00 1.505766504386876932e+02 -7.260608593599198635e+00 3.788368890384199261e+01 -1.008377240871645313e+02 8.133309371366982532e+01 -1.207129896353528409e+02 -1.567669898714482635e+01 -3.085315209692797467e+01 5.855902704456187280e+01 -9.041886114733982183e+00 1.074476371642969497e+02 -1.240442940356578845e+02 -5.088591766136599404e+01 8.789109875522986215e+01 6.717495539835792329e+01 -8.362258303396548342e+01 -5.520963704875497768e+01 -5.007825755100142828e+01 -2.935517884764425958e+02 1.962828600989946608e+02 7.719072065861971055e+01 -2.393578844465380939e+01 -3.006576395194132090e+01 4.208777618485632388e+01 -8.528733815404174834e+01 1.008453037427197785e+02 6.121697237003176895e+01 8.307241967041255748e+01 -8.514273564947129103e+01 -2.691156348631810502e+01 3.376404568928873573e+01 1.759132209135459846e+01 -4.331630161770303289e+01 1.597462025032358781e+02 -1.749869004811316486e+01 3.578654650391759873e+01 -2.324213100264114757e+02 -8.565340245810445197e+01 -7.399078442962344582e+01 2.327119289134457603e+01 1.103962400752284623e+02 -2.341980775468557283e+02 -1.890768942157531285e+02 2.240983218974346016e+02 -1.068598169349465898e+01 9.712507925505835260e+01 6.341760692660442089e+01 -5.597806447448319744e+01 -1.324249630758206990e+02 -9.619436931421962811e+01 -5.081142223816672043e+01 -3.785056807938895673e+01 -3.957832182694101419e+01 1.635647777056723839e+01 3.753189068249860583e+01 1.686072713346873115e+02 1.245177761427014360e+02 6.992606886077407324e+00 -4.427754910825762558e+00 -1.605235540460326433e+02 1.209411994260310905e+02 1.610499702372632100e+02 -1.045214175910793131e+02 7.453036580396096156e+01 1.804894182215684317e+00 5.547481162637210872e+01 1.268059167078628207e+02 7.170882298475463301e+01 -1.354691712765696536e+02 1.632940964921724358e+01 -2.970456935284537536e+01 1.125997230856495790e+01 -2.343621607740552193e+01 4.586083397527043815e+01 -2.634191047884544901e+02 1.832601998618234802e+02 7.407450338784572708e+00 1.612757740139375073e+02 -1.069354131566347199e+01 1.074562890869604104e+02 7.249557930058962540e+01 -4.252786260382458750e+01 3.025515111143703351e+01 -7.368982426348995318e+01 -9.008283696991506417e+01 -7.300470225049244277e+01 -3.245963220714663322e+01 4.577525416515477730e+01 1.116295535085134247e+02 2.888336003157489174e+01 6.291513911868688780e+01 -1.062310329916417118e+02 -1.390063882495967391e+02 -1.366940475317059622e+01 4.705072782943688026e+01 -4.616380019459251827e+01 9.584856320277553721e+01 5.629145193527141089e+01 -2.804573638382946399e+01 3.037926883972802017e+01 6.223890857006306021e+01 -7.315607672238526504e+01 -1.356522582606866081e+02 1.441563784585243297e+02 7.930779695113607808e+00 5.088786330289044457e+01 -1.515184622891642903e+02 -5.421165728374331394e+01 -4.767112911625012162e-01 -6.671613621027142926e+01 4.341388622448745238e+00 5.715940304398029781e+01 1.893786312154957727e+02 3.974715945359744040e+01 -1.114150171688853774e+01 7.335762817283354309e+01 -4.623214730360573554e+01 -1.107751996773032488e+02 -1.405016360564277988e+02 9.534117357423513184e+00 2.553829966894396719e+01 2.419220299284413755e+01 -5.785656853062330640e+01 1.229330289309602335e+02 -8.225935038967682544e+01 1.305970997340720601e+02 8.885686671315079366e+01 -6.621209850527725393e+01 -8.620627407008132082e+01 8.572302390016642448e+01 2.086800995122172253e+01 -5.344952557120093672e+01 -5.485170021624816172e+01 1.392174127405060915e+02 5.837391450725084496e+01 8.138625135159749391e+01 2.664445121101929814e+01 -4.289818983534360086e+01 1.095562486768775727e+02 -5.562531175144011542e+01 5.389885757536602151e-01 7.809018345717299781e+01 1.015569376748873935e+02 2.605583900934728945e+02 -1.786600123433808278e+02 1.642122639836731821e+02 -6.898994885138729671e+01 -1.553555877892009818e+01 -2.555925778011050653e+01 -2.116669801720478361e+01 -5.635053233474613421e+01 9.489744450077931504e+01 1.880477572926596963e+02 -1.213996855859131045e+02 3.161375119048766535e+01 -1.297388981998951465e+02 7.177740193222541620e+01 -4.552452360914459462e+01 -8.285181087836063796e+01 -5.514059351726298530e+01 4.214823827966359460e+01 1.986243402405142078e+01 -8.379229959711945241e+01 -1.445450155731228392e+02 2.129281387458161845e+01 1.615907795900033079e+02 1.464939340149390468e+01 1.871805735404111601e+02 7.661671528659940833e+00 1.381443242364785249e+02 -3.551771841344564251e+01 9.312547491293034341e+01 -7.337190653625907544e+01 -1.159813197705734353e+02 5.079196154945083919e+01 -5.963056038615044230e+01 -8.070852135272873795e+01 7.497273344289629904e+01 6.618453807863141414e+00 -9.701156780733435880e+01 -1.548928379722122486e+02 1.522087051793670867e+02 -9.180066127752675698e+01 -2.403643166674359843e+00 1.236661274646965154e+02 5.979278793033775230e+01 -1.011752961521396230e+02 1.093650263173127613e+01 2.907210971451329442e+02 5.498701344572307903e+01 -1.626784109448173581e+02 -4.921127403663976452e+01 -6.349027452798029003e+01 9.944751162895318686e+00 1.110095774319040203e+02 -1.067995707328276467e+02 2.225436906062883224e+01 1.347555957905400135e+02 1.939446939565907613e+01 -2.181976340794944065e+02 4.995618919044356687e+01 7.797453507253982252e+01 -1.401939502647960190e+01 3.389599624205850148e+01 1.308096830292210799e-01 2.322969345647518580e+01 2.865942666221759083e+01 1.196664845380540214e+02 1.012722996522447261e+02 1.604095296405038340e+01 1.540000477457307682e+02 -6.615813179958914247e+01 2.548840339741987862e+02 6.719551668407014233e+01 1.464217721043794143e+02 -2.271400884908584317e+01 9.307960937151362657e+01 -5.071234822878040660e+01 -1.512986419159937839e+02 2.708317766061360743e+01 9.831030978494382566e+01 -9.058468105495650491e+01 -1.082775033552210999e+02 -6.878775338763732350e+01 3.782197503473713596e+01 -1.181189640842282103e+02 7.727288491637354184e+01 2.903714680568264583e+01 -1.009273479216603704e+02 1.964081430645344710e+02 -1.216435491660772428e+01 -1.051987024488838074e+02 -1.382470668771998845e+01 -2.113022375920702345e+01 -1.450131228955254699e+02 -4.140665861634005296e+01 6.359473969870472132e+01 1.362567983419395716e+02 2.999921120158100507e+01 2.768769520132461182e+01 4.631861051824658659e+01 -3.699087993818522335e+01 -1.505519145322407155e+02 1.638057840796573217e+01 3.206618157094359844e+01 1.376329113213592450e+02 -1.029470447349008566e+01 -7.875231909933708607e+01 7.571714782306408154e+01 1.038669071520915699e+00 3.306224346699501382e+01 1.440777889019143743e+02 -1.836493116878176579e+02 -9.603103870723909097e+01 1.290047119262762294e+02 -2.168273733323109411e+02 -1.848368227310077714e+02 9.143401616714947977e+01 1.547706265974261157e+02 6.368859878207146608e+01 -4.462350105292904878e+00 1.565749223979336762e+02 -2.205752704751149906e+02 1.076959584029498984e+02 4.259556995179934091e+01 1.277192019664693845e+02 -1.895416996493825081e+02 1.071310263025428924e+02 -2.844192150618135528e+01 -1.343758580999835885e+02 -5.354632515317778285e+00 -9.287798246310681805e+01 -1.642139150005548132e+01 -4.287330756910236573e+00 -1.238107376686699013e+02 -1.239387177362416992e+02 -6.289465202349607154e+01 -1.295829319979305865e+02 2.020154626289948396e+02 -1.618082596833443176e+02 -5.041583280315212079e+01 1.734030287504752721e+02 3.409385937487522966e+01 -2.974683280622020902e+02 -1.277055869469703708e+02 3.570941429747551155e+01 5.491515606536648164e+01 8.664179654354196458e+00 -1.554196508684217122e+02 3.586760110547517399e+01 7.493172147143995154e+00 -7.470019232451136304e+01 2.037183498977487943e+02 2.036242132115462198e+02 4.347197533513576850e+00 -2.095668839760308799e+02 1.266275222896208277e+02 3.093317552749792654e+01 3.754942714176137120e+00 7.702803387023597281e+01 -2.084987470626695654e+02 -1.387358445972957952e+02 1.417600443952346723e+02 1.101866130212215182e+02 5.320714042395632504e+01 1.439611558167744363e+02 -1.791539870161248587e+02 -2.052596417386284955e+01 -1.310955203061311067e+02 4.378263329852030239e+01 -1.043793387628955571e+02 8.747204611639901373e+01 -3.403233848258174277e+01 1.244304719087969957e+01 1.783072481246345262e+02 2.861965012415789644e+01 -2.648796811275976779e+02 -1.269755455922669825e+02 -8.377307232687583394e+01 1.588895975278608717e+02 1.259536064311159542e+01 -5.406023038265338698e+01 3.055223105346748369e+01 6.283975522163041916e+01 -3.979003160976310483e+01 1.080488457201919630e+02 -1.012324143584834388e+02 4.945678238207658950e+01 1.124802830564483145e+02 -3.559780904554124703e+01 -9.860916825157400467e+01 -1.139630565945705740e+02 1.203507616815696650e+02 -4.989749445439290554e+01 1.975247181605451203e+02 5.748761445089319011e+01 1.115095637247975588e+02 1.852960335078002743e+02 8.605616056489957089e+00 -1.248804394320600011e+02 -1.665992657509652020e+02 -1.147639088516779111e+02 4.267195824926854897e+01
-1.338046661410678340e+01 -4.716861986446608590e+00 1.016691978851755778e+02 -2.248033299029164880e+02 1.525584342133780638e+02 6.236486296016573760e+01 1.493356729709829835e+02 -1.267752299804512006e+02 -2.737367108786286085e+00 -2.363744857940610089e+01 -2.154361367678102113e+02 3.214331964282261822e+01 -1.799034345100339394e+01 1.200381919036107803e+02 -1.227412645700113814e+02 6.057045455392890432e+01 1.230027108905057958e+02 -4.509252691822974413e+01 -4.876438047623627625e+01 -2.656817574010089089e+01 6.055667199221197450e+01 6.196307046339961033e+01 3.181202622033627847e+01 -2.282444539072219811e+02 -5.068660739559155815e+01 8.979178389124916748e+01 9.717804216390215188e+00 -1.015379454378009072e+01 -6.530943527590140718e+01 -1.516217471311944287e+01 7.198263288261975390e+01 -1.427189246822463531e+02 -6.074986083783977620e+01 8.833530960271003707e+00 2.036536968104922494e+02 2.081100664289556903e+02 -3.146197468505122430e+01 5.485205859509806459e+01 -2.743635732864458943e-01 -1.370807614484271824e+02 9.420933692973200380e+01 1.052603967665630620e+02 1.065111372353654389e+02 1.148020764503344537e+01 6.075462537072971969e+01 4.723504702041886816e+01 3.816743776155753665e+01 2.877392055667862891e+01 1.082458108712663005e+02 8.806221114039267661e+01 6.439365423824369827e+01 1.599498395316504684e+02 2.430517602401253328e+02 1.919385658242397881e+02 -5.802930134508651605e+01 4.835120076559473290e+01 -6.310633847528468721e+01 5.537787872031280045e+01 -1.885713270489454771e+02 5.545309010922790094e+01 -2.009827110123527234e+02 -1.655777546200999382e+02 1.270041149878458064e+01 -9.061451478492260847e+00 1.663998630916995296e+02 -2.040663777219780570e+02 7.389165122763783700e+01 2.255421412205872969e+02 -7.182862986224085589e+00 -1.910913439131568339e+02 3.493890574881318400e+01 1.935816536962556711e+02 -5.997028947570200330e+01 -2.615497073672190140e+02 -1.006734375820604299e+02 8.661733661316487698e+00 -2.258626196580268868e+02 3.142311744996886347e+01 -1.761816208332878375e+02 -1.822220744546202411e+02 -5.605935624033590159e+01 1.497432765288988605e+02 6.827076380685082313e+01 1.041260330986413152e+01 -8.703974698146465983e+01 -4.185332504130857245e+01 6.263424896900173167e+01 -2.280069278954047718e+02 5.316335722900233662e+01 -7.372119825014186745e+01 -7.674362429318300372e+01 -1.737466341457456735e+02 6.397733703262575489e+01 9.117588336916310254e+01 -1.595609572460010099e+02 1.698169822503189721e+02 -3.922844446188912571e+01 -1.662940451894202099e+01 8.607409186934711443e+01 1.536723045248220387e+02 2.131238663710721326e+01 1.489040232895812608e+02 -1.815105675216233294e+01 -8.919505504224908066e+01 -1.929475871643214191e+01 9.940994221469429704e+01 4.546631407438371753e+01 9.890306982075041731e+01 9.544514676244408236e+01 -8.396061559310879829e+01 -1.717915948432608957e+02 1.244223345950354087e+02 5.486050866905440415e+01 1.633198359556146784e+01 3.092258373432188989e+01 -6.868650731430052758e+01 9.712003071418975253e+01 9.084563527008920403e+01 -1.381920797294573511e+01 -7.204817668024202248e+01 3.113004938165688884e+01 6.343855409054821592e+00 -6.225250232226172642e+01 1.715009133130525925e+02 -3.338084542961698986e+01 1.230352608344296073e+02 -7.094636866008593756e+01 3.884179876589081459e+01 -3.655461058750245940e+01 9.053311653217760124e+01 2.377335821125777215e+01 1.169821300859012894e+02 -1.174098336897017845e+02 7.526077575717057755e+01 1.250289414342764331e+02 -4.528089093905650486e+01 7.671271098033455971e+00 -1.281140098457499477e+01 1.182513290368142549e+02 3.573943363372271698e+00 1.708636914694393170e+02 -1.432497640574972593e+02 1.182171253972995828e+02 -9.255974649828436895e+01 9.702022581237108056e+01 -1.388878220799685437e+02 2.992198898799186679e+01 2.507374224785348460e+01 1.849183994524091990e+00 3.681162049523667434e+01 4.652503274806475275e+01 -1.261110204149344582e+01 1.093853151841994631e+01 1.096045492270131092e+02 1.290649955201139676e+02 -8.789571252017189806e+01 -5.500436067472870150e+01 4.805436766701564721e+01 1.567903408723333447e+00 -1.389321070653207926e+02 -5.588234863589097046e+01 -3.599008735383048929e+01 4.964772989813281612e+01 -6.654409080762040674e+01 2.327882586809299070e+01 1.627888418838128644e+02 -8.068768290618481842e+01 8.202322114343789394e+01 8.540377964067505445e+01 1.139402944188440969e+01 1.253820208868234403e+02 6.388949411037589243e+01 1.707567494093547964e+02 -3.509979372218133165e+01 1.143217552159270554e+02 5.646121589790185169e+01 -1.635038291970325730e+01 2.075797388578323819e+02 -1.411880077780669183e+02 4.972098824415802909e+01 -1.908438062055821831e+02 -8.566984233721404962e+01 4.174863530221653463e+01 -7.349977531957830479e+01 -1.586723234277294523e+02 2.029570924481920144e+02 -8.735871587960956219e+01 -4.836836267786564036e+01 -4.714329152267545453e+01 1.240200250334819998e+02 1.984390840463501604e+02 6.597657336303760189e+01 1.490147796634349504e+02 2.236082343695422026e+02 -1.663121833845567776e+00 1.660216286876885192e+02 7.224409085693802979e+01 1.940323408704626047e+02 -1.281743508767191031e+02 -1.210584419316841576e+01 6.453471107568462983e+00 1.935978555779949488e+02 -9.265219662718386928e+01 -6.161323761611185290e+01 -5.397078076615895981e+01 -1.365094111138050437e+02 4.750766212425967971e+00 -1.028779584490732475e+02 1.570441649784402784e+02 2.402887436304764179e+01 1.224630794043846294e+01 7.369785230746255422e+01 -5.038554328049624331e+00 1.191821744838837560e+02 -1.618863930783763578e+02 4.626974611893169964e+01 -1.741470534712376264e+02 1.196796600906525896e+02 9.784887181601047246e+01 -6.861688512544070306e+01 4.765266553136623173e+01 2.427089509856349707e+02 -3.103436617962243105e+01 4.246264834699108803e+01 -3.329754568227742340e+01 5.904693734070512789e+01 6.552863366802750988e+01 -6.388313164426595137e+00 1.038885052039769477e+02 1.034731841985700811e+02 -1.975848159352240430e+02 -1.561724473548471792e+02 -1.220917965162983450e+02 -9.640606962931190793e+00 -1.526572893493300285e+02 1.177454955739015077e+02 1.124621263499768276e+02 6.008421880133118265e+01 1.137148579084323607e+01 1.606826265823230244e+02 8.555339433865565013e+01 6.876721471177650358e+01 -1.035726082570856335e+02 1.551977241560306027e+02 -3.636544448360265136e+00 1.113757348060455996e+02 8.979629447818608057e+00 3.743551131415628674e+01 -7.713147934058639521e+01 -9.245323550136443203e+01 7.291267338790720487e+01 -3.896664982604516769e+00 1.489740711020457979e+02 -1.281172925390645645e+01 -2.913124450431367141e+00 4.669354737040173120e+01 2.306040412470323275e+01 1.439818978169260220e+02 1.488362470101650992e+01 3.648098979341206416e+01 -1.574825348280906212e+02 6.702915965046933877e+01 1.360280623180703401e+02 -1.800229470673180643e+01 -2.319712193459503453e+02 8.585529959302732550e+01 1.383623427884277532e+02 2.062229782454500082e+01 1.918666778287275747e+02 -4.193496401803735729e+00 4.352893771225403441e+01 -4.419426667819886489e+01 -1.405784415438868677e+02 5.673326577852581210e+01 -4.808796557674192229e+01 -8.211675258086927442e+01 4.173019011072710072e+01 -1.870909665084364235e+02 7.261348112858929937e+01 1.663315220380270318e+02 -1.024217947598575194e+02 1.749526114237401089e+02 -9.879061569605124760e+01 -6.057572834093796210e+00 -1.062874532200284960e+01 7.743042516641693851e+01 -4.706457141411932810e+01 -1.089528850848867023e+02 -8.943989800838403426e+01 1.472369263556775536e+02 5.968540568718960770e+01 -1.329911131293678181e+02 4.488627770805273087e+00 4.385124014359993083e+01 8.332979449631022817e+01 -4.070104042291227842e+01 6.053391311158256372e+01 -6.958010945232733491e+01 -1.637942367852923553e+02 -3.493701460130390046e+01 1.421886646888838186e+02 -1.143142660730938331e+02 -6.480852991886432157e+00 -1.642821319765594410e+02 -4.801426666791616782e+00 -1.470565776675507266e+02 3.314996834887842425e+01 6.060923362181369356e+01 -5.072516807191374966e+01 -8.303659773508483966e+01 5.671338486492884634e+00 7.494729422612704184e+01 -6.827116873373525152e+01 1.356913401893353353e+02 1.062492016391775707e+02 -1.285406044700985717e+02 -1.061754548371573605e+02 1.359950014702627072e+02 7.182195797796912018e+01 1.511624176195637119e+02 1.008812240047432311e+02 8.168184908454661297e+01 -6.062351136685860808e+01 -8.226412873479951315e+01 -7.751921932682697047e+01 2.056393654235833424e+02 3.068472234501202678e+01 -2.502484921376500893e+01 -6.889427650336412512e+01 -5.027717656582237282e+01 -1.318159940178949228e+02 -1.658194482391465030e+01 -1.756199275277789980e+02 1.251650122261674483e+02 4.607237022247882408e+01 -1.153588549185760996e+02 -4.842651310809088017e+01 1.198614457572661820e+02 -9.707726624805448523e+01 1.029105638983810138e+02 -1.185466893163263649e+02 -1.177284387098747764e+01 -9.557676303151517061e+01 8.976965798421777265e+01 -4.251403107593685604e+01 1.034792016231511269e+01 2.934045516771164586e+01 -1.267339074868771291e+02 1.251000962973704311e+01 4.834900328855914609e+01 -2.242741313909810685e+01 -6.877542373722718594e+01 2.025689831711064244e+02 8.647296228390973738e+01 4.715357076178788276e+01 -3.143015609448915626e+01 8.026329924900839785e+01 1.676284577425275870e+02 -9.231161728490245366e+01 2.094778469372285201e+02 -1.331150846719324079e+02 -1.839559110360600869e+02 1.518793770804908831e+02 -2.339650996243543091e+02 -1.002538906793140283e+00 -2.449305001958720993e+02 -1.529358936853641353e+02 7.175420696704536283e+01 -1.456496618980659719e+02 5.838734458166435815e+01 1.098807191054405905e+02 -1.603881541440516969e+02 -3.014559810354679215e+01 7.539801249681534046e+01 1.339313303413204324e+02 -1.860746944273316785e+02 8.745187962589268693e+01 -9.794724646781210708e+01 -9.879915346508044038e+00 -1.389325086979094515e+01 -7.958410375954933613e+01 -9.031668963595356558e+01 1.813583400099786047e+02 -2.166845451777245302e+01 1.328479228337939189e+00 1.302309981714677463e+02 -8.668547781450860157e+01 -3.443351913993387114e+01 -1.076894777726857484e+02 -4.887178683094226983e+01 5.191027616404407574e+00 5.944509841723137100e+01 -1.352799739127492558e+02 2.376449552505913800e+02 -5.404019989068265772e+01 1.230297780055895629e+02 -4.898004437517350595e+01 1.202067957171671111e+02 1.395706316738933594e+02 4.819472792633838054e+01 1.225912415296453730e+02 -4.339959609863709034e+01 1.405475183378636928e+02 -1.571012988774174346e+02 -6.567620051461699404e+01 -6.325251238472002768e+01 2.563757417094589997e+01 -1.630500652365084306e+02 7.289129825078784108e+01 -3.097956994165398115e+01 -8.303039190001655356e+01 9.003751090545122793e+01 -1.518175515375552322e+02 -9.164312211934665697e+01 -5.284472045824205821e+01 3.324400793829300227e+01 1.304511286516808184e+02 1.174431945217701809e+02 6.947216294185533059e+01 -1.625298776764466213e+00 1.756881101025743988e+02 1.231134227951437623e+02 -9.487679394541767408e+01 -7.854050920622087517e+01 5.572036452174265264e+01 1.004134311753623265e+01 9.844145299657895976e+01 1.674379081359371071e+02 7.090971421997947743e+01 2.449089005119155971e+01 -1.026552529285475686e+02 1.725997925858648898e+02 -1.141967296019150240e+02 -1.660151436779411824e+02 6.600234107542642903e+01 1.119547095954505380e+02 1.970734007116726261e+01 -1.394177398230366407e+02 2.986260856773670369e+01 4.260246501357750759e+01 -3.087228384252888591e-01 1.314163717371620521e+02 9.792676614006870750e+01 1.716715042482399411e+01 7.862644721705768802e+01 -1.074147879924972528e+02 -6.320088120258756881e+00 9.865762610711509240e+01 2.978015726646708217e+01 -6.524931880373765125e+01 1.986532319190528710e+02 2.318190213441067158e+02 -1.259178087524523875e+02 -2.768211622948911455e+01 -2.108330540616738631e+02 -7.238653630081662982e+01 1.570638201830433616e+02 3.424949513096518405e+00 -7.117405539150649929e+01 1.642351341999954570e+02 -6.268254488415922765e+01 -1.609963306696118650e+02 1.368807200750498509e+02 -6.738801504403393494e+01 3.452436047898913785e+01 8.655993578098919272e+01 1.380605737367984709e+01 -2.387267705688533965e+02 4.236891598898738920e+01 -6.134886255441627689e+00 9.025422632579757476e+01 -2.360706020749962875e+01 1.013720995723241742e+02 1.699282325262239013e+01 -8.493708663502042100e+01 -2.051182814865535065e+01 -1.755427898746071946e+02 1.152089034253070992e+02 2.531334763455307879e+01 -4.170865637949878391e+01 -5.190992194792556802e+01 -6.297490163946523722e+01 4.116900572136287195e+01 1.609723555444261081e+02 1.329408380164146024e+02 4.315313162601691488e+01 -1.982080225222143213e+02 -3.886067400751716150e+01 4.388541125953717170e+01 1.175562316286770681e+02 8.739214620859512195e+01 1.548691790600497598e+01 -1.863746705418723764e+02 1.319627939342755383e+02 -2.241603738388594138e+02 -2.061774237818835047e+02 -1.856183951561665824e+00 -7.391058898078317441e+01 -2.411386219456732505e+01 8.729018407785594036e+01 5.602366065137374562e+01 -1.114174350416438273e+02 -1.517125500107657672e+02 1.462475461550658373e+01 1.239153025903190155e+02 2.075169618297926633e+01 -5.681270752438159377e+01 -5.169792718124062247e+01 -1.181429194591565590e+01 1.616651086182511676e+02 2.241939540481158843e+01 -1.770836603798154556e+02 1.308067439378402241e+02 -6.810965461709133706e+01 -4.259719137748066764e+00 1.570476930746911819e+02 -5.335365731815762302e+01 -1.996653477607944538e+01 -1.120293112166092442e+02 -6.131115422293023087e+00 -2.433609678155822920e+01 1.343382066291387105e+02 1.224884446986824855e+02 6.892345531591779206e+01 6.670313014133203922e+01 -1.908661302232204449e+01 1.379226688808466577e+02 -1.149809201446726803e+02 -4.350947107101215572e+00 -9.286253739129080031e+01 1.602802764910297810e+02 7.439841576776993293e+01 5.273250488044056539e+01 8.451273787878118782e+00 -5.432903245161301697e+01 3.506707027969144264e+01 6.893609053015172350e+00 3.654923385672194325e+00 2.460163686994344800e+01 6.096071622120866351e+01 1.736207303130731248e+02 -3.958408412520421393e+01 -5.302275383962771116e+01 6.810058104850041616e+01 1.179598076518386733e+02 -1.305919242597806651e+01 9.372472170652217471e+01 1.060581665061212533e+02 2.148827638328592400e+02 -8.825112577549786863e+01 -1.251088838814204109e+02 -2.919478877183099996e+01 6.334726082013505533e+01 -1.034438236806723843e+01 1.095138733793418453e+02 3.795276392352909056e+01 -1.657885860748433799e+02 4.593623779284297370e+01 -9.118870460326741068e+01 -1.379078848215990263e+02 1.370814334541948085e+02 -7.746653242037886855e+01 6.025805352560982442e+01 1.133293164376724320e+02 -1.009186053731663293e+02 2.390579163936446250e+01 -7.350317971502063585e+01 4.100240718426219644e+01 -1.166929770855592778e+02 6.269550630290476079e+01 5.566335633858630416e+01 4.010191868776393775e+00 8.561271869645467802e+01 -1.557234814094620674e+02 7.776270322890121633e+01 -2.975711620280604919e+01 -1.707532364285798394e+02 9.547738740870626373e+01 2.477374675081116706e+01 -1.982837094880918869e+02 2.377533665387011581e+02 -5.340644674607437636e-01 1.063037133016778597e+02 -1.218960862117765203e+02 -1.962863080490835728e+02 -9.431554051964667451e+01 2.494077239725747575e+00 1.444465533687033201e+02 4.065693191369949666e+00 -9.658888227515397773e+01 5.096615418488310922e+01 1.385161561608890395e+02 6.569177455879099625e+01 -5.231015920078742454e+01 -5.977125223682335786e+01 8.541612754920035400e+01 3.109377525105708528e+01 -1.976293871430858076e+02 -2.095722451105061523e+01 1.708550375674383304e+02 9.990719707917372716e+01 -5.792843604465540608e+01 -1.130035614868151157e+02 -4.314270077821409188e+01 -4.859584520787765172e+01 -1.156808804150722807e+02 -1.869909900850252882e+01 -4.615502951685077448e+01 -1.148319940710675979e+02 -1.332801168726782066e+02 -2.720525316843714947e+01 -1.270017107979519153e+02 -1.351964956872774053e+02 -3.874228256799596437e+01 -5.595545042954626780e+01 -1.121763035759708060e+02 1.949564503043349930e+02 1.103221572243772641e+01 -2.946886047607467773e+01 -1.781872859111908980e+01 8.238844620846424505e+01 1.637330454845810124e+01 2.623335956601990304e+01 -2.231392527281485272e+01 -4.839802448043952410e+01 2.191413135839449566e+01 -1.522331799117628464e+02 -1.667369227581511097e+02 -9.473397647876196004e+01 -1.998758398800220846e+02 -9.387217177313078764e+01 8.988406998170350448e+01 6.428401951935153136e+01 -2.730194657994979934e+01 6.364729105893130878e+01 -1.639511404768531122e+02 -4.272734705425151702e+01 -1.216158285969283384e+02 -6.991561461219264118e+01 2.208976782584249179e+02 -2.150029930050419296e+02 2.149852137117539428e+02 2.619397993740393460e+01 -5.916121100086700579e+01 9.663712480887828349e+01 1.299603442912539037e+02 -5.434935376433851673e+01 -2.133555152339853862e+02 -1.561593286949904780e+02 1.071019131643881082e+02 8.772947100811002485e+01 -1.420141865651308706e+02 3.348265068489418184e+01 -4.153139722693673264e+01 -8.106408600244729712e+01 -2.976849342845798674e+01 -5.743240072024625675e+01 -9.054440722341509229e+01 -3.563636695361530116e+01 4.669383103149812086e+00 -3.427781428482776960e+01 -4.263925085783021318e-01 -1.505845038105855593e+01 9.635358478624878842e+01 1.330850228597064415e+02 1.379709839804810834e+01 1.757781784137227632e+01 -6.607970496895353563e+01 -2.052850246180418026e+02 3.545975647325378333e+01 -9.608917383536142154e+01 2.704565822628900662e+01 -8.594789666221785751e+00 1.047825067871203997e+00 7.564982563769694934e+01 1.276441166091138513e+02 -7.378692630356253801e+01 3.979797522311606173e+01 -2.019419640096582782e+02 1.011876488543460617e+01 7.359377230411521253e+00 -1.283432216823247813e+02 -3.533194223992398975e+01 -4.642528569900704838e+01 5.002165041879355734e+00 -1.070987713776913637e+02 2.833958434347032096e+01 -1.022794881053104774e+02 5.880228629170180454e+01 7.104606192127403119e+01 3.861739937139176249e+01 -3.039308234868328285e+01 1.125170477897368073e+02 6.394047634970721816e+01 8.376415445068505505e+01 -7.014066085040289522e+01 2.127365777495328203e+01 1.339118436859697283e+02 -6.120682628851653106e+01 -7.234741926806697698e+00 3.349431334322821385e+01 -1.343991078768316356e+02 1.024012069465754564e+02 9.375366406094920535e+01 -1.058261171949780390e+02 -8.618763003397639011e+01 -5.809188491391170572e+01 -4.763907750223102511e+01 -1.677173486622080532e+02 -1.422221545548333665e+02 -1.385786897729482234e+02 1.105283225247514451e+02 6.250408079475641188e+01 1.668259277416800899e+02 7.520577963632248952e+00 -8.968827568662379690e+01 1.957329998286134654e+01 1.446513423356930517e+01 -6.637213376695837042e+01 7.740689001467308117e+01 1.234063790699422469e+02 1.045910846140319883e+01 1.499041638986888358e+02 2.353535777855856992e+01 1.159560305567007106e+02 1.578695243438056472e+01 -2.170871962111517348e+02 2.281435579963971918e+02 -5.112322919891904149e+01 -1.557967051345024458e+02 -7.018112281834460475e+01 -4.485814682223995220e+01 4.297166864297999211e+01 2.658813859109031696e+01 4.750665850272811497e+01 -7.699504552808656399e+01 1.270690850212201326e+02 -8.954844055101693812e+01 -7.275105374558640037e+00 1.478483190625522070e+02 1.137472906858610457e+02 6.013578183004090505e+01 -1.835408399401459860e+02 2.636316476073188753e+01 1.455197652569668776e+02 2.428438126981456335e+01 1.010569834397305442e+02 1.101800289751440687e+02 -2.187195300151450681e+02 7.957178095466559853e+01 -5.972678279624537367e+01 -2.324919415138229795e+02 9.143085650484019311e+01 2.537963297154567499e+01 -1.254370344089633704e+02 -6.011925047217646778e+01 1.423218319471861832e+02 1.510185579511824301e+02 -7.749928180397728283e+01 -1.305109564917604530e+02 -8.513008434564667937e+01 -1.690506696311959445e+02 1.991330814382425274e+01 3.856591228260824522e+01 -1.720168786573882969e+01 -1.256324426822264506e+01 -9.077201843977518081e+01 -8.958759096437158576e+01 -2.495059264000212451e+01 1.352082680972306719e+02 1.374561619838432875e+02 8.177897678297217965e+01 9.776196471127023813e+01 -7.910516491254708171e+01 -1.814745159863568915e+02 -1.330744006720892436e+01 -2.327466045277155260e+01 -7.122057311633949439e+01 1.508439526550477749e+00 7.330236606139602884e+01 -5.309226043484704149e+01 2.469122792664293442e+01 7.941390478772480321e+01 7.030335175232532663e+01 1.108438961610603002e+02 -1.496370769283950040e+02 3.976323529148677238e+01 8.355976289175389127e+01 9.504142592434824621e+01 5.925675165031825031e+01 -1.035482829089657884e+02 1.373500755469757735e+02 1.278289054541292415e+02 9.611448759777073292e+01 1.018297515082652183e+02 -8.448249358871380821e+01 -1.492247796139681704e+01 -1.295603565732087858e+01 7.729880116969241044e+01 6.515837069841033724e+01 5.611460185943539614e+01 9.788427538445652942e+01 1.168097355011524598e+02 1.242166769754214215e+02 -6.512593690704005667e+01 8.082847058985394995e+01 6.544848167361749347e+01 -1.180067554079668071e+02 1.319947820835434129e+02 -1.007560160357467005e+01 -2.800075790120594021e+01 1.999016270524020342e+02 8.875042213652163525e+01 1.245149602157131739e+02 -1.448423720250690678e+02 -1.583651738332215757e+02 -1.543729208785715628e+02 -1.226770144415805248e+02 -4.447101685988818076e+01 1.103205814051443241e+02 -1.694258445201837446e+02 3.269725293872168237e+01 1.450804771378690816e+02 -5.964634794506942939e+01 -9.185053839876621851e+01 -3.530111140500610389e+01 1.366833713673846944e+02 2.286732424652446696e+02 -6.703358347951893847e+01 1.993566311400165603e+01 -2.788489953181445102e+01 6.893848781600370046e+01 6.067664904735602249e+01 -2.146952845332178867e+02 -8.928178486117805335e+01 1.385531570580744471e+02 1.408208620318723661e+02 9.523729507263331584e+01 -5.016768164076484737e+01 -7.639576896194630251e+01 -4.577486728696059259e+01 -1.778958459472213178e+02 7.173606514525876321e+01 -2.588648679541536168e+01 1.677439292535093216e+02 -2.814964145408809060e+01 -3.171608863782052481e+02 1.461069607036328364e+02 5.075641678740917229e+01 -1.189923289358239771e+02 -2.232229525792438452e+01 3.562721775063656082e+01 -2.094960689955999555e+02 -1.153099835879525017e+02 -1.105597166643093487e+02 -5.696285243344389926e+01 6.338867450129807679e+01 -1.663172404244654956e+02 1.089429495113615758e+02 -5.481694948357092301e+01 2.930287218114463688e+00 -1.346681250759266675e+02 -1.045493544908372030e+02 1.775337322644194273e+02 8.748973657598203602e+01 -4.264402293341771610e+01 3.754852073372576626e+01 -2.833882111590705577e+01 4.363167864247356675e+01 -1.056541634779859749e+02 9.980109684549339022e+01 5.102730756720023209e+01 -1.201156163669798076e+02 1.179498487957215929e+02 -4.965527742247562060e+01 1.009477145194753973e+02 -4.992735065055553889e+01 8.931857218967790857e+01 -1.550291827313969293e+02 1.441976838665424339e+02 2.503931217650002239e+01 1.017112632364724050e+02 1.318127952121494957e+02 -1.482329299372740365e+02 -8.683055031694877357e+01 -1.067856302646059703e+02 6.762130335780297230e+01 -1.732448878614423506e+02 1.531507795322966956e+02 1.440093734522822047e+02 5.358669833706296970e+01 -8.585785425779343427e+01 5.770010207670085833e+01 -1.085124819345469263e+02 -1.109018888645053558e+01 3.539762372243947652e+01 -1.858724295380366129e+02 -8.255400005602795943e+01 -1.369402857059797363e+01 1.034252560163797767e+02 -5.079803322553147638e+01 1.099841127080745480e+02 -6.511956529241645342e+01 -2.133758110332519209e+02 -1.084036645596520287e+02 -3.451082362808585913e+01 -6.093835408414575028e+01 3.047901648014729403e+01 5.200267729820932772e+01 6.435460111614694334e+00 2.559925844074573931e+01 -1.187720755455664801e+02 5.450531674332584231e+01 3.304530049057225227e+01 -7.313384750256841471e+01 9.372471416173201675e+00 5.703469407056057605e+01 -9.667546364314290486e+01 -5.579703470123068598e+01 -2.445222437104293789e+01 9.891609393027295027e+01 -1.735859688378639021e+01 4.249055441234260933e+00 -2.311340311399595180e+02 -9.634747475661868066e+01 1.002817338709668888e+02 -9.048704002150800818e+01 3.177610651695001920e+01 3.150026681265538642e+01 3.848074429963016030e+01 6.700960049574035793e+01 -1.799435607804519748e+02 1.459848102100621077e+02 8.259716074778482664e+01 -7.612327921098255956e+00 -8.195204335438214116e+01 1.135270412676961485e+02 6.297663912342568437e+01 -2.039412663732479416e+02 -5.111097433678105517e+01 -8.284663445266318149e+01 -5.259978892424491193e+01 -6.284281276663828919e+01 -1.004996461331679285e+02 -6.124620614968402776e+01 1.942367948981554093e+02 -1.732689663529486381e+02 6.643880849095764063e+01 2.814210145208705072e+01 -7.626172521170921925e+01 1.052725433532268973e+01 -3.998060697102915384e+01 3.472854872156589945e+00 -9.752289533048200099e+01 -2.004258855151288969e+02 1.866108826508975937e+01 4.253408728896290114e+01 -1.298813746698412075e+01 -9.176352309274475871e+00 -4.036598266694150539e+01 -1.927370451661649327e+02 -3.110955300880382879e+01 -6.633619018709607928e+01 1.418714227110274884e+01 -1.583844175895890771e+01 9.187431811903478263e+01 -6.396764652855050315e+01 -1.052479808772027638e+02 -3.629491516532051065e+01 -9.162274993061176431e+00 4.621141372364582622e+01 -2.248272355733925920e+01 -7.481116295853529152e+01 -1.610777893187681897e+01 2.037707484464396401e+01 4.821789855306082018e+01 -1.157445132747874368e+02 -1.411402435776282118e+02 2.338274104499702730e+02 -2.215833327694806769e+02 -7.711979909735134697e+01 -4.706064474198696246e+01 1.420038938269894686e+02 6.425277395518574508e+01 2.323472873513406114e+02 2.484965571612312658e+02 -6.328134452557302581e+01 1.314747930539809886e+02 -5.678567506788183294e+01 -4.143406779765246029e+01 -1.022127534050803774e+02 -8.107691658705246596e+01 -7.065784939070110227e+01 -9.035749195582582161e+01 -2.475359545756988950e+02 -2.750741663872686331e+02 1.367894823445179497e+02 -2.693411555254670020e+01 5.408747890336005071e+01 1.328756943801936927e+02
