# 
#                 ----------------------------------------------------
#                 Data from a 3D direct N-body simulation. 
# 
#                 rows are i-particle; 
#                 coumns are :mass, tag, x ,y, z, vx, vy, vz, ax, ay, az
# 
#                 NTHU, Computational Physics Lab
# 
#                 ----------------------------------------------------
#                 Time = 4.099999999999957
1.000000000000000000e+00 2.000000000000000000e+00 3.000000000000000000e+00 4.000000000000000000e+00 5.000000000000000000e+00 6.000000000000000000e+00 7.000000000000000000e+00 8.000000000000000000e+00 9.000000000000000000e+00 1.000000000000000000e+01 1.100000000000000000e+01 1.200000000000000000e+01 1.300000000000000000e+01 1.400000000000000000e+01 1.500000000000000000e+01 1.600000000000000000e+01 1.700000000000000000e+01 1.800000000000000000e+01 1.900000000000000000e+01 2.000000000000000000e+01 2.100000000000000000e+01 2.200000000000000000e+01 2.300000000000000000e+01 2.400000000000000000e+01 2.500000000000000000e+01 2.600000000000000000e+01 2.700000000000000000e+01 2.800000000000000000e+01 2.900000000000000000e+01 3.000000000000000000e+01 3.100000000000000000e+01 3.200000000000000000e+01 3.300000000000000000e+01 3.400000000000000000e+01 3.500000000000000000e+01 3.600000000000000000e+01 3.700000000000000000e+01 3.800000000000000000e+01 3.900000000000000000e+01 4.000000000000000000e+01 4.100000000000000000e+01 4.200000000000000000e+01 4.300000000000000000e+01 4.400000000000000000e+01 4.500000000000000000e+01 4.600000000000000000e+01 4.700000000000000000e+01 4.800000000000000000e+01 4.900000000000000000e+01 5.000000000000000000e+01 5.100000000000000000e+01 5.200000000000000000e+01 5.300000000000000000e+01 5.400000000000000000e+01 5.500000000000000000e+01 5.600000000000000000e+01 5.700000000000000000e+01 5.800000000000000000e+01 5.900000000000000000e+01 6.000000000000000000e+01 6.100000000000000000e+01 6.200000000000000000e+01 6.300000000000000000e+01 6.400000000000000000e+01 6.500000000000000000e+01 6.600000000000000000e+01 6.700000000000000000e+01 6.800000000000000000e+01 6.900000000000000000e+01 7.000000000000000000e+01 7.100000000000000000e+01 7.200000000000000000e+01 7.300000000000000000e+01 7.400000000000000000e+01 7.500000000000000000e+01 7.600000000000000000e+01 7.700000000000000000e+01 7.800000000000000000e+01 7.900000000000000000e+01 8.000000000000000000e+01 8.100000000000000000e+01 8.200000000000000000e+01 8.300000000000000000e+01 8.400000000000000000e+01 8.500000000000000000e+01 8.600000000000000000e+01 8.700000000000000000e+01 8.800000000000000000e+01 8.900000000000000000e+01 9.000000000000000000e+01 9.100000000000000000e+01 9.200000000000000000e+01 9.300000000000000000e+01 9.400000000000000000e+01 9.500000000000000000e+01 9.600000000000000000e+01 9.700000000000000000e+01 9.800000000000000000e+01 9.900000000000000000e+01 1.000000000000000000e+02 1.010000000000000000e+02 1.020000000000000000e+02 1.030000000000000000e+02 1.040000000000000000e+02 1.050000000000000000e+02 1.060000000000000000e+02 1.070000000000000000e+02 1.080000000000000000e+02 1.090000000000000000e+02 1.100000000000000000e+02 1.110000000000000000e+02 1.120000000000000000e+02 1.130000000000000000e+02 1.140000000000000000e+02 1.150000000000000000e+02 1.160000000000000000e+02 1.170000000000000000e+02 1.180000000000000000e+02 1.190000000000000000e+02 1.200000000000000000e+02 1.210000000000000000e+02 1.220000000000000000e+02 1.230000000000000000e+02 1.240000000000000000e+02 1.250000000000000000e+02 1.260000000000000000e+02 1.270000000000000000e+02 1.280000000000000000e+02 1.290000000000000000e+02 1.300000000000000000e+02 1.310000000000000000e+02 1.320000000000000000e+02 1.330000000000000000e+02 1.340000000000000000e+02 1.350000000000000000e+02 1.360000000000000000e+02 1.370000000000000000e+02 1.380000000000000000e+02 1.390000000000000000e+02 1.400000000000000000e+02 1.410000000000000000e+02 1.420000000000000000e+02 1.430000000000000000e+02 1.440000000000000000e+02 1.450000000000000000e+02 1.460000000000000000e+02 1.470000000000000000e+02 1.480000000000000000e+02 1.490000000000000000e+02 1.500000000000000000e+02 1.510000000000000000e+02 1.520000000000000000e+02 1.530000000000000000e+02 1.540000000000000000e+02 1.550000000000000000e+02 1.560000000000000000e+02 1.570000000000000000e+02 1.580000000000000000e+02 1.590000000000000000e+02 1.600000000000000000e+02 1.610000000000000000e+02 1.620000000000000000e+02 1.630000000000000000e+02 1.640000000000000000e+02 1.650000000000000000e+02 1.660000000000000000e+02 1.670000000000000000e+02 1.680000000000000000e+02 1.690000000000000000e+02 1.700000000000000000e+02 1.710000000000000000e+02 1.720000000000000000e+02 1.730000000000000000e+02 1.740000000000000000e+02 1.750000000000000000e+02 1.760000000000000000e+02 1.770000000000000000e+02 1.780000000000000000e+02 1.790000000000000000e+02 1.800000000000000000e+02 1.810000000000000000e+02 1.820000000000000000e+02 1.830000000000000000e+02 1.840000000000000000e+02 1.850000000000000000e+02 1.860000000000000000e+02 1.870000000000000000e+02 1.880000000000000000e+02 1.890000000000000000e+02 1.900000000000000000e+02 1.910000000000000000e+02 1.920000000000000000e+02 1.930000000000000000e+02 1.940000000000000000e+02 1.950000000000000000e+02 1.960000000000000000e+02 1.970000000000000000e+02 1.980000000000000000e+02 1.990000000000000000e+02 2.000000000000000000e+02 2.010000000000000000e+02 2.020000000000000000e+02 2.030000000000000000e+02 2.040000000000000000e+02 2.050000000000000000e+02 2.060000000000000000e+02 2.070000000000000000e+02 2.080000000000000000e+02 2.090000000000000000e+02 2.100000000000000000e+02 2.110000000000000000e+02 2.120000000000000000e+02 2.130000000000000000e+02 2.140000000000000000e+02 2.150000000000000000e+02 2.160000000000000000e+02 2.170000000000000000e+02 2.180000000000000000e+02 2.190000000000000000e+02 2.200000000000000000e+02 2.210000000000000000e+02 2.220000000000000000e+02 2.230000000000000000e+02 2.240000000000000000e+02 2.250000000000000000e+02 2.260000000000000000e+02 2.270000000000000000e+02 2.280000000000000000e+02 2.290000000000000000e+02 2.300000000000000000e+02 2.310000000000000000e+02 2.320000000000000000e+02 2.330000000000000000e+02 2.340000000000000000e+02 2.350000000000000000e+02 2.360000000000000000e+02 2.370000000000000000e+02 2.380000000000000000e+02 2.390000000000000000e+02 2.400000000000000000e+02 2.410000000000000000e+02 2.420000000000000000e+02 2.430000000000000000e+02 2.440000000000000000e+02 2.450000000000000000e+02 2.460000000000000000e+02 2.470000000000000000e+02 2.480000000000000000e+02 2.490000000000000000e+02 2.500000000000000000e+02 2.510000000000000000e+02 2.520000000000000000e+02 2.530000000000000000e+02 2.540000000000000000e+02 2.550000000000000000e+02 2.560000000000000000e+02 2.570000000000000000e+02 2.580000000000000000e+02 2.590000000000000000e+02 2.600000000000000000e+02 2.610000000000000000e+02 2.620000000000000000e+02 2.630000000000000000e+02 2.640000000000000000e+02 2.650000000000000000e+02 2.660000000000000000e+02 2.670000000000000000e+02 2.680000000000000000e+02 2.690000000000000000e+02 2.700000000000000000e+02 2.710000000000000000e+02 2.720000000000000000e+02 2.730000000000000000e+02 2.740000000000000000e+02 2.750000000000000000e+02 2.760000000000000000e+02 2.770000000000000000e+02 2.780000000000000000e+02 2.790000000000000000e+02 2.800000000000000000e+02 2.810000000000000000e+02 2.820000000000000000e+02 2.830000000000000000e+02 2.840000000000000000e+02 2.850000000000000000e+02 2.860000000000000000e+02 2.870000000000000000e+02 2.880000000000000000e+02 2.890000000000000000e+02 2.900000000000000000e+02 2.910000000000000000e+02 2.920000000000000000e+02 2.930000000000000000e+02 2.940000000000000000e+02 2.950000000000000000e+02 2.960000000000000000e+02 2.970000000000000000e+02 2.980000000000000000e+02 2.990000000000000000e+02 3.000000000000000000e+02 3.010000000000000000e+02 3.020000000000000000e+02 3.030000000000000000e+02 3.040000000000000000e+02 3.050000000000000000e+02 3.060000000000000000e+02 3.070000000000000000e+02 3.080000000000000000e+02 3.090000000000000000e+02 3.100000000000000000e+02 3.110000000000000000e+02 3.120000000000000000e+02 3.130000000000000000e+02 3.140000000000000000e+02 3.150000000000000000e+02 3.160000000000000000e+02 3.170000000000000000e+02 3.180000000000000000e+02 3.190000000000000000e+02 3.200000000000000000e+02 3.210000000000000000e+02 3.220000000000000000e+02 3.230000000000000000e+02 3.240000000000000000e+02 3.250000000000000000e+02 3.260000000000000000e+02 3.270000000000000000e+02 3.280000000000000000e+02 3.290000000000000000e+02 3.300000000000000000e+02 3.310000000000000000e+02 3.320000000000000000e+02 3.330000000000000000e+02 3.340000000000000000e+02 3.350000000000000000e+02 3.360000000000000000e+02 3.370000000000000000e+02 3.380000000000000000e+02 3.390000000000000000e+02 3.400000000000000000e+02 3.410000000000000000e+02 3.420000000000000000e+02 3.430000000000000000e+02 3.440000000000000000e+02 3.450000000000000000e+02 3.460000000000000000e+02 3.470000000000000000e+02 3.480000000000000000e+02 3.490000000000000000e+02 3.500000000000000000e+02 3.510000000000000000e+02 3.520000000000000000e+02 3.530000000000000000e+02 3.540000000000000000e+02 3.550000000000000000e+02 3.560000000000000000e+02 3.570000000000000000e+02 3.580000000000000000e+02 3.590000000000000000e+02 3.600000000000000000e+02 3.610000000000000000e+02 3.620000000000000000e+02 3.630000000000000000e+02 3.640000000000000000e+02 3.650000000000000000e+02 3.660000000000000000e+02 3.670000000000000000e+02 3.680000000000000000e+02 3.690000000000000000e+02 3.700000000000000000e+02 3.710000000000000000e+02 3.720000000000000000e+02 3.730000000000000000e+02 3.740000000000000000e+02 3.750000000000000000e+02 3.760000000000000000e+02 3.770000000000000000e+02 3.780000000000000000e+02 3.790000000000000000e+02 3.800000000000000000e+02 3.810000000000000000e+02 3.820000000000000000e+02 3.830000000000000000e+02 3.840000000000000000e+02 3.850000000000000000e+02 3.860000000000000000e+02 3.870000000000000000e+02 3.880000000000000000e+02 3.890000000000000000e+02 3.900000000000000000e+02 3.910000000000000000e+02 3.920000000000000000e+02 3.930000000000000000e+02 3.940000000000000000e+02 3.950000000000000000e+02 3.960000000000000000e+02 3.970000000000000000e+02 3.980000000000000000e+02 3.990000000000000000e+02 4.000000000000000000e+02 4.010000000000000000e+02 4.020000000000000000e+02 4.030000000000000000e+02 4.040000000000000000e+02 4.050000000000000000e+02 4.060000000000000000e+02 4.070000000000000000e+02 4.080000000000000000e+02 4.090000000000000000e+02 4.100000000000000000e+02 4.110000000000000000e+02 4.120000000000000000e+02 4.130000000000000000e+02 4.140000000000000000e+02 4.150000000000000000e+02 4.160000000000000000e+02 4.170000000000000000e+02 4.180000000000000000e+02 4.190000000000000000e+02 4.200000000000000000e+02 4.210000000000000000e+02 4.220000000000000000e+02 4.230000000000000000e+02 4.240000000000000000e+02 4.250000000000000000e+02 4.260000000000000000e+02 4.270000000000000000e+02 4.280000000000000000e+02 4.290000000000000000e+02 4.300000000000000000e+02 4.310000000000000000e+02 4.320000000000000000e+02 4.330000000000000000e+02 4.340000000000000000e+02 4.350000000000000000e+02 4.360000000000000000e+02 4.370000000000000000e+02 4.380000000000000000e+02 4.390000000000000000e+02 4.400000000000000000e+02 4.410000000000000000e+02 4.420000000000000000e+02 4.430000000000000000e+02 4.440000000000000000e+02 4.450000000000000000e+02 4.460000000000000000e+02 4.470000000000000000e+02 4.480000000000000000e+02 4.490000000000000000e+02 4.500000000000000000e+02 4.510000000000000000e+02 4.520000000000000000e+02 4.530000000000000000e+02 4.540000000000000000e+02 4.550000000000000000e+02 4.560000000000000000e+02 4.570000000000000000e+02 4.580000000000000000e+02 4.590000000000000000e+02 4.600000000000000000e+02 4.610000000000000000e+02 4.620000000000000000e+02 4.630000000000000000e+02 4.640000000000000000e+02 4.650000000000000000e+02 4.660000000000000000e+02 4.670000000000000000e+02 4.680000000000000000e+02 4.690000000000000000e+02 4.700000000000000000e+02 4.710000000000000000e+02 4.720000000000000000e+02 4.730000000000000000e+02 4.740000000000000000e+02 4.750000000000000000e+02 4.760000000000000000e+02 4.770000000000000000e+02 4.780000000000000000e+02 4.790000000000000000e+02 4.800000000000000000e+02 4.810000000000000000e+02 4.820000000000000000e+02 4.830000000000000000e+02 4.840000000000000000e+02 4.850000000000000000e+02 4.860000000000000000e+02 4.870000000000000000e+02 4.880000000000000000e+02 4.890000000000000000e+02 4.900000000000000000e+02 4.910000000000000000e+02 4.920000000000000000e+02 4.930000000000000000e+02 4.940000000000000000e+02 4.950000000000000000e+02 4.960000000000000000e+02 4.970000000000000000e+02 4.980000000000000000e+02 4.990000000000000000e+02 5.000000000000000000e+02 5.010000000000000000e+02 5.020000000000000000e+02 5.030000000000000000e+02 5.040000000000000000e+02 5.050000000000000000e+02 5.060000000000000000e+02 5.070000000000000000e+02 5.080000000000000000e+02 5.090000000000000000e+02 5.100000000000000000e+02 5.110000000000000000e+02 5.120000000000000000e+02 5.130000000000000000e+02 5.140000000000000000e+02 5.150000000000000000e+02 5.160000000000000000e+02 5.170000000000000000e+02 5.180000000000000000e+02 5.190000000000000000e+02 5.200000000000000000e+02 5.210000000000000000e+02 5.220000000000000000e+02 5.230000000000000000e+02 5.240000000000000000e+02 5.250000000000000000e+02 5.260000000000000000e+02 5.270000000000000000e+02 5.280000000000000000e+02 5.290000000000000000e+02 5.300000000000000000e+02 5.310000000000000000e+02 5.320000000000000000e+02 5.330000000000000000e+02 5.340000000000000000e+02 5.350000000000000000e+02 5.360000000000000000e+02 5.370000000000000000e+02 5.380000000000000000e+02 5.390000000000000000e+02 5.400000000000000000e+02 5.410000000000000000e+02 5.420000000000000000e+02 5.430000000000000000e+02 5.440000000000000000e+02 5.450000000000000000e+02 5.460000000000000000e+02 5.470000000000000000e+02 5.480000000000000000e+02 5.490000000000000000e+02 5.500000000000000000e+02 5.510000000000000000e+02 5.520000000000000000e+02 5.530000000000000000e+02 5.540000000000000000e+02 5.550000000000000000e+02 5.560000000000000000e+02 5.570000000000000000e+02 5.580000000000000000e+02 5.590000000000000000e+02 5.600000000000000000e+02 5.610000000000000000e+02 5.620000000000000000e+02 5.630000000000000000e+02 5.640000000000000000e+02 5.650000000000000000e+02 5.660000000000000000e+02 5.670000000000000000e+02 5.680000000000000000e+02 5.690000000000000000e+02 5.700000000000000000e+02 5.710000000000000000e+02 5.720000000000000000e+02 5.730000000000000000e+02 5.740000000000000000e+02 5.750000000000000000e+02 5.760000000000000000e+02 5.770000000000000000e+02 5.780000000000000000e+02 5.790000000000000000e+02 5.800000000000000000e+02 5.810000000000000000e+02 5.820000000000000000e+02 5.830000000000000000e+02 5.840000000000000000e+02 5.850000000000000000e+02 5.860000000000000000e+02 5.870000000000000000e+02 5.880000000000000000e+02 5.890000000000000000e+02 5.900000000000000000e+02 5.910000000000000000e+02 5.920000000000000000e+02 5.930000000000000000e+02 5.940000000000000000e+02 5.950000000000000000e+02 5.960000000000000000e+02 5.970000000000000000e+02 5.980000000000000000e+02 5.990000000000000000e+02 6.000000000000000000e+02 6.010000000000000000e+02 6.020000000000000000e+02 6.030000000000000000e+02 6.040000000000000000e+02 6.050000000000000000e+02 6.060000000000000000e+02 6.070000000000000000e+02 6.080000000000000000e+02 6.090000000000000000e+02 6.100000000000000000e+02 6.110000000000000000e+02 6.120000000000000000e+02 6.130000000000000000e+02 6.140000000000000000e+02 6.150000000000000000e+02 6.160000000000000000e+02 6.170000000000000000e+02 6.180000000000000000e+02 6.190000000000000000e+02 6.200000000000000000e+02 6.210000000000000000e+02 6.220000000000000000e+02 6.230000000000000000e+02 6.240000000000000000e+02 6.250000000000000000e+02 6.260000000000000000e+02 6.270000000000000000e+02 6.280000000000000000e+02 6.290000000000000000e+02 6.300000000000000000e+02 6.310000000000000000e+02 6.320000000000000000e+02 6.330000000000000000e+02 6.340000000000000000e+02 6.350000000000000000e+02 6.360000000000000000e+02 6.370000000000000000e+02 6.380000000000000000e+02 6.390000000000000000e+02 6.400000000000000000e+02 6.410000000000000000e+02 6.420000000000000000e+02 6.430000000000000000e+02 6.440000000000000000e+02 6.450000000000000000e+02 6.460000000000000000e+02 6.470000000000000000e+02 6.480000000000000000e+02 6.490000000000000000e+02 6.500000000000000000e+02 6.510000000000000000e+02 6.520000000000000000e+02 6.530000000000000000e+02 6.540000000000000000e+02 6.550000000000000000e+02 6.560000000000000000e+02 6.570000000000000000e+02 6.580000000000000000e+02 6.590000000000000000e+02 6.600000000000000000e+02 6.610000000000000000e+02 6.620000000000000000e+02 6.630000000000000000e+02 6.640000000000000000e+02 6.650000000000000000e+02 6.660000000000000000e+02 6.670000000000000000e+02 6.680000000000000000e+02 6.690000000000000000e+02 6.700000000000000000e+02 6.710000000000000000e+02 6.720000000000000000e+02 6.730000000000000000e+02 6.740000000000000000e+02 6.750000000000000000e+02 6.760000000000000000e+02 6.770000000000000000e+02 6.780000000000000000e+02 6.790000000000000000e+02 6.800000000000000000e+02 6.810000000000000000e+02 6.820000000000000000e+02 6.830000000000000000e+02 6.840000000000000000e+02 6.850000000000000000e+02 6.860000000000000000e+02 6.870000000000000000e+02 6.880000000000000000e+02 6.890000000000000000e+02 6.900000000000000000e+02 6.910000000000000000e+02 6.920000000000000000e+02 6.930000000000000000e+02 6.940000000000000000e+02 6.950000000000000000e+02 6.960000000000000000e+02 6.970000000000000000e+02 6.980000000000000000e+02 6.990000000000000000e+02 7.000000000000000000e+02 7.010000000000000000e+02 7.020000000000000000e+02 7.030000000000000000e+02 7.040000000000000000e+02 7.050000000000000000e+02 7.060000000000000000e+02 7.070000000000000000e+02 7.080000000000000000e+02 7.090000000000000000e+02 7.100000000000000000e+02 7.110000000000000000e+02 7.120000000000000000e+02 7.130000000000000000e+02 7.140000000000000000e+02 7.150000000000000000e+02 7.160000000000000000e+02 7.170000000000000000e+02 7.180000000000000000e+02 7.190000000000000000e+02 7.200000000000000000e+02 7.210000000000000000e+02 7.220000000000000000e+02 7.230000000000000000e+02 7.240000000000000000e+02 7.250000000000000000e+02 7.260000000000000000e+02 7.270000000000000000e+02 7.280000000000000000e+02 7.290000000000000000e+02 7.300000000000000000e+02 7.310000000000000000e+02 7.320000000000000000e+02 7.330000000000000000e+02 7.340000000000000000e+02 7.350000000000000000e+02 7.360000000000000000e+02 7.370000000000000000e+02 7.380000000000000000e+02 7.390000000000000000e+02 7.400000000000000000e+02 7.410000000000000000e+02 7.420000000000000000e+02 7.430000000000000000e+02 7.440000000000000000e+02 7.450000000000000000e+02 7.460000000000000000e+02 7.470000000000000000e+02 7.480000000000000000e+02 7.490000000000000000e+02 7.500000000000000000e+02 7.510000000000000000e+02 7.520000000000000000e+02 7.530000000000000000e+02 7.540000000000000000e+02 7.550000000000000000e+02 7.560000000000000000e+02 7.570000000000000000e+02 7.580000000000000000e+02 7.590000000000000000e+02 7.600000000000000000e+02 7.610000000000000000e+02 7.620000000000000000e+02 7.630000000000000000e+02 7.640000000000000000e+02 7.650000000000000000e+02 7.660000000000000000e+02 7.670000000000000000e+02 7.680000000000000000e+02 7.690000000000000000e+02 7.700000000000000000e+02 7.710000000000000000e+02 7.720000000000000000e+02 7.730000000000000000e+02 7.740000000000000000e+02 7.750000000000000000e+02 7.760000000000000000e+02 7.770000000000000000e+02 7.780000000000000000e+02 7.790000000000000000e+02 7.800000000000000000e+02 7.810000000000000000e+02 7.820000000000000000e+02 7.830000000000000000e+02 7.840000000000000000e+02 7.850000000000000000e+02 7.860000000000000000e+02 7.870000000000000000e+02 7.880000000000000000e+02 7.890000000000000000e+02 7.900000000000000000e+02 7.910000000000000000e+02 7.920000000000000000e+02 7.930000000000000000e+02 7.940000000000000000e+02 7.950000000000000000e+02 7.960000000000000000e+02 7.970000000000000000e+02 7.980000000000000000e+02 7.990000000000000000e+02 8.000000000000000000e+02 8.010000000000000000e+02 8.020000000000000000e+02 8.030000000000000000e+02 8.040000000000000000e+02 8.050000000000000000e+02 8.060000000000000000e+02 8.070000000000000000e+02 8.080000000000000000e+02 8.090000000000000000e+02 8.100000000000000000e+02 8.110000000000000000e+02 8.120000000000000000e+02 8.130000000000000000e+02 8.140000000000000000e+02 8.150000000000000000e+02 8.160000000000000000e+02 8.170000000000000000e+02 8.180000000000000000e+02 8.190000000000000000e+02 8.200000000000000000e+02 8.210000000000000000e+02 8.220000000000000000e+02 8.230000000000000000e+02 8.240000000000000000e+02 8.250000000000000000e+02 8.260000000000000000e+02 8.270000000000000000e+02 8.280000000000000000e+02 8.290000000000000000e+02 8.300000000000000000e+02 8.310000000000000000e+02 8.320000000000000000e+02 8.330000000000000000e+02 8.340000000000000000e+02 8.350000000000000000e+02 8.360000000000000000e+02 8.370000000000000000e+02 8.380000000000000000e+02 8.390000000000000000e+02 8.400000000000000000e+02 8.410000000000000000e+02 8.420000000000000000e+02 8.430000000000000000e+02 8.440000000000000000e+02 8.450000000000000000e+02 8.460000000000000000e+02 8.470000000000000000e+02 8.480000000000000000e+02 8.490000000000000000e+02 8.500000000000000000e+02 8.510000000000000000e+02 8.520000000000000000e+02 8.530000000000000000e+02 8.540000000000000000e+02 8.550000000000000000e+02 8.560000000000000000e+02 8.570000000000000000e+02 8.580000000000000000e+02 8.590000000000000000e+02 8.600000000000000000e+02 8.610000000000000000e+02 8.620000000000000000e+02 8.630000000000000000e+02 8.640000000000000000e+02 8.650000000000000000e+02 8.660000000000000000e+02 8.670000000000000000e+02 8.680000000000000000e+02 8.690000000000000000e+02 8.700000000000000000e+02 8.710000000000000000e+02 8.720000000000000000e+02 8.730000000000000000e+02 8.740000000000000000e+02 8.750000000000000000e+02 8.760000000000000000e+02 8.770000000000000000e+02 8.780000000000000000e+02 8.790000000000000000e+02 8.800000000000000000e+02 8.810000000000000000e+02 8.820000000000000000e+02 8.830000000000000000e+02 8.840000000000000000e+02 8.850000000000000000e+02 8.860000000000000000e+02 8.870000000000000000e+02 8.880000000000000000e+02 8.890000000000000000e+02 8.900000000000000000e+02 8.910000000000000000e+02 8.920000000000000000e+02 8.930000000000000000e+02 8.940000000000000000e+02 8.950000000000000000e+02 8.960000000000000000e+02 8.970000000000000000e+02 8.980000000000000000e+02 8.990000000000000000e+02 9.000000000000000000e+02 9.010000000000000000e+02 9.020000000000000000e+02 9.030000000000000000e+02 9.040000000000000000e+02 9.050000000000000000e+02 9.060000000000000000e+02 9.070000000000000000e+02 9.080000000000000000e+02 9.090000000000000000e+02 9.100000000000000000e+02 9.110000000000000000e+02 9.120000000000000000e+02 9.130000000000000000e+02 9.140000000000000000e+02 9.150000000000000000e+02 9.160000000000000000e+02 9.170000000000000000e+02 9.180000000000000000e+02 9.190000000000000000e+02 9.200000000000000000e+02 9.210000000000000000e+02 9.220000000000000000e+02 9.230000000000000000e+02 9.240000000000000000e+02 9.250000000000000000e+02 9.260000000000000000e+02 9.270000000000000000e+02 9.280000000000000000e+02 9.290000000000000000e+02 9.300000000000000000e+02 9.310000000000000000e+02 9.320000000000000000e+02 9.330000000000000000e+02 9.340000000000000000e+02 9.350000000000000000e+02 9.360000000000000000e+02 9.370000000000000000e+02 9.380000000000000000e+02 9.390000000000000000e+02 9.400000000000000000e+02 9.410000000000000000e+02 9.420000000000000000e+02 9.430000000000000000e+02 9.440000000000000000e+02 9.450000000000000000e+02 9.460000000000000000e+02 9.470000000000000000e+02 9.480000000000000000e+02 9.490000000000000000e+02 9.500000000000000000e+02 9.510000000000000000e+02 9.520000000000000000e+02 9.530000000000000000e+02 9.540000000000000000e+02 9.550000000000000000e+02 9.560000000000000000e+02 9.570000000000000000e+02 9.580000000000000000e+02 9.590000000000000000e+02 9.600000000000000000e+02 9.610000000000000000e+02 9.620000000000000000e+02 9.630000000000000000e+02 9.640000000000000000e+02 9.650000000000000000e+02 9.660000000000000000e+02 9.670000000000000000e+02 9.680000000000000000e+02 9.690000000000000000e+02 9.700000000000000000e+02 9.710000000000000000e+02 9.720000000000000000e+02 9.730000000000000000e+02 9.740000000000000000e+02 9.750000000000000000e+02 9.760000000000000000e+02 9.770000000000000000e+02 9.780000000000000000e+02 9.790000000000000000e+02 9.800000000000000000e+02 9.810000000000000000e+02 9.820000000000000000e+02 9.830000000000000000e+02 9.840000000000000000e+02 9.850000000000000000e+02 9.860000000000000000e+02 9.870000000000000000e+02 9.880000000000000000e+02 9.890000000000000000e+02 9.900000000000000000e+02 9.910000000000000000e+02 9.920000000000000000e+02 9.930000000000000000e+02 9.940000000000000000e+02 9.950000000000000000e+02 9.960000000000000000e+02 9.970000000000000000e+02 9.980000000000000000e+02 9.990000000000000000e+02 1.000000000000000000e+03
1.000000000000000021e-02 1.000000000000000021e-02 1.000000000000000021e-02 1.000000000000000021e-02 1.000000000000000021e-02 1.000000000000000021e-02 1.000000000000000021e-02 1.000000000000000021e-02 1.000000000000000021e-02 1.000000000000000021e-02 1.000000000000000021e-02 1.000000000000000021e-02 1.000000000000000021e-02 1.000000000000000021e-02 1.000000000000000021e-02 1.000000000000000021e-02 1.000000000000000021e-02 1.000000000000000021e-02 1.000000000000000021e-02 1.000000000000000021e-02 1.000000000000000021e-02 1.000000000000000021e-02 1.000000000000000021e-02 1.000000000000000021e-02 1.000000000000000021e-02 1.000000000000000021e-02 1.000000000000000021e-02 1.000000000000000021e-02 1.000000000000000021e-02 1.000000000000000021e-02 1.000000000000000021e-02 1.000000000000000021e-02 1.000000000000000021e-02 1.000000000000000021e-02 1.000000000000000021e-02 1.000000000000000021e-02 1.000000000000000021e-02 1.000000000000000021e-02 1.000000000000000021e-02 1.000000000000000021e-02 1.000000000000000021e-02 1.000000000000000021e-02 1.000000000000000021e-02 1.000000000000000021e-02 1.000000000000000021e-02 1.000000000000000021e-02 1.000000000000000021e-02 1.000000000000000021e-02 1.000000000000000021e-02 1.000000000000000021e-02 1.000000000000000021e-02 1.000000000000000021e-02 1.000000000000000021e-02 1.000000000000000021e-02 1.000000000000000021e-02 1.000000000000000021e-02 1.000000000000000021e-02 1.000000000000000021e-02 1.000000000000000021e-02 1.000000000000000021e-02 1.000000000000000021e-02 1.000000000000000021e-02 1.000000000000000021e-02 1.000000000000000021e-02 1.000000000000000021e-02 1.000000000000000021e-02 1.000000000000000021e-02 1.000000000000000021e-02 1.000000000000000021e-02 1.000000000000000021e-02 1.000000000000000021e-02 1.000000000000000021e-02 1.000000000000000021e-02 1.000000000000000021e-02 1.000000000000000021e-02 1.000000000000000021e-02 1.000000000000000021e-02 1.000000000000000021e-02 1.000000000000000021e-02 1.000000000000000021e-02 1.000000000000000021e-02 1.000000000000000021e-02 1.000000000000000021e-02 1.000000000000000021e-02 1.000000000000000021e-02 1.000000000000000021e-02 1.000000000000000021e-02 1.000000000000000021e-02 1.000000000000000021e-02 1.000000000000000021e-02 1.000000000000000021e-02 1.000000000000000021e-02 1.000000000000000021e-02 1.000000000000000021e-02 1.000000000000000021e-02 1.000000000000000021e-02 1.000000000000000021e-02 1.000000000000000021e-02 1.000000000000000021e-02 1.000000000000000021e-02 1.000000000000000021e-02 1.000000000000000021e-02 1.000000000000000021e-02 1.000000000000000021e-02 1.000000000000000021e-02 1.000000000000000021e-02 1.000000000000000021e-02 1.000000000000000021e-02 1.000000000000000021e-02 1.000000000000000021e-02 1.000000000000000021e-02 1.000000000000000021e-02 1.000000000000000021e-02 1.000000000000000021e-02 1.000000000000000021e-02 1.000000000000000021e-02 1.000000000000000021e-02 1.000000000000000021e-02 1.000000000000000021e-02 1.000000000000000021e-02 1.000000000000000021e-02 1.000000000000000021e-02 1.000000000000000021e-02 1.000000000000000021e-02 1.000000000000000021e-02 1.000000000000000021e-02 1.000000000000000021e-02 1.000000000000000021e-02 1.000000000000000021e-02 1.000000000000000021e-02 1.000000000000000021e-02 1.000000000000000021e-02 1.000000000000000021e-02 1.000000000000000021e-02 1.000000000000000021e-02 1.000000000000000021e-02 1.000000000000000021e-02 1.000000000000000021e-02 1.000000000000000021e-02 1.000000000000000021e-02 1.000000000000000021e-02 1.000000000000000021e-02 1.000000000000000021e-02 1.000000000000000021e-02 1.000000000000000021e-02 1.000000000000000021e-02 1.000000000000000021e-02 1.000000000000000021e-02 1.000000000000000021e-02 1.000000000000000021e-02 1.000000000000000021e-02 1.000000000000000021e-02 1.000000000000000021e-02 1.000000000000000021e-02 1.000000000000000021e-02 1.000000000000000021e-02 1.000000000000000021e-02 1.000000000000000021e-02 1.000000000000000021e-02 1.000000000000000021e-02 1.000000000000000021e-02 1.000000000000000021e-02 1.000000000000000021e-02 1.000000000000000021e-02 1.000000000000000021e-02 1.000000000000000021e-02 1.000000000000000021e-02 1.000000000000000021e-02 1.000000000000000021e-02 1.000000000000000021e-02 1.000000000000000021e-02 1.000000000000000021e-02 1.000000000000000021e-02 1.000000000000000021e-02 1.000000000000000021e-02 1.000000000000000021e-02 1.000000000000000021e-02 1.000000000000000021e-02 1.000000000000000021e-02 1.000000000000000021e-02 1.000000000000000021e-02 1.000000000000000021e-02 1.000000000000000021e-02 1.000000000000000021e-02 1.000000000000000021e-02 1.000000000000000021e-02 1.000000000000000021e-02 1.000000000000000021e-02 1.000000000000000021e-02 1.000000000000000021e-02 1.000000000000000021e-02 1.000000000000000021e-02 1.000000000000000021e-02 1.000000000000000021e-02 1.000000000000000021e-02 1.000000000000000021e-02 1.000000000000000021e-02 1.000000000000000021e-02 1.000000000000000021e-02 1.000000000000000021e-02 1.000000000000000021e-02 1.000000000000000021e-02 1.000000000000000021e-02 1.000000000000000021e-02 1.000000000000000021e-02 1.000000000000000021e-02 1.000000000000000021e-02 1.000000000000000021e-02 1.000000000000000021e-02 1.000000000000000021e-02 1.000000000000000021e-02 1.000000000000000021e-02 1.000000000000000021e-02 1.000000000000000021e-02 1.000000000000000021e-02 1.000000000000000021e-02 1.000000000000000021e-02 1.000000000000000021e-02 1.000000000000000021e-02 1.000000000000000021e-02 1.000000000000000021e-02 1.000000000000000021e-02 1.000000000000000021e-02 1.000000000000000021e-02 1.000000000000000021e-02 1.000000000000000021e-02 1.000000000000000021e-02 1.000000000000000021e-02 1.000000000000000021e-02 1.000000000000000021e-02 1.000000000000000021e-02 1.000000000000000021e-02 1.000000000000000021e-02 1.000000000000000021e-02 1.000000000000000021e-02 1.000000000000000021e-02 1.000000000000000021e-02 1.000000000000000021e-02 1.000000000000000021e-02 1.000000000000000021e-02 1.000000000000000021e-02 1.000000000000000021e-02 1.000000000000000021e-02 1.000000000000000021e-02 1.000000000000000021e-02 1.000000000000000021e-02 1.000000000000000021e-02 1.000000000000000021e-02 1.000000000000000021e-02 1.000000000000000021e-02 1.000000000000000021e-02 1.000000000000000021e-02 1.000000000000000021e-02 1.000000000000000021e-02 1.000000000000000021e-02 1.000000000000000021e-02 1.000000000000000021e-02 1.000000000000000021e-02 1.000000000000000021e-02 1.000000000000000021e-02 1.000000000000000021e-02 1.000000000000000021e-02 1.000000000000000021e-02 1.000000000000000021e-02 1.000000000000000021e-02 1.000000000000000021e-02 1.000000000000000021e-02 1.000000000000000021e-02 1.000000000000000021e-02 1.000000000000000021e-02 1.000000000000000021e-02 1.000000000000000021e-02 1.000000000000000021e-02 1.000000000000000021e-02 1.000000000000000021e-02 1.000000000000000021e-02 1.000000000000000021e-02 1.000000000000000021e-02 1.000000000000000021e-02 1.000000000000000021e-02 1.000000000000000021e-02 1.000000000000000021e-02 1.000000000000000021e-02 1.000000000000000021e-02 1.000000000000000021e-02 1.000000000000000021e-02 1.000000000000000021e-02 1.000000000000000021e-02 1.000000000000000021e-02 1.000000000000000021e-02 1.000000000000000021e-02 1.000000000000000021e-02 1.000000000000000021e-02 1.000000000000000021e-02 1.000000000000000021e-02 1.000000000000000021e-02 1.000000000000000021e-02 1.000000000000000021e-02 1.000000000000000021e-02 1.000000000000000021e-02 1.000000000000000021e-02 1.000000000000000021e-02 1.000000000000000021e-02 1.000000000000000021e-02 1.000000000000000021e-02 1.000000000000000021e-02 1.000000000000000021e-02 1.000000000000000021e-02 1.000000000000000021e-02 1.000000000000000021e-02 1.000000000000000021e-02 1.000000000000000021e-02 1.000000000000000021e-02 1.000000000000000021e-02 1.000000000000000021e-02 1.000000000000000021e-02 1.000000000000000021e-02 1.000000000000000021e-02 1.000000000000000021e-02 1.000000000000000021e-02 1.000000000000000021e-02 1.000000000000000021e-02 1.000000000000000021e-02 1.000000000000000021e-02 1.000000000000000021e-02 1.000000000000000021e-02 1.000000000000000021e-02 1.000000000000000021e-02 1.000000000000000021e-02 1.000000000000000021e-02 1.000000000000000021e-02 1.000000000000000021e-02 1.000000000000000021e-02 1.000000000000000021e-02 1.000000000000000021e-02 1.000000000000000021e-02 1.000000000000000021e-02 1.000000000000000021e-02 1.000000000000000021e-02 1.000000000000000021e-02 1.000000000000000021e-02 1.000000000000000021e-02 1.000000000000000021e-02 1.000000000000000021e-02 1.000000000000000021e-02 1.000000000000000021e-02 1.000000000000000021e-02 1.000000000000000021e-02 1.000000000000000021e-02 1.000000000000000021e-02 1.000000000000000021e-02 1.000000000000000021e-02 1.000000000000000021e-02 1.000000000000000021e-02 1.000000000000000021e-02 1.000000000000000021e-02 1.000000000000000021e-02 1.000000000000000021e-02 1.000000000000000021e-02 1.000000000000000021e-02 1.000000000000000021e-02 1.000000000000000021e-02 1.000000000000000021e-02 1.000000000000000021e-02 1.000000000000000021e-02 1.000000000000000021e-02 1.000000000000000021e-02 1.000000000000000021e-02 1.000000000000000021e-02 1.000000000000000021e-02 1.000000000000000021e-02 1.000000000000000021e-02 1.000000000000000021e-02 1.000000000000000021e-02 1.000000000000000021e-02 1.000000000000000021e-02 1.000000000000000021e-02 1.000000000000000021e-02 1.000000000000000021e-02 1.000000000000000021e-02 1.000000000000000021e-02 1.000000000000000021e-02 1.000000000000000021e-02 1.000000000000000021e-02 1.000000000000000021e-02 1.000000000000000021e-02 1.000000000000000021e-02 1.000000000000000021e-02 1.000000000000000021e-02 1.000000000000000021e-02 1.000000000000000021e-02 1.000000000000000021e-02 1.000000000000000021e-02 1.000000000000000021e-02 1.000000000000000021e-02 1.000000000000000021e-02 1.000000000000000021e-02 1.000000000000000021e-02 1.000000000000000021e-02 1.000000000000000021e-02 1.000000000000000021e-02 1.000000000000000021e-02 1.000000000000000021e-02 1.000000000000000021e-02 1.000000000000000021e-02 1.000000000000000021e-02 1.000000000000000021e-02 1.000000000000000021e-02 1.000000000000000021e-02 1.000000000000000021e-02 1.000000000000000021e-02 1.000000000000000021e-02 1.000000000000000021e-02 1.000000000000000021e-02 1.000000000000000021e-02 1.000000000000000021e-02 1.000000000000000021e-02 1.000000000000000021e-02 1.000000000000000021e-02 1.000000000000000021e-02 1.000000000000000021e-02 1.000000000000000021e-02 1.000000000000000021e-02 1.000000000000000021e-02 1.000000000000000021e-02 1.000000000000000021e-02 1.000000000000000021e-02 1.000000000000000021e-02 1.000000000000000021e-02 1.000000000000000021e-02 1.000000000000000021e-02 1.000000000000000021e-02 1.000000000000000021e-02 1.000000000000000021e-02 1.000000000000000021e-02 1.000000000000000021e-02 1.000000000000000021e-02 1.000000000000000021e-02 1.000000000000000021e-02 1.000000000000000021e-02 1.000000000000000021e-02 1.000000000000000021e-02 1.000000000000000021e-02 1.000000000000000021e-02 1.000000000000000021e-02 1.000000000000000021e-02 1.000000000000000021e-02 1.000000000000000021e-02 1.000000000000000021e-02 1.000000000000000021e-02 1.000000000000000021e-02 1.000000000000000021e-02 1.000000000000000021e-02 1.000000000000000021e-02 1.000000000000000021e-02 1.000000000000000021e-02 1.000000000000000021e-02 1.000000000000000021e-02 1.000000000000000021e-02 1.000000000000000021e-02 1.000000000000000021e-02 1.000000000000000021e-02 1.000000000000000021e-02 1.000000000000000021e-02 1.000000000000000021e-02 1.000000000000000021e-02 1.000000000000000021e-02 1.000000000000000021e-02 1.000000000000000021e-02 1.000000000000000021e-02 1.000000000000000021e-02 1.000000000000000021e-02 1.000000000000000021e-02 1.000000000000000021e-02 1.000000000000000021e-02 1.000000000000000021e-02 1.000000000000000021e-02 1.000000000000000021e-02 1.000000000000000021e-02 1.000000000000000021e-02 1.000000000000000021e-02 1.000000000000000021e-02 1.000000000000000021e-02 1.000000000000000021e-02 1.000000000000000021e-02 1.000000000000000021e-02 1.000000000000000021e-02 1.000000000000000021e-02 1.000000000000000021e-02 1.000000000000000021e-02 1.000000000000000021e-02 1.000000000000000021e-02 1.000000000000000021e-02 1.000000000000000021e-02 1.000000000000000021e-02 1.000000000000000021e-02 1.000000000000000021e-02 1.000000000000000021e-02 1.000000000000000021e-02 1.000000000000000021e-02 1.000000000000000021e-02 1.000000000000000021e-02 1.000000000000000021e-02 1.000000000000000021e-02 1.000000000000000021e-02 1.000000000000000021e-02 1.000000000000000021e-02 1.000000000000000021e-02 1.000000000000000021e-02 1.000000000000000021e-02 1.000000000000000021e-02 1.000000000000000021e-02 1.000000000000000021e-02 1.000000000000000021e-02 1.000000000000000021e-02 1.000000000000000021e-02 1.000000000000000021e-02 1.000000000000000021e-02 1.000000000000000021e-02 1.000000000000000021e-02 1.000000000000000021e-02 1.000000000000000021e-02 1.000000000000000021e-02 1.000000000000000021e-02 1.000000000000000021e-02 1.000000000000000021e-02 1.000000000000000021e-02 1.000000000000000021e-02 1.000000000000000021e-02 1.000000000000000021e-02 1.000000000000000021e-02 1.000000000000000021e-02 1.000000000000000021e-02 1.000000000000000021e-02 1.000000000000000021e-02 1.000000000000000021e-02 1.000000000000000021e-02 1.000000000000000021e-02 1.000000000000000021e-02 1.000000000000000021e-02 1.000000000000000021e-02 1.000000000000000021e-02 1.000000000000000021e-02 1.000000000000000021e-02 1.000000000000000021e-02 1.000000000000000021e-02 1.000000000000000021e-02 1.000000000000000021e-02 1.000000000000000021e-02 1.000000000000000021e-02 1.000000000000000021e-02 1.000000000000000021e-02 1.000000000000000021e-02 1.000000000000000021e-02 1.000000000000000021e-02 1.000000000000000021e-02 1.000000000000000021e-02 1.000000000000000021e-02 1.000000000000000021e-02 1.000000000000000021e-02 1.000000000000000021e-02 1.000000000000000021e-02 1.000000000000000021e-02 1.000000000000000021e-02 1.000000000000000021e-02 1.000000000000000021e-02 1.000000000000000021e-02 1.000000000000000021e-02 1.000000000000000021e-02 1.000000000000000021e-02 1.000000000000000021e-02 1.000000000000000021e-02 1.000000000000000021e-02 1.000000000000000021e-02 1.000000000000000021e-02 1.000000000000000021e-02 1.000000000000000021e-02 1.000000000000000021e-02 1.000000000000000021e-02 1.000000000000000021e-02 1.000000000000000021e-02 1.000000000000000021e-02 1.000000000000000021e-02 1.000000000000000021e-02 1.000000000000000021e-02 1.000000000000000021e-02 1.000000000000000021e-02 1.000000000000000021e-02 1.000000000000000021e-02 1.000000000000000021e-02 1.000000000000000021e-02 1.000000000000000021e-02 1.000000000000000021e-02 1.000000000000000021e-02 1.000000000000000021e-02 1.000000000000000021e-02 1.000000000000000021e-02 1.000000000000000021e-02 1.000000000000000021e-02 1.000000000000000021e-02 1.000000000000000021e-02 1.000000000000000021e-02 1.000000000000000021e-02 1.000000000000000021e-02 1.000000000000000021e-02 1.000000000000000021e-02 1.000000000000000021e-02 1.000000000000000021e-02 1.000000000000000021e-02 1.000000000000000021e-02 1.000000000000000021e-02 1.000000000000000021e-02 1.000000000000000021e-02 1.000000000000000021e-02 1.000000000000000021e-02 1.000000000000000021e-02 1.000000000000000021e-02 1.000000000000000021e-02 1.000000000000000021e-02 1.000000000000000021e-02 1.000000000000000021e-02 1.000000000000000021e-02 1.000000000000000021e-02 1.000000000000000021e-02 1.000000000000000021e-02 1.000000000000000021e-02 1.000000000000000021e-02 1.000000000000000021e-02 1.000000000000000021e-02 1.000000000000000021e-02 1.000000000000000021e-02 1.000000000000000021e-02 1.000000000000000021e-02 1.000000000000000021e-02 1.000000000000000021e-02 1.000000000000000021e-02 1.000000000000000021e-02 1.000000000000000021e-02 1.000000000000000021e-02 1.000000000000000021e-02 1.000000000000000021e-02 1.000000000000000021e-02 1.000000000000000021e-02 1.000000000000000021e-02 1.000000000000000021e-02 1.000000000000000021e-02 1.000000000000000021e-02 1.000000000000000021e-02 1.000000000000000021e-02 1.000000000000000021e-02 1.000000000000000021e-02 1.000000000000000021e-02 1.000000000000000021e-02 1.000000000000000021e-02 1.000000000000000021e-02 1.000000000000000021e-02 1.000000000000000021e-02 1.000000000000000021e-02 1.000000000000000021e-02 1.000000000000000021e-02 1.000000000000000021e-02 1.000000000000000021e-02 1.000000000000000021e-02 1.000000000000000021e-02 1.000000000000000021e-02 1.000000000000000021e-02 1.000000000000000021e-02 1.000000000000000021e-02 1.000000000000000021e-02 1.000000000000000021e-02 1.000000000000000021e-02 1.000000000000000021e-02 1.000000000000000021e-02 1.000000000000000021e-02 1.000000000000000021e-02 1.000000000000000021e-02 1.000000000000000021e-02 1.000000000000000021e-02 1.000000000000000021e-02 1.000000000000000021e-02 1.000000000000000021e-02 1.000000000000000021e-02 1.000000000000000021e-02 1.000000000000000021e-02 1.000000000000000021e-02 1.000000000000000021e-02 1.000000000000000021e-02 1.000000000000000021e-02 1.000000000000000021e-02 1.000000000000000021e-02 1.000000000000000021e-02 1.000000000000000021e-02 1.000000000000000021e-02 1.000000000000000021e-02 1.000000000000000021e-02 1.000000000000000021e-02 1.000000000000000021e-02 1.000000000000000021e-02 1.000000000000000021e-02 1.000000000000000021e-02 1.000000000000000021e-02 1.000000000000000021e-02 1.000000000000000021e-02 1.000000000000000021e-02 1.000000000000000021e-02 1.000000000000000021e-02 1.000000000000000021e-02 1.000000000000000021e-02 1.000000000000000021e-02 1.000000000000000021e-02 1.000000000000000021e-02 1.000000000000000021e-02 1.000000000000000021e-02 1.000000000000000021e-02 1.000000000000000021e-02 1.000000000000000021e-02 1.000000000000000021e-02 1.000000000000000021e-02 1.000000000000000021e-02 1.000000000000000021e-02 1.000000000000000021e-02 1.000000000000000021e-02 1.000000000000000021e-02 1.000000000000000021e-02 1.000000000000000021e-02 1.000000000000000021e-02 1.000000000000000021e-02 1.000000000000000021e-02 1.000000000000000021e-02 1.000000000000000021e-02 1.000000000000000021e-02 1.000000000000000021e-02 1.000000000000000021e-02 1.000000000000000021e-02 1.000000000000000021e-02 1.000000000000000021e-02 1.000000000000000021e-02 1.000000000000000021e-02 1.000000000000000021e-02 1.000000000000000021e-02 1.000000000000000021e-02 1.000000000000000021e-02 1.000000000000000021e-02 1.000000000000000021e-02 1.000000000000000021e-02 1.000000000000000021e-02 1.000000000000000021e-02 1.000000000000000021e-02 1.000000000000000021e-02 1.000000000000000021e-02 1.000000000000000021e-02 1.000000000000000021e-02 1.000000000000000021e-02 1.000000000000000021e-02 1.000000000000000021e-02 1.000000000000000021e-02 1.000000000000000021e-02 1.000000000000000021e-02 1.000000000000000021e-02 1.000000000000000021e-02 1.000000000000000021e-02 1.000000000000000021e-02 1.000000000000000021e-02 1.000000000000000021e-02 1.000000000000000021e-02 1.000000000000000021e-02 1.000000000000000021e-02 1.000000000000000021e-02 1.000000000000000021e-02 1.000000000000000021e-02 1.000000000000000021e-02 1.000000000000000021e-02 1.000000000000000021e-02 1.000000000000000021e-02 1.000000000000000021e-02 1.000000000000000021e-02 1.000000000000000021e-02 1.000000000000000021e-02 1.000000000000000021e-02 1.000000000000000021e-02 1.000000000000000021e-02 1.000000000000000021e-02 1.000000000000000021e-02 1.000000000000000021e-02 1.000000000000000021e-02 1.000000000000000021e-02 1.000000000000000021e-02 1.000000000000000021e-02 1.000000000000000021e-02 1.000000000000000021e-02 1.000000000000000021e-02 1.000000000000000021e-02 1.000000000000000021e-02 1.000000000000000021e-02 1.000000000000000021e-02 1.000000000000000021e-02 1.000000000000000021e-02 1.000000000000000021e-02 1.000000000000000021e-02 1.000000000000000021e-02 1.000000000000000021e-02 1.000000000000000021e-02 1.000000000000000021e-02 1.000000000000000021e-02 1.000000000000000021e-02 1.000000000000000021e-02 1.000000000000000021e-02 1.000000000000000021e-02 1.000000000000000021e-02 1.000000000000000021e-02 1.000000000000000021e-02 1.000000000000000021e-02 1.000000000000000021e-02 1.000000000000000021e-02 1.000000000000000021e-02 1.000000000000000021e-02 1.000000000000000021e-02 1.000000000000000021e-02 1.000000000000000021e-02 1.000000000000000021e-02 1.000000000000000021e-02 1.000000000000000021e-02 1.000000000000000021e-02 1.000000000000000021e-02 1.000000000000000021e-02 1.000000000000000021e-02 1.000000000000000021e-02 1.000000000000000021e-02 1.000000000000000021e-02 1.000000000000000021e-02 1.000000000000000021e-02 1.000000000000000021e-02 1.000000000000000021e-02 1.000000000000000021e-02 1.000000000000000021e-02 1.000000000000000021e-02 1.000000000000000021e-02 1.000000000000000021e-02 1.000000000000000021e-02 1.000000000000000021e-02 1.000000000000000021e-02 1.000000000000000021e-02 1.000000000000000021e-02 1.000000000000000021e-02 1.000000000000000021e-02 1.000000000000000021e-02 1.000000000000000021e-02 1.000000000000000021e-02 1.000000000000000021e-02 1.000000000000000021e-02 1.000000000000000021e-02 1.000000000000000021e-02 1.000000000000000021e-02 1.000000000000000021e-02 1.000000000000000021e-02 1.000000000000000021e-02 1.000000000000000021e-02 1.000000000000000021e-02 1.000000000000000021e-02 1.000000000000000021e-02 1.000000000000000021e-02 1.000000000000000021e-02 1.000000000000000021e-02 1.000000000000000021e-02 1.000000000000000021e-02 1.000000000000000021e-02 1.000000000000000021e-02 1.000000000000000021e-02 1.000000000000000021e-02 1.000000000000000021e-02 1.000000000000000021e-02 1.000000000000000021e-02 1.000000000000000021e-02 1.000000000000000021e-02 1.000000000000000021e-02 1.000000000000000021e-02 1.000000000000000021e-02 1.000000000000000021e-02 1.000000000000000021e-02 1.000000000000000021e-02 1.000000000000000021e-02 1.000000000000000021e-02 1.000000000000000021e-02 1.000000000000000021e-02 1.000000000000000021e-02 1.000000000000000021e-02 1.000000000000000021e-02 1.000000000000000021e-02 1.000000000000000021e-02 1.000000000000000021e-02 1.000000000000000021e-02 1.000000000000000021e-02 1.000000000000000021e-02 1.000000000000000021e-02 1.000000000000000021e-02 1.000000000000000021e-02 1.000000000000000021e-02 1.000000000000000021e-02 1.000000000000000021e-02 1.000000000000000021e-02 1.000000000000000021e-02 1.000000000000000021e-02 1.000000000000000021e-02 1.000000000000000021e-02 1.000000000000000021e-02 1.000000000000000021e-02 1.000000000000000021e-02 1.000000000000000021e-02 1.000000000000000021e-02 1.000000000000000021e-02 1.000000000000000021e-02 1.000000000000000021e-02 1.000000000000000021e-02 1.000000000000000021e-02 1.000000000000000021e-02 1.000000000000000021e-02 1.000000000000000021e-02 1.000000000000000021e-02 1.000000000000000021e-02 1.000000000000000021e-02 1.000000000000000021e-02 1.000000000000000021e-02 1.000000000000000021e-02 1.000000000000000021e-02 1.000000000000000021e-02 1.000000000000000021e-02 1.000000000000000021e-02 1.000000000000000021e-02 1.000000000000000021e-02 1.000000000000000021e-02 1.000000000000000021e-02 1.000000000000000021e-02 1.000000000000000021e-02 1.000000000000000021e-02 1.000000000000000021e-02 1.000000000000000021e-02 1.000000000000000021e-02 1.000000000000000021e-02 1.000000000000000021e-02 1.000000000000000021e-02 1.000000000000000021e-02 1.000000000000000021e-02 1.000000000000000021e-02 1.000000000000000021e-02 1.000000000000000021e-02 1.000000000000000021e-02 1.000000000000000021e-02 1.000000000000000021e-02 1.000000000000000021e-02 1.000000000000000021e-02 1.000000000000000021e-02 1.000000000000000021e-02 1.000000000000000021e-02 1.000000000000000021e-02 1.000000000000000021e-02 1.000000000000000021e-02 1.000000000000000021e-02 1.000000000000000021e-02 1.000000000000000021e-02 1.000000000000000021e-02 1.000000000000000021e-02 1.000000000000000021e-02 1.000000000000000021e-02 1.000000000000000021e-02 1.000000000000000021e-02 1.000000000000000021e-02 1.000000000000000021e-02 1.000000000000000021e-02 1.000000000000000021e-02 1.000000000000000021e-02 1.000000000000000021e-02 1.000000000000000021e-02 1.000000000000000021e-02 1.000000000000000021e-02 1.000000000000000021e-02 1.000000000000000021e-02 1.000000000000000021e-02 1.000000000000000021e-02 1.000000000000000021e-02 1.000000000000000021e-02 1.000000000000000021e-02 1.000000000000000021e-02 1.000000000000000021e-02 1.000000000000000021e-02 1.000000000000000021e-02 1.000000000000000021e-02 1.000000000000000021e-02 1.000000000000000021e-02 1.000000000000000021e-02 1.000000000000000021e-02 1.000000000000000021e-02 1.000000000000000021e-02 1.000000000000000021e-02 1.000000000000000021e-02 1.000000000000000021e-02 1.000000000000000021e-02 1.000000000000000021e-02 1.000000000000000021e-02 1.000000000000000021e-02 1.000000000000000021e-02
-1.091802020165553131e+02 1.660319659181242002e+02 3.847449092259257242e+01 -8.643097244745543861e+00 -8.600415438017293468e+01 -1.310413821022674163e+01 -2.035165321756888659e+02 6.862814345868794019e-01 -8.290527381622345615e+01 -1.381558673810829951e+01 -1.942306645303278501e+01 6.400601897846196486e+00 -1.744557993426980369e+00 1.642294519379303779e+02 8.283106197220845957e+01 -3.798436749889442865e+01 -5.170737614135578042e+01 7.753829563605771114e+01 3.213328270754248450e+01 -2.484220315970323512e+01 -7.716816763577327265e+01 -7.222967642823172696e+01 -1.350392336147665517e+01 2.832068938096572097e+01 -1.907863771272720896e+02 -9.662846504432424410e+01 -2.554048197442613244e+01 1.973513259157567745e+02 6.926507881976165493e+01 7.512370725127040316e+01 7.860117180673843507e+01 1.156619471329591198e+00 -7.761764619390861242e+01 2.030959733013889377e+02 -2.397066074304606502e+02 5.762219857620591767e+01 -1.175732905693891013e+02 -3.395631245172603485e+01 3.951823014511501864e+00 1.240399849810021209e+02 -1.202963192010439002e+02 -1.334286836788924369e+01 7.570827365667084052e+01 1.699476239146771661e+02 6.983233515959845761e+01 -6.694472477003421318e+01 4.031958736700917001e+01 -2.779513776368984068e+01 -6.467084430248611682e+01 1.532843440459986368e+02 -6.903060230236927453e+01 -5.099963837187477367e+01 -1.364310133613805931e+02 5.676346986953528351e+00 -4.945940792900835703e+01 3.786135049101277161e+01 -8.686430053846730459e+01 -4.899911102428990972e+01 -9.927736923127156388e+01 -1.521886930818970711e+02 1.902172715609936304e+01 4.443673313198474517e+01 -1.205459103163452994e+02 1.258228239663737469e+01 -7.760769384156728279e+01 4.809317170697202926e+01 1.631689187948259701e+02 -1.412514140922249624e+02 -4.239078899899698172e+01 7.062129393017974266e+00 2.875204931794748120e+00 4.150184962985355952e+01 8.222469267721862707e+01 8.083413503828295044e-01 -8.640434683300656005e+00 -6.854953329178748334e+01 7.661404762270593949e+01 -3.205008856474708523e+01 2.575493265035347434e+01 1.018491906551825394e+02 8.636091820755743242e+01 -4.187346048286435263e+01 5.656437497987955254e+01 1.443505753038374166e+02 1.137884084708818904e+02 -3.920028756658690661e+00 1.705538387172979071e+02 -1.091977715630366816e+02 4.090226255395373656e+00 -4.106335556501651496e+01 2.025047095277627420e+02 -2.078056056007362784e+01 2.834484634691046612e+00 -7.518120647261734746e+01 -6.997521476793307826e+00 -6.249206118783901331e+01 6.636829272341250885e+01 -9.258527550757116842e+01 6.718526028626936863e+01 -4.676824021049758784e+01 -4.871200406770665836e+01 -8.975393571662435477e+01 5.196204402407730072e+01 -5.354990715335228657e+01 -1.462146055336506549e+02 -7.779864328197645307e+01 -1.024245678144192482e+02 -1.539479835602382423e+02 1.330942560888620108e+02 -2.688834329745519014e+01 3.137309138985090584e+01 8.779675680361020795e+01 -1.018775712512997842e+02 5.576478769843729566e+01 -4.241378896595324477e+01 -6.794003833090296496e+01 -8.824340035626721601e+01 1.989857009191765087e+02 -5.555550818602915797e+01 -4.848161075706463663e+01 -4.619566610791724059e+01 7.872000319081068653e+01 -4.055569211500561977e+01 1.350906044551664991e+02 -4.887452079855617626e+01 5.397621358970003769e+01 4.448374526691628361e+00 -7.940652180053844233e+01 6.735614713166519607e+01 2.716213572742983047e+02 -9.014162551453249250e+01 4.648862091686105913e+01 -7.468356805314958535e+01 4.430482454512431190e+01 1.284849894185934431e+02 -5.035455800265417281e+01 1.431010720351047993e+01 -2.638676535510782628e+01 -9.985540233698236534e+01 -1.698482496065149761e+01 4.212423074174588500e+00 -7.651264251228023561e+00 -1.463628419308269990e+01 1.157863722066411185e+02 1.277230930436577694e+02 1.826758765327847698e+02 -2.981745666811185629e+02 3.742895518940891009e+01 -1.545085387880725847e+01 -6.108416960195277312e+01 1.767205678712182930e+02 7.463037349394699049e+01 -2.557886181027226424e+00 -1.136254670291643833e+02 -1.066581658844386205e+01 9.810356815148975329e+01 -1.317044308511493114e+02 -1.652773076469203772e+02 1.052531308179288594e+01 4.158443266963858065e+01 -5.983473364420093787e+01 4.121635890707619154e+01 -1.049859949042269847e+02 -1.483603946293700346e+02 2.068303751002591540e+01 4.763749952861348191e+01 4.727374945214991797e+00 -8.184385029772828091e+01 -9.179447700957986456e+01 -8.268199895398920773e+01 -8.589279674538312292e+01 1.241844898284857734e+01 5.575703187981662978e+01 1.143441465219629407e+02 7.795198861189638251e+01 8.787399551669160758e+01 1.055225196263215537e+02 -7.342983776301137766e+01 -8.102237237280149884e+01 6.926429487745480174e+01 6.732242962915006501e+01 5.819084955914431134e+01 -9.220550350358292846e+00 -8.950654492811155194e+01 5.307427855374625381e+01 -1.760504983589212884e+02 6.605990443967272086e+01 -4.378520345339850905e+01 -9.485663247132892195e+01 7.301482261261675433e+01 -1.688517743704808183e+01 -7.589348815743034038e+01 -5.655034757810398816e+01 -9.027125724209332347e+00 2.390256493782603116e+02 7.576158432358094785e+01 5.403561840981953424e+01 -1.023619645539609735e+02 1.461532979288543004e+02 1.049975722290410030e+00 -8.911000742910012207e+01 1.536875009232230411e+02 -1.520523256160808216e+02 1.556727520799460507e+01 -3.209419105733839928e+01 -2.192794025078163997e+02 -1.330534463606277313e+02 -8.702442276040375191e+01 -2.929844936401993394e+01 -1.189403618856044744e+02 5.751070283664992644e+01 6.484822831596854087e+01 -2.753361405088911695e+01 -9.954168900428761901e+01 1.128371652413137411e+02 1.179123365650295057e+02 4.610936361087754420e+01 1.746045696345345277e+01 2.608902238146351351e+02 4.357413516976998835e+01 -1.192801258652257133e+02 -4.500101107357797048e+01 -1.685635116377705174e+02 3.182437856317464053e+01 1.530715398371554272e+02 -1.481073851913912733e+02 1.315665868727349164e+02 -9.085631234123708566e+01 -1.890695185857252625e+01 -7.951865230921144612e-01 5.282360965333297287e+01 -1.156885604155792713e+01 -2.279811551815762272e+01 -1.882164796877083646e+01 -1.266614953374608206e+02 4.636998821783004843e+01 -3.032319602690170512e+01 -1.292765611843564955e+01 -1.071526128303626635e+01 2.258653043567377665e+02 1.741756622362987343e+02 2.325415754460808557e+02 1.317546440112345181e+02 -8.654725665620648556e+01 7.514173208467174447e+01 2.113554416035235661e+01 4.752726561976565023e+01 -3.967278656527388847e+01 2.553673291577059103e+02 -2.331185545138752602e+01 -1.367223150958278097e+02 -1.494306552721288384e+01 -4.583765012171922137e+01 -7.738359234649503549e+01 4.315634293928398790e+01 -1.171282545809052422e+01 1.819277973666181936e+02 9.236260090194446093e+01 4.088333933023607614e+01 9.801169308050002371e+01 9.461431207383068909e+01 -2.299153940762105108e+01 1.396695024879044809e+02 2.653068511028195431e+01 8.963258588516188752e+01 4.769804250130267320e+01 6.929110183811325818e+00 -1.158021129864536647e+02 -1.159130548534973002e+02 -9.007975296866369774e+01 -1.557323432243590133e+01 8.673932539825788979e+01 -3.064869506699776025e+01 9.893813971424637543e+01 4.384552244124748910e+01 -7.276339621767445465e+01 -2.996482830847263301e+01 -5.862003258618251067e+01 1.757774947485794570e+01 -4.632742084325721521e+01 -1.121066760077888063e+02 1.215821478293814835e+02 1.214141169412352639e+02 -7.901604996180792284e+01 5.412619408687619149e+00 -4.535133658217563379e+01 -3.259128429151759576e+01 -1.134795053169882806e+01 -3.125640340610739543e+01 4.451198950438411117e+01 -1.406406246890804823e+02 -5.287957272774184503e+01 -1.519170478208828854e+02 1.741647350202716211e+02 -2.019718877354965869e+01 5.891901427760893739e+01 1.191142411713523153e+01 1.443750636613322058e+02 4.460442816197856075e+01 3.569593840011861374e+01 1.543117021128175566e+02 -4.923760430658701637e+01 -9.756745924048234997e+01 2.718907516409321801e+01 -1.578916500805394492e+02 -5.336141998961876709e+01 1.022309333991061209e+02 -1.274636589134268405e+02 -3.631936788384708592e+01 9.118063089029691071e+01 -9.433392185959972664e+01 -8.935022589555197214e+01 -8.252293338981058923e+01 -6.370166158565292136e+01 2.487127888290695523e+02 1.978876068249500690e+02 1.028095899221134033e+02 -1.020208608673102049e+02 7.470554510811413707e+01 -6.606951889762896712e+01 -3.131721379873917144e+01 1.658016352102914581e+01 -3.218468475778954740e+01 -9.351693382301613156e+01 -2.782479454935297802e+00 1.472292246971513485e+01 1.085040536889883356e+02 -1.281236554580413838e+02 4.182747209087539630e+01 6.356624494352431043e+01 3.440389885486145971e+01 -9.030407803615045736e+01 -1.479967358510999134e+02 1.924411422264875853e+02 -1.773590046042501100e+01 2.508749562947365774e+01 1.559296587855307052e+02 2.654903507653708417e+01 2.761075363594462573e+01 -4.434453679980017426e+01 8.819718034836124332e+01 -1.356860135735574602e+02 -3.064840781175828965e+01 -6.107048994522037866e+00 -5.312557556640438605e+01 6.247853801848909150e+00 2.115166008778095730e+01 -3.559850754728343958e+01 1.359255093790147129e+01 2.125517392049742682e+02 -2.724811853685484664e+01 -2.784206433791437973e+01 -1.010815890848711405e+02 -1.629736498090520236e+00 -8.027329126827918060e+01 6.343271678465371544e+00 1.114224157472531544e+02 -5.171173438363107522e+01 6.006716698956968692e+00 -5.397998506381797768e+01 3.297049481219409550e+00 8.666144945633928387e+01 -1.151345098844715693e+02 -9.623351963481503901e+01 -1.019396232471013519e+02 7.090993035197708139e+01 8.601277562331388538e+01 -9.166080843617740470e+01 6.224002854806156648e+01 2.566927294674733417e+01 3.844091323885694322e+01 -1.763144579966824921e+01 9.076780669950714753e+01 7.918887965819116914e+01 -7.675548448195998219e+01 1.173062157887629553e+01 8.035031141868779514e+01 7.236828803558104539e+01 -1.977373860509631243e+01 2.480266371373340206e+01 -1.317209816381911480e+02 4.821425812103910857e+01 -3.256197266990473338e+01 -3.246152412639102636e+01 1.720350718833611552e+02 4.710685787428244709e+01 1.194018210034896441e+02 1.896966124354935346e+02 -1.367610729348288885e+02 1.480958289120422364e+02 -6.301493120203580389e+01 -1.342405796878204853e+02 8.176527506738361240e+01 -1.331588783511274983e+02 -2.852070223841740315e+01 5.602473061652547415e+01 8.001010803042554187e+00 -1.670363179984885562e+02 8.369601963557758495e+01 2.506464982828122956e+01 6.862564892934543082e+01 3.605682250778635023e+01 9.404405076537484476e+00 -6.666402542112479068e+01 1.149345159155340355e+02 5.412548615737151181e+01 -6.169998474896348029e+01 -1.005609080871410583e+02 3.865597554569854566e+01 2.554244450011310619e+01 8.184504536459422752e+01 1.825447847190392849e+02 -2.445426303987560956e+01 -1.094126573113022687e+02 -8.411892280679745681e+01 -5.096960364691842216e+01 -4.403772953657433220e+01 -1.457250874404835201e+02 -2.236730302106059298e+01 1.286359373877127439e+02 7.402320986231615052e+01 -1.215326036899317188e+02 -1.488824289603644786e+02 -6.762061198748639868e+01 -7.580190379620226793e+01 1.457962816031596276e+02 -1.692951194320344825e+02 8.596652305099344460e+01 -4.575364443607984555e+00 -4.273833812380879493e+01 1.319980668504060439e+01 9.052022295530090901e+01 4.922047674713540744e+01 1.372476356226108010e+02 -1.580344917220329251e+02 -8.040767576138165396e+01 2.519020085304631351e+01 4.163754616688419219e+01 2.046842936040136749e+02 1.444469816997979024e+02 6.508582911047433583e+01 7.159981656451682852e+01 -3.385799028702337665e+01 1.507408635200857248e+02 -1.781043896656467780e+02 -6.297412515004871381e+01 -5.330447177626099631e+01 -5.142822945697368908e+01 -1.025355027064734088e+02 -1.488794588725519752e+01 -6.814871524336577124e+01 7.066299818759307527e+01 -9.082640417610940986e+00 -5.765604886084411618e+01 -6.180295088011701665e+01 1.789064950485273471e+02 5.860903143141043614e+01 -1.363075275825808141e+01 2.073945417882227105e+02 -1.075727004657463652e+02 -3.507550475654178257e+01 6.648209261035182749e+01 -1.344042857134544466e-01 1.485948096140130659e+01 -1.242042187659101984e+02 1.749123568112462692e+02 -4.860308250208183267e+01 -2.671417215487065988e+01 -1.088830996866713434e+02 1.249000175563274695e+02 9.512552855083512782e+01 -7.691551509256802888e+01 -3.731960922050696894e+01 3.865403338268757238e+01 -1.501925585200739874e+02 -1.795092057978053546e-01 -7.410522236499703297e+01 7.627685449077963753e+00 -1.072228914697070792e+02 -1.572337221688434852e+02 -7.010080619440350347e+01 1.469437348650666308e+02 5.608039715164150607e+01 -8.887149660460157463e+01 8.840003587846584310e+01 3.392187422915389305e+01 8.756665335943974071e+01 -4.174715626926445822e+01 -8.332999293259821627e+01 1.694972962938143155e+02 4.126278014613406953e+01 2.868310096090182526e+01 -7.231806983147730250e+01 -4.191815158750406312e+01 9.437632626676101921e+00 -7.101966829836172224e+00 -1.711883674372093935e+02 -3.428340057122785822e+01 6.378466513101029989e+01 1.104987656280478632e+02 1.541903501596873411e+02 -1.314924302237737308e+01 8.871840914713111204e+01 1.561269118323927785e+02 6.275880324727457094e+01 1.461716399579751453e+02 1.589571935455578711e+01 1.299020239935271093e+02 -8.303165544945898091e+01 5.275584160567900227e+01 2.898656075931716813e+01 7.499361994258067909e+01 -1.049804440401128147e+02 1.957203260427623945e+02 -1.271837194268591560e+02 8.724450421807918588e+01 -1.060698969258545077e+02 4.558393767515141093e+01 1.363106771555199970e+01 8.953275307291850993e+01 -7.269836165975738140e+01 -7.451657227813153384e+01 -1.099594993022781608e+01 8.789086845708384033e+01 -2.918657339992837407e+01 -1.607605020969626253e+01 -1.935748659585183518e+01 4.669017946647555206e+00 9.671516590025726146e+01 -6.162903986104094400e+01 -2.666924964942940957e+00 -1.907659187351409571e+02 1.199641682418292561e+02 -1.227374454055868682e+02 -7.260247118836468871e+01 -2.312397863579606749e+01 -1.060844502631525472e+02 -5.223435433823188134e+01 -5.757084192802189193e+01 -1.934606219334551014e+01 1.338782284460054370e+02 5.312198553665359668e+01 9.867339767395067440e+01 -1.337288959092917651e+02 -1.361601834854095046e+02 -2.816466375414622689e+02 1.003988666579705722e+02 1.024246953890724114e+02 4.157332739897722718e+01 -4.171906581261900726e+01 -3.653505402678673875e+01 -1.804699121002551578e+02 1.435603008160061620e+02 -1.055443495248586601e+02 1.051036109086294772e+02 -1.564350419568922632e+02 -1.406874039092784656e+01 -5.441674446059315784e+01 -1.171938300076429726e+02 -4.530547117748002250e+01 -1.231211887274451122e+01 -9.107216668306644181e+01 -1.016893928892434644e+02 -1.214655004597097232e+01 6.996416670046130548e+01 -1.224744793810937722e+02 -1.538544477764751406e+01 -7.248659690884436202e+01 -1.291611178095848516e+02 6.504659016333812716e+00 9.349831001919989149e+01 1.627191068746818132e+02 -1.873824813712045056e+01 -4.527225451948859103e+01 -1.220781310990125945e+02 -1.608795030069829863e+02 1.020649089955557685e+02 -7.153153856600631855e+01 7.768965932893195259e+01 9.244641793741644520e+00 2.874362158809408285e+01 7.263494660990275520e+01 -8.337252873420460730e+01 8.133708558684794809e+01 1.134141878452660421e+02 1.549422826454377855e+02 -1.146642558192391306e+02 1.022862840536153470e+02 -4.701517321746609923e+01 -8.934801209370029085e+01 2.111654978584037679e+02 4.843839381519939025e+01 8.213919031656925540e+01 2.089570038062150203e+01 -6.224372893061997303e+01 -3.437910555141688462e+01 -2.070366914635820024e+02 1.039571117745884408e+02 8.019444466101444391e+01 -7.449394902176503308e+01 -7.196182487808606254e+01 1.428814456404180646e+02 9.945814844585913761e+01 5.030587084497847172e+01 7.486085959575910920e+01 -7.738248027342673474e+00 1.015516421320943579e+02 -1.019239718844067966e+02 1.834050087064373145e+02 -3.885575525571034916e+01 -1.200648802294988684e+02 -3.709760241861170726e+01 7.060291428965457783e+01 1.449945884089452477e+02 1.266789625992675283e+01 1.710637364478619702e+02 5.136284968227158743e+01 3.309643424035768788e+01 -1.095430887461341172e+02 4.407938990565885007e+01 -1.230194768858018364e+02 4.695337969023935187e+01 3.798421656252080680e+01 -1.214113057996530074e+02 -8.368964029854220144e+01 3.922036969394461181e+01 8.587017390897678126e+00 -2.284843744091925544e+01 4.121236498869758691e+01 -2.106231505721909514e+01 -6.208974179129401705e+01 -2.579366910190245576e+01 -2.207460926379603805e+01 -3.919065607485399028e+01 1.847066176287657413e+01 -7.924307059472276649e+01 1.170574477759644765e+02 -7.311235681477440096e+01 -4.162900905744290725e+00 6.455143702349944590e+01 3.820273308411156421e+00 1.570579578733893023e+01 1.571341751427715394e+01 -1.152597454988291474e+02 -4.340410347664445112e+00 6.401309489014572307e+01 -2.277484886498318986e+02 -8.352725071625347653e+01 -1.109070469028975907e+02 4.309882595022495622e+01 9.468161732429796018e+01 -9.029691727004028223e+01 -1.652040757345334328e+02 -1.822159514781382654e+02 1.964070310903088412e+01 -1.425921880394864445e+02 -6.222794984852818345e+00 1.451686222275846490e+02 -6.965525084672893996e+00 3.650139727547109203e+01 -9.716097254790552995e+01 7.841263397821772685e+01 -1.163548302805126440e+02 -1.513672062148945585e+01 -2.971209045880556587e+01 5.647318506098935842e+01 -8.677780244264239329e+00 1.035745802407797242e+02 -1.196176410699546437e+02 -4.906241996712466147e+01 8.483882565302216960e+01 6.476775357825204082e+01 -8.058812637936460987e+01 -5.324932666843376694e+01 -4.831064971553968235e+01 -2.830731709328979946e+02 1.892622248002245726e+02 7.438562095286773967e+01 -2.304802496377248744e+01 -2.899588814760616273e+01 4.057931448845857858e+01 -8.217333979798632981e+01 9.719061983156774431e+01 5.905194292704181436e+01 8.000257076308969317e+01 -8.208067125426423161e+01 -2.588029440986201379e+01 3.251728029599492942e+01 1.695789630805932902e+01 -4.179220573365041247e+01 1.540691527955810614e+02 -1.685811627049422867e+01 3.452901855355072058e+01 -2.241408168177786706e+02 -8.255371640325617477e+01 -7.131542784981813554e+01 2.244675012519842383e+01 1.064326765778041022e+02 -2.258905135067535355e+02 -1.823176805216645562e+02 2.160374015368006155e+02 -1.029868236979396201e+01 9.361796102860748192e+01 6.107625308783970297e+01 -5.394522278748590338e+01 -1.276766604287813465e+02 -9.274597201562822590e+01 -4.897705494329456144e+01 -3.646891959689656915e+01 -3.816562471134115242e+01 1.573467272282218232e+01 3.624609772887254877e+01 1.626142855536778313e+02 1.201070935441280483e+02 6.796859019482262454e+00 -4.290523213020204452e+00 -1.547275659367261369e+02 1.166128141940161242e+02 1.552588383964157401e+02 -1.008214000263808856e+02 7.185190129115225943e+01 1.675203805741349639e+00 5.353037318723758631e+01 1.222110410675378205e+02 6.914182956469964836e+01 -1.306446194135284316e+02 1.571716853125270497e+01 -2.864364749051362580e+01 1.086260471668403760e+01 -2.253719357991902683e+01 4.420012551400642309e+01 -2.540869594761958297e+02 1.766615608997416018e+02 7.097424085609276290e+00 1.554789943396716581e+02 -1.027388331933108567e+01 1.035715821074673784e+02 6.989011044717973675e+01 -4.096704015765498497e+01 2.921461059554184203e+01 -7.108294738752321962e+01 -8.688291950491023385e+01 -7.035621750077628178e+01 -3.130410999503689595e+01 4.411797775124664156e+01 1.076057910363712296e+02 2.781757715951185972e+01 6.072106911408614849e+01 -1.024330397398006625e+02 -1.340181948571595854e+02 -1.317813575508139756e+01 4.533943859424758926e+01 -4.444045139292160229e+01 9.246077229507365303e+01 5.429978109073427106e+01 -2.702776704973384270e+01 2.928091553759850640e+01 6.002967714824634982e+01 -7.050999381590376913e+01 -1.307810664956437279e+02 1.389549956338675258e+02 7.642924431930778084e+00 4.905479325441381633e+01 -1.461033546203423725e+02 -5.227120885428505659e+01 -4.342437074894086591e-01 -6.440011873021332178e+01 4.174804448457034134e+00 5.512797620369703111e+01 1.826103055784837181e+02 3.833083882307271750e+01 -1.073706330089935790e+01 7.078155153770012475e+01 -4.456125944907986280e+01 -1.068078650167414025e+02 -1.354542860961445285e+02 9.182068673672606707e+00 2.462275355571609481e+01 2.336201534286634640e+01 -5.579003832633758719e+01 1.185179205316787545e+02 -7.930104971947108083e+01 1.259164102537073546e+02 8.566687033771054871e+01 -6.383741268419606740e+01 -8.318601511171245022e+01 8.267448552253178207e+01 2.006841651650890057e+01 -5.157035420558689509e+01 -5.287960633512021502e+01 1.343109539901685707e+02 5.631912229873741893e+01 7.851847141660810792e+01 2.569447075892316334e+01 -4.133495344885567135e+01 1.055994271036923919e+02 -5.364617292632290457e+01 5.494097420384802533e-01 7.527210098817823791e+01 9.794723257223668611e+01 2.513263626077472281e+02 -1.723415020351890519e+02 1.583370175345161499e+02 -6.648390499202167803e+01 -1.498959585865653743e+01 -2.470962230505251966e+01 -2.040918812363116785e+01 -5.428577566099691154e+01 9.156825514398826726e+01 1.812960563887307899e+02 -1.170352830064384193e+02 3.048444168990312164e+01 -1.250994408381775713e+02 6.921400674414194043e+01 -4.386796972389245042e+01 -7.993126289586437849e+01 -5.319670984206273090e+01 4.066418879229446048e+01 1.913084747000763031e+01 -8.076496953078201102e+01 -1.393532020140203258e+02 2.052144698611979123e+01 1.558019189492773933e+02 1.412629924687393235e+01 1.804741818107141569e+02 7.378509828290325423e+00 1.332081689358122674e+02 -3.423495194214984139e+01 8.982903935442703869e+01 -7.073711907804734267e+01 -1.118227195939372933e+02 4.897260669328639437e+01 -5.747630406435185790e+01 -7.783270381226807899e+01 7.224120958825417915e+01 6.409025171654757713e+00 -9.350575212908934475e+01 -1.493731674319105309e+02 1.467802472613218754e+02 -8.851073346948227538e+01 -2.344069217764345403e+00 1.192536390149021059e+02 5.762622454350789525e+01 -9.756910777958508163e+01 1.057509501534818064e+01 2.803172047135052480e+02 5.299217859247705320e+01 -1.568289353726952413e+02 -4.746255721803129290e+01 -6.118106083565501052e+01 9.572534202803879566e+00 1.070366333920036936e+02 -1.030012064384968937e+02 2.148370402553954150e+01 1.299096528970418660e+02 1.869472838089598810e+01 -2.103998036729677210e+02 4.811759114579482599e+01 7.518977801153619112e+01 -1.353548253241454091e+01 3.266752115802847101e+01 1.594433106751252105e-01 2.245361091536542020e+01 2.763362765020740852e+01 1.154117925404404446e+02 9.768622996556032945e+01 1.554310408140653088e+01 1.484923980599094762e+02 -6.379486556598433111e+01 2.457893042016875711e+02 6.481196608539454473e+01 1.412365310715478870e+02 -2.189360272343138902e+01 8.977436331520475221e+01 -4.881084184223444566e+01 -1.459033244442449870e+02 2.608873378625452233e+01 9.471900763738071305e+01 -8.730836718233281601e+01 -1.044161555727463195e+02 -6.633422646402183886e+01 3.649660990388961324e+01 -1.138580042647279384e+02 7.448455858079630332e+01 2.796816198369761608e+01 -9.732069963032503779e+01 1.893607627060993366e+02 -1.172703754209866212e+01 -1.014651140412501036e+02 -1.336229950678853129e+01 -2.037592278169092097e+01 -1.398157791472971212e+02 -3.990942500278374183e+01 6.133177024997075932e+01 1.314088186716956841e+02 2.895137525666769918e+01 2.667472969784629910e+01 4.466045588619159190e+01 -3.562925476603832209e+01 -1.451956545534520160e+02 1.583305220307491012e+01 3.088168083393846786e+01 1.327380082285037588e+02 -9.880039302554301628e+00 -7.591954165871253224e+01 7.300022690385806357e+01 9.810005436229098930e-01 3.177099805999415594e+01 1.388610737028066922e+02 -1.770174515000614974e+02 -9.260502595026215999e+01 1.243958220120968292e+02 -2.090655704119008931e+02 -1.782206013755837830e+02 8.819955345764445553e+01 1.492328667728899632e+02 6.144608467847184841e+01 -4.328412548687373906e+00 1.509271554470145418e+02 -2.127272422569770072e+02 1.038419876625818858e+02 4.106787569265381421e+01 1.231451294596311783e+02 -1.827588431609440249e+02 1.032274567807663601e+02 -2.737475179902883227e+01 -1.295589345303909283e+02 -5.158945145827638079e+00 -8.953804084278760911e+01 -1.575254757374976045e+01 -4.190431537164174713e+00 -1.193834202314278059e+02 -1.195045938725827313e+02 -6.063401694381989415e+01 -1.249259816089778354e+02 1.947694835609894710e+02 -1.561016245572396883e+02 -4.862461614959244116e+01 1.672039242099816363e+02 3.288014520171604005e+01 -2.868368299107065695e+02 -1.231831292336240011e+02 3.441096961681419231e+01 5.296653418081395870e+01 8.298760772474896186e+00 -1.498238758475655175e+02 3.458244084455975553e+01 7.260082114720978197e+00 -7.203003413956706424e+01 1.964566920087098367e+02 1.963137736665315174e+02 4.207634458218818096e+00 -2.020917876005771916e+02 1.220855467657930404e+02 2.980603295659466667e+01 3.673489303744993162e+00 7.423086701271761001e+01 -2.010622973086975946e+02 -1.337543783973633538e+02 1.366623531548010817e+02 1.062571057801160634e+02 5.127599862725691793e+01 1.387651288337609401e+02 -1.727467099704382179e+02 -1.982093603333953169e+01 -1.263760181857352194e+02 4.228649080745903888e+01 -1.006557940401827267e+02 8.436783474336330357e+01 -3.285582079229309471e+01 1.200092357230059648e+01 1.719441560994683300e+02 2.764585273960653211e+01 -2.554110429984952475e+02 -1.224667656840861838e+02 -8.076586098522811596e+01 1.532125589790587981e+02 1.215002893252465022e+01 -5.219445841381677553e+01 2.940445985525468586e+01 6.056205937382435422e+01 -3.833488199016045428e+01 1.041830723101412985e+02 -9.762324649873058036e+01 4.768926371901003591e+01 1.084648102472713447e+02 -3.439441350704938571e+01 -9.508634369289288202e+01 -1.099316932033174652e+02 1.160520630839866101e+02 -4.813680538012621923e+01 1.904640658985815094e+02 5.543352064929614897e+01 1.075122681017501947e+02 1.787603714315393688e+02 8.292758838712519065e+00 -1.204498542145739890e+02 -1.606067197629323573e+02 -1.106378533450316155e+02 4.118035350946504281e+01
-1.287409500436418952e+01 -4.576550394087198548e+00 9.801138877022829377e+01 -2.167857414498608080e+02 1.471070280099043828e+02 6.010345499398309244e+01 1.440052103737388052e+02 -1.222542853614037881e+02 -2.623242277129542721e+00 -2.277732865745477042e+01 -2.077451981639044334e+02 3.096588005790146880e+01 -1.733969521082734389e+01 1.157609567178478471e+02 -1.183978818766445897e+02 5.840929660052756134e+01 1.185769024181673075e+02 -4.349195918733223465e+01 -4.695301043415742015e+01 -2.555633002069500037e+01 5.841730185138884934e+01 5.970129993149279812e+01 3.069320971404915710e+01 -2.200529273776017760e+02 -4.881527116945542133e+01 8.663104398345059565e+01 9.379617869704116373e+00 -9.815811855849659651e+00 -6.295817803217546071e+01 -1.465794241953707200e+01 6.940518341078562514e+01 -1.376044093382963922e+02 -5.861889055958436501e+01 8.495075332992779948e+00 1.964256404449243121e+02 2.006763903069007142e+02 -3.039921782152097407e+01 5.288562308348589625e+01 -2.499952530067194312e-01 -1.321515279118407307e+02 9.081953518021717287e+01 1.014669265637319455e+02 1.026853160972554804e+02 1.105274008069561198e+01 5.856019879381774729e+01 4.553455764448439425e+01 3.679043008093780287e+01 2.777598409008266955e+01 1.043553817133527559e+02 8.488873791354652099e+01 6.205902444434739351e+01 1.542327087257562255e+02 2.344598397479258551e+02 1.850732687216351735e+02 -5.595882280780966767e+01 4.661949793602161662e+01 -6.081677915890701058e+01 5.336386827776424013e+01 -1.818580422209072367e+02 5.346268364385058192e+01 -1.937477760680571635e+02 -1.596501239109903736e+02 1.225440310247733322e+01 -8.760908835823721930e+00 1.604141762468143497e+02 -1.967955462735648098e+02 7.123176195797591959e+01 2.174977802529679423e+02 -6.979742723177670527e+00 -1.843255335420773235e+02 3.363711371341190670e+01 1.866107030241349491e+02 -5.783135208522668336e+01 -2.522563139878001834e+02 -9.706942236537149427e+01 8.413983096575977427e+00 -2.177735818375489885e+02 3.035754927769742650e+01 -1.698698567529367267e+02 -1.756661260186981224e+02 -5.411518574847407592e+01 1.443331980589202885e+02 6.577459682902374993e+01 1.005166297981018175e+01 -8.396510897052496603e+01 -4.034713745590886447e+01 6.037069000980081057e+01 -2.198902578828384549e+02 5.125182116502337237e+01 -7.101477581164967035e+01 -7.402898564031210071e+01 -1.675198042789953377e+02 6.163462532568545527e+01 8.785674435505703173e+01 -1.538208425918798810e+02 1.637544232161475861e+02 -3.779946931022174539e+01 -1.603680584051596725e+01 8.305797620966320949e+01 1.481927701259826620e+02 2.060019733125474417e+01 1.435812794662271870e+02 -1.753667648888999508e+01 -8.599660260287249969e+01 -1.859182171542111561e+01 9.582891228468953670e+01 4.384503863507902111e+01 9.537754787807226364e+01 9.202338227999828746e+01 -8.100494527947877543e+01 -1.656657826465606149e+02 1.199765858297799781e+02 5.289105799752689308e+01 1.581279233702212750e+01 2.981183670387072837e+01 -6.623504218614148442e+01 9.364466401022366426e+01 8.762917416241472779e+01 -1.337422497900312912e+01 -6.949220126517595020e+01 2.996041452933060611e+01 6.127781228477119591e+00 -5.998471429336271399e+01 1.654128737885964995e+02 -3.204961083646844600e+01 1.186343284299854588e+02 -6.839131821592577865e+01 3.745574605186349970e+01 -3.520674220925057796e+01 8.731901808161363476e+01 2.290942015559134504e+01 1.128047072795991852e+02 -1.132421885149450986e+02 7.257079950120673573e+01 1.205306969674733324e+02 -4.363585008732420789e+01 7.452399063428966741e+00 -1.244755584098960099e+01 1.140559043703570410e+02 3.538277993567958912e+00 1.646851698179806078e+02 -1.381171610710416644e+02 1.139454281034290233e+02 -8.917994450997197475e+01 9.358516663026814797e+01 -1.339109619081437756e+02 2.883695188405861387e+01 2.418793100388424477e+01 1.749101651514601397e+00 3.549161099924419460e+01 4.493830050378689833e+01 -1.211493921830702547e+01 1.062697263550960791e+01 1.056748387433577676e+02 1.244089449675545751e+02 -8.477523437271307216e+01 -5.298405177472311323e+01 4.629124924303253152e+01 1.489365736238695614e+00 -1.339732202424266347e+02 -5.392234659390896923e+01 -3.465208856396517945e+01 4.783896218354490770e+01 -6.411561339821960814e+01 2.242333904230489949e+01 1.569509775242841840e+02 -7.776893316721961469e+01 7.912128098273382193e+01 8.230787968601751459e+01 1.102975906690132746e+01 1.208921143510069101e+02 6.159412509551325599e+01 1.646245082772126693e+02 -3.389989574209139533e+01 1.101950024774741621e+02 5.445436878399447522e+01 -1.574930198270244119e+01 2.001490268962971868e+02 -1.361069693393319255e+02 4.795572578385522178e+01 -1.840275667761628142e+02 -8.259470949398009054e+01 4.027763932240675615e+01 -7.088448676133425863e+01 -1.529713538047091674e+02 1.957255057021939990e+02 -8.423938032695178890e+01 -4.664661573927875082e+01 -4.545571763575338764e+01 1.195975833334879042e+02 1.913449665301996845e+02 6.361449962530615920e+01 1.436925152482193084e+02 2.156469096096834903e+02 -1.577316468413568762e+00 1.600600849213854246e+02 6.965843389621468873e+01 1.871035463147382529e+02 -1.236267917071225071e+02 -1.163980226159960019e+01 6.242493000515964674e+00 1.866636766050434630e+02 -8.929863623932754990e+01 -5.946637130580823083e+01 -5.202541797111139488e+01 -1.316986414730423007e+02 4.589516817349598377e+00 -9.919064788630019791e+01 1.515013599706870764e+02 2.314604932364841972e+01 1.178842764604485183e+01 7.106106507672890871e+01 -4.833748497289586332e+00 1.149760896010991473e+02 -1.561378695374702090e+02 4.464046121544010504e+01 -1.678690209439897956e+02 1.154049717223660565e+02 9.442840066500379237e+01 -6.613484983592765332e+01 4.598723063785381981e+01 2.340472835907519027e+02 -2.994607928542433584e+01 4.093661532242211365e+01 -3.211671667074748626e+01 5.694638389018283675e+01 6.316267623640921869e+01 -6.173861006583397426e+00 1.001448986744737510e+02 9.971719617723336171e+01 -1.905173781151442824e+02 -1.505848942289673573e+02 -1.177596847457348019e+02 -9.270334577874200122e+00 -1.471703076084788506e+02 1.135417344400937196e+02 1.084147572287068755e+02 5.796941980419675389e+01 1.096943313300183576e+01 1.549243008424132881e+02 8.249245105973353986e+01 6.632636617304622462e+01 -9.982627401776062470e+01 1.497302897026675907e+02 -3.534155174773817354e+00 1.074270182699019927e+02 8.665086401780738967e+00 3.609438516641514383e+01 -7.434799899497411957e+01 -8.912787536318316484e+01 7.031050905420958941e+01 -3.788128237783235708e+00 1.435857708450484154e+02 -1.233490981171039103e+01 -2.795698439115088085e+00 4.502382779636021581e+01 2.221780632886008888e+01 1.388301960919463625e+02 1.440793051723698603e+01 3.519034429952640153e+01 -1.518200513582406188e+02 6.459828950066010123e+01 1.311391097969074622e+02 -1.727968208177232867e+01 -2.236487956348780699e+02 8.277113165462584732e+01 1.334293639669643028e+02 1.994169211791054863e+01 1.850485959999020906e+02 -4.145763015920895356e+00 4.194800637613435157e+01 -4.265116969453193008e+01 -1.355081696850126320e+02 5.473833487935329600e+01 -4.638148802864429854e+01 -7.911760788424092539e+01 4.024976385025867387e+01 -1.803707119606117715e+02 6.994647804406943692e+01 1.604434363183266612e+02 -9.874939675791962657e+01 1.687407530469874928e+02 -9.519825334967883634e+01 -5.819861984923802467e+00 -1.027424995160452426e+01 7.470082558809862405e+01 -4.542498742013754054e+01 -1.050222012455084695e+02 -8.629176647879843642e+01 1.419920900821907424e+02 5.756006386573338318e+01 -1.283214414438757842e+02 4.306809666825161642e+00 4.225674848484112545e+01 8.033778133620234030e+01 -3.923991152562960849e+01 5.833112332492736840e+01 -6.709174911301225563e+01 -1.578856021473145859e+02 -3.367660702150672591e+01 1.370781637557037982e+02 -1.102613805570161958e+02 -6.217723172123752029e+00 -1.583381620857402083e+02 -4.692059368879787584e+00 -1.417950450530325952e+02 3.200619066610783392e+01 5.850777766739513908e+01 -4.890215909006518302e+01 -8.003421223362998660e+01 5.478408446771775075e+00 7.227146128582637630e+01 -6.582370075377811247e+01 1.307979321875003222e+02 1.024929018607476365e+02 -1.239281655342660287e+02 -1.023790540128511140e+02 1.311130682407230665e+02 6.921123410247666641e+01 1.457512027784816837e+02 9.708339132744231392e+01 7.871411562338049350e+01 -5.845903171785965213e+01 -7.927622796045612574e+01 -7.470931064362697782e+01 1.982337719488594701e+02 2.964405593998511890e+01 -2.414250697956622815e+01 -6.637024278220557960e+01 -4.838900352482546907e+01 -1.270994888668160598e+02 -1.595233934204359727e+01 -1.693370294151067128e+02 1.206620892331395680e+02 4.438016321991438673e+01 -1.111892349520597918e+02 -4.670630699268787822e+01 1.155442343929210978e+02 -9.353367261292983414e+01 9.922746041086716673e+01 -1.143141506043742055e+02 -1.136192396935799742e+01 -9.214751485942154829e+01 8.658036372712092543e+01 -4.097888605377551130e+01 9.917071199705935314e+00 2.831207990681922482e+01 -1.221685086996111380e+02 1.205687592207942593e+01 4.665146192605194386e+01 -2.156879798708385110e+01 -6.630431829368046692e+01 1.953765086748881288e+02 8.338293717465732868e+01 4.543108753392409227e+01 -3.029271437094041985e+01 7.735186943972369988e+01 1.616257124025875385e+02 -8.894900436830465651e+01 2.019906899420421382e+02 -1.283476899405909535e+02 -1.773325706531391290e+02 1.463669648507226100e+02 -2.255927387718478201e+02 -9.231900904971579447e-01 -2.361576808348493159e+02 -1.474129354179906954e+02 6.919835737270491904e+01 -1.403883940401923951e+02 5.627843428372191426e+01 1.060031905917884814e+02 -1.545899571759652247e+02 -2.902205254804025003e+01 7.271080234437671663e+01 1.291117339389153358e+02 -1.794420795087917782e+02 8.435296499817678750e+01 -9.445257774697738284e+01 -9.501189674398759166e+00 -1.336249246987716965e+01 -7.671265759795272743e+01 -8.705276501153251445e+01 1.748645261031756206e+02 -2.092668606126904152e+01 1.299265351661746504e+00 1.255854220025349548e+02 -8.363663252693734762e+01 -3.320571468168349583e+01 -1.038760714005239407e+02 -4.710697722227010331e+01 4.973525993750917529e+00 5.728904516071560948e+01 -1.304355155139322733e+02 2.291451768087259779e+02 -5.208331874533448058e+01 1.185654441803221175e+02 -4.721840851992728005e+01 1.158599184618182960e+02 1.346311708338043047e+02 4.640697584948718912e+01 1.181507599483331461e+02 -4.184218841417280998e+01 1.355026910529348925e+02 -1.515128300642446106e+02 -6.332590155311542190e+01 -6.098228982562941525e+01 2.476203546925987098e+01 -1.571888500667760127e+02 7.026328581530698614e+01 -2.987426741430265054e+01 -8.005149543195574324e+01 8.678095482743064792e+01 -1.463798197694968337e+02 -8.837679106841359555e+01 -5.099931531822927866e+01 3.204128089225443432e+01 1.257555924629036639e+02 1.131896779659758181e+02 6.694188131595431912e+01 -1.519725493357503510e+00 1.694422355699336720e+02 1.187016433576246328e+02 -9.152652581843912571e+01 -7.567923426913596074e+01 5.347608074844109893e+01 9.641680890917982083e+00 9.491591597915846990e+01 1.615190702215032843e+02 6.838786406551916741e+01 2.367078800775877667e+01 -9.901568440799108828e+01 1.663913812483482957e+02 -1.100971575470670416e+02 -1.600698286724377226e+02 6.365507383365647343e+01 1.079761033113494904e+02 1.902606819522113213e+01 -1.344414037707178977e+02 2.876905637163765306e+01 4.105770442595657244e+01 -3.437220843994669428e-01 1.267396579423494245e+02 9.459751177722183968e+01 1.656103671210484762e+01 7.581614213961142923e+01 -1.034995987754118119e+02 -6.150518176609197418e+00 9.515250656450319866e+01 2.872733869640359572e+01 -6.291074364118709639e+01 1.915926657743978296e+02 2.235536819670410580e+02 -1.213615480616249300e+02 -2.672018806186153839e+01 -2.032467228387131115e+02 -6.979717353571763283e+01 1.513876236554521597e+02 3.260271031361022587e+00 -6.863085420324105712e+01 1.583182150119664868e+02 -6.040599745624697903e+01 -1.552472189831725586e+02 1.319903787736132585e+02 -6.493772595714865759e+01 3.334909406986732705e+01 8.342990446357788414e+01 1.332615921522996771e+01 -2.302063742324350244e+02 4.088862215618442519e+01 -5.958993181018056084e+00 8.706229128948942275e+01 -2.276760597230720151e+01 9.768146833172568222e+01 1.641685007673712349e+01 -8.182210004165176542e+01 -1.978899205261956595e+01 -1.692855733683370829e+02 1.110706198600598356e+02 2.442176997546507522e+01 -4.020076471418110486e+01 -5.003754706655529105e+01 -6.077075607531261170e+01 3.972481400690690378e+01 1.552236981282764816e+02 1.281742858391417883e+02 4.157972206101013057e+01 -1.911227684998715972e+02 -3.747284702555134572e+01 4.232836678660753904e+01 1.133238212004762460e+02 8.421962672399304495e+01 1.491234760784891122e+01 -1.796753294183298237e+02 1.271840481642850449e+02 -2.161121030543086761e+02 -1.987883592650785545e+02 -1.767881735638899610e+00 -7.125160657148435916e+01 -2.329495170572566565e+01 8.414649879149530420e+01 5.401037813712550673e+01 -1.073947623388583850e+02 -1.462980700399226919e+02 1.408476402131599592e+01 1.194668774182222819e+02 1.996800205637975267e+01 -5.477352722729619927e+01 -4.988742225671816755e+01 -1.131727120417074062e+01 1.558672545058759340e+02 2.160191987127657853e+01 -1.708071516908728711e+02 1.261939217593668161e+02 -6.571529875547649624e+01 -4.104245842753415197e+00 1.514256182276822642e+02 -5.141099641349971705e+01 -1.926589301199582138e+01 -1.080201969531739650e+02 -5.901259891781420741e+00 -2.345062299361634217e+01 1.294853098661066895e+02 1.180668703732462461e+02 6.645474908815744186e+01 6.435394537343005084e+01 -1.839566309106628594e+01 1.329205650417673894e+02 -1.108877584674619214e+02 -4.184389517556988736e+00 -8.953324853617556300e+01 1.544732974364066820e+02 7.171589326573622714e+01 5.080872487674825067e+01 8.117519087646014597e+00 -5.241059813866605310e+01 3.380632474066659654e+01 6.616269094820244945e+00 3.586626299159659581e+00 2.369827808481044684e+01 5.877252568631085694e+01 1.674006750243837587e+02 -3.820463522529458089e+01 -5.110193749139084929e+01 6.566862638252769102e+01 1.137193085354410300e+02 -1.259901417957967595e+01 9.040187448066645004e+01 1.023326846624360940e+02 2.072321647756659786e+02 -8.507908814225335448e+01 -1.206004685831449024e+02 -2.816005438556201668e+01 6.110935258468602171e+01 -9.976133971765431596e+00 1.055860138623531270e+02 3.661267755832116677e+01 -1.598461437274235664e+02 4.428323486448957169e+01 -8.792198890990025006e+01 -1.329622506588175952e+02 1.321780909673045983e+02 -7.472670987286426225e+01 5.814416647709886377e+01 1.092247789922918741e+02 -9.725822669906784768e+01 2.308351278145011065e+01 -7.086205518300936035e+01 3.956572305377044785e+01 -1.125840890765940827e+02 6.048934844873171102e+01 5.369561556709943062e+01 3.810546196194765312e+00 8.250752070438964836e+01 -1.500965507521895290e+02 7.496793450646252666e+01 -2.876299515333988310e+01 -1.646490645381243496e+02 9.210369489722516789e+01 2.392136480122972841e+01 -1.911394998549997979e+02 2.292981514666885516e+02 -5.235731228247788582e-01 1.024888900059071801e+02 -1.175283843594721560e+02 -1.892583283768088904e+02 -9.094490932694981211e+01 2.432754245925255354e+00 1.392423196898113815e+02 3.872640289514129641e+00 -9.314488100132219017e+01 4.908333610320158868e+01 1.335568798246251845e+02 6.331599912603336122e+01 -5.041027795639799791e+01 -5.764131460856300748e+01 8.235445136659959076e+01 2.994338957768754739e+01 -1.906033439604229613e+02 -2.020356523317903452e+01 1.647257380690853950e+02 9.628858044947511985e+01 -5.587726638011050539e+01 -1.089591067307871981e+02 -4.158710302387252256e+01 -4.685804619885830391e+01 -1.115366204924113589e+02 -1.797832036489084118e+01 -4.449742722397240158e+01 -1.107278603778329966e+02 -1.285605770568338073e+02 -2.626598346947474028e+01 -1.224780642050595816e+02 -1.304217555396162425e+02 -3.735652143959333671e+01 -5.392483676710542539e+01 -1.081995441642718845e+02 1.879501793053686640e+02 1.062539345084524101e+01 -2.840075187433477666e+01 -1.716511462821902967e+01 7.942865853484103411e+01 1.579720100412827755e+01 2.528932533025352924e+01 -2.145811718157076697e+01 -4.672005070759973222e+01 2.111436297493602510e+01 -1.467823929866851529e+02 -1.607241881222328743e+02 -9.126628751436835785e+01 -1.926875000268614713e+02 -9.047703971005311985e+01 8.660203523038521212e+01 6.198036289773273211e+01 -2.630406045339390886e+01 6.135375534380137452e+01 -1.580873773391120949e+02 -4.126012727967780336e+01 -1.172619503317379070e+02 -6.739242275994102727e+01 2.130154309745373951e+02 -2.072672878580089275e+02 2.072442956430408572e+02 2.521355665930682832e+01 -5.699852694759428573e+01 9.310615973140198776e+01 1.252778930520865686e+02 -5.238809161290346594e+01 -2.057230427691256693e+02 -1.505351227283666447e+02 1.032667152730938653e+02 8.456745892899827766e+01 -1.368798038885466326e+02 3.224924102369277534e+01 -4.006545694134512559e+01 -7.814906533825495671e+01 -2.870115158123290655e+01 -5.534739447169862103e+01 -8.726105810404779106e+01 -3.438390405718901377e+01 4.553641600658502320e+00 -3.299038280637152809e+01 -3.811342467403162071e-01 -1.446851647342439939e+01 9.283942773778453272e+01 1.283349617076040659e+02 1.328922230908823110e+01 1.696129759902397183e+01 -6.374410128627508954e+01 -1.979497047830536758e+02 3.417708419403682996e+01 -9.260846079699309996e+01 2.608795576279623418e+01 -8.220858418913083554e+00 1.056529846720820398e+00 7.304078095933962800e+01 1.230684363852116547e+02 -7.116202454403922673e+01 3.836687322521120791e+01 -1.947524557642623790e+02 9.775219896151677190e+00 7.022531574129610377e+00 -1.237461894561674711e+02 -3.404207251523434508e+01 -4.475747094879029930e+01 4.812329372799299065e+00 -1.032356586731191754e+02 2.731419897733997004e+01 -9.859028383343313351e+01 5.661802767445342255e+01 6.852138534806142900e+01 3.724965800715571618e+01 -2.929659179098282706e+01 1.085060260204345752e+02 6.167625884918132328e+01 8.076919283291140061e+01 -6.764344919797075306e+01 2.046097454159649232e+01 1.290919183261495391e+02 -5.903755574874367085e+01 -6.981519832492446120e+00 3.228576596090119466e+01 -1.296099790232326257e+02 9.871237153745528303e+01 9.039540637380801513e+01 -1.020837296223915445e+02 -8.309407989461553257e+01 -5.603080922380642903e+01 -4.601470286356735073e+01 -1.616594549842568824e+02 -1.371040663436372711e+02 -1.336395613507185089e+02 1.065771649002127930e+02 6.030779285471364659e+01 1.608853176694475451e+02 7.264002523299833314e+00 -8.642274300788720609e+01 1.890332095678023450e+01 1.394227423661421383e+01 -6.405934219087602344e+01 7.464328913411536348e+01 1.189940665546292138e+02 1.004954213055632017e+01 1.444882747966341867e+02 2.267044348523839403e+01 1.117949679837543613e+02 1.519294562586287789e+01 -2.093337212473257978e+02 2.199904837276088472e+02 -4.929431600538232772e+01 -1.501667314749323054e+02 -6.767048282570787876e+01 -4.318445598665613261e+01 4.149364811073716908e+01 2.565452348407036354e+01 4.584922154492829804e+01 -7.422244685889356219e+01 1.225607262200804399e+02 -8.636937759796377634e+01 -7.019323918409746454e+00 1.425355124310086978e+02 1.096481861811125071e+02 5.802837004909568464e+01 -1.769958259151909488e+02 2.542058883547768744e+01 1.402899489870108027e+02 2.340439871476253231e+01 9.744269250825588813e+01 1.062236270881006277e+02 -2.109717713081044508e+02 7.672309981096047693e+01 -5.758597989606236212e+01 -2.241956564911659200e+02 8.816163180279208689e+01 2.445629275115529211e+01 -1.209302999222824297e+02 -5.795345442055315743e+01 1.371659689176423171e+02 1.456289722248121734e+02 -7.476637457778920748e+01 -1.258431293832905453e+02 -8.206591949845453371e+01 -1.629703098454324675e+02 1.921168447646369870e+01 3.721595885375946722e+01 -1.663954835406083888e+01 -1.212296445969634995e+01 -8.756803167675303712e+01 -8.632842706359723195e+01 -2.407641573690554893e+01 1.303772694564681842e+02 1.324734577826076247e+02 7.882500293524810786e+01 9.427706692472258965e+01 -7.619424035609274881e+01 -1.750135117886931084e+02 -1.279098815514615950e+01 -2.238652287232004667e+01 -6.869290139214024293e+01 1.440451331669868607e+00 7.064362977859541104e+01 -5.116593529942692697e+01 2.386478647667238917e+01 7.656421905982476517e+01 6.778164329597845494e+01 1.068795821504720891e+02 -1.442272392640862506e+02 3.832353853315289882e+01 8.055171612759608024e+01 9.161767379019245539e+01 5.709863392326893461e+01 -9.981431135673648214e+01 1.323889632976554935e+02 1.232497658268383418e+02 9.266859738200621166e+01 9.816910297231147808e+01 -8.142371930990276496e+01 -1.437139976736536973e+01 -1.251224568679026383e+01 7.449204564397315664e+01 6.281802426554281737e+01 5.414300442923840961e+01 9.433570527172793163e+01 1.126347257816149749e+02 1.198180580061461171e+02 -6.271271954987206243e+01 7.793447951328752765e+01 6.307402214331821000e+01 -1.137624965959365824e+02 1.272470454269211189e+02 -9.697715398727380531e+00 -2.700457650887701533e+01 1.927576271970031883e+02 8.560219115513230292e+01 1.200796292546617963e+02 -1.396776053110819191e+02 -1.527152958949807555e+02 -1.487806152514298788e+02 -1.182646197995752146e+02 -4.288003031983501501e+01 1.063222723412748678e+02 -1.633868022891058729e+02 3.150178718296977820e+01 1.398844925944099202e+02 -5.752792304988598460e+01 -8.855467394602324305e+01 -3.406126802323013436e+01 1.317651579427123636e+02 2.204756231255337866e+02 -6.469331742549459818e+01 1.923317590969070778e+01 -2.686814785819668217e+01 6.648387194593883009e+01 5.848488904286691081e+01 -2.070366796706907166e+02 -8.610427135819003297e+01 1.336271744270091233e+02 1.357895342520093038e+02 9.183694130073639883e+01 -4.841229199929726690e+01 -7.364893280715476465e+01 -4.410833320809138769e+01 -1.715989739461398358e+02 6.914957291251539573e+01 -2.493974913158595896e+01 1.617466825179315606e+02 -2.716273607455336858e+01 -3.059016494312035661e+02 1.408786570098117465e+02 4.886897405897416746e+01 -1.147201524325652287e+02 -2.156209337549159244e+01 3.434098652701023013e+01 -2.020317000376100225e+02 -1.111669414146360566e+02 -1.066593111617254692e+02 -5.488265127422263845e+01 6.109747453617883650e+01 -1.604044789030972140e+02 1.050066118744506127e+02 -5.286330831901027238e+01 2.843170262332323173e+00 -1.298530337780351545e+02 -1.008816832296027428e+02 1.711712739498880467e+02 8.436470639867253851e+01 -4.111516121599879625e+01 3.617443759354279109e+01 -2.731074397232330497e+01 4.214205904146778892e+01 -1.018769367981526273e+02 9.630847792128903961e+01 4.917937335853626735e+01 -1.158018986549374603e+02 1.137163018390034779e+02 -4.784480589778143411e+01 9.731734504802277286e+01 -4.812332573532341939e+01 8.609400485267842384e+01 -1.494500274310220505e+02 1.390528533188470988e+02 2.412987915241280490e+01 9.808555001752534963e+01 1.270981421701738583e+02 -1.429275667482084486e+02 -8.372428596056802519e+01 -1.029622493545767128e+02 6.518241393549213569e+01 -1.670364543015787149e+02 1.477210095605256583e+02 1.387984782784286324e+02 5.165139200338596481e+01 -8.277816649692331907e+01 5.564122986227769729e+01 -1.046571915235753067e+02 -1.066354335776891737e+01 3.410722452137927974e+01 -1.791965238727023859e+02 -7.956027377912333520e+01 -1.320106222055154532e+01 9.968269195287308548e+01 -4.898475526621648157e+01 1.060789552256619714e+02 -6.275945088151565443e+01 -2.056762322612044329e+02 -1.045005447307565021e+02 -3.322245086665594727e+01 -5.873236519242783515e+01 2.936638140143639220e+01 5.018023947270170737e+01 6.188384656982796272e+00 2.476125650052321703e+01 -1.145655273903033446e+02 5.259958005080902410e+01 3.186877186503323856e+01 -7.047508241063007972e+01 9.060238628236405134e+00 5.505560107833863270e+01 -9.319919102402998590e+01 -5.382226797970754717e+01 -2.360925193586128756e+01 9.534741227514922457e+01 -1.674034509556694417e+01 4.099697089386654447e+00 -2.229381802317195138e+02 -9.287985801919249695e+01 9.671065858007398219e+01 -8.718253806988133192e+01 3.063395194198125893e+01 3.036425076846472138e+01 3.706631544785199139e+01 6.460716736976820584e+01 -1.735057757349845531e+02 1.407815145813289064e+02 7.971857560969606027e+01 -7.365400542181157917e+00 -7.901787807761597549e+01 1.094122309975699068e+02 6.072863541046510960e+01 -1.966888542277490330e+02 -4.926954422558853253e+01 -7.991126754867826776e+01 -5.067939602090019946e+01 -6.055962867999966903e+01 -9.685380972663371324e+01 -5.904165962376489318e+01 1.873329513727662743e+02 -1.670291592014754656e+02 6.404369005785291336e+01 2.714049860588741936e+01 -7.355014121416891726e+01 1.016711768549609474e+01 -3.857392707833053436e+01 3.360842647305152475e+00 -9.405943382298127631e+01 -1.932881379882120711e+02 1.799671586450008220e+01 4.099398362773004578e+01 -1.251972093754464410e+01 -8.786831983754273878e+00 -3.892076605546051837e+01 -1.858164954745706439e+02 -2.997775030670132068e+01 -6.395250013071439099e+01 1.364663352897339976e+01 -1.527943770802097134e+01 8.863631781281205235e+01 -6.168585517757881576e+01 -1.014690000938686154e+02 -3.494702344048517517e+01 -8.797369332504850092e+00 4.448941068157405709e+01 -2.165312669865411976e+01 -7.222118762369001388e+01 -1.554126797430937224e+01 1.962353840719890741e+01 4.649254100515096866e+01 -1.115744073908107339e+02 -1.360791899003144465e+02 2.254777846744298984e+02 -2.136778736898637021e+02 -7.433279161430834847e+01 -4.535111141358163422e+01 1.369096442271522278e+02 6.194750675960371922e+01 2.241075241850762154e+02 2.396281213334658275e+02 -6.104810154072978889e+01 1.267427160832145034e+02 -5.483748803065489597e+01 -3.996558670697409354e+01 -9.852383680319429970e+01 -7.817239310107494532e+01 -6.809870367742418296e+01 -8.715805960750633119e+01 -2.386976410678774130e+02 -2.652033716416140123e+02 1.318767564536296391e+02 -2.598551685986519288e+01 5.215979259573148852e+01 1.281760193321406121e+02
