# 
#                 ----------------------------------------------------
#                 Data from a 3D direct N-body simulation. 
# 
#                 rows are i-particle; 
#                 coumns are :mass, tag, x ,y, z, vx, vy, vz, ax, ay, az
# 
#                 NTHU, Computational Physics Lab
# 
#                 ----------------------------------------------------
#                 Time = 2.199999999999997
1.000000000000000000e+00 2.000000000000000000e+00 3.000000000000000000e+00 4.000000000000000000e+00 5.000000000000000000e+00 6.000000000000000000e+00 7.000000000000000000e+00 8.000000000000000000e+00 9.000000000000000000e+00 1.000000000000000000e+01 1.100000000000000000e+01 1.200000000000000000e+01 1.300000000000000000e+01 1.400000000000000000e+01 1.500000000000000000e+01 1.600000000000000000e+01 1.700000000000000000e+01 1.800000000000000000e+01 1.900000000000000000e+01 2.000000000000000000e+01 2.100000000000000000e+01 2.200000000000000000e+01 2.300000000000000000e+01 2.400000000000000000e+01 2.500000000000000000e+01 2.600000000000000000e+01 2.700000000000000000e+01 2.800000000000000000e+01 2.900000000000000000e+01 3.000000000000000000e+01 3.100000000000000000e+01 3.200000000000000000e+01 3.300000000000000000e+01 3.400000000000000000e+01 3.500000000000000000e+01 3.600000000000000000e+01 3.700000000000000000e+01 3.800000000000000000e+01 3.900000000000000000e+01 4.000000000000000000e+01 4.100000000000000000e+01 4.200000000000000000e+01 4.300000000000000000e+01 4.400000000000000000e+01 4.500000000000000000e+01 4.600000000000000000e+01 4.700000000000000000e+01 4.800000000000000000e+01 4.900000000000000000e+01 5.000000000000000000e+01 5.100000000000000000e+01 5.200000000000000000e+01 5.300000000000000000e+01 5.400000000000000000e+01 5.500000000000000000e+01 5.600000000000000000e+01 5.700000000000000000e+01 5.800000000000000000e+01 5.900000000000000000e+01 6.000000000000000000e+01 6.100000000000000000e+01 6.200000000000000000e+01 6.300000000000000000e+01 6.400000000000000000e+01 6.500000000000000000e+01 6.600000000000000000e+01 6.700000000000000000e+01 6.800000000000000000e+01 6.900000000000000000e+01 7.000000000000000000e+01 7.100000000000000000e+01 7.200000000000000000e+01 7.300000000000000000e+01 7.400000000000000000e+01 7.500000000000000000e+01 7.600000000000000000e+01 7.700000000000000000e+01 7.800000000000000000e+01 7.900000000000000000e+01 8.000000000000000000e+01 8.100000000000000000e+01 8.200000000000000000e+01 8.300000000000000000e+01 8.400000000000000000e+01 8.500000000000000000e+01 8.600000000000000000e+01 8.700000000000000000e+01 8.800000000000000000e+01 8.900000000000000000e+01 9.000000000000000000e+01 9.100000000000000000e+01 9.200000000000000000e+01 9.300000000000000000e+01 9.400000000000000000e+01 9.500000000000000000e+01 9.600000000000000000e+01 9.700000000000000000e+01 9.800000000000000000e+01 9.900000000000000000e+01 1.000000000000000000e+02 1.010000000000000000e+02 1.020000000000000000e+02 1.030000000000000000e+02 1.040000000000000000e+02 1.050000000000000000e+02 1.060000000000000000e+02 1.070000000000000000e+02 1.080000000000000000e+02 1.090000000000000000e+02 1.100000000000000000e+02 1.110000000000000000e+02 1.120000000000000000e+02 1.130000000000000000e+02 1.140000000000000000e+02 1.150000000000000000e+02 1.160000000000000000e+02 1.170000000000000000e+02 1.180000000000000000e+02 1.190000000000000000e+02 1.200000000000000000e+02 1.210000000000000000e+02 1.220000000000000000e+02 1.230000000000000000e+02 1.240000000000000000e+02 1.250000000000000000e+02 1.260000000000000000e+02 1.270000000000000000e+02 1.280000000000000000e+02 1.290000000000000000e+02 1.300000000000000000e+02 1.310000000000000000e+02 1.320000000000000000e+02 1.330000000000000000e+02 1.340000000000000000e+02 1.350000000000000000e+02 1.360000000000000000e+02 1.370000000000000000e+02 1.380000000000000000e+02 1.390000000000000000e+02 1.400000000000000000e+02 1.410000000000000000e+02 1.420000000000000000e+02 1.430000000000000000e+02 1.440000000000000000e+02 1.450000000000000000e+02 1.460000000000000000e+02 1.470000000000000000e+02 1.480000000000000000e+02 1.490000000000000000e+02 1.500000000000000000e+02 1.510000000000000000e+02 1.520000000000000000e+02 1.530000000000000000e+02 1.540000000000000000e+02 1.550000000000000000e+02 1.560000000000000000e+02 1.570000000000000000e+02 1.580000000000000000e+02 1.590000000000000000e+02 1.600000000000000000e+02 1.610000000000000000e+02 1.620000000000000000e+02 1.630000000000000000e+02 1.640000000000000000e+02 1.650000000000000000e+02 1.660000000000000000e+02 1.670000000000000000e+02 1.680000000000000000e+02 1.690000000000000000e+02 1.700000000000000000e+02 1.710000000000000000e+02 1.720000000000000000e+02 1.730000000000000000e+02 1.740000000000000000e+02 1.750000000000000000e+02 1.760000000000000000e+02 1.770000000000000000e+02 1.780000000000000000e+02 1.790000000000000000e+02 1.800000000000000000e+02 1.810000000000000000e+02 1.820000000000000000e+02 1.830000000000000000e+02 1.840000000000000000e+02 1.850000000000000000e+02 1.860000000000000000e+02 1.870000000000000000e+02 1.880000000000000000e+02 1.890000000000000000e+02 1.900000000000000000e+02 1.910000000000000000e+02 1.920000000000000000e+02 1.930000000000000000e+02 1.940000000000000000e+02 1.950000000000000000e+02 1.960000000000000000e+02 1.970000000000000000e+02 1.980000000000000000e+02 1.990000000000000000e+02 2.000000000000000000e+02 2.010000000000000000e+02 2.020000000000000000e+02 2.030000000000000000e+02 2.040000000000000000e+02 2.050000000000000000e+02 2.060000000000000000e+02 2.070000000000000000e+02 2.080000000000000000e+02 2.090000000000000000e+02 2.100000000000000000e+02 2.110000000000000000e+02 2.120000000000000000e+02 2.130000000000000000e+02 2.140000000000000000e+02 2.150000000000000000e+02 2.160000000000000000e+02 2.170000000000000000e+02 2.180000000000000000e+02 2.190000000000000000e+02 2.200000000000000000e+02 2.210000000000000000e+02 2.220000000000000000e+02 2.230000000000000000e+02 2.240000000000000000e+02 2.250000000000000000e+02 2.260000000000000000e+02 2.270000000000000000e+02 2.280000000000000000e+02 2.290000000000000000e+02 2.300000000000000000e+02 2.310000000000000000e+02 2.320000000000000000e+02 2.330000000000000000e+02 2.340000000000000000e+02 2.350000000000000000e+02 2.360000000000000000e+02 2.370000000000000000e+02 2.380000000000000000e+02 2.390000000000000000e+02 2.400000000000000000e+02 2.410000000000000000e+02 2.420000000000000000e+02 2.430000000000000000e+02 2.440000000000000000e+02 2.450000000000000000e+02 2.460000000000000000e+02 2.470000000000000000e+02 2.480000000000000000e+02 2.490000000000000000e+02 2.500000000000000000e+02 2.510000000000000000e+02 2.520000000000000000e+02 2.530000000000000000e+02 2.540000000000000000e+02 2.550000000000000000e+02 2.560000000000000000e+02 2.570000000000000000e+02 2.580000000000000000e+02 2.590000000000000000e+02 2.600000000000000000e+02 2.610000000000000000e+02 2.620000000000000000e+02 2.630000000000000000e+02 2.640000000000000000e+02 2.650000000000000000e+02 2.660000000000000000e+02 2.670000000000000000e+02 2.680000000000000000e+02 2.690000000000000000e+02 2.700000000000000000e+02 2.710000000000000000e+02 2.720000000000000000e+02 2.730000000000000000e+02 2.740000000000000000e+02 2.750000000000000000e+02 2.760000000000000000e+02 2.770000000000000000e+02 2.780000000000000000e+02 2.790000000000000000e+02 2.800000000000000000e+02 2.810000000000000000e+02 2.820000000000000000e+02 2.830000000000000000e+02 2.840000000000000000e+02 2.850000000000000000e+02 2.860000000000000000e+02 2.870000000000000000e+02 2.880000000000000000e+02 2.890000000000000000e+02 2.900000000000000000e+02 2.910000000000000000e+02 2.920000000000000000e+02 2.930000000000000000e+02 2.940000000000000000e+02 2.950000000000000000e+02 2.960000000000000000e+02 2.970000000000000000e+02 2.980000000000000000e+02 2.990000000000000000e+02 3.000000000000000000e+02 3.010000000000000000e+02 3.020000000000000000e+02 3.030000000000000000e+02 3.040000000000000000e+02 3.050000000000000000e+02 3.060000000000000000e+02 3.070000000000000000e+02 3.080000000000000000e+02 3.090000000000000000e+02 3.100000000000000000e+02 3.110000000000000000e+02 3.120000000000000000e+02 3.130000000000000000e+02 3.140000000000000000e+02 3.150000000000000000e+02 3.160000000000000000e+02 3.170000000000000000e+02 3.180000000000000000e+02 3.190000000000000000e+02 3.200000000000000000e+02 3.210000000000000000e+02 3.220000000000000000e+02 3.230000000000000000e+02 3.240000000000000000e+02 3.250000000000000000e+02 3.260000000000000000e+02 3.270000000000000000e+02 3.280000000000000000e+02 3.290000000000000000e+02 3.300000000000000000e+02 3.310000000000000000e+02 3.320000000000000000e+02 3.330000000000000000e+02 3.340000000000000000e+02 3.350000000000000000e+02 3.360000000000000000e+02 3.370000000000000000e+02 3.380000000000000000e+02 3.390000000000000000e+02 3.400000000000000000e+02 3.410000000000000000e+02 3.420000000000000000e+02 3.430000000000000000e+02 3.440000000000000000e+02 3.450000000000000000e+02 3.460000000000000000e+02 3.470000000000000000e+02 3.480000000000000000e+02 3.490000000000000000e+02 3.500000000000000000e+02 3.510000000000000000e+02 3.520000000000000000e+02 3.530000000000000000e+02 3.540000000000000000e+02 3.550000000000000000e+02 3.560000000000000000e+02 3.570000000000000000e+02 3.580000000000000000e+02 3.590000000000000000e+02 3.600000000000000000e+02 3.610000000000000000e+02 3.620000000000000000e+02 3.630000000000000000e+02 3.640000000000000000e+02 3.650000000000000000e+02 3.660000000000000000e+02 3.670000000000000000e+02 3.680000000000000000e+02 3.690000000000000000e+02 3.700000000000000000e+02 3.710000000000000000e+02 3.720000000000000000e+02 3.730000000000000000e+02 3.740000000000000000e+02 3.750000000000000000e+02 3.760000000000000000e+02 3.770000000000000000e+02 3.780000000000000000e+02 3.790000000000000000e+02 3.800000000000000000e+02 3.810000000000000000e+02 3.820000000000000000e+02 3.830000000000000000e+02 3.840000000000000000e+02 3.850000000000000000e+02 3.860000000000000000e+02 3.870000000000000000e+02 3.880000000000000000e+02 3.890000000000000000e+02 3.900000000000000000e+02 3.910000000000000000e+02 3.920000000000000000e+02 3.930000000000000000e+02 3.940000000000000000e+02 3.950000000000000000e+02 3.960000000000000000e+02 3.970000000000000000e+02 3.980000000000000000e+02 3.990000000000000000e+02 4.000000000000000000e+02 4.010000000000000000e+02 4.020000000000000000e+02 4.030000000000000000e+02 4.040000000000000000e+02 4.050000000000000000e+02 4.060000000000000000e+02 4.070000000000000000e+02 4.080000000000000000e+02 4.090000000000000000e+02 4.100000000000000000e+02 4.110000000000000000e+02 4.120000000000000000e+02 4.130000000000000000e+02 4.140000000000000000e+02 4.150000000000000000e+02 4.160000000000000000e+02 4.170000000000000000e+02 4.180000000000000000e+02 4.190000000000000000e+02 4.200000000000000000e+02 4.210000000000000000e+02 4.220000000000000000e+02 4.230000000000000000e+02 4.240000000000000000e+02 4.250000000000000000e+02 4.260000000000000000e+02 4.270000000000000000e+02 4.280000000000000000e+02 4.290000000000000000e+02 4.300000000000000000e+02 4.310000000000000000e+02 4.320000000000000000e+02 4.330000000000000000e+02 4.340000000000000000e+02 4.350000000000000000e+02 4.360000000000000000e+02 4.370000000000000000e+02 4.380000000000000000e+02 4.390000000000000000e+02 4.400000000000000000e+02 4.410000000000000000e+02 4.420000000000000000e+02 4.430000000000000000e+02 4.440000000000000000e+02 4.450000000000000000e+02 4.460000000000000000e+02 4.470000000000000000e+02 4.480000000000000000e+02 4.490000000000000000e+02 4.500000000000000000e+02 4.510000000000000000e+02 4.520000000000000000e+02 4.530000000000000000e+02 4.540000000000000000e+02 4.550000000000000000e+02 4.560000000000000000e+02 4.570000000000000000e+02 4.580000000000000000e+02 4.590000000000000000e+02 4.600000000000000000e+02 4.610000000000000000e+02 4.620000000000000000e+02 4.630000000000000000e+02 4.640000000000000000e+02 4.650000000000000000e+02 4.660000000000000000e+02 4.670000000000000000e+02 4.680000000000000000e+02 4.690000000000000000e+02 4.700000000000000000e+02 4.710000000000000000e+02 4.720000000000000000e+02 4.730000000000000000e+02 4.740000000000000000e+02 4.750000000000000000e+02 4.760000000000000000e+02 4.770000000000000000e+02 4.780000000000000000e+02 4.790000000000000000e+02 4.800000000000000000e+02 4.810000000000000000e+02 4.820000000000000000e+02 4.830000000000000000e+02 4.840000000000000000e+02 4.850000000000000000e+02 4.860000000000000000e+02 4.870000000000000000e+02 4.880000000000000000e+02 4.890000000000000000e+02 4.900000000000000000e+02 4.910000000000000000e+02 4.920000000000000000e+02 4.930000000000000000e+02 4.940000000000000000e+02 4.950000000000000000e+02 4.960000000000000000e+02 4.970000000000000000e+02 4.980000000000000000e+02 4.990000000000000000e+02 5.000000000000000000e+02 5.010000000000000000e+02 5.020000000000000000e+02 5.030000000000000000e+02 5.040000000000000000e+02 5.050000000000000000e+02 5.060000000000000000e+02 5.070000000000000000e+02 5.080000000000000000e+02 5.090000000000000000e+02 5.100000000000000000e+02 5.110000000000000000e+02 5.120000000000000000e+02 5.130000000000000000e+02 5.140000000000000000e+02 5.150000000000000000e+02 5.160000000000000000e+02 5.170000000000000000e+02 5.180000000000000000e+02 5.190000000000000000e+02 5.200000000000000000e+02 5.210000000000000000e+02 5.220000000000000000e+02 5.230000000000000000e+02 5.240000000000000000e+02 5.250000000000000000e+02 5.260000000000000000e+02 5.270000000000000000e+02 5.280000000000000000e+02 5.290000000000000000e+02 5.300000000000000000e+02 5.310000000000000000e+02 5.320000000000000000e+02 5.330000000000000000e+02 5.340000000000000000e+02 5.350000000000000000e+02 5.360000000000000000e+02 5.370000000000000000e+02 5.380000000000000000e+02 5.390000000000000000e+02 5.400000000000000000e+02 5.410000000000000000e+02 5.420000000000000000e+02 5.430000000000000000e+02 5.440000000000000000e+02 5.450000000000000000e+02 5.460000000000000000e+02 5.470000000000000000e+02 5.480000000000000000e+02 5.490000000000000000e+02 5.500000000000000000e+02 5.510000000000000000e+02 5.520000000000000000e+02 5.530000000000000000e+02 5.540000000000000000e+02 5.550000000000000000e+02 5.560000000000000000e+02 5.570000000000000000e+02 5.580000000000000000e+02 5.590000000000000000e+02 5.600000000000000000e+02 5.610000000000000000e+02 5.620000000000000000e+02 5.630000000000000000e+02 5.640000000000000000e+02 5.650000000000000000e+02 5.660000000000000000e+02 5.670000000000000000e+02 5.680000000000000000e+02 5.690000000000000000e+02 5.700000000000000000e+02 5.710000000000000000e+02 5.720000000000000000e+02 5.730000000000000000e+02 5.740000000000000000e+02 5.750000000000000000e+02 5.760000000000000000e+02 5.770000000000000000e+02 5.780000000000000000e+02 5.790000000000000000e+02 5.800000000000000000e+02 5.810000000000000000e+02 5.820000000000000000e+02 5.830000000000000000e+02 5.840000000000000000e+02 5.850000000000000000e+02 5.860000000000000000e+02 5.870000000000000000e+02 5.880000000000000000e+02 5.890000000000000000e+02 5.900000000000000000e+02 5.910000000000000000e+02 5.920000000000000000e+02 5.930000000000000000e+02 5.940000000000000000e+02 5.950000000000000000e+02 5.960000000000000000e+02 5.970000000000000000e+02 5.980000000000000000e+02 5.990000000000000000e+02 6.000000000000000000e+02 6.010000000000000000e+02 6.020000000000000000e+02 6.030000000000000000e+02 6.040000000000000000e+02 6.050000000000000000e+02 6.060000000000000000e+02 6.070000000000000000e+02 6.080000000000000000e+02 6.090000000000000000e+02 6.100000000000000000e+02 6.110000000000000000e+02 6.120000000000000000e+02 6.130000000000000000e+02 6.140000000000000000e+02 6.150000000000000000e+02 6.160000000000000000e+02 6.170000000000000000e+02 6.180000000000000000e+02 6.190000000000000000e+02 6.200000000000000000e+02 6.210000000000000000e+02 6.220000000000000000e+02 6.230000000000000000e+02 6.240000000000000000e+02 6.250000000000000000e+02 6.260000000000000000e+02 6.270000000000000000e+02 6.280000000000000000e+02 6.290000000000000000e+02 6.300000000000000000e+02 6.310000000000000000e+02 6.320000000000000000e+02 6.330000000000000000e+02 6.340000000000000000e+02 6.350000000000000000e+02 6.360000000000000000e+02 6.370000000000000000e+02 6.380000000000000000e+02 6.390000000000000000e+02 6.400000000000000000e+02 6.410000000000000000e+02 6.420000000000000000e+02 6.430000000000000000e+02 6.440000000000000000e+02 6.450000000000000000e+02 6.460000000000000000e+02 6.470000000000000000e+02 6.480000000000000000e+02 6.490000000000000000e+02 6.500000000000000000e+02 6.510000000000000000e+02 6.520000000000000000e+02 6.530000000000000000e+02 6.540000000000000000e+02 6.550000000000000000e+02 6.560000000000000000e+02 6.570000000000000000e+02 6.580000000000000000e+02 6.590000000000000000e+02 6.600000000000000000e+02 6.610000000000000000e+02 6.620000000000000000e+02 6.630000000000000000e+02 6.640000000000000000e+02 6.650000000000000000e+02 6.660000000000000000e+02 6.670000000000000000e+02 6.680000000000000000e+02 6.690000000000000000e+02 6.700000000000000000e+02 6.710000000000000000e+02 6.720000000000000000e+02 6.730000000000000000e+02 6.740000000000000000e+02 6.750000000000000000e+02 6.760000000000000000e+02 6.770000000000000000e+02 6.780000000000000000e+02 6.790000000000000000e+02 6.800000000000000000e+02 6.810000000000000000e+02 6.820000000000000000e+02 6.830000000000000000e+02 6.840000000000000000e+02 6.850000000000000000e+02 6.860000000000000000e+02 6.870000000000000000e+02 6.880000000000000000e+02 6.890000000000000000e+02 6.900000000000000000e+02 6.910000000000000000e+02 6.920000000000000000e+02 6.930000000000000000e+02 6.940000000000000000e+02 6.950000000000000000e+02 6.960000000000000000e+02 6.970000000000000000e+02 6.980000000000000000e+02 6.990000000000000000e+02 7.000000000000000000e+02 7.010000000000000000e+02 7.020000000000000000e+02 7.030000000000000000e+02 7.040000000000000000e+02 7.050000000000000000e+02 7.060000000000000000e+02 7.070000000000000000e+02 7.080000000000000000e+02 7.090000000000000000e+02 7.100000000000000000e+02 7.110000000000000000e+02 7.120000000000000000e+02 7.130000000000000000e+02 7.140000000000000000e+02 7.150000000000000000e+02 7.160000000000000000e+02 7.170000000000000000e+02 7.180000000000000000e+02 7.190000000000000000e+02 7.200000000000000000e+02 7.210000000000000000e+02 7.220000000000000000e+02 7.230000000000000000e+02 7.240000000000000000e+02 7.250000000000000000e+02 7.260000000000000000e+02 7.270000000000000000e+02 7.280000000000000000e+02 7.290000000000000000e+02 7.300000000000000000e+02 7.310000000000000000e+02 7.320000000000000000e+02 7.330000000000000000e+02 7.340000000000000000e+02 7.350000000000000000e+02 7.360000000000000000e+02 7.370000000000000000e+02 7.380000000000000000e+02 7.390000000000000000e+02 7.400000000000000000e+02 7.410000000000000000e+02 7.420000000000000000e+02 7.430000000000000000e+02 7.440000000000000000e+02 7.450000000000000000e+02 7.460000000000000000e+02 7.470000000000000000e+02 7.480000000000000000e+02 7.490000000000000000e+02 7.500000000000000000e+02 7.510000000000000000e+02 7.520000000000000000e+02 7.530000000000000000e+02 7.540000000000000000e+02 7.550000000000000000e+02 7.560000000000000000e+02 7.570000000000000000e+02 7.580000000000000000e+02 7.590000000000000000e+02 7.600000000000000000e+02 7.610000000000000000e+02 7.620000000000000000e+02 7.630000000000000000e+02 7.640000000000000000e+02 7.650000000000000000e+02 7.660000000000000000e+02 7.670000000000000000e+02 7.680000000000000000e+02 7.690000000000000000e+02 7.700000000000000000e+02 7.710000000000000000e+02 7.720000000000000000e+02 7.730000000000000000e+02 7.740000000000000000e+02 7.750000000000000000e+02 7.760000000000000000e+02 7.770000000000000000e+02 7.780000000000000000e+02 7.790000000000000000e+02 7.800000000000000000e+02 7.810000000000000000e+02 7.820000000000000000e+02 7.830000000000000000e+02 7.840000000000000000e+02 7.850000000000000000e+02 7.860000000000000000e+02 7.870000000000000000e+02 7.880000000000000000e+02 7.890000000000000000e+02 7.900000000000000000e+02 7.910000000000000000e+02 7.920000000000000000e+02 7.930000000000000000e+02 7.940000000000000000e+02 7.950000000000000000e+02 7.960000000000000000e+02 7.970000000000000000e+02 7.980000000000000000e+02 7.990000000000000000e+02 8.000000000000000000e+02 8.010000000000000000e+02 8.020000000000000000e+02 8.030000000000000000e+02 8.040000000000000000e+02 8.050000000000000000e+02 8.060000000000000000e+02 8.070000000000000000e+02 8.080000000000000000e+02 8.090000000000000000e+02 8.100000000000000000e+02 8.110000000000000000e+02 8.120000000000000000e+02 8.130000000000000000e+02 8.140000000000000000e+02 8.150000000000000000e+02 8.160000000000000000e+02 8.170000000000000000e+02 8.180000000000000000e+02 8.190000000000000000e+02 8.200000000000000000e+02 8.210000000000000000e+02 8.220000000000000000e+02 8.230000000000000000e+02 8.240000000000000000e+02 8.250000000000000000e+02 8.260000000000000000e+02 8.270000000000000000e+02 8.280000000000000000e+02 8.290000000000000000e+02 8.300000000000000000e+02 8.310000000000000000e+02 8.320000000000000000e+02 8.330000000000000000e+02 8.340000000000000000e+02 8.350000000000000000e+02 8.360000000000000000e+02 8.370000000000000000e+02 8.380000000000000000e+02 8.390000000000000000e+02 8.400000000000000000e+02 8.410000000000000000e+02 8.420000000000000000e+02 8.430000000000000000e+02 8.440000000000000000e+02 8.450000000000000000e+02 8.460000000000000000e+02 8.470000000000000000e+02 8.480000000000000000e+02 8.490000000000000000e+02 8.500000000000000000e+02 8.510000000000000000e+02 8.520000000000000000e+02 8.530000000000000000e+02 8.540000000000000000e+02 8.550000000000000000e+02 8.560000000000000000e+02 8.570000000000000000e+02 8.580000000000000000e+02 8.590000000000000000e+02 8.600000000000000000e+02 8.610000000000000000e+02 8.620000000000000000e+02 8.630000000000000000e+02 8.640000000000000000e+02 8.650000000000000000e+02 8.660000000000000000e+02 8.670000000000000000e+02 8.680000000000000000e+02 8.690000000000000000e+02 8.700000000000000000e+02 8.710000000000000000e+02 8.720000000000000000e+02 8.730000000000000000e+02 8.740000000000000000e+02 8.750000000000000000e+02 8.760000000000000000e+02 8.770000000000000000e+02 8.780000000000000000e+02 8.790000000000000000e+02 8.800000000000000000e+02 8.810000000000000000e+02 8.820000000000000000e+02 8.830000000000000000e+02 8.840000000000000000e+02 8.850000000000000000e+02 8.860000000000000000e+02 8.870000000000000000e+02 8.880000000000000000e+02 8.890000000000000000e+02 8.900000000000000000e+02 8.910000000000000000e+02 8.920000000000000000e+02 8.930000000000000000e+02 8.940000000000000000e+02 8.950000000000000000e+02 8.960000000000000000e+02 8.970000000000000000e+02 8.980000000000000000e+02 8.990000000000000000e+02 9.000000000000000000e+02 9.010000000000000000e+02 9.020000000000000000e+02 9.030000000000000000e+02 9.040000000000000000e+02 9.050000000000000000e+02 9.060000000000000000e+02 9.070000000000000000e+02 9.080000000000000000e+02 9.090000000000000000e+02 9.100000000000000000e+02 9.110000000000000000e+02 9.120000000000000000e+02 9.130000000000000000e+02 9.140000000000000000e+02 9.150000000000000000e+02 9.160000000000000000e+02 9.170000000000000000e+02 9.180000000000000000e+02 9.190000000000000000e+02 9.200000000000000000e+02 9.210000000000000000e+02 9.220000000000000000e+02 9.230000000000000000e+02 9.240000000000000000e+02 9.250000000000000000e+02 9.260000000000000000e+02 9.270000000000000000e+02 9.280000000000000000e+02 9.290000000000000000e+02 9.300000000000000000e+02 9.310000000000000000e+02 9.320000000000000000e+02 9.330000000000000000e+02 9.340000000000000000e+02 9.350000000000000000e+02 9.360000000000000000e+02 9.370000000000000000e+02 9.380000000000000000e+02 9.390000000000000000e+02 9.400000000000000000e+02 9.410000000000000000e+02 9.420000000000000000e+02 9.430000000000000000e+02 9.440000000000000000e+02 9.450000000000000000e+02 9.460000000000000000e+02 9.470000000000000000e+02 9.480000000000000000e+02 9.490000000000000000e+02 9.500000000000000000e+02 9.510000000000000000e+02 9.520000000000000000e+02 9.530000000000000000e+02 9.540000000000000000e+02 9.550000000000000000e+02 9.560000000000000000e+02 9.570000000000000000e+02 9.580000000000000000e+02 9.590000000000000000e+02 9.600000000000000000e+02 9.610000000000000000e+02 9.620000000000000000e+02 9.630000000000000000e+02 9.640000000000000000e+02 9.650000000000000000e+02 9.660000000000000000e+02 9.670000000000000000e+02 9.680000000000000000e+02 9.690000000000000000e+02 9.700000000000000000e+02 9.710000000000000000e+02 9.720000000000000000e+02 9.730000000000000000e+02 9.740000000000000000e+02 9.750000000000000000e+02 9.760000000000000000e+02 9.770000000000000000e+02 9.780000000000000000e+02 9.790000000000000000e+02 9.800000000000000000e+02 9.810000000000000000e+02 9.820000000000000000e+02 9.830000000000000000e+02 9.840000000000000000e+02 9.850000000000000000e+02 9.860000000000000000e+02 9.870000000000000000e+02 9.880000000000000000e+02 9.890000000000000000e+02 9.900000000000000000e+02 9.910000000000000000e+02 9.920000000000000000e+02 9.930000000000000000e+02 9.940000000000000000e+02 9.950000000000000000e+02 9.960000000000000000e+02 9.970000000000000000e+02 9.980000000000000000e+02 9.990000000000000000e+02 1.000000000000000000e+03
1.000000000000000021e-02 1.000000000000000021e-02 1.000000000000000021e-02 1.000000000000000021e-02 1.000000000000000021e-02 1.000000000000000021e-02 1.000000000000000021e-02 1.000000000000000021e-02 1.000000000000000021e-02 1.000000000000000021e-02 1.000000000000000021e-02 1.000000000000000021e-02 1.000000000000000021e-02 1.000000000000000021e-02 1.000000000000000021e-02 1.000000000000000021e-02 1.000000000000000021e-02 1.000000000000000021e-02 1.000000000000000021e-02 1.000000000000000021e-02 1.000000000000000021e-02 1.000000000000000021e-02 1.000000000000000021e-02 1.000000000000000021e-02 1.000000000000000021e-02 1.000000000000000021e-02 1.000000000000000021e-02 1.000000000000000021e-02 1.000000000000000021e-02 1.000000000000000021e-02 1.000000000000000021e-02 1.000000000000000021e-02 1.000000000000000021e-02 1.000000000000000021e-02 1.000000000000000021e-02 1.000000000000000021e-02 1.000000000000000021e-02 1.000000000000000021e-02 1.000000000000000021e-02 1.000000000000000021e-02 1.000000000000000021e-02 1.000000000000000021e-02 1.000000000000000021e-02 1.000000000000000021e-02 1.000000000000000021e-02 1.000000000000000021e-02 1.000000000000000021e-02 1.000000000000000021e-02 1.000000000000000021e-02 1.000000000000000021e-02 1.000000000000000021e-02 1.000000000000000021e-02 1.000000000000000021e-02 1.000000000000000021e-02 1.000000000000000021e-02 1.000000000000000021e-02 1.000000000000000021e-02 1.000000000000000021e-02 1.000000000000000021e-02 1.000000000000000021e-02 1.000000000000000021e-02 1.000000000000000021e-02 1.000000000000000021e-02 1.000000000000000021e-02 1.000000000000000021e-02 1.000000000000000021e-02 1.000000000000000021e-02 1.000000000000000021e-02 1.000000000000000021e-02 1.000000000000000021e-02 1.000000000000000021e-02 1.000000000000000021e-02 1.000000000000000021e-02 1.000000000000000021e-02 1.000000000000000021e-02 1.000000000000000021e-02 1.000000000000000021e-02 1.000000000000000021e-02 1.000000000000000021e-02 1.000000000000000021e-02 1.000000000000000021e-02 1.000000000000000021e-02 1.000000000000000021e-02 1.000000000000000021e-02 1.000000000000000021e-02 1.000000000000000021e-02 1.000000000000000021e-02 1.000000000000000021e-02 1.000000000000000021e-02 1.000000000000000021e-02 1.000000000000000021e-02 1.000000000000000021e-02 1.000000000000000021e-02 1.000000000000000021e-02 1.000000000000000021e-02 1.000000000000000021e-02 1.000000000000000021e-02 1.000000000000000021e-02 1.000000000000000021e-02 1.000000000000000021e-02 1.000000000000000021e-02 1.000000000000000021e-02 1.000000000000000021e-02 1.000000000000000021e-02 1.000000000000000021e-02 1.000000000000000021e-02 1.000000000000000021e-02 1.000000000000000021e-02 1.000000000000000021e-02 1.000000000000000021e-02 1.000000000000000021e-02 1.000000000000000021e-02 1.000000000000000021e-02 1.000000000000000021e-02 1.000000000000000021e-02 1.000000000000000021e-02 1.000000000000000021e-02 1.000000000000000021e-02 1.000000000000000021e-02 1.000000000000000021e-02 1.000000000000000021e-02 1.000000000000000021e-02 1.000000000000000021e-02 1.000000000000000021e-02 1.000000000000000021e-02 1.000000000000000021e-02 1.000000000000000021e-02 1.000000000000000021e-02 1.000000000000000021e-02 1.000000000000000021e-02 1.000000000000000021e-02 1.000000000000000021e-02 1.000000000000000021e-02 1.000000000000000021e-02 1.000000000000000021e-02 1.000000000000000021e-02 1.000000000000000021e-02 1.000000000000000021e-02 1.000000000000000021e-02 1.000000000000000021e-02 1.000000000000000021e-02 1.000000000000000021e-02 1.000000000000000021e-02 1.000000000000000021e-02 1.000000000000000021e-02 1.000000000000000021e-02 1.000000000000000021e-02 1.000000000000000021e-02 1.000000000000000021e-02 1.000000000000000021e-02 1.000000000000000021e-02 1.000000000000000021e-02 1.000000000000000021e-02 1.000000000000000021e-02 1.000000000000000021e-02 1.000000000000000021e-02 1.000000000000000021e-02 1.000000000000000021e-02 1.000000000000000021e-02 1.000000000000000021e-02 1.000000000000000021e-02 1.000000000000000021e-02 1.000000000000000021e-02 1.000000000000000021e-02 1.000000000000000021e-02 1.000000000000000021e-02 1.000000000000000021e-02 1.000000000000000021e-02 1.000000000000000021e-02 1.000000000000000021e-02 1.000000000000000021e-02 1.000000000000000021e-02 1.000000000000000021e-02 1.000000000000000021e-02 1.000000000000000021e-02 1.000000000000000021e-02 1.000000000000000021e-02 1.000000000000000021e-02 1.000000000000000021e-02 1.000000000000000021e-02 1.000000000000000021e-02 1.000000000000000021e-02 1.000000000000000021e-02 1.000000000000000021e-02 1.000000000000000021e-02 1.000000000000000021e-02 1.000000000000000021e-02 1.000000000000000021e-02 1.000000000000000021e-02 1.000000000000000021e-02 1.000000000000000021e-02 1.000000000000000021e-02 1.000000000000000021e-02 1.000000000000000021e-02 1.000000000000000021e-02 1.000000000000000021e-02 1.000000000000000021e-02 1.000000000000000021e-02 1.000000000000000021e-02 1.000000000000000021e-02 1.000000000000000021e-02 1.000000000000000021e-02 1.000000000000000021e-02 1.000000000000000021e-02 1.000000000000000021e-02 1.000000000000000021e-02 1.000000000000000021e-02 1.000000000000000021e-02 1.000000000000000021e-02 1.000000000000000021e-02 1.000000000000000021e-02 1.000000000000000021e-02 1.000000000000000021e-02 1.000000000000000021e-02 1.000000000000000021e-02 1.000000000000000021e-02 1.000000000000000021e-02 1.000000000000000021e-02 1.000000000000000021e-02 1.000000000000000021e-02 1.000000000000000021e-02 1.000000000000000021e-02 1.000000000000000021e-02 1.000000000000000021e-02 1.000000000000000021e-02 1.000000000000000021e-02 1.000000000000000021e-02 1.000000000000000021e-02 1.000000000000000021e-02 1.000000000000000021e-02 1.000000000000000021e-02 1.000000000000000021e-02 1.000000000000000021e-02 1.000000000000000021e-02 1.000000000000000021e-02 1.000000000000000021e-02 1.000000000000000021e-02 1.000000000000000021e-02 1.000000000000000021e-02 1.000000000000000021e-02 1.000000000000000021e-02 1.000000000000000021e-02 1.000000000000000021e-02 1.000000000000000021e-02 1.000000000000000021e-02 1.000000000000000021e-02 1.000000000000000021e-02 1.000000000000000021e-02 1.000000000000000021e-02 1.000000000000000021e-02 1.000000000000000021e-02 1.000000000000000021e-02 1.000000000000000021e-02 1.000000000000000021e-02 1.000000000000000021e-02 1.000000000000000021e-02 1.000000000000000021e-02 1.000000000000000021e-02 1.000000000000000021e-02 1.000000000000000021e-02 1.000000000000000021e-02 1.000000000000000021e-02 1.000000000000000021e-02 1.000000000000000021e-02 1.000000000000000021e-02 1.000000000000000021e-02 1.000000000000000021e-02 1.000000000000000021e-02 1.000000000000000021e-02 1.000000000000000021e-02 1.000000000000000021e-02 1.000000000000000021e-02 1.000000000000000021e-02 1.000000000000000021e-02 1.000000000000000021e-02 1.000000000000000021e-02 1.000000000000000021e-02 1.000000000000000021e-02 1.000000000000000021e-02 1.000000000000000021e-02 1.000000000000000021e-02 1.000000000000000021e-02 1.000000000000000021e-02 1.000000000000000021e-02 1.000000000000000021e-02 1.000000000000000021e-02 1.000000000000000021e-02 1.000000000000000021e-02 1.000000000000000021e-02 1.000000000000000021e-02 1.000000000000000021e-02 1.000000000000000021e-02 1.000000000000000021e-02 1.000000000000000021e-02 1.000000000000000021e-02 1.000000000000000021e-02 1.000000000000000021e-02 1.000000000000000021e-02 1.000000000000000021e-02 1.000000000000000021e-02 1.000000000000000021e-02 1.000000000000000021e-02 1.000000000000000021e-02 1.000000000000000021e-02 1.000000000000000021e-02 1.000000000000000021e-02 1.000000000000000021e-02 1.000000000000000021e-02 1.000000000000000021e-02 1.000000000000000021e-02 1.000000000000000021e-02 1.000000000000000021e-02 1.000000000000000021e-02 1.000000000000000021e-02 1.000000000000000021e-02 1.000000000000000021e-02 1.000000000000000021e-02 1.000000000000000021e-02 1.000000000000000021e-02 1.000000000000000021e-02 1.000000000000000021e-02 1.000000000000000021e-02 1.000000000000000021e-02 1.000000000000000021e-02 1.000000000000000021e-02 1.000000000000000021e-02 1.000000000000000021e-02 1.000000000000000021e-02 1.000000000000000021e-02 1.000000000000000021e-02 1.000000000000000021e-02 1.000000000000000021e-02 1.000000000000000021e-02 1.000000000000000021e-02 1.000000000000000021e-02 1.000000000000000021e-02 1.000000000000000021e-02 1.000000000000000021e-02 1.000000000000000021e-02 1.000000000000000021e-02 1.000000000000000021e-02 1.000000000000000021e-02 1.000000000000000021e-02 1.000000000000000021e-02 1.000000000000000021e-02 1.000000000000000021e-02 1.000000000000000021e-02 1.000000000000000021e-02 1.000000000000000021e-02 1.000000000000000021e-02 1.000000000000000021e-02 1.000000000000000021e-02 1.000000000000000021e-02 1.000000000000000021e-02 1.000000000000000021e-02 1.000000000000000021e-02 1.000000000000000021e-02 1.000000000000000021e-02 1.000000000000000021e-02 1.000000000000000021e-02 1.000000000000000021e-02 1.000000000000000021e-02 1.000000000000000021e-02 1.000000000000000021e-02 1.000000000000000021e-02 1.000000000000000021e-02 1.000000000000000021e-02 1.000000000000000021e-02 1.000000000000000021e-02 1.000000000000000021e-02 1.000000000000000021e-02 1.000000000000000021e-02 1.000000000000000021e-02 1.000000000000000021e-02 1.000000000000000021e-02 1.000000000000000021e-02 1.000000000000000021e-02 1.000000000000000021e-02 1.000000000000000021e-02 1.000000000000000021e-02 1.000000000000000021e-02 1.000000000000000021e-02 1.000000000000000021e-02 1.000000000000000021e-02 1.000000000000000021e-02 1.000000000000000021e-02 1.000000000000000021e-02 1.000000000000000021e-02 1.000000000000000021e-02 1.000000000000000021e-02 1.000000000000000021e-02 1.000000000000000021e-02 1.000000000000000021e-02 1.000000000000000021e-02 1.000000000000000021e-02 1.000000000000000021e-02 1.000000000000000021e-02 1.000000000000000021e-02 1.000000000000000021e-02 1.000000000000000021e-02 1.000000000000000021e-02 1.000000000000000021e-02 1.000000000000000021e-02 1.000000000000000021e-02 1.000000000000000021e-02 1.000000000000000021e-02 1.000000000000000021e-02 1.000000000000000021e-02 1.000000000000000021e-02 1.000000000000000021e-02 1.000000000000000021e-02 1.000000000000000021e-02 1.000000000000000021e-02 1.000000000000000021e-02 1.000000000000000021e-02 1.000000000000000021e-02 1.000000000000000021e-02 1.000000000000000021e-02 1.000000000000000021e-02 1.000000000000000021e-02 1.000000000000000021e-02 1.000000000000000021e-02 1.000000000000000021e-02 1.000000000000000021e-02 1.000000000000000021e-02 1.000000000000000021e-02 1.000000000000000021e-02 1.000000000000000021e-02 1.000000000000000021e-02 1.000000000000000021e-02 1.000000000000000021e-02 1.000000000000000021e-02 1.000000000000000021e-02 1.000000000000000021e-02 1.000000000000000021e-02 1.000000000000000021e-02 1.000000000000000021e-02 1.000000000000000021e-02 1.000000000000000021e-02 1.000000000000000021e-02 1.000000000000000021e-02 1.000000000000000021e-02 1.000000000000000021e-02 1.000000000000000021e-02 1.000000000000000021e-02 1.000000000000000021e-02 1.000000000000000021e-02 1.000000000000000021e-02 1.000000000000000021e-02 1.000000000000000021e-02 1.000000000000000021e-02 1.000000000000000021e-02 1.000000000000000021e-02 1.000000000000000021e-02 1.000000000000000021e-02 1.000000000000000021e-02 1.000000000000000021e-02 1.000000000000000021e-02 1.000000000000000021e-02 1.000000000000000021e-02 1.000000000000000021e-02 1.000000000000000021e-02 1.000000000000000021e-02 1.000000000000000021e-02 1.000000000000000021e-02 1.000000000000000021e-02 1.000000000000000021e-02 1.000000000000000021e-02 1.000000000000000021e-02 1.000000000000000021e-02 1.000000000000000021e-02 1.000000000000000021e-02 1.000000000000000021e-02 1.000000000000000021e-02 1.000000000000000021e-02 1.000000000000000021e-02 1.000000000000000021e-02 1.000000000000000021e-02 1.000000000000000021e-02 1.000000000000000021e-02 1.000000000000000021e-02 1.000000000000000021e-02 1.000000000000000021e-02 1.000000000000000021e-02 1.000000000000000021e-02 1.000000000000000021e-02 1.000000000000000021e-02 1.000000000000000021e-02 1.000000000000000021e-02 1.000000000000000021e-02 1.000000000000000021e-02 1.000000000000000021e-02 1.000000000000000021e-02 1.000000000000000021e-02 1.000000000000000021e-02 1.000000000000000021e-02 1.000000000000000021e-02 1.000000000000000021e-02 1.000000000000000021e-02 1.000000000000000021e-02 1.000000000000000021e-02 1.000000000000000021e-02 1.000000000000000021e-02 1.000000000000000021e-02 1.000000000000000021e-02 1.000000000000000021e-02 1.000000000000000021e-02 1.000000000000000021e-02 1.000000000000000021e-02 1.000000000000000021e-02 1.000000000000000021e-02 1.000000000000000021e-02 1.000000000000000021e-02 1.000000000000000021e-02 1.000000000000000021e-02 1.000000000000000021e-02 1.000000000000000021e-02 1.000000000000000021e-02 1.000000000000000021e-02 1.000000000000000021e-02 1.000000000000000021e-02 1.000000000000000021e-02 1.000000000000000021e-02 1.000000000000000021e-02 1.000000000000000021e-02 1.000000000000000021e-02 1.000000000000000021e-02 1.000000000000000021e-02 1.000000000000000021e-02 1.000000000000000021e-02 1.000000000000000021e-02 1.000000000000000021e-02 1.000000000000000021e-02 1.000000000000000021e-02 1.000000000000000021e-02 1.000000000000000021e-02 1.000000000000000021e-02 1.000000000000000021e-02 1.000000000000000021e-02 1.000000000000000021e-02 1.000000000000000021e-02 1.000000000000000021e-02 1.000000000000000021e-02 1.000000000000000021e-02 1.000000000000000021e-02 1.000000000000000021e-02 1.000000000000000021e-02 1.000000000000000021e-02 1.000000000000000021e-02 1.000000000000000021e-02 1.000000000000000021e-02 1.000000000000000021e-02 1.000000000000000021e-02 1.000000000000000021e-02 1.000000000000000021e-02 1.000000000000000021e-02 1.000000000000000021e-02 1.000000000000000021e-02 1.000000000000000021e-02 1.000000000000000021e-02 1.000000000000000021e-02 1.000000000000000021e-02 1.000000000000000021e-02 1.000000000000000021e-02 1.000000000000000021e-02 1.000000000000000021e-02 1.000000000000000021e-02 1.000000000000000021e-02 1.000000000000000021e-02 1.000000000000000021e-02 1.000000000000000021e-02 1.000000000000000021e-02 1.000000000000000021e-02 1.000000000000000021e-02 1.000000000000000021e-02 1.000000000000000021e-02 1.000000000000000021e-02 1.000000000000000021e-02 1.000000000000000021e-02 1.000000000000000021e-02 1.000000000000000021e-02 1.000000000000000021e-02 1.000000000000000021e-02 1.000000000000000021e-02 1.000000000000000021e-02 1.000000000000000021e-02 1.000000000000000021e-02 1.000000000000000021e-02 1.000000000000000021e-02 1.000000000000000021e-02 1.000000000000000021e-02 1.000000000000000021e-02 1.000000000000000021e-02 1.000000000000000021e-02 1.000000000000000021e-02 1.000000000000000021e-02 1.000000000000000021e-02 1.000000000000000021e-02 1.000000000000000021e-02 1.000000000000000021e-02 1.000000000000000021e-02 1.000000000000000021e-02 1.000000000000000021e-02 1.000000000000000021e-02 1.000000000000000021e-02 1.000000000000000021e-02 1.000000000000000021e-02 1.000000000000000021e-02 1.000000000000000021e-02 1.000000000000000021e-02 1.000000000000000021e-02 1.000000000000000021e-02 1.000000000000000021e-02 1.000000000000000021e-02 1.000000000000000021e-02 1.000000000000000021e-02 1.000000000000000021e-02 1.000000000000000021e-02 1.000000000000000021e-02 1.000000000000000021e-02 1.000000000000000021e-02 1.000000000000000021e-02 1.000000000000000021e-02 1.000000000000000021e-02 1.000000000000000021e-02 1.000000000000000021e-02 1.000000000000000021e-02 1.000000000000000021e-02 1.000000000000000021e-02 1.000000000000000021e-02 1.000000000000000021e-02 1.000000000000000021e-02 1.000000000000000021e-02 1.000000000000000021e-02 1.000000000000000021e-02 1.000000000000000021e-02 1.000000000000000021e-02 1.000000000000000021e-02 1.000000000000000021e-02 1.000000000000000021e-02 1.000000000000000021e-02 1.000000000000000021e-02 1.000000000000000021e-02 1.000000000000000021e-02 1.000000000000000021e-02 1.000000000000000021e-02 1.000000000000000021e-02 1.000000000000000021e-02 1.000000000000000021e-02 1.000000000000000021e-02 1.000000000000000021e-02 1.000000000000000021e-02 1.000000000000000021e-02 1.000000000000000021e-02 1.000000000000000021e-02 1.000000000000000021e-02 1.000000000000000021e-02 1.000000000000000021e-02 1.000000000000000021e-02 1.000000000000000021e-02 1.000000000000000021e-02 1.000000000000000021e-02 1.000000000000000021e-02 1.000000000000000021e-02 1.000000000000000021e-02 1.000000000000000021e-02 1.000000000000000021e-02 1.000000000000000021e-02 1.000000000000000021e-02 1.000000000000000021e-02 1.000000000000000021e-02 1.000000000000000021e-02 1.000000000000000021e-02 1.000000000000000021e-02 1.000000000000000021e-02 1.000000000000000021e-02 1.000000000000000021e-02 1.000000000000000021e-02 1.000000000000000021e-02 1.000000000000000021e-02 1.000000000000000021e-02 1.000000000000000021e-02 1.000000000000000021e-02 1.000000000000000021e-02 1.000000000000000021e-02 1.000000000000000021e-02 1.000000000000000021e-02 1.000000000000000021e-02 1.000000000000000021e-02 1.000000000000000021e-02 1.000000000000000021e-02 1.000000000000000021e-02 1.000000000000000021e-02 1.000000000000000021e-02 1.000000000000000021e-02 1.000000000000000021e-02 1.000000000000000021e-02 1.000000000000000021e-02 1.000000000000000021e-02 1.000000000000000021e-02 1.000000000000000021e-02 1.000000000000000021e-02 1.000000000000000021e-02 1.000000000000000021e-02 1.000000000000000021e-02 1.000000000000000021e-02 1.000000000000000021e-02 1.000000000000000021e-02 1.000000000000000021e-02 1.000000000000000021e-02 1.000000000000000021e-02 1.000000000000000021e-02 1.000000000000000021e-02 1.000000000000000021e-02 1.000000000000000021e-02 1.000000000000000021e-02 1.000000000000000021e-02 1.000000000000000021e-02 1.000000000000000021e-02 1.000000000000000021e-02 1.000000000000000021e-02 1.000000000000000021e-02 1.000000000000000021e-02 1.000000000000000021e-02 1.000000000000000021e-02 1.000000000000000021e-02 1.000000000000000021e-02 1.000000000000000021e-02 1.000000000000000021e-02 1.000000000000000021e-02 1.000000000000000021e-02 1.000000000000000021e-02 1.000000000000000021e-02 1.000000000000000021e-02 1.000000000000000021e-02 1.000000000000000021e-02 1.000000000000000021e-02 1.000000000000000021e-02 1.000000000000000021e-02 1.000000000000000021e-02 1.000000000000000021e-02 1.000000000000000021e-02 1.000000000000000021e-02 1.000000000000000021e-02 1.000000000000000021e-02 1.000000000000000021e-02 1.000000000000000021e-02 1.000000000000000021e-02 1.000000000000000021e-02 1.000000000000000021e-02 1.000000000000000021e-02 1.000000000000000021e-02 1.000000000000000021e-02 1.000000000000000021e-02 1.000000000000000021e-02 1.000000000000000021e-02 1.000000000000000021e-02 1.000000000000000021e-02 1.000000000000000021e-02 1.000000000000000021e-02 1.000000000000000021e-02 1.000000000000000021e-02 1.000000000000000021e-02 1.000000000000000021e-02 1.000000000000000021e-02 1.000000000000000021e-02 1.000000000000000021e-02 1.000000000000000021e-02 1.000000000000000021e-02 1.000000000000000021e-02 1.000000000000000021e-02 1.000000000000000021e-02 1.000000000000000021e-02 1.000000000000000021e-02 1.000000000000000021e-02 1.000000000000000021e-02 1.000000000000000021e-02 1.000000000000000021e-02 1.000000000000000021e-02 1.000000000000000021e-02 1.000000000000000021e-02 1.000000000000000021e-02 1.000000000000000021e-02 1.000000000000000021e-02 1.000000000000000021e-02 1.000000000000000021e-02 1.000000000000000021e-02 1.000000000000000021e-02 1.000000000000000021e-02 1.000000000000000021e-02 1.000000000000000021e-02 1.000000000000000021e-02 1.000000000000000021e-02 1.000000000000000021e-02 1.000000000000000021e-02 1.000000000000000021e-02 1.000000000000000021e-02 1.000000000000000021e-02 1.000000000000000021e-02 1.000000000000000021e-02 1.000000000000000021e-02 1.000000000000000021e-02 1.000000000000000021e-02 1.000000000000000021e-02 1.000000000000000021e-02 1.000000000000000021e-02 1.000000000000000021e-02 1.000000000000000021e-02 1.000000000000000021e-02 1.000000000000000021e-02 1.000000000000000021e-02 1.000000000000000021e-02 1.000000000000000021e-02 1.000000000000000021e-02 1.000000000000000021e-02 1.000000000000000021e-02 1.000000000000000021e-02 1.000000000000000021e-02 1.000000000000000021e-02 1.000000000000000021e-02 1.000000000000000021e-02 1.000000000000000021e-02 1.000000000000000021e-02 1.000000000000000021e-02 1.000000000000000021e-02 1.000000000000000021e-02 1.000000000000000021e-02 1.000000000000000021e-02 1.000000000000000021e-02 1.000000000000000021e-02 1.000000000000000021e-02 1.000000000000000021e-02 1.000000000000000021e-02 1.000000000000000021e-02 1.000000000000000021e-02 1.000000000000000021e-02 1.000000000000000021e-02 1.000000000000000021e-02 1.000000000000000021e-02 1.000000000000000021e-02 1.000000000000000021e-02 1.000000000000000021e-02 1.000000000000000021e-02 1.000000000000000021e-02 1.000000000000000021e-02 1.000000000000000021e-02 1.000000000000000021e-02 1.000000000000000021e-02 1.000000000000000021e-02 1.000000000000000021e-02 1.000000000000000021e-02 1.000000000000000021e-02 1.000000000000000021e-02 1.000000000000000021e-02 1.000000000000000021e-02 1.000000000000000021e-02 1.000000000000000021e-02 1.000000000000000021e-02 1.000000000000000021e-02 1.000000000000000021e-02 1.000000000000000021e-02 1.000000000000000021e-02 1.000000000000000021e-02 1.000000000000000021e-02 1.000000000000000021e-02 1.000000000000000021e-02 1.000000000000000021e-02 1.000000000000000021e-02 1.000000000000000021e-02 1.000000000000000021e-02 1.000000000000000021e-02 1.000000000000000021e-02 1.000000000000000021e-02 1.000000000000000021e-02 1.000000000000000021e-02 1.000000000000000021e-02 1.000000000000000021e-02 1.000000000000000021e-02 1.000000000000000021e-02 1.000000000000000021e-02 1.000000000000000021e-02 1.000000000000000021e-02 1.000000000000000021e-02 1.000000000000000021e-02 1.000000000000000021e-02 1.000000000000000021e-02 1.000000000000000021e-02 1.000000000000000021e-02 1.000000000000000021e-02 1.000000000000000021e-02 1.000000000000000021e-02 1.000000000000000021e-02 1.000000000000000021e-02 1.000000000000000021e-02 1.000000000000000021e-02 1.000000000000000021e-02 1.000000000000000021e-02 1.000000000000000021e-02 1.000000000000000021e-02 1.000000000000000021e-02 1.000000000000000021e-02 1.000000000000000021e-02 1.000000000000000021e-02 1.000000000000000021e-02 1.000000000000000021e-02 1.000000000000000021e-02 1.000000000000000021e-02 1.000000000000000021e-02 1.000000000000000021e-02 1.000000000000000021e-02 1.000000000000000021e-02 1.000000000000000021e-02 1.000000000000000021e-02 1.000000000000000021e-02 1.000000000000000021e-02 1.000000000000000021e-02 1.000000000000000021e-02 1.000000000000000021e-02 1.000000000000000021e-02 1.000000000000000021e-02 1.000000000000000021e-02 1.000000000000000021e-02 1.000000000000000021e-02 1.000000000000000021e-02 1.000000000000000021e-02 1.000000000000000021e-02 1.000000000000000021e-02 1.000000000000000021e-02 1.000000000000000021e-02 1.000000000000000021e-02 1.000000000000000021e-02 1.000000000000000021e-02 1.000000000000000021e-02 1.000000000000000021e-02 1.000000000000000021e-02 1.000000000000000021e-02 1.000000000000000021e-02 1.000000000000000021e-02 1.000000000000000021e-02 1.000000000000000021e-02 1.000000000000000021e-02 1.000000000000000021e-02 1.000000000000000021e-02 1.000000000000000021e-02 1.000000000000000021e-02 1.000000000000000021e-02 1.000000000000000021e-02 1.000000000000000021e-02 1.000000000000000021e-02 1.000000000000000021e-02 1.000000000000000021e-02 1.000000000000000021e-02 1.000000000000000021e-02 1.000000000000000021e-02 1.000000000000000021e-02 1.000000000000000021e-02 1.000000000000000021e-02 1.000000000000000021e-02 1.000000000000000021e-02 1.000000000000000021e-02 1.000000000000000021e-02 1.000000000000000021e-02 1.000000000000000021e-02 1.000000000000000021e-02 1.000000000000000021e-02 1.000000000000000021e-02 1.000000000000000021e-02 1.000000000000000021e-02 1.000000000000000021e-02 1.000000000000000021e-02 1.000000000000000021e-02 1.000000000000000021e-02 1.000000000000000021e-02 1.000000000000000021e-02 1.000000000000000021e-02 1.000000000000000021e-02 1.000000000000000021e-02 1.000000000000000021e-02 1.000000000000000021e-02 1.000000000000000021e-02 1.000000000000000021e-02 1.000000000000000021e-02 1.000000000000000021e-02 1.000000000000000021e-02 1.000000000000000021e-02 1.000000000000000021e-02 1.000000000000000021e-02 1.000000000000000021e-02 1.000000000000000021e-02 1.000000000000000021e-02 1.000000000000000021e-02 1.000000000000000021e-02 1.000000000000000021e-02 1.000000000000000021e-02 1.000000000000000021e-02 1.000000000000000021e-02 1.000000000000000021e-02 1.000000000000000021e-02 1.000000000000000021e-02 1.000000000000000021e-02
-1.066688796074940484e+02 1.622937383375548563e+02 3.757056879956586215e+01 -8.435459004814259032e+00 -8.403821532376903747e+01 -1.280323126796597144e+01 -1.989096521627744778e+02 6.842639847822138410e-01 -8.099632772350773280e+01 -1.357406978758051430e+01 -1.899252640133160241e+01 6.275749322704040623e+00 -1.705765748646326019e+00 1.604873791194671639e+02 8.095066469075256066e+01 -3.714607002336948227e+01 -5.056402723367214946e+01 7.577239023750929903e+01 3.140827594359269526e+01 -2.428638289699888375e+01 -7.539934486926874513e+01 -7.056863220879937160e+01 -1.318647515565303152e+01 2.767588932292349924e+01 -1.864345795798185463e+02 -9.441288168053058882e+01 -2.496340163949601987e+01 1.928426686306423790e+02 6.768743344472663637e+01 7.343941322470058708e+01 7.681841559350144166e+01 1.127067472309644769e+00 -7.591224342912595091e+01 1.985207580977256612e+02 -2.342933286332542195e+02 5.634936228647390521e+01 -1.148606156309534896e+02 -3.319147965053458194e+01 3.865339840507886038e+00 1.212212041378127623e+02 -1.175473180338603925e+02 -1.302017149418205122e+01 7.396658020254780297e+01 1.660942021029848945e+02 6.822423666488872129e+01 -6.539028265156319719e+01 3.936615022417667831e+01 -2.717510081236918396e+01 -6.319902918224722299e+01 1.497909497819715057e+02 -6.740865765283537314e+01 -4.982255384623197614e+01 -1.333707684589679729e+02 5.593699291833344134e+00 -4.831963999882788130e+01 3.700952908208524406e+01 -8.489198979536807599e+01 -4.787527375040247080e+01 -9.702006211033230443e+01 -1.487371899096053482e+02 1.856229141843322594e+01 4.345920332972887223e+01 -1.178111639372651211e+02 1.229022706443678459e+01 -7.581825937008827054e+01 4.700337836789232426e+01 1.594963684359525189e+02 -1.380517313648372237e+02 -4.141378326384583630e+01 6.919731434471515286e+00 2.817373217433590593e+00 4.056596921128571864e+01 8.035433211300116341e+01 7.362608403781354394e-01 -8.468498174012244917e+00 -6.697648945628324668e+01 7.485999751524524015e+01 -3.128770106755124658e+01 2.517974511758172795e+01 9.954188309255536637e+01 8.437549946997509664e+01 -4.093318411109422073e+01 5.524511937243850213e+01 1.410613038019067460e+02 1.112075899439107047e+02 -3.811054881317251564e+00 1.666563897204285638e+02 -1.067232328837964985e+02 3.974694616554426130e+00 -4.012989453798908102e+01 1.978827243059802754e+02 -2.030806281253249068e+01 2.783225967931722167e+00 -7.347122813451474599e+01 -6.848481111648505149e+00 -6.104903108793581623e+01 6.486992631365549755e+01 -9.048658208436442862e+01 6.569988756976155742e+01 -4.572043939563537407e+01 -4.759156400565266409e+01 -8.771780508011988786e+01 5.075746788578073421e+01 -5.230596566789198221e+01 -1.428828877000252930e+02 -7.601403253152258799e+01 -1.000850578156422443e+02 -1.504407274667794354e+02 1.300517665811276515e+02 -2.624191521058494203e+01 3.066888090510350295e+01 8.579679037445264100e+01 -9.953382253047526262e+01 5.447888577437226587e+01 -4.144391172775170418e+01 -6.644404585130389762e+01 -8.626853591567402191e+01 1.944072772340059316e+02 -5.428615699510891801e+01 -4.739763121120274292e+01 -4.511188248881096285e+01 7.692138784266067830e+01 -3.964217840851475927e+01 1.319932170372624967e+02 -4.779921284723848629e+01 5.277599142071952798e+01 4.347741659907897294e+00 -7.755893741621123638e+01 6.579618945534748775e+01 2.654464663671211042e+02 -8.811926217842305675e+01 4.541432715817790466e+01 -7.301134885150293030e+01 4.330199054329983710e+01 1.255709447706235835e+02 -4.924202057068105631e+01 1.400368646191010846e+01 -2.580220277964180298e+01 -9.760034539337409853e+01 -1.663741070577663805e+01 4.138239163521514108e+00 -7.469647480257451733e+00 -1.429408556517389250e+01 1.131287716941025110e+02 1.248527946328299691e+02 1.785474030543795436e+02 -2.914451903794812324e+02 3.657272933074501964e+01 -1.511632769179730751e+01 -5.969090083679363801e+01 1.727217364101714736e+02 7.289660419335829999e+01 -2.524797386414971090e+00 -1.110311733246121690e+02 -1.040665858287304957e+01 9.588208568312816737e+01 -1.286925758174841121e+02 -1.615119496763157940e+02 1.028765613427390946e+01 4.062866724080164005e+01 -5.848889933884050407e+01 4.028372178757948063e+01 -1.025964696791953230e+02 -1.449749819511889086e+02 2.019596621537318626e+01 4.655226351336558821e+01 4.633460193611386835e+00 -7.994906803199407364e+01 -8.969975103839820463e+01 -8.077000246822215956e+01 -8.394106586508642920e+01 1.215765964448347347e+01 5.447465592627664677e+01 1.117487334221071933e+02 7.616528623754568628e+01 8.588230263566362055e+01 1.031460455899342890e+02 -7.174910319808608961e+01 -7.916852120896389522e+01 6.768758608686972877e+01 6.584408588621381853e+01 5.686436610782640599e+01 -9.003609150284988871e+00 -8.746576994569267072e+01 5.187367139897192203e+01 -1.721113013740386748e+02 6.457313021194794089e+01 -4.276842615850429752e+01 -9.268694450512208505e+01 7.135765042846146855e+01 -1.652101645728994583e+01 -7.414613040089113838e+01 -5.524391841230677613e+01 -8.837598722968790455e+00 2.336151975957171203e+02 7.409939851307134973e+01 5.281501294651392442e+01 -1.000140068424455819e+02 1.428453854789416084e+02 1.042743059635389713e+00 -8.707109924721423511e+01 1.502192859107204868e+02 -1.485949063745732985e+02 1.521639220813393401e+01 -3.134569037377531586e+01 -2.143165611789983416e+02 -1.299898791372376081e+02 -8.503309877038476827e+01 -2.868998355880433948e+01 -1.162098156282790455e+02 5.618708318103742982e+01 6.338151918674437724e+01 -2.692704483887665390e+01 -9.731145606834721207e+01 1.102666655853987834e+02 1.151980850015399653e+02 4.505580090217300437e+01 1.708873615387168599e+01 2.549881265291355987e+02 4.257056156582059003e+01 -1.166201337240494240e+02 -4.399833752763021977e+01 -1.647084618106026142e+02 3.110238142443495235e+01 1.495657315507696410e+02 -1.446807093484842710e+02 1.285731598223205765e+02 -8.878959805880353429e+01 -1.849726033160119343e+01 -8.105039728088250239e-01 5.163532663082010998e+01 -1.128819219296636156e+01 -2.230049128213033072e+01 -1.833987858889343059e+01 -1.238325599127254293e+02 4.529969349862343364e+01 -2.961956909838033880e+01 -1.259933048257668808e+01 -1.047710976297233465e+01 2.207428417167655255e+02 1.702568885200400075e+02 2.272651790676073347e+02 1.287645490979226111e+02 -8.458412648442373438e+01 7.341258703846960998e+01 2.067525850631021811e+01 4.640691581452900039e+01 -3.873529071525631906e+01 2.495576038589440202e+02 -2.279540665650995734e+01 -1.336211935820749090e+02 -1.459400629410851380e+01 -4.480674125598637403e+01 -7.560959994791453198e+01 4.217179542753910937e+01 -1.144574440283221151e+01 1.777905194548148415e+02 9.021863180420544381e+01 3.994678462166474731e+01 9.575275955962369778e+01 9.253443543737195398e+01 -2.246657764070883800e+01 1.364885015187427086e+02 2.595300026617125155e+01 8.761538926678133521e+01 4.663482790140508882e+01 6.764918491951815938e+00 -1.131578058726989013e+02 -1.133003934306403266e+02 -8.804784938309147435e+01 -1.521322825765962605e+01 8.477716781465851170e+01 -2.993150613571641117e+01 9.668662025959478967e+01 4.286028278269485270e+01 -7.110974553999467673e+01 -2.926970885394283783e+01 -5.728103570053306726e+01 1.718231773653352334e+01 -4.525135924097315154e+01 -1.095587110871853014e+02 1.188029910834277700e+02 1.186632437868213259e+02 -7.723918486066973799e+01 5.258110016941789588e+00 -4.433250240803694453e+01 -3.182081682250718657e+01 -1.108961357738736453e+01 -3.056039602693787316e+01 4.352925148324757743e+01 -1.374779591293824126e+02 -5.169403460092475200e+01 -1.484474743934792400e+02 1.702049971503485324e+02 -1.970735092225032048e+01 5.755561681326307166e+01 1.162662586144437604e+01 1.410833941577344035e+02 4.356397490242209614e+01 3.486107442586639849e+01 1.508184487346216827e+02 -4.811511616316735740e+01 -9.537145880439226175e+01 2.660175120943710425e+01 -1.542997726215629655e+02 -5.215374247808747299e+01 9.992703106005996005e+01 -1.244774667746096100e+02 -3.548781599410411758e+01 8.909740090905941656e+01 -9.215417207269408095e+01 -8.728550044919387574e+01 -8.062893856015597294e+01 -6.221858789511110643e+01 2.430713017421246320e+02 1.933794802596923716e+02 1.004433720554835077e+02 -9.968973663979707567e+01 7.298540922873648640e+01 -6.460544092435760888e+01 -3.070147047229677639e+01 1.621109554255171759e+01 -3.149650485956657420e+01 -9.137232116561375506e+01 -2.765886758851535010e+00 1.436173979967781911e+01 1.060545788713807269e+02 -1.252158288872838199e+02 4.092470834385891720e+01 6.213071018698848746e+01 3.359847052143494750e+01 -8.825787675760942363e+01 -1.446585987861714386e+02 1.880370364763113287e+02 -1.732513449057237409e+01 2.451582385640816497e+01 1.524258189284121841e+02 2.594176716778837388e+01 2.697478229430043584e+01 -4.334769242357415209e+01 8.620569835671297199e+01 -1.325949875004529872e+02 -2.994442859737038276e+01 -5.970203450080718177e+00 -5.190307073472061461e+01 6.168575743251084376e+00 2.064098801013422957e+01 -3.478870808656564151e+01 1.328312563250977441e+01 2.077215266080223444e+02 -2.663664556101243264e+01 -2.723086971788459465e+01 -9.878185977439930809e+01 -1.582342170168384854e+00 -7.843558264668504876e+01 6.181461267258629100e+00 1.088971948388197291e+02 -5.052786331421908983e+01 5.865001471213542317e+00 -5.273905669983329858e+01 3.210833601099329471e+00 8.467560889701844928e+01 -1.125052297529857839e+02 -9.405811258028006705e+01 -9.963258742320014960e+01 6.926768452883813154e+01 8.404903652742929410e+01 -8.953054228830644945e+01 6.084445705029952478e+01 2.509815398870498981e+01 3.756448154852703425e+01 -1.722105984993765659e+01 8.871059445410163846e+01 7.736175258303674696e+01 -7.498761495950242306e+01 1.142943377245807035e+01 7.850099790074635564e+01 7.070338237362635425e+01 -1.933901153436517717e+01 2.422315183630417579e+01 -1.287190511135147801e+02 4.712900990112741084e+01 -3.182676419361081699e+01 -3.174238411978637942e+01 1.681075303657664506e+02 4.601830298759289661e+01 1.166647832872140782e+02 1.853833385169578492e+02 -1.336277511819424717e+02 1.447351848116606448e+02 -6.161419021051082723e+01 -1.311868586351903048e+02 7.989509965595155450e+01 -1.301014895313278146e+02 -2.787638876158078460e+01 5.473279162017832533e+01 7.795478922988802850e+00 -1.632661470385687608e+02 8.181330727839910821e+01 2.450672874877396623e+01 6.705327417603857043e+01 3.525352053726349055e+01 9.184007926350066242e+00 -6.514063804112559808e+01 1.122919225799156067e+02 5.289526205496306943e+01 -6.028637335602594050e+01 -9.826887438593338686e+01 3.774983895417192059e+01 2.499537741326476592e+01 7.999056677314084141e+01 1.784195967959015547e+02 -2.388303084566922152e+01 -1.069267071073183502e+02 -8.216398807778310243e+01 -4.980386094644695305e+01 -4.299966872540193208e+01 -1.423901410395632467e+02 -2.187295145318036305e+01 1.257239405708009201e+02 7.232366849600074943e+01 -1.187572321157675077e+02 -1.455406953844553470e+02 -6.606124434305331761e+01 -7.403752779283290408e+01 1.425143083471938326e+02 -1.654422632139278164e+02 8.402976766379779860e+01 -4.470293028383601097e+00 -4.177454400330750417e+01 1.288715049376036603e+01 8.843399215052811257e+01 4.807014196179891030e+01 1.341170150994278174e+02 -1.544379397444427866e+02 -7.857331253789401160e+01 2.463984975907519370e+01 4.068271402381672885e+01 1.999946717752575296e+02 1.411645982475239407e+02 6.361956859800509534e+01 6.996658167168941134e+01 -3.299741004526805455e+01 1.472821602008609148e+02 -1.740756812991998572e+02 -6.155790381495045693e+01 -5.208528018068631127e+01 -5.025454986214067077e+01 -1.001771854429206599e+02 -1.455706677603306076e+01 -6.658654925371766353e+01 6.903724394855125013e+01 -8.863034836548079554e+00 -5.631149361673457321e+01 -6.034434152530129580e+01 1.748225226104976855e+02 5.730346194865493459e+01 -1.334162189733904569e+01 2.026737449978469101e+02 -1.051390432089354192e+02 -3.426855221613834601e+01 6.497154063183340611e+01 -1.362336069125708315e-01 1.454448923381199954e+01 -1.214139459925328168e+02 1.709317437681164336e+02 -4.746683001860311890e+01 -2.607602237544055868e+01 -1.063945552177942488e+02 1.220519253457133146e+02 9.292626662765903234e+01 -7.514974991263997595e+01 -3.650665992822521133e+01 3.778853108903230407e+01 -1.467542039846605917e+02 -2.045790865994834840e-01 -7.241567026163809828e+01 7.440438220843425654e+00 -1.047593065271902191e+02 -1.536461771940160759e+02 -6.850831759570507984e+01 1.436048205072772816e+02 5.477634807712147591e+01 -8.686149746470742627e+01 8.636777564409987917e+01 3.312819592066949781e+01 8.560192193908584102e+01 -4.079877786642688875e+01 -8.141527977834023488e+01 1.656474364133981396e+02 4.030407768377406796e+01 2.802330329624031080e+01 -7.065522930400621249e+01 -4.096545468551537539e+01 9.196960919322274108e+00 -6.949324288835486918e+00 -1.672995668655809709e+02 -3.351393398791750400e+01 6.232400399598546414e+01 1.079610151605335631e+02 1.507002130412678866e+02 -1.286144053470761861e+01 8.670260573732043952e+01 1.525944305049761738e+02 6.132140490191306270e+01 1.427883412003833712e+02 1.553623819317752108e+01 1.269543251239615245e+02 -8.114521430761193699e+01 5.153710990992125573e+01 2.830433925956412367e+01 7.327770364564361216e+01 -1.025955185718831473e+02 1.912941215493185325e+02 -1.242348368590905068e+02 8.527633638412534367e+01 -1.036165924105442429e+02 4.456316475496212348e+01 1.332662553659583082e+01 8.747855022117882129e+01 -7.102259522037751083e+01 -7.281439704643911170e+01 -1.072655141870468753e+01 8.588324584554240460e+01 -2.852378017919014397e+01 -1.570021450817495356e+01 -1.891379992107899000e+01 4.560930665366648817e+00 9.449295612018262602e+01 -6.019936194963457154e+01 -2.599263503597229352e+00 -1.864133064757814395e+02 1.172712262948046913e+02 -1.199437638609628181e+02 -7.093764630729106102e+01 -2.258361318268279305e+01 -1.036775586550045745e+02 -5.103381866206938611e+01 -5.626968169402780262e+01 -1.891936581885473956e+01 1.307999226982280163e+02 5.190948552150978657e+01 9.640733337405802672e+01 -1.306751490553623114e+02 -1.330417069311629348e+02 -2.752898007333209307e+02 9.813001834707274895e+01 1.000559453784719750e+02 4.064948390372543230e+01 -4.079635296018763313e+01 -3.567118342971546241e+01 -1.763663974829593997e+02 1.402484214628472330e+02 -1.031221251401463093e+02 1.027004920871675751e+02 -1.528339314738485939e+02 -1.375387860654079297e+01 -5.317200803577615176e+01 -1.145191298795667620e+02 -4.427392340252220748e+01 -1.206118163455745673e+01 -8.900055279021293586e+01 -9.934027734399107601e+01 -1.187271163314192179e+01 6.835165811979184980e+01 -1.196564219386172425e+02 -1.502114367033316711e+01 -7.082140199339858100e+01 -1.261981279409800720e+02 6.312511965134488534e+00 9.130926032454277674e+01 1.590099596720218074e+02 -1.829950607370412996e+01 -4.422958590508074650e+01 -1.193037574347736722e+02 -1.572341101479458416e+02 9.975351138988769151e+01 -6.989157418725892512e+01 7.589655944236837115e+01 9.029808837844068847e+00 2.806511931826214479e+01 7.097068919174705570e+01 -8.149093650576703851e+01 7.949384894997291440e+01 1.108347303284065504e+02 1.514576789671631900e+02 -1.120146741070286680e+02 9.996738392922476635e+01 -4.595911481975245749e+01 -8.731877136483041113e+01 2.063856659065339443e+02 4.731065781946426796e+01 8.027291593962929994e+01 2.037796906511468720e+01 -6.088089737560876813e+01 -3.359552652871119705e+01 -2.023380535490405236e+02 1.015997025354808727e+02 7.835691340835541041e+01 -7.279737978574090107e+01 -7.030076955977001774e+01 1.396258740240836858e+02 9.719499334652772404e+01 4.916568246460293778e+01 7.314568436058506506e+01 -7.533949710351879325e+00 9.923605406048037025e+01 -9.963245410251768419e+01 1.791972207133587744e+02 -3.797159416368334206e+01 -1.173429419430038649e+02 -3.627834006592943439e+01 6.899250462057369759e+01 1.416849860021940799e+02 1.233825632423590690e+01 1.671676586651235539e+02 5.018021583790969231e+01 3.235488100748464291e+01 -1.070383242321095452e+02 4.305576935455676590e+01 -1.201866054828758479e+02 4.589812744827749924e+01 3.708203541701772110e+01 -1.186664387786723580e+02 -8.178452290911815226e+01 3.834119302646745098e+01 8.390701448957125663e+00 -2.231136084049179402e+01 4.029142155097733990e+01 -2.058467513581467756e+01 -6.067218945618103731e+01 -2.525651922245726055e+01 -2.154936457464415867e+01 -3.829096243362204177e+01 1.804031738806570218e+01 -7.745857297706480438e+01 1.143813062616970626e+02 -7.141382828787953940e+01 -4.022114224579104835e+00 6.313660988394060070e+01 3.718992233751813092e+00 1.535989461612455820e+01 1.536300325361901287e+01 -1.126157622069479345e+02 -4.234429370247345226e+00 6.254726086476734537e+01 -2.225430773984948871e+02 -8.164267354872238514e+01 -1.083556272411124297e+02 4.212061440893371156e+01 9.251355276378296821e+01 -8.824611856071474847e+01 -1.614280517503434567e+02 -1.780826113734134708e+02 1.918140262325355394e+01 -1.393217078120011081e+02 -6.086046030392786577e+00 1.418542382727929123e+02 -6.784707048808295227e+00 3.565491007056777306e+01 -9.490782670652387765e+01 7.662286567209542909e+01 -1.136838147212973524e+02 -1.480578644088763163e+01 -2.901279975886620477e+01 5.519493499295950301e+01 -8.454637840527814419e+00 1.012009891026287818e+02 -1.169046635257892746e+02 -4.794487989718184195e+01 8.296821261619342636e+01 6.329253598864576702e+01 -7.872849789828087808e+01 -5.204793166898873835e+01 -4.722742581847520427e+01 -2.766509097590492843e+02 1.849594777189196009e+02 7.266680279458049085e+01 -2.250386813929999974e+01 -2.834017976153353047e+01 3.965425993829498452e+01 -8.026489198420682669e+01 9.495077573685030359e+01 5.772507181521149988e+01 7.812118717142777768e+01 -8.020413278548312519e+01 -2.524883169773557157e+01 3.175318947430813665e+01 1.656967542311593178e+01 -4.085818498534394649e+01 1.505899547130450742e+02 -1.646561538054124441e+01 3.375835429297232082e+01 -2.190658895631186169e+02 -8.065415980365064286e+01 -6.967590112723462425e+01 2.194144250038764454e+01 1.040035748566006504e+02 -2.207989845341097350e+02 -1.781750798930756048e+02 2.110970264069298423e+02 -1.006136382070840085e+01 9.146863570079153760e+01 5.964146636328177209e+01 -5.269950830489044336e+01 -1.247667387649760826e+02 -9.063269000879299142e+01 -4.785292578872018510e+01 -3.562213561678952090e+01 -3.729980964559747036e+01 1.535361761224148225e+01 3.545822051225351856e+01 1.589413865988650798e+02 1.174038683433834080e+02 6.676611799741352549e+00 -4.206474676376958044e+00 -1.511755252177241289e+02 1.139601787312380736e+02 1.517097690301405919e+02 -9.855377518585486030e+01 7.021033792329470202e+01 1.595896028466303740e+00 5.233873584747612995e+01 1.193950855893568246e+02 6.756852604866239176e+01 -1.276879405283891771e+02 1.534193091328665126e+01 -2.799342023554123315e+01 1.061853444629196908e+01 -2.198632180008431547e+01 4.318242516727716662e+01 -2.483673640501866657e+02 1.726175061126754144e+02 6.907302342040688714e+00 1.519264012554266117e+02 -1.001672875816336905e+01 1.011908354530388863e+02 6.829333594130015683e+01 -4.001057042956596632e+01 2.857693188055814204e+01 -6.948499267559833470e+01 -8.492189326672159666e+01 -6.873306215724825563e+01 -3.059545833669346138e+01 4.310215388618400567e+01 1.051396348414042876e+02 2.716447734128826852e+01 5.937639663383751554e+01 -1.001053089789927668e+02 -1.309610613967790016e+02 -1.287715220580045816e+01 4.429063634417911288e+01 -4.338426461221866504e+01 9.038448922848873224e+01 5.307919036062823182e+01 -2.640389540742456020e+01 2.860777720587756079e+01 5.867565501056267152e+01 -6.888831748579005421e+01 -1.277956804674302163e+02 1.357671238542116043e+02 7.466512398870975176e+00 4.793148483035542995e+01 -1.427846490210477839e+02 -5.108203901507446432e+01 -4.082683956917989576e-01 -6.298063690224453381e+01 4.072764499285256079e+00 5.388294412682648726e+01 1.784621326711220775e+02 3.746287907605113787e+01 -1.048920137885641601e+01 6.920274232568542061e+01 -4.353724233623685791e+01 -1.043763680765227804e+02 -1.323609889866135347e+02 8.966259002214989948e+00 2.406162486243422194e+01 2.285317137061467463e+01 -5.452356610243507617e+01 1.158120833287735110e+02 -7.748808856438368764e+01 1.230478204873114549e+02 8.371186885080838636e+01 -6.238238378073155843e+01 -8.133497483964028163e+01 8.080592659956080581e+01 1.957832502317409507e+01 -5.041864296622642172e+01 -5.167097615186224857e+01 1.313039673559593155e+02 5.506000591766823504e+01 7.676084749446084743e+01 2.511223958762888131e+01 -4.037698795572782728e+01 1.031744852325281983e+02 -5.243326849667911205e+01 5.557201724597436998e-01 7.354505521334239404e+01 9.573501601075508916e+01 2.456682085111974345e+02 -1.684690239230398845e+02 1.547362706178039957e+02 -6.494809008917002302e+01 -1.465505992433384463e+01 -2.418891228923330416e+01 -1.994500769640125881e+01 -5.302037045731872666e+01 8.952785140063731717e+01 1.771580986104349336e+02 -1.143604897891210470e+02 2.979229694036192555e+01 -1.222560257512909203e+02 6.764311078852915671e+01 -4.285280412549028028e+01 -7.814134925199797976e+01 -5.200526220693458868e+01 3.975469505882023924e+01 1.868241972780742799e+01 -7.890966597383471992e+01 -1.361712972416126490e+02 2.004878701333955249e+01 1.522540451357750442e+02 1.380558930169185849e+01 1.763639533338386229e+02 7.205020714656162006e+00 1.301829718574170442e+02 -3.344877837794003028e+01 8.780886796774724701e+01 -6.912235694052469626e+01 -1.092740313704834563e+02 4.785761559422979872e+01 -5.615598367180683681e+01 -7.607018988322471387e+01 7.056721288083406307e+01 6.280676575021259644e+00 -9.135710814991173834e+01 -1.459903668061071755e+02 1.434533271190881294e+02 -8.649448380405002013e+01 -2.307618897315318662e+00 1.165493679469014126e+02 5.629841275377886944e+01 -9.535904114224211980e+01 1.035363034609568444e+01 2.739407658840956969e+02 5.176955981515614269e+01 -1.532438995608694370e+02 -4.639091845714364126e+01 -5.976581991771916336e+01 9.344508516275801924e+00 1.046017876130152189e+02 -1.006732624131697094e+02 2.101142138644823021e+01 1.269397231691160073e+02 1.826601000870477520e+01 -2.056206813955731718e+02 4.699074318434745123e+01 7.348310918954229010e+01 -1.323886643024821730e+01 3.191467499904023342e+01 1.770304757298109266e-01 2.197786403750808049e+01 2.700493129413239402e+01 1.128042943354817282e+02 9.548850597369556681e+01 1.523801506422566199e+01 1.451169747781541162e+02 -6.234645451073052413e+01 2.402152164071975449e+02 6.335107119342452364e+01 1.380567203224704826e+02 -2.139079758671725529e+01 8.774874841866616748e+01 -4.764549000638120191e+01 -1.425966486931378086e+02 2.547931129437037256e+01 9.251801053608093639e+01 -8.530040729689746115e+01 -1.020495623466055974e+02 -6.483058155704286207e+01 3.568429187436044714e+01 -1.112467680054751042e+02 7.277569765126243340e+01 2.731310556419260749e+01 -9.511029934541974740e+01 1.850415858438635439e+02 -1.145900472210440313e+01 -9.917685918395403633e+01 -1.307894362768314345e+01 -1.991370891805097898e+01 -1.366303785958578487e+02 -3.899179433331160283e+01 5.994485498139301427e+01 1.284376604981799801e+02 2.830925006646496200e+01 2.605390519872123178e+01 4.364420044862900028e+01 -3.479485525893897346e+01 -1.419130454360408464e+02 1.549797437665262301e+01 3.015569719021652517e+01 1.297380384166301610e+02 -9.625887656068295328e+00 -7.418339207356385145e+01 7.133523968180901420e+01 9.456747518901862382e-01 3.097960894026939016e+01 1.356657894234538162e+02 -1.729529743555282835e+02 -9.050539126082175301e+01 1.215711602720896991e+02 -2.043085100580278493e+02 -1.741656314138124912e+02 8.621722862541152210e+01 1.458389175097746886e+02 6.007168780208748871e+01 -4.246351019478716182e+00 1.474658327390127397e+02 -2.079173894708150669e+02 1.014800552884963878e+02 4.013162098467188343e+01 1.203418841400362140e+02 -1.786017034087817592e+02 1.008350953283775624e+02 -2.672073507558655336e+01 -1.266069167978322696e+02 -5.039134911833715869e+00 -8.749117934365446558e+01 -1.534264048216371634e+01 -4.131058373123075000e+00 -1.166700195993535658e+02 -1.167870513241928734e+02 -5.924857800718020684e+01 -1.220718548776481782e+02 1.903285136070540204e+02 -1.526041222347952271e+02 -4.752687909154960977e+01 1.634045841861456836e+02 3.213630038563488256e+01 -2.803208662273350456e+02 -1.204114524740742382e+02 3.361527840238905895e+01 5.177230717560573936e+01 8.074883946704774829e+00 -1.463943079980185189e+02 3.379480381590306592e+01 7.117235374787935775e+00 -7.039360903992643159e+01 1.920061756636801533e+02 1.918333682979563832e+02 4.122086032409637113e+00 -1.975105148568081859e+02 1.193018762877132417e+02 2.911526972816787051e+01 3.623575288028741070e+00 7.251657897368383487e+01 -1.965045990391647877e+02 -1.307013887441731299e+02 1.335381508613419896e+02 1.038487648418512208e+02 5.009250161373232402e+01 1.355805976999190534e+02 -1.688198517116032917e+02 -1.938887477886994759e+01 -1.234835822712639413e+02 4.136939803113912717e+01 -9.837373139614599893e+01 8.246537373457250908e+01 -3.213471576639047811e+01 1.172998907832013593e+01 1.680443833117370787e+02 2.704903092920303820e+01 -2.496077252532209059e+02 -1.197034531472178571e+02 -7.892285350425797219e+01 1.497332491744878951e+02 1.187709909190094137e+01 -5.105095643107002701e+01 2.870102140037502991e+01 5.916612176855127103e+01 -3.744310189558412816e+01 1.018138619870686767e+02 -9.541133511882614471e+01 4.660597475917584376e+01 1.060037808883784578e+02 -3.365677969169421857e+01 -9.292730064184974026e+01 -1.074610146212599204e+02 1.134174785344943075e+02 -4.705774227145794697e+01 1.861367559021795444e+02 5.417468136048681515e+01 1.050624615766902252e+02 1.747547044034661212e+02 8.101010729379295228e+00 -1.177343277903855920e+02 -1.569340295975297011e+02 -1.081091190011458565e+02 4.026610526051425154e+01
-1.256378016511202311e+01 -4.490557618947913276e+00 9.576964446639536277e+01 -2.118718725734365478e+02 1.437660129147240013e+02 5.871755397057886938e+01 1.407382299022374355e+02 -1.194835221599199997e+02 -2.553311972769853444e+00 -2.225017013935672949e+01 -2.030315696062878885e+02 3.024428828171868133e+01 -1.694097042831809574e+01 1.131395168406242107e+02 -1.157359522886678462e+02 5.708483887464593920e+01 1.158644414685241770e+02 -4.251105882978183814e+01 -4.584293141980141684e+01 -2.493625820988349062e+01 5.710612856395415804e+01 5.831519105455878105e+01 3.000754998973937049e+01 -2.150324598055224214e+02 -4.766837582880479118e+01 8.469395412681919311e+01 9.172356495143199950e+00 -9.608679201031019801e+00 -6.151715455577280522e+01 -1.434880546502598797e+01 6.782554171583825564e+01 -1.344698228128994515e+02 -5.731283222032244140e+01 8.287635875297180377e+00 1.919956104409279192e+02 1.961204171409056585e+02 -2.974788112844684207e+01 5.168046136617327591e+01 -2.351099611417601376e-01 -1.291304835472753894e+02 8.874201774913149166e+01 9.914198084874573169e+01 1.003405564937782941e+02 1.079074988526665280e+01 5.721528111073035205e+01 4.449233554246863775e+01 3.594661900922694286e+01 2.716443141287978946e+01 1.019710480796770042e+02 8.294375606756977959e+01 6.062827252959765190e+01 1.507287619915300070e+02 2.291939018313338750e+02 1.808656657238402090e+02 -5.468990550352646096e+01 4.555817651252467471e+01 -5.941357371086511563e+01 5.212953340796145341e+01 -1.777436096450515777e+02 5.224280213853326416e+01 -1.893136682014573466e+02 -1.560172807199516285e+02 1.198106291152576830e+01 -8.576710752735502652e+00 1.567457097076485013e+02 -1.923394564499715784e+02 6.960156202233640954e+01 2.125674979361241128e+02 -6.855327545278516510e+00 -1.801787623218025942e+02 3.283936511924871127e+01 1.823384192968081550e+02 -5.652041926866464649e+01 -2.465604173255472347e+02 -9.486069469779731378e+01 8.262153177915521951e+00 -2.128159212393938731e+02 2.970454322138401082e+01 -1.660015652825293557e+02 -1.716481122692273118e+02 -5.292364163505902042e+01 1.410175661562353753e+02 6.424481403856556483e+01 9.830438228500964826e+00 -8.208070343802252467e+01 -3.942403472781079898e+01 5.898340097926975290e+01 -2.149156839007725353e+02 5.008011016671179760e+01 -6.935620914259747849e+01 -7.236523102094729154e+01 -1.637035841862734742e+02 6.019903058476123192e+01 8.582261778822243059e+01 -1.503028878490756597e+02 1.600389220077194636e+02 -3.692367842398650879e+01 -1.567362442556354196e+01 8.120944012748964269e+01 1.448345083368452038e+02 2.016362341005674352e+01 1.403190990472809005e+02 -1.716016526965477595e+01 -8.403634899677312831e+01 -1.816103139420164325e+01 9.363417764638266760e+01 4.285144745967429003e+01 9.321682369468338436e+01 8.992623362879118076e+01 -7.919345734178170915e+01 -1.619114182993419888e+02 1.172519354173301451e+02 5.168386623153445925e+01 1.549462969293946557e+01 2.913108755793036053e+01 -6.473266559975131429e+01 9.151473060762249645e+01 8.565786373490321637e+01 -1.310155052462344649e+01 -6.792577674240465058e+01 2.924363458932777249e+01 5.995343692528899204e+00 -5.859482918484860647e+01 1.616816435147466393e+02 -3.123367411095456703e+01 1.159371339146723869e+02 -6.682537287421169481e+01 3.660619908384207832e+01 -3.438077962940389654e+01 8.534912576401858075e+01 2.237995723417332883e+01 1.102446668004876074e+02 -1.106880558886838486e+02 7.092215210081725729e+01 1.177738507460784945e+02 -4.262770114214287531e+01 7.318199853228696483e+00 -1.222446492692915143e+01 1.114846532551241296e+02 3.515876094040383482e+00 1.608985467790805330e+02 -1.349715959112584756e+02 1.113274683316053597e+02 -8.710854259403421906e+01 9.147991518101484587e+01 -1.308607459856636694e+02 2.817193871714232500e+01 2.364494878501546538e+01 1.688291677559988990e+00 3.468261420544064322e+01 4.396538383769768643e+01 -1.181089340860228809e+01 1.043587225976115640e+01 1.032664418327626379e+02 1.215554694153634614e+02 -8.286275050651893537e+01 -5.174589910132626613e+01 4.521069358970227370e+01 1.441215951279437579e+00 -1.309341639256643646e+02 -5.272113476283247024e+01 -3.383210227602047127e+01 4.673047302228989253e+01 -6.262727501504919303e+01 2.189901653676673376e+01 1.533731469235702036e+02 -7.598011792542506271e+01 7.734277501123168008e+01 8.041055415086736957e+01 1.080653196228093371e+01 1.181404084105663372e+02 6.018724203879721557e+01 1.608661986744805859e+02 -3.316448802501225401e+01 1.076658731525622130e+02 5.322442953576327795e+01 -1.538095346728530544e+01 1.955949232472302981e+02 -1.329929577411673165e+02 4.687381711227432390e+01 -1.798500270632142133e+02 -8.071007650609350037e+01 3.937603983051381107e+01 -6.928168221786620506e+01 -1.494773207724912254e+02 1.912933671972279512e+02 -8.232762616008628243e+01 -4.559157374730105516e+01 -4.442149634176237072e+01 1.168872272984250174e+02 1.869971892227173669e+02 6.216685293247500255e+01 1.404307731602576723e+02 2.107676560496055629e+02 -1.524739134363546578e+00 1.564064040520069909e+02 6.807373610163878652e+01 1.828570485205454474e+02 -1.208397079778494145e+02 -1.135414255059054334e+01 6.113184560120640043e+00 1.824138604839941138e+02 -8.724338187233010444e+01 -5.815058632603720667e+01 -5.083309454322131415e+01 -1.287501912268987212e+02 4.490730098828721317e+00 -9.693084730051624831e+01 1.481043643557096914e+02 2.260496527179905257e+01 1.150785894487897387e+01 6.944505283158478903e+01 -4.708354437359534295e+00 1.123983152116786641e+02 -1.526147086948988090e+02 4.364189646069277018e+01 -1.640213360085623719e+02 1.127851536753267965e+02 9.233201640827310541e+01 -6.461371703155072055e+01 4.496651834865716069e+01 2.287387181247918306e+02 -2.927909963044998420e+01 4.000135427069618999e+01 -3.139292374005188435e+01 5.565905179690209081e+01 6.171267159852558848e+01 -6.042414767111798923e+00 9.785070935605533293e+01 9.741539570565346651e+01 -1.861858979908645608e+02 -1.471604659388059133e+02 -1.151046924479374809e+02 -9.043341878901404840e+00 -1.438074841216354969e+02 1.109653634149776309e+02 1.059342598309960550e+02 5.667335947573689481e+01 1.072298962739243855e+01 1.513951073419760007e+02 8.061635615496955154e+01 6.483040674733692299e+01 -9.753025450735277957e+01 1.463794804987151110e+02 -3.471482345087869792e+00 1.050070151060755563e+02 8.472233618266615807e+00 3.527257328690800620e+01 -7.264203285775269592e+01 -8.708994372830339614e+01 6.871570495787298682e+01 -3.721630545705270521e+00 1.402835092356001496e+02 -1.204270556109050005e+01 -2.723748338773360089e+00 4.400080587489704698e+01 2.170139270774487272e+01 1.356729667491293867e+02 1.411633522025480403e+01 3.439926441714064254e+01 -1.483497547722336947e+02 6.310847642992810336e+01 1.281428225592530623e+02 -1.683734146363393336e+01 -2.185481301952949877e+02 8.088108649422368046e+01 1.304062487894458400e+02 1.952457194905106519e+01 1.808699435742633170e+02 -4.116490376417942798e+00 4.097904363498455638e+01 -4.170546330051231365e+01 -1.324007273072425335e+02 5.351571566588668105e+01 -4.533571705981901800e+01 -7.727966588845161766e+01 3.934242672077549230e+01 -1.762519446123143609e+02 6.831215661972072439e+01 1.568349151534770840e+02 -9.649875275430797217e+01 1.649336795878699036e+02 -9.299679445965419688e+01 -5.674284350038400149e+00 -1.005698068565933845e+01 7.302792490973989459e+01 -4.442017069217146741e+01 -1.026133589771659587e+02 -8.436238191300004985e+01 1.387777805949145318e+02 5.625755942593821146e+01 -1.254594373629214488e+02 4.195350607389977782e+00 4.127996028668081152e+01 7.850408049275749534e+01 -3.834434935198038374e+01 5.698112619554032676e+01 -6.556670993824221227e+01 -1.542644375185792285e+02 -3.290420375950574794e+01 1.339460365038203804e+02 -1.077776462545869691e+02 -6.056296602235947901e+00 -1.546953418178745210e+02 -4.625026812364321671e+00 -1.385704646211105455e+02 3.130521373387415096e+01 5.721997641746408192e+01 -4.778498542308166463e+01 -7.819424882433193602e+01 5.360184406361291565e+00 7.063166664333137135e+01 -6.432383211572972925e+01 1.277989535398538976e+02 1.001907276479373081e+02 -1.211012849268994103e+02 -1.000524469797021396e+02 1.281210585946540164e+02 6.761132067706147097e+01 1.424348396301562616e+02 9.475624808540689514e+01 7.689542496929487925e+01 -5.713266493760011855e+01 -7.744508414214683967e+01 -7.298735285610365509e+01 1.936951191146959275e+02 2.900625101905904657e+01 -2.360173095030041424e+01 -6.482338992802245059e+01 -4.723190246700963968e+01 -1.242088557913134821e+02 -1.556652940967537013e+01 -1.654863116756536954e+02 1.179023336560405113e+02 4.334323173776670757e+01 -1.086338360206620024e+02 -4.565210614357506103e+01 1.128984195995890332e+02 -9.136197050243654871e+01 9.697029313393825589e+01 -1.117201823977215724e+02 -1.111013493427708454e+01 -9.004615757142589416e+01 8.462574668895146601e+01 -4.003818242049523946e+01 9.652996277241433276e+00 2.768164514423544276e+01 -1.193705241172476406e+02 1.177916523741031440e+01 4.561106028455774464e+01 -2.104270166930860242e+01 -6.479007256317997587e+01 1.909684503944716312e+02 8.148931974753588747e+01 4.437542016558622748e+01 -2.959569752278108012e+01 7.556754571525786446e+01 1.579467195386673097e+02 -8.688823575996924831e+01 1.974020913058906785e+02 -1.254260362170889209e+02 -1.732732950161375811e+02 1.429886313887459437e+02 -2.204614961852602448e+02 -8.747825652255604156e-01 -2.307809142134748868e+02 -1.440281648599082018e+02 6.763205223254269072e+01 -1.371638824349163599e+02 5.498599351639779798e+01 1.036267515347361439e+02 -1.510364734759699559e+02 -2.833351337999136987e+01 7.106391176948157806e+01 1.261579999479515521e+02 -1.753771631324198381e+02 8.245368224625127596e+01 -9.231088472982992243e+01 -9.268972861518991024e+00 -1.303689360323457791e+01 -7.495284480961061035e+01 -8.505255547274664707e+01 1.708847225621812811e+02 -2.047211305468566778e+01 1.281326150490373905e+00 1.227383012783216572e+02 -8.176801568132449916e+01 -3.245320270114442707e+01 -1.015390341763085615e+02 -4.602544618305005031e+01 4.840256547992408009e+00 5.596771616343076516e+01 -1.274665194562677328e+02 2.239357914985509410e+02 -5.088399632037793197e+01 1.158294939177963840e+02 -4.613883123434176525e+01 1.131958117687613310e+02 1.316039270422016330e+02 4.531143103626801150e+01 1.154294021062223976e+02 -4.088778987706562162e+01 1.324109437070874833e+02 -1.480878978452361707e+02 -6.188551473565294003e+01 -5.959097537290975310e+01 2.422547964259488396e+01 -1.535967058405129535e+02 6.865273410526907583e+01 -2.919675184152913161e+01 -7.822589676569597827e+01 8.478509181506761649e+01 -1.430471440029218684e+02 -8.637501482509586026e+01 -4.986838171981897716e+01 3.130420047403543649e+01 1.228779634185197835e+02 1.105828266270667513e+02 6.539121911378377661e+01 -1.455378135883216295e+00 1.656144497701872922e+02 1.159978580519869524e+02 -8.947325596960135385e+01 -7.392574477781043640e+01 5.210069099151959193e+01 9.396698599620730619e+00 9.275526747912660142e+01 1.578915692017783385e+02 6.684234685864322500e+01 2.316829659800176699e+01 -9.678518552567658162e+01 1.625865579488638275e+02 -1.075846546727079556e+02 -1.564261174472707694e+02 6.221653358584022442e+01 1.055377562806062741e+02 1.860858980143844832e+01 -1.313916600729490085e+02 2.809885032527233406e+01 4.011096439970575034e+01 -3.651748651724390227e-01 1.238735233079222837e+02 9.255687800592465919e+01 1.618955390084447288e+01 7.409378793017268094e+01 -1.011001725724537579e+02 -6.046586649560718563e+00 9.300444355373581118e+01 2.808190198444932051e+01 -6.147750236558704984e+01 1.872654557363927665e+02 2.184880038605770665e+02 -1.185692102836025583e+02 -2.613068943312969594e+01 -1.985973057122288878e+02 -6.821022422093568593e+01 1.479091626571087090e+02 3.159385783010246307e+00 -6.707221511863950525e+01 1.546919744132517565e+02 -5.901087439511127286e+01 -1.517238971464951760e+02 1.289932475920601291e+02 -6.343599979246619824e+01 3.262875757241693009e+01 8.151173373344938966e+01 1.303220906079589092e+01 -2.249844482744385346e+02 3.998139020853057701e+01 -5.850827605091864392e+00 8.510610268458364658e+01 -2.225312079209730598e+01 9.541972118037513440e+01 1.606385780714779798e+01 -7.991300803661120256e+01 -1.934597911499288969e+01 -1.654507476500971279e+02 1.085345538222556598e+02 2.387561851030985238e+01 -3.927666222204251056e+01 -4.888937188184048210e+01 -5.941992888808243123e+01 3.883978570545520626e+01 1.517005839034756889e+02 1.252531087347107075e+02 4.061555143499200682e+01 -1.867804329640221397e+02 -3.662233022143763606e+01 4.137412982355094471e+01 1.107298503635087599e+02 8.227533042009781639e+01 1.456026565215488944e+01 -1.755695148991518408e+02 1.242554338027867544e+02 -2.111795905855731803e+02 -1.942598782694986994e+02 -1.713804655775593488e+00 -6.962216488334463804e+01 -2.279309682980143492e+01 8.221987744607271509e+01 5.277658826323091290e+01 -1.049295045851250450e+02 -1.429797254941409506e+02 1.375377045165399181e+01 1.167406664943806618e+02 1.948773253649541815e+01 -5.352397228198542933e+01 -4.877781935975232841e+01 -1.101281884436786385e+01 1.523139335272564665e+02 2.110086677939318633e+01 -1.669603084551064285e+02 1.233668669739711277e+02 -6.424785171641632076e+01 -4.009037602759993213e+00 1.479801016717518678e+02 -5.022045884691953432e+01 -1.883655420217061760e+01 -1.055632559003853714e+02 -5.760365212196742135e+00 -2.290799755844351537e+01 1.265112380021155332e+02 1.153572376242305211e+02 6.494169707277893622e+01 6.291433519604606772e+01 -1.797227269797719984e+01 1.298549840634941859e+02 -1.083792723527552653e+02 -4.082327055545911243e+00 -8.749287526140641091e+01 1.509145311326804517e+02 7.007183779173499261e+01 4.962969618855133547e+01 7.913001886341143987e+00 -5.123554271899194390e+01 3.303369511758771893e+01 6.446204593819596873e+00 3.544710982487822903e+00 2.314465020437582510e+01 5.743143461039014142e+01 1.635886439019766385e+02 -3.735928744168727889e+01 -4.992478019238446052e+01 6.417820222005974529e+01 1.111204686451344656e+02 -1.231698142904324200e+01 8.836515034686077286e+01 1.000492205293034260e+02 2.025433311013542834e+02 -8.313508075479782633e+01 -1.178375500202794086e+02 -2.752589278144196072e+01 5.973783087160929739e+01 -9.750508653227459632e+00 1.031791783367435613e+02 3.579124609815150393e+01 -1.562042373085235738e+02 4.327019734679797835e+01 -8.592003540637863068e+01 -1.299312336299089168e+02 1.291730593917839371e+02 -7.304756817574696015e+01 5.684863762857747815e+01 1.067093764289739966e+02 -9.501505608042084816e+01 2.257950639278125848e+01 -6.924358323182526931e+01 3.868530078746054102e+01 -1.100659075441795380e+02 5.913729754463890487e+01 5.248974672287722854e+01 3.688145179577174915e+00 8.060458827924931313e+01 -1.466480762297485398e+02 7.325497072423445388e+01 -2.815375828061382535e+01 -1.609080103802777728e+02 9.003614600074934060e+01 2.339902404935851976e+01 -1.867609984391470448e+02 2.241160943368404901e+02 -5.170679554400766653e-01 1.001509279947460129e+02 -1.148515279371000020e+02 -1.849510792044382299e+02 -8.887921082073532375e+01 2.395203307753610567e+00 1.360528978319144926e+02 3.754177433444941592e+00 -9.103421343847765002e+01 4.792934425231301532e+01 1.305174878140930161e+02 6.185995378474025586e+01 -4.924590973467194743e+01 -5.633603250215734448e+01 8.047827162022208825e+01 2.923834147366572012e+01 -1.862972403903981444e+02 -1.974170848963756697e+01 1.609693151266407654e+02 9.407089910979327385e+01 -5.462011254477162936e+01 -1.064804814704819336e+02 -4.063376622363092849e+01 -4.579304687724936684e+01 -1.089967484591826263e+02 -1.753665623667428619e+01 -4.348153821462641844e+01 -1.082125843745951954e+02 -1.256679591005454029e+02 -2.569036943018796393e+01 -1.197056723231807354e+02 -1.274955237270281714e+02 -3.650721064949056682e+01 -5.268036622424781257e+01 -1.057622745536253035e+02 1.836563471932619223e+02 1.037597245986545502e+01 -2.774624529598661127e+01 -1.676461259012641847e+01 7.761473926537071577e+01 1.544443721998724151e+01 2.471080321793271750e+01 -2.093359340076530728e+01 -4.569177928614829653e+01 2.062437311241679438e+01 -1.434418616925211722e+02 -1.570392863547150739e+02 -8.914101532928476956e+01 -1.882821249149614857e+02 -8.839639351404143497e+01 8.459054300584135433e+01 6.056863031118590612e+01 -2.569263184198811700e+01 5.994819627722771571e+01 -1.544935151582796209e+02 -4.036087130830611613e+01 -1.145936825448869740e+02 -6.584618239060574751e+01 2.081846241895711103e+02 -2.025263172033026819e+02 2.025001688153176644e+02 2.461282793374443756e+01 -5.567316967928258720e+01 9.094221890611193260e+01 1.224083165125862251e+02 -5.118611227240799622e+01 -2.010453175764279763e+02 -1.470882199021672818e+02 1.009162987640904703e+02 8.262971011681932509e+01 -1.337331272219863365e+02 3.149332915980854963e+01 -3.916706349254389607e+01 -7.636266957284456680e+01 -2.804710975542877804e+01 -5.406959710388263574e+01 -8.524882565361980369e+01 -3.361628957348614222e+01 4.482985744484480506e+00 -3.220138596613552551e+01 -3.533689605433725789e-01 -1.410691222097406339e+01 9.068570621961869449e+01 1.254238893619556734e+02 1.297796299948266885e+01 1.658345820255006231e+01 -6.231272891648772116e+01 -1.934540378616948715e+02 3.339102019548288780e+01 -9.047533680921162613e+01 2.550102856365792192e+01 -7.991713271424775833e+00 1.061788228411769230e+00 7.144176963474373565e+01 1.202640290678577202e+02 -6.955328917927123200e+01 3.748983511800597057e+01 -1.903461066071277230e+02 9.564697231633347840e+00 6.815501631893905454e+00 -1.209287717458453812e+02 -3.325148542999910717e+01 -4.373538784244047406e+01 4.695955542570854568e+00 -1.008681568703958646e+02 2.668560647021782017e+01 -9.632943528212332751e+01 5.527939916876437110e+01 6.697412194444984834e+01 3.641165402024300590e+01 -2.862464364987354770e+01 1.060478405080290543e+02 6.028854350694226838e+01 7.893371643686559480e+01 -6.611297332911676961e+01 1.996289973039984034e+01 1.261378811017758892e+02 -5.770800185186090658e+01 -6.826348085382516473e+00 3.154509767251188279e+01 -1.266748427837048183e+02 9.645161178206812735e+01 8.833742449267768393e+01 -9.979002871389087659e+01 -8.119810287468983745e+01 -5.476774451860762127e+01 -4.501920334217319919e+01 -1.579467594404391662e+02 -1.339675414897072301e+02 -1.306125977620021388e+02 1.041555344736909916e+02 5.896173238415897799e+01 1.572444277387222940e+02 7.106886853400205872e+00 -8.442152658563020395e+01 1.849277482844109599e+01 1.362184791764682679e+01 -6.264194022891951619e+01 7.294962100799288862e+01 1.162899168839448407e+02 9.798465970622194376e+00 1.411691240607304110e+02 2.214034938417919918e+01 1.092447557766968345e+02 1.482889368021757726e+01 -2.045818175080419792e+02 2.149936601034034425e+02 -4.817352356867122865e+01 -1.467163894162059421e+02 -6.613184780501248383e+01 -4.215867916793788339e+01 4.058779856217427806e+01 2.508242682028901527e+01 4.483321820696052384e+01 -7.252319240202626816e+01 1.197977688683701700e+02 -8.442114007095115369e+01 -6.862572471692084619e+00 1.392795177675129423e+02 1.071359847663087379e+02 5.673683877038054391e+01 -1.729845410215147297e+02 2.484313492066006290e+01 1.370848663874357101e+02 2.286511816471389125e+01 9.522770791817298175e+01 1.037988699927889655e+02 -2.062233437032215875e+02 7.497719761280275463e+01 -5.627401985400805273e+01 -2.191110515722586172e+02 8.615807298352524413e+01 2.389042874147180839e+01 -1.181684051504328323e+02 -5.662611928428162855e+01 1.340062140273174123e+02 1.423258001845996716e+02 -7.309155034487294245e+01 -1.229823539988206136e+02 -8.018797214577580235e+01 -1.592439099755507357e+02 1.878169216913036621e+01 3.638861646544249595e+01 -1.629507351965621353e+01 -1.185316328532820052e+01 -8.560440724128568490e+01 -8.433107860057127425e+01 -2.354058648956324973e+01 1.274164385350173347e+02 1.294196565123956759e+02 7.701463906933483372e+01 9.214133439662938940e+01 -7.441024457431272765e+01 -1.710536872350193960e+02 -1.247444331273289286e+01 -2.184220434811434686e+01 -6.714390028402000610e+01 1.398695559463564608e+00 6.901423265476930169e+01 -4.998540678613299093e+01 2.335823935515864491e+01 7.481770367734043248e+01 6.623617311097270033e+01 1.044501236267927169e+02 -1.409118790840039992e+02 3.744119216676934769e+01 7.870801964595514733e+01 8.951945345924490027e+01 5.577596953476162867e+01 -9.752588874183008727e+01 1.293484930198064831e+02 1.204434773340994127e+02 9.055672106164678326e+01 9.592563900019482048e+01 -7.954912910177804974e+01 -1.403362288517942424e+01 -1.224024033169925829e+01 7.277191500498231846e+01 6.138371597771956090e+01 5.293464717960736721e+01 9.216083726398895237e+01 1.100759947711142956e+02 1.171223014652023693e+02 -6.123381039393404279e+01 7.616088687773223853e+01 6.161866032657379577e+01 -1.111615015073890760e+02 1.243373679594387369e+02 -9.466138365899224638e+00 -2.639404716978105725e+01 1.883792188410321558e+02 8.367285862424485288e+01 1.173612845863204370e+02 -1.365123252554259921e+02 -1.492526510005305624e+02 -1.453532828540712103e+02 -1.155604217710120452e+02 -4.190478301310245968e+01 1.038718541458257079e+02 -1.596855934831676223e+02 3.076912584555173069e+01 1.367000040937235497e+02 -5.622967821787693055e+01 -8.653470477902334324e+01 -3.330135191759757873e+01 1.287509476206255670e+02 2.154514363863589779e+02 -6.325900254302973025e+01 1.880267067660495073e+01 -2.624503476477162778e+01 6.497952051470625179e+01 5.714159510103122841e+01 -2.023428603993084209e+02 -8.415685142390731244e+01 1.306082425855169333e+02 1.327059936782793272e+02 8.975297689575515392e+01 -4.733647501340125530e+01 -7.196547095519780157e+01 -4.308699140445002485e+01 -1.677397303063796130e+02 6.756436936705416940e+01 -2.435952497097528280e+01 1.580711172781668381e+02 -2.655786438593283094e+01 -2.990009489503490272e+02 1.376743315343584584e+02 4.771226666159571295e+01 -1.121018616162954089e+02 -2.109639702781977277e+01 3.355274876953826890e+01 -1.974569452693093581e+02 -1.086277912783731381e+02 -1.042688670562016711e+02 -5.360783867597680086e+01 5.969327838812385778e+01 -1.567806733356928248e+02 1.025942294425553740e+02 -5.166599903788304005e+01 2.789735588965169821e+00 -1.269020088989675656e+02 -9.863400786507148155e+01 1.672719700652044708e+02 8.244946551951441904e+01 -4.017825340147800972e+01 3.533223421443610590e+01 -2.668065761154289106e+01 4.122912736628246222e+01 -9.956191025508346115e+01 9.416770337273108282e+01 4.804757945788080775e+01 -1.131580965751774954e+02 1.111216365420558816e+02 -4.673521453832476169e+01 9.509246997079509356e+01 -4.701797249203539764e+01 8.411772714241021731e+01 -1.460306871196463590e+02 1.358997714048629177e+02 2.357252622701745537e+01 9.586346045664193127e+01 1.242088010233485846e+02 -1.396760702570533397e+02 -8.182053982788188762e+01 -1.006189911530148891e+02 6.368770266333107344e+01 -1.632314964320736124e+02 1.443931184359409485e+02 1.356049476833438234e+02 5.046549167398810454e+01 -8.089073078687373197e+01 5.437946256733120265e+01 -1.022944915346958226e+02 -1.040205142713670128e+01 3.331635444686735070e+01 -1.751049665648430107e+02 -7.772559946779138329e+01 -1.289899403578427162e+01 9.738900973705176511e+01 -4.787343935104151171e+01 1.036856320305795833e+02 -6.131299337442433739e+01 -2.009573031695258294e+02 -1.021083970182889544e+02 -3.243284784480403715e+01 -5.738035289360352920e+01 2.868463006192636655e+01 4.906248860373680998e+01 6.036953295809587061e+00 2.424764918229620747e+01 -1.119875158715789070e+02 5.143156270942455421e+01 3.114769125745883471e+01 -6.884569488575316143e+01 8.868914940693400695e+00 5.384274151264332886e+01 -9.106859729120110103e+01 -5.261197586489136313e+01 -2.309264200312042092e+01 9.316027297385130623e+01 -1.636142856570710791e+01 4.008158910134073771e+00 -2.179150175751736072e+02 -9.075471647182196477e+01 9.452214289188376029e+01 -8.515723996575155752e+01 2.993399450982625254e+01 2.966805423673463693e+01 3.619945046353819862e+01 6.313480684590864911e+01 -1.695601640363531430e+02 1.375926109618896191e+02 7.795443433661772303e+01 -7.214061214341201733e+00 -7.721957037021971360e+01 1.068903252460799678e+02 5.935092639165370088e+01 -1.922439542160508950e+02 -4.814098929497951218e+01 -7.811221222952407572e+01 -4.950252905283220173e+01 -5.916035427747268471e+01 -9.461939702181160783e+01 -5.769048853424583712e+01 1.831016838054180198e+02 -1.632049252863170068e+02 6.257579978057056280e+01 2.652662272642406194e+01 -7.188828857249261262e+01 9.946387519502250640e+00 -3.771179266396162433e+01 3.292202525848698436e+00 -9.193680784788313076e+01 -1.889136181898780933e+02 1.758945828384851851e+01 4.005007538216930385e+01 -1.223260433784326828e+01 -8.548096933798715824e+00 -3.803499812907021038e+01 -1.815750377929645651e+02 -2.928412187398677702e+01 -6.249161802719655157e+01 1.331536106374632844e+01 -1.493680485460536289e+01 8.665187839273325210e+01 -6.028734640696688274e+01 -9.915293733327520442e+01 -3.412094871306134536e+01 -8.573731657575683229e+00 4.343409421371733004e+01 -2.114470854737144023e+01 -7.063380952375624133e+01 -1.519405396125829810e+01 1.916171495789457779e+01 4.543512471317258417e+01 -1.090186371245998913e+02 -1.329774310610009991e+02 2.203604089274662670e+02 -2.088327936419166519e+02 -7.262470398786147996e+01 -4.430340321372339929e+01 1.337875377489349091e+02 6.053467244300759376e+01 2.190574990951675716e+02 2.341927648720714217e+02 -5.967938476161891259e+01 1.238425479254325410e+02 -5.364352238331134259e+01 -3.906561272435668997e+01 -9.626303488558397703e+01 -7.639226692014820230e+01 -6.653027250769166301e+01 -8.519714034247007817e+01 -2.332806789476231302e+02 -2.591536910317848310e+02 1.288656970345075763e+02 -2.540414649394040225e+01 5.097837725506145290e+01 1.252957500960723536e+02
