# 
#                 ----------------------------------------------------
#                 Data from a 3D direct N-body simulation. 
# 
#                 rows are i-particle; 
#                 coumns are :mass, tag, x ,y, z, vx, vy, vz, ax, ay, az
# 
#                 NTHU, Computational Physics Lab
# 
#                 ----------------------------------------------------
#                 Time = 3.799999999999963
1.000000000000000000e+00 2.000000000000000000e+00 3.000000000000000000e+00 4.000000000000000000e+00 5.000000000000000000e+00 6.000000000000000000e+00 7.000000000000000000e+00 8.000000000000000000e+00 9.000000000000000000e+00 1.000000000000000000e+01 1.100000000000000000e+01 1.200000000000000000e+01 1.300000000000000000e+01 1.400000000000000000e+01 1.500000000000000000e+01 1.600000000000000000e+01 1.700000000000000000e+01 1.800000000000000000e+01 1.900000000000000000e+01 2.000000000000000000e+01 2.100000000000000000e+01 2.200000000000000000e+01 2.300000000000000000e+01 2.400000000000000000e+01 2.500000000000000000e+01 2.600000000000000000e+01 2.700000000000000000e+01 2.800000000000000000e+01 2.900000000000000000e+01 3.000000000000000000e+01 3.100000000000000000e+01 3.200000000000000000e+01 3.300000000000000000e+01 3.400000000000000000e+01 3.500000000000000000e+01 3.600000000000000000e+01 3.700000000000000000e+01 3.800000000000000000e+01 3.900000000000000000e+01 4.000000000000000000e+01 4.100000000000000000e+01 4.200000000000000000e+01 4.300000000000000000e+01 4.400000000000000000e+01 4.500000000000000000e+01 4.600000000000000000e+01 4.700000000000000000e+01 4.800000000000000000e+01 4.900000000000000000e+01 5.000000000000000000e+01 5.100000000000000000e+01 5.200000000000000000e+01 5.300000000000000000e+01 5.400000000000000000e+01 5.500000000000000000e+01 5.600000000000000000e+01 5.700000000000000000e+01 5.800000000000000000e+01 5.900000000000000000e+01 6.000000000000000000e+01 6.100000000000000000e+01 6.200000000000000000e+01 6.300000000000000000e+01 6.400000000000000000e+01 6.500000000000000000e+01 6.600000000000000000e+01 6.700000000000000000e+01 6.800000000000000000e+01 6.900000000000000000e+01 7.000000000000000000e+01 7.100000000000000000e+01 7.200000000000000000e+01 7.300000000000000000e+01 7.400000000000000000e+01 7.500000000000000000e+01 7.600000000000000000e+01 7.700000000000000000e+01 7.800000000000000000e+01 7.900000000000000000e+01 8.000000000000000000e+01 8.100000000000000000e+01 8.200000000000000000e+01 8.300000000000000000e+01 8.400000000000000000e+01 8.500000000000000000e+01 8.600000000000000000e+01 8.700000000000000000e+01 8.800000000000000000e+01 8.900000000000000000e+01 9.000000000000000000e+01 9.100000000000000000e+01 9.200000000000000000e+01 9.300000000000000000e+01 9.400000000000000000e+01 9.500000000000000000e+01 9.600000000000000000e+01 9.700000000000000000e+01 9.800000000000000000e+01 9.900000000000000000e+01 1.000000000000000000e+02 1.010000000000000000e+02 1.020000000000000000e+02 1.030000000000000000e+02 1.040000000000000000e+02 1.050000000000000000e+02 1.060000000000000000e+02 1.070000000000000000e+02 1.080000000000000000e+02 1.090000000000000000e+02 1.100000000000000000e+02 1.110000000000000000e+02 1.120000000000000000e+02 1.130000000000000000e+02 1.140000000000000000e+02 1.150000000000000000e+02 1.160000000000000000e+02 1.170000000000000000e+02 1.180000000000000000e+02 1.190000000000000000e+02 1.200000000000000000e+02 1.210000000000000000e+02 1.220000000000000000e+02 1.230000000000000000e+02 1.240000000000000000e+02 1.250000000000000000e+02 1.260000000000000000e+02 1.270000000000000000e+02 1.280000000000000000e+02 1.290000000000000000e+02 1.300000000000000000e+02 1.310000000000000000e+02 1.320000000000000000e+02 1.330000000000000000e+02 1.340000000000000000e+02 1.350000000000000000e+02 1.360000000000000000e+02 1.370000000000000000e+02 1.380000000000000000e+02 1.390000000000000000e+02 1.400000000000000000e+02 1.410000000000000000e+02 1.420000000000000000e+02 1.430000000000000000e+02 1.440000000000000000e+02 1.450000000000000000e+02 1.460000000000000000e+02 1.470000000000000000e+02 1.480000000000000000e+02 1.490000000000000000e+02 1.500000000000000000e+02 1.510000000000000000e+02 1.520000000000000000e+02 1.530000000000000000e+02 1.540000000000000000e+02 1.550000000000000000e+02 1.560000000000000000e+02 1.570000000000000000e+02 1.580000000000000000e+02 1.590000000000000000e+02 1.600000000000000000e+02 1.610000000000000000e+02 1.620000000000000000e+02 1.630000000000000000e+02 1.640000000000000000e+02 1.650000000000000000e+02 1.660000000000000000e+02 1.670000000000000000e+02 1.680000000000000000e+02 1.690000000000000000e+02 1.700000000000000000e+02 1.710000000000000000e+02 1.720000000000000000e+02 1.730000000000000000e+02 1.740000000000000000e+02 1.750000000000000000e+02 1.760000000000000000e+02 1.770000000000000000e+02 1.780000000000000000e+02 1.790000000000000000e+02 1.800000000000000000e+02 1.810000000000000000e+02 1.820000000000000000e+02 1.830000000000000000e+02 1.840000000000000000e+02 1.850000000000000000e+02 1.860000000000000000e+02 1.870000000000000000e+02 1.880000000000000000e+02 1.890000000000000000e+02 1.900000000000000000e+02 1.910000000000000000e+02 1.920000000000000000e+02 1.930000000000000000e+02 1.940000000000000000e+02 1.950000000000000000e+02 1.960000000000000000e+02 1.970000000000000000e+02 1.980000000000000000e+02 1.990000000000000000e+02 2.000000000000000000e+02 2.010000000000000000e+02 2.020000000000000000e+02 2.030000000000000000e+02 2.040000000000000000e+02 2.050000000000000000e+02 2.060000000000000000e+02 2.070000000000000000e+02 2.080000000000000000e+02 2.090000000000000000e+02 2.100000000000000000e+02 2.110000000000000000e+02 2.120000000000000000e+02 2.130000000000000000e+02 2.140000000000000000e+02 2.150000000000000000e+02 2.160000000000000000e+02 2.170000000000000000e+02 2.180000000000000000e+02 2.190000000000000000e+02 2.200000000000000000e+02 2.210000000000000000e+02 2.220000000000000000e+02 2.230000000000000000e+02 2.240000000000000000e+02 2.250000000000000000e+02 2.260000000000000000e+02 2.270000000000000000e+02 2.280000000000000000e+02 2.290000000000000000e+02 2.300000000000000000e+02 2.310000000000000000e+02 2.320000000000000000e+02 2.330000000000000000e+02 2.340000000000000000e+02 2.350000000000000000e+02 2.360000000000000000e+02 2.370000000000000000e+02 2.380000000000000000e+02 2.390000000000000000e+02 2.400000000000000000e+02 2.410000000000000000e+02 2.420000000000000000e+02 2.430000000000000000e+02 2.440000000000000000e+02 2.450000000000000000e+02 2.460000000000000000e+02 2.470000000000000000e+02 2.480000000000000000e+02 2.490000000000000000e+02 2.500000000000000000e+02 2.510000000000000000e+02 2.520000000000000000e+02 2.530000000000000000e+02 2.540000000000000000e+02 2.550000000000000000e+02 2.560000000000000000e+02 2.570000000000000000e+02 2.580000000000000000e+02 2.590000000000000000e+02 2.600000000000000000e+02 2.610000000000000000e+02 2.620000000000000000e+02 2.630000000000000000e+02 2.640000000000000000e+02 2.650000000000000000e+02 2.660000000000000000e+02 2.670000000000000000e+02 2.680000000000000000e+02 2.690000000000000000e+02 2.700000000000000000e+02 2.710000000000000000e+02 2.720000000000000000e+02 2.730000000000000000e+02 2.740000000000000000e+02 2.750000000000000000e+02 2.760000000000000000e+02 2.770000000000000000e+02 2.780000000000000000e+02 2.790000000000000000e+02 2.800000000000000000e+02 2.810000000000000000e+02 2.820000000000000000e+02 2.830000000000000000e+02 2.840000000000000000e+02 2.850000000000000000e+02 2.860000000000000000e+02 2.870000000000000000e+02 2.880000000000000000e+02 2.890000000000000000e+02 2.900000000000000000e+02 2.910000000000000000e+02 2.920000000000000000e+02 2.930000000000000000e+02 2.940000000000000000e+02 2.950000000000000000e+02 2.960000000000000000e+02 2.970000000000000000e+02 2.980000000000000000e+02 2.990000000000000000e+02 3.000000000000000000e+02 3.010000000000000000e+02 3.020000000000000000e+02 3.030000000000000000e+02 3.040000000000000000e+02 3.050000000000000000e+02 3.060000000000000000e+02 3.070000000000000000e+02 3.080000000000000000e+02 3.090000000000000000e+02 3.100000000000000000e+02 3.110000000000000000e+02 3.120000000000000000e+02 3.130000000000000000e+02 3.140000000000000000e+02 3.150000000000000000e+02 3.160000000000000000e+02 3.170000000000000000e+02 3.180000000000000000e+02 3.190000000000000000e+02 3.200000000000000000e+02 3.210000000000000000e+02 3.220000000000000000e+02 3.230000000000000000e+02 3.240000000000000000e+02 3.250000000000000000e+02 3.260000000000000000e+02 3.270000000000000000e+02 3.280000000000000000e+02 3.290000000000000000e+02 3.300000000000000000e+02 3.310000000000000000e+02 3.320000000000000000e+02 3.330000000000000000e+02 3.340000000000000000e+02 3.350000000000000000e+02 3.360000000000000000e+02 3.370000000000000000e+02 3.380000000000000000e+02 3.390000000000000000e+02 3.400000000000000000e+02 3.410000000000000000e+02 3.420000000000000000e+02 3.430000000000000000e+02 3.440000000000000000e+02 3.450000000000000000e+02 3.460000000000000000e+02 3.470000000000000000e+02 3.480000000000000000e+02 3.490000000000000000e+02 3.500000000000000000e+02 3.510000000000000000e+02 3.520000000000000000e+02 3.530000000000000000e+02 3.540000000000000000e+02 3.550000000000000000e+02 3.560000000000000000e+02 3.570000000000000000e+02 3.580000000000000000e+02 3.590000000000000000e+02 3.600000000000000000e+02 3.610000000000000000e+02 3.620000000000000000e+02 3.630000000000000000e+02 3.640000000000000000e+02 3.650000000000000000e+02 3.660000000000000000e+02 3.670000000000000000e+02 3.680000000000000000e+02 3.690000000000000000e+02 3.700000000000000000e+02 3.710000000000000000e+02 3.720000000000000000e+02 3.730000000000000000e+02 3.740000000000000000e+02 3.750000000000000000e+02 3.760000000000000000e+02 3.770000000000000000e+02 3.780000000000000000e+02 3.790000000000000000e+02 3.800000000000000000e+02 3.810000000000000000e+02 3.820000000000000000e+02 3.830000000000000000e+02 3.840000000000000000e+02 3.850000000000000000e+02 3.860000000000000000e+02 3.870000000000000000e+02 3.880000000000000000e+02 3.890000000000000000e+02 3.900000000000000000e+02 3.910000000000000000e+02 3.920000000000000000e+02 3.930000000000000000e+02 3.940000000000000000e+02 3.950000000000000000e+02 3.960000000000000000e+02 3.970000000000000000e+02 3.980000000000000000e+02 3.990000000000000000e+02 4.000000000000000000e+02 4.010000000000000000e+02 4.020000000000000000e+02 4.030000000000000000e+02 4.040000000000000000e+02 4.050000000000000000e+02 4.060000000000000000e+02 4.070000000000000000e+02 4.080000000000000000e+02 4.090000000000000000e+02 4.100000000000000000e+02 4.110000000000000000e+02 4.120000000000000000e+02 4.130000000000000000e+02 4.140000000000000000e+02 4.150000000000000000e+02 4.160000000000000000e+02 4.170000000000000000e+02 4.180000000000000000e+02 4.190000000000000000e+02 4.200000000000000000e+02 4.210000000000000000e+02 4.220000000000000000e+02 4.230000000000000000e+02 4.240000000000000000e+02 4.250000000000000000e+02 4.260000000000000000e+02 4.270000000000000000e+02 4.280000000000000000e+02 4.290000000000000000e+02 4.300000000000000000e+02 4.310000000000000000e+02 4.320000000000000000e+02 4.330000000000000000e+02 4.340000000000000000e+02 4.350000000000000000e+02 4.360000000000000000e+02 4.370000000000000000e+02 4.380000000000000000e+02 4.390000000000000000e+02 4.400000000000000000e+02 4.410000000000000000e+02 4.420000000000000000e+02 4.430000000000000000e+02 4.440000000000000000e+02 4.450000000000000000e+02 4.460000000000000000e+02 4.470000000000000000e+02 4.480000000000000000e+02 4.490000000000000000e+02 4.500000000000000000e+02 4.510000000000000000e+02 4.520000000000000000e+02 4.530000000000000000e+02 4.540000000000000000e+02 4.550000000000000000e+02 4.560000000000000000e+02 4.570000000000000000e+02 4.580000000000000000e+02 4.590000000000000000e+02 4.600000000000000000e+02 4.610000000000000000e+02 4.620000000000000000e+02 4.630000000000000000e+02 4.640000000000000000e+02 4.650000000000000000e+02 4.660000000000000000e+02 4.670000000000000000e+02 4.680000000000000000e+02 4.690000000000000000e+02 4.700000000000000000e+02 4.710000000000000000e+02 4.720000000000000000e+02 4.730000000000000000e+02 4.740000000000000000e+02 4.750000000000000000e+02 4.760000000000000000e+02 4.770000000000000000e+02 4.780000000000000000e+02 4.790000000000000000e+02 4.800000000000000000e+02 4.810000000000000000e+02 4.820000000000000000e+02 4.830000000000000000e+02 4.840000000000000000e+02 4.850000000000000000e+02 4.860000000000000000e+02 4.870000000000000000e+02 4.880000000000000000e+02 4.890000000000000000e+02 4.900000000000000000e+02 4.910000000000000000e+02 4.920000000000000000e+02 4.930000000000000000e+02 4.940000000000000000e+02 4.950000000000000000e+02 4.960000000000000000e+02 4.970000000000000000e+02 4.980000000000000000e+02 4.990000000000000000e+02 5.000000000000000000e+02 5.010000000000000000e+02 5.020000000000000000e+02 5.030000000000000000e+02 5.040000000000000000e+02 5.050000000000000000e+02 5.060000000000000000e+02 5.070000000000000000e+02 5.080000000000000000e+02 5.090000000000000000e+02 5.100000000000000000e+02 5.110000000000000000e+02 5.120000000000000000e+02 5.130000000000000000e+02 5.140000000000000000e+02 5.150000000000000000e+02 5.160000000000000000e+02 5.170000000000000000e+02 5.180000000000000000e+02 5.190000000000000000e+02 5.200000000000000000e+02 5.210000000000000000e+02 5.220000000000000000e+02 5.230000000000000000e+02 5.240000000000000000e+02 5.250000000000000000e+02 5.260000000000000000e+02 5.270000000000000000e+02 5.280000000000000000e+02 5.290000000000000000e+02 5.300000000000000000e+02 5.310000000000000000e+02 5.320000000000000000e+02 5.330000000000000000e+02 5.340000000000000000e+02 5.350000000000000000e+02 5.360000000000000000e+02 5.370000000000000000e+02 5.380000000000000000e+02 5.390000000000000000e+02 5.400000000000000000e+02 5.410000000000000000e+02 5.420000000000000000e+02 5.430000000000000000e+02 5.440000000000000000e+02 5.450000000000000000e+02 5.460000000000000000e+02 5.470000000000000000e+02 5.480000000000000000e+02 5.490000000000000000e+02 5.500000000000000000e+02 5.510000000000000000e+02 5.520000000000000000e+02 5.530000000000000000e+02 5.540000000000000000e+02 5.550000000000000000e+02 5.560000000000000000e+02 5.570000000000000000e+02 5.580000000000000000e+02 5.590000000000000000e+02 5.600000000000000000e+02 5.610000000000000000e+02 5.620000000000000000e+02 5.630000000000000000e+02 5.640000000000000000e+02 5.650000000000000000e+02 5.660000000000000000e+02 5.670000000000000000e+02 5.680000000000000000e+02 5.690000000000000000e+02 5.700000000000000000e+02 5.710000000000000000e+02 5.720000000000000000e+02 5.730000000000000000e+02 5.740000000000000000e+02 5.750000000000000000e+02 5.760000000000000000e+02 5.770000000000000000e+02 5.780000000000000000e+02 5.790000000000000000e+02 5.800000000000000000e+02 5.810000000000000000e+02 5.820000000000000000e+02 5.830000000000000000e+02 5.840000000000000000e+02 5.850000000000000000e+02 5.860000000000000000e+02 5.870000000000000000e+02 5.880000000000000000e+02 5.890000000000000000e+02 5.900000000000000000e+02 5.910000000000000000e+02 5.920000000000000000e+02 5.930000000000000000e+02 5.940000000000000000e+02 5.950000000000000000e+02 5.960000000000000000e+02 5.970000000000000000e+02 5.980000000000000000e+02 5.990000000000000000e+02 6.000000000000000000e+02 6.010000000000000000e+02 6.020000000000000000e+02 6.030000000000000000e+02 6.040000000000000000e+02 6.050000000000000000e+02 6.060000000000000000e+02 6.070000000000000000e+02 6.080000000000000000e+02 6.090000000000000000e+02 6.100000000000000000e+02 6.110000000000000000e+02 6.120000000000000000e+02 6.130000000000000000e+02 6.140000000000000000e+02 6.150000000000000000e+02 6.160000000000000000e+02 6.170000000000000000e+02 6.180000000000000000e+02 6.190000000000000000e+02 6.200000000000000000e+02 6.210000000000000000e+02 6.220000000000000000e+02 6.230000000000000000e+02 6.240000000000000000e+02 6.250000000000000000e+02 6.260000000000000000e+02 6.270000000000000000e+02 6.280000000000000000e+02 6.290000000000000000e+02 6.300000000000000000e+02 6.310000000000000000e+02 6.320000000000000000e+02 6.330000000000000000e+02 6.340000000000000000e+02 6.350000000000000000e+02 6.360000000000000000e+02 6.370000000000000000e+02 6.380000000000000000e+02 6.390000000000000000e+02 6.400000000000000000e+02 6.410000000000000000e+02 6.420000000000000000e+02 6.430000000000000000e+02 6.440000000000000000e+02 6.450000000000000000e+02 6.460000000000000000e+02 6.470000000000000000e+02 6.480000000000000000e+02 6.490000000000000000e+02 6.500000000000000000e+02 6.510000000000000000e+02 6.520000000000000000e+02 6.530000000000000000e+02 6.540000000000000000e+02 6.550000000000000000e+02 6.560000000000000000e+02 6.570000000000000000e+02 6.580000000000000000e+02 6.590000000000000000e+02 6.600000000000000000e+02 6.610000000000000000e+02 6.620000000000000000e+02 6.630000000000000000e+02 6.640000000000000000e+02 6.650000000000000000e+02 6.660000000000000000e+02 6.670000000000000000e+02 6.680000000000000000e+02 6.690000000000000000e+02 6.700000000000000000e+02 6.710000000000000000e+02 6.720000000000000000e+02 6.730000000000000000e+02 6.740000000000000000e+02 6.750000000000000000e+02 6.760000000000000000e+02 6.770000000000000000e+02 6.780000000000000000e+02 6.790000000000000000e+02 6.800000000000000000e+02 6.810000000000000000e+02 6.820000000000000000e+02 6.830000000000000000e+02 6.840000000000000000e+02 6.850000000000000000e+02 6.860000000000000000e+02 6.870000000000000000e+02 6.880000000000000000e+02 6.890000000000000000e+02 6.900000000000000000e+02 6.910000000000000000e+02 6.920000000000000000e+02 6.930000000000000000e+02 6.940000000000000000e+02 6.950000000000000000e+02 6.960000000000000000e+02 6.970000000000000000e+02 6.980000000000000000e+02 6.990000000000000000e+02 7.000000000000000000e+02 7.010000000000000000e+02 7.020000000000000000e+02 7.030000000000000000e+02 7.040000000000000000e+02 7.050000000000000000e+02 7.060000000000000000e+02 7.070000000000000000e+02 7.080000000000000000e+02 7.090000000000000000e+02 7.100000000000000000e+02 7.110000000000000000e+02 7.120000000000000000e+02 7.130000000000000000e+02 7.140000000000000000e+02 7.150000000000000000e+02 7.160000000000000000e+02 7.170000000000000000e+02 7.180000000000000000e+02 7.190000000000000000e+02 7.200000000000000000e+02 7.210000000000000000e+02 7.220000000000000000e+02 7.230000000000000000e+02 7.240000000000000000e+02 7.250000000000000000e+02 7.260000000000000000e+02 7.270000000000000000e+02 7.280000000000000000e+02 7.290000000000000000e+02 7.300000000000000000e+02 7.310000000000000000e+02 7.320000000000000000e+02 7.330000000000000000e+02 7.340000000000000000e+02 7.350000000000000000e+02 7.360000000000000000e+02 7.370000000000000000e+02 7.380000000000000000e+02 7.390000000000000000e+02 7.400000000000000000e+02 7.410000000000000000e+02 7.420000000000000000e+02 7.430000000000000000e+02 7.440000000000000000e+02 7.450000000000000000e+02 7.460000000000000000e+02 7.470000000000000000e+02 7.480000000000000000e+02 7.490000000000000000e+02 7.500000000000000000e+02 7.510000000000000000e+02 7.520000000000000000e+02 7.530000000000000000e+02 7.540000000000000000e+02 7.550000000000000000e+02 7.560000000000000000e+02 7.570000000000000000e+02 7.580000000000000000e+02 7.590000000000000000e+02 7.600000000000000000e+02 7.610000000000000000e+02 7.620000000000000000e+02 7.630000000000000000e+02 7.640000000000000000e+02 7.650000000000000000e+02 7.660000000000000000e+02 7.670000000000000000e+02 7.680000000000000000e+02 7.690000000000000000e+02 7.700000000000000000e+02 7.710000000000000000e+02 7.720000000000000000e+02 7.730000000000000000e+02 7.740000000000000000e+02 7.750000000000000000e+02 7.760000000000000000e+02 7.770000000000000000e+02 7.780000000000000000e+02 7.790000000000000000e+02 7.800000000000000000e+02 7.810000000000000000e+02 7.820000000000000000e+02 7.830000000000000000e+02 7.840000000000000000e+02 7.850000000000000000e+02 7.860000000000000000e+02 7.870000000000000000e+02 7.880000000000000000e+02 7.890000000000000000e+02 7.900000000000000000e+02 7.910000000000000000e+02 7.920000000000000000e+02 7.930000000000000000e+02 7.940000000000000000e+02 7.950000000000000000e+02 7.960000000000000000e+02 7.970000000000000000e+02 7.980000000000000000e+02 7.990000000000000000e+02 8.000000000000000000e+02 8.010000000000000000e+02 8.020000000000000000e+02 8.030000000000000000e+02 8.040000000000000000e+02 8.050000000000000000e+02 8.060000000000000000e+02 8.070000000000000000e+02 8.080000000000000000e+02 8.090000000000000000e+02 8.100000000000000000e+02 8.110000000000000000e+02 8.120000000000000000e+02 8.130000000000000000e+02 8.140000000000000000e+02 8.150000000000000000e+02 8.160000000000000000e+02 8.170000000000000000e+02 8.180000000000000000e+02 8.190000000000000000e+02 8.200000000000000000e+02 8.210000000000000000e+02 8.220000000000000000e+02 8.230000000000000000e+02 8.240000000000000000e+02 8.250000000000000000e+02 8.260000000000000000e+02 8.270000000000000000e+02 8.280000000000000000e+02 8.290000000000000000e+02 8.300000000000000000e+02 8.310000000000000000e+02 8.320000000000000000e+02 8.330000000000000000e+02 8.340000000000000000e+02 8.350000000000000000e+02 8.360000000000000000e+02 8.370000000000000000e+02 8.380000000000000000e+02 8.390000000000000000e+02 8.400000000000000000e+02 8.410000000000000000e+02 8.420000000000000000e+02 8.430000000000000000e+02 8.440000000000000000e+02 8.450000000000000000e+02 8.460000000000000000e+02 8.470000000000000000e+02 8.480000000000000000e+02 8.490000000000000000e+02 8.500000000000000000e+02 8.510000000000000000e+02 8.520000000000000000e+02 8.530000000000000000e+02 8.540000000000000000e+02 8.550000000000000000e+02 8.560000000000000000e+02 8.570000000000000000e+02 8.580000000000000000e+02 8.590000000000000000e+02 8.600000000000000000e+02 8.610000000000000000e+02 8.620000000000000000e+02 8.630000000000000000e+02 8.640000000000000000e+02 8.650000000000000000e+02 8.660000000000000000e+02 8.670000000000000000e+02 8.680000000000000000e+02 8.690000000000000000e+02 8.700000000000000000e+02 8.710000000000000000e+02 8.720000000000000000e+02 8.730000000000000000e+02 8.740000000000000000e+02 8.750000000000000000e+02 8.760000000000000000e+02 8.770000000000000000e+02 8.780000000000000000e+02 8.790000000000000000e+02 8.800000000000000000e+02 8.810000000000000000e+02 8.820000000000000000e+02 8.830000000000000000e+02 8.840000000000000000e+02 8.850000000000000000e+02 8.860000000000000000e+02 8.870000000000000000e+02 8.880000000000000000e+02 8.890000000000000000e+02 8.900000000000000000e+02 8.910000000000000000e+02 8.920000000000000000e+02 8.930000000000000000e+02 8.940000000000000000e+02 8.950000000000000000e+02 8.960000000000000000e+02 8.970000000000000000e+02 8.980000000000000000e+02 8.990000000000000000e+02 9.000000000000000000e+02 9.010000000000000000e+02 9.020000000000000000e+02 9.030000000000000000e+02 9.040000000000000000e+02 9.050000000000000000e+02 9.060000000000000000e+02 9.070000000000000000e+02 9.080000000000000000e+02 9.090000000000000000e+02 9.100000000000000000e+02 9.110000000000000000e+02 9.120000000000000000e+02 9.130000000000000000e+02 9.140000000000000000e+02 9.150000000000000000e+02 9.160000000000000000e+02 9.170000000000000000e+02 9.180000000000000000e+02 9.190000000000000000e+02 9.200000000000000000e+02 9.210000000000000000e+02 9.220000000000000000e+02 9.230000000000000000e+02 9.240000000000000000e+02 9.250000000000000000e+02 9.260000000000000000e+02 9.270000000000000000e+02 9.280000000000000000e+02 9.290000000000000000e+02 9.300000000000000000e+02 9.310000000000000000e+02 9.320000000000000000e+02 9.330000000000000000e+02 9.340000000000000000e+02 9.350000000000000000e+02 9.360000000000000000e+02 9.370000000000000000e+02 9.380000000000000000e+02 9.390000000000000000e+02 9.400000000000000000e+02 9.410000000000000000e+02 9.420000000000000000e+02 9.430000000000000000e+02 9.440000000000000000e+02 9.450000000000000000e+02 9.460000000000000000e+02 9.470000000000000000e+02 9.480000000000000000e+02 9.490000000000000000e+02 9.500000000000000000e+02 9.510000000000000000e+02 9.520000000000000000e+02 9.530000000000000000e+02 9.540000000000000000e+02 9.550000000000000000e+02 9.560000000000000000e+02 9.570000000000000000e+02 9.580000000000000000e+02 9.590000000000000000e+02 9.600000000000000000e+02 9.610000000000000000e+02 9.620000000000000000e+02 9.630000000000000000e+02 9.640000000000000000e+02 9.650000000000000000e+02 9.660000000000000000e+02 9.670000000000000000e+02 9.680000000000000000e+02 9.690000000000000000e+02 9.700000000000000000e+02 9.710000000000000000e+02 9.720000000000000000e+02 9.730000000000000000e+02 9.740000000000000000e+02 9.750000000000000000e+02 9.760000000000000000e+02 9.770000000000000000e+02 9.780000000000000000e+02 9.790000000000000000e+02 9.800000000000000000e+02 9.810000000000000000e+02 9.820000000000000000e+02 9.830000000000000000e+02 9.840000000000000000e+02 9.850000000000000000e+02 9.860000000000000000e+02 9.870000000000000000e+02 9.880000000000000000e+02 9.890000000000000000e+02 9.900000000000000000e+02 9.910000000000000000e+02 9.920000000000000000e+02 9.930000000000000000e+02 9.940000000000000000e+02 9.950000000000000000e+02 9.960000000000000000e+02 9.970000000000000000e+02 9.980000000000000000e+02 9.990000000000000000e+02 1.000000000000000000e+03
1.000000000000000021e-02 1.000000000000000021e-02 1.000000000000000021e-02 1.000000000000000021e-02 1.000000000000000021e-02 1.000000000000000021e-02 1.000000000000000021e-02 1.000000000000000021e-02 1.000000000000000021e-02 1.000000000000000021e-02 1.000000000000000021e-02 1.000000000000000021e-02 1.000000000000000021e-02 1.000000000000000021e-02 1.000000000000000021e-02 1.000000000000000021e-02 1.000000000000000021e-02 1.000000000000000021e-02 1.000000000000000021e-02 1.000000000000000021e-02 1.000000000000000021e-02 1.000000000000000021e-02 1.000000000000000021e-02 1.000000000000000021e-02 1.000000000000000021e-02 1.000000000000000021e-02 1.000000000000000021e-02 1.000000000000000021e-02 1.000000000000000021e-02 1.000000000000000021e-02 1.000000000000000021e-02 1.000000000000000021e-02 1.000000000000000021e-02 1.000000000000000021e-02 1.000000000000000021e-02 1.000000000000000021e-02 1.000000000000000021e-02 1.000000000000000021e-02 1.000000000000000021e-02 1.000000000000000021e-02 1.000000000000000021e-02 1.000000000000000021e-02 1.000000000000000021e-02 1.000000000000000021e-02 1.000000000000000021e-02 1.000000000000000021e-02 1.000000000000000021e-02 1.000000000000000021e-02 1.000000000000000021e-02 1.000000000000000021e-02 1.000000000000000021e-02 1.000000000000000021e-02 1.000000000000000021e-02 1.000000000000000021e-02 1.000000000000000021e-02 1.000000000000000021e-02 1.000000000000000021e-02 1.000000000000000021e-02 1.000000000000000021e-02 1.000000000000000021e-02 1.000000000000000021e-02 1.000000000000000021e-02 1.000000000000000021e-02 1.000000000000000021e-02 1.000000000000000021e-02 1.000000000000000021e-02 1.000000000000000021e-02 1.000000000000000021e-02 1.000000000000000021e-02 1.000000000000000021e-02 1.000000000000000021e-02 1.000000000000000021e-02 1.000000000000000021e-02 1.000000000000000021e-02 1.000000000000000021e-02 1.000000000000000021e-02 1.000000000000000021e-02 1.000000000000000021e-02 1.000000000000000021e-02 1.000000000000000021e-02 1.000000000000000021e-02 1.000000000000000021e-02 1.000000000000000021e-02 1.000000000000000021e-02 1.000000000000000021e-02 1.000000000000000021e-02 1.000000000000000021e-02 1.000000000000000021e-02 1.000000000000000021e-02 1.000000000000000021e-02 1.000000000000000021e-02 1.000000000000000021e-02 1.000000000000000021e-02 1.000000000000000021e-02 1.000000000000000021e-02 1.000000000000000021e-02 1.000000000000000021e-02 1.000000000000000021e-02 1.000000000000000021e-02 1.000000000000000021e-02 1.000000000000000021e-02 1.000000000000000021e-02 1.000000000000000021e-02 1.000000000000000021e-02 1.000000000000000021e-02 1.000000000000000021e-02 1.000000000000000021e-02 1.000000000000000021e-02 1.000000000000000021e-02 1.000000000000000021e-02 1.000000000000000021e-02 1.000000000000000021e-02 1.000000000000000021e-02 1.000000000000000021e-02 1.000000000000000021e-02 1.000000000000000021e-02 1.000000000000000021e-02 1.000000000000000021e-02 1.000000000000000021e-02 1.000000000000000021e-02 1.000000000000000021e-02 1.000000000000000021e-02 1.000000000000000021e-02 1.000000000000000021e-02 1.000000000000000021e-02 1.000000000000000021e-02 1.000000000000000021e-02 1.000000000000000021e-02 1.000000000000000021e-02 1.000000000000000021e-02 1.000000000000000021e-02 1.000000000000000021e-02 1.000000000000000021e-02 1.000000000000000021e-02 1.000000000000000021e-02 1.000000000000000021e-02 1.000000000000000021e-02 1.000000000000000021e-02 1.000000000000000021e-02 1.000000000000000021e-02 1.000000000000000021e-02 1.000000000000000021e-02 1.000000000000000021e-02 1.000000000000000021e-02 1.000000000000000021e-02 1.000000000000000021e-02 1.000000000000000021e-02 1.000000000000000021e-02 1.000000000000000021e-02 1.000000000000000021e-02 1.000000000000000021e-02 1.000000000000000021e-02 1.000000000000000021e-02 1.000000000000000021e-02 1.000000000000000021e-02 1.000000000000000021e-02 1.000000000000000021e-02 1.000000000000000021e-02 1.000000000000000021e-02 1.000000000000000021e-02 1.000000000000000021e-02 1.000000000000000021e-02 1.000000000000000021e-02 1.000000000000000021e-02 1.000000000000000021e-02 1.000000000000000021e-02 1.000000000000000021e-02 1.000000000000000021e-02 1.000000000000000021e-02 1.000000000000000021e-02 1.000000000000000021e-02 1.000000000000000021e-02 1.000000000000000021e-02 1.000000000000000021e-02 1.000000000000000021e-02 1.000000000000000021e-02 1.000000000000000021e-02 1.000000000000000021e-02 1.000000000000000021e-02 1.000000000000000021e-02 1.000000000000000021e-02 1.000000000000000021e-02 1.000000000000000021e-02 1.000000000000000021e-02 1.000000000000000021e-02 1.000000000000000021e-02 1.000000000000000021e-02 1.000000000000000021e-02 1.000000000000000021e-02 1.000000000000000021e-02 1.000000000000000021e-02 1.000000000000000021e-02 1.000000000000000021e-02 1.000000000000000021e-02 1.000000000000000021e-02 1.000000000000000021e-02 1.000000000000000021e-02 1.000000000000000021e-02 1.000000000000000021e-02 1.000000000000000021e-02 1.000000000000000021e-02 1.000000000000000021e-02 1.000000000000000021e-02 1.000000000000000021e-02 1.000000000000000021e-02 1.000000000000000021e-02 1.000000000000000021e-02 1.000000000000000021e-02 1.000000000000000021e-02 1.000000000000000021e-02 1.000000000000000021e-02 1.000000000000000021e-02 1.000000000000000021e-02 1.000000000000000021e-02 1.000000000000000021e-02 1.000000000000000021e-02 1.000000000000000021e-02 1.000000000000000021e-02 1.000000000000000021e-02 1.000000000000000021e-02 1.000000000000000021e-02 1.000000000000000021e-02 1.000000000000000021e-02 1.000000000000000021e-02 1.000000000000000021e-02 1.000000000000000021e-02 1.000000000000000021e-02 1.000000000000000021e-02 1.000000000000000021e-02 1.000000000000000021e-02 1.000000000000000021e-02 1.000000000000000021e-02 1.000000000000000021e-02 1.000000000000000021e-02 1.000000000000000021e-02 1.000000000000000021e-02 1.000000000000000021e-02 1.000000000000000021e-02 1.000000000000000021e-02 1.000000000000000021e-02 1.000000000000000021e-02 1.000000000000000021e-02 1.000000000000000021e-02 1.000000000000000021e-02 1.000000000000000021e-02 1.000000000000000021e-02 1.000000000000000021e-02 1.000000000000000021e-02 1.000000000000000021e-02 1.000000000000000021e-02 1.000000000000000021e-02 1.000000000000000021e-02 1.000000000000000021e-02 1.000000000000000021e-02 1.000000000000000021e-02 1.000000000000000021e-02 1.000000000000000021e-02 1.000000000000000021e-02 1.000000000000000021e-02 1.000000000000000021e-02 1.000000000000000021e-02 1.000000000000000021e-02 1.000000000000000021e-02 1.000000000000000021e-02 1.000000000000000021e-02 1.000000000000000021e-02 1.000000000000000021e-02 1.000000000000000021e-02 1.000000000000000021e-02 1.000000000000000021e-02 1.000000000000000021e-02 1.000000000000000021e-02 1.000000000000000021e-02 1.000000000000000021e-02 1.000000000000000021e-02 1.000000000000000021e-02 1.000000000000000021e-02 1.000000000000000021e-02 1.000000000000000021e-02 1.000000000000000021e-02 1.000000000000000021e-02 1.000000000000000021e-02 1.000000000000000021e-02 1.000000000000000021e-02 1.000000000000000021e-02 1.000000000000000021e-02 1.000000000000000021e-02 1.000000000000000021e-02 1.000000000000000021e-02 1.000000000000000021e-02 1.000000000000000021e-02 1.000000000000000021e-02 1.000000000000000021e-02 1.000000000000000021e-02 1.000000000000000021e-02 1.000000000000000021e-02 1.000000000000000021e-02 1.000000000000000021e-02 1.000000000000000021e-02 1.000000000000000021e-02 1.000000000000000021e-02 1.000000000000000021e-02 1.000000000000000021e-02 1.000000000000000021e-02 1.000000000000000021e-02 1.000000000000000021e-02 1.000000000000000021e-02 1.000000000000000021e-02 1.000000000000000021e-02 1.000000000000000021e-02 1.000000000000000021e-02 1.000000000000000021e-02 1.000000000000000021e-02 1.000000000000000021e-02 1.000000000000000021e-02 1.000000000000000021e-02 1.000000000000000021e-02 1.000000000000000021e-02 1.000000000000000021e-02 1.000000000000000021e-02 1.000000000000000021e-02 1.000000000000000021e-02 1.000000000000000021e-02 1.000000000000000021e-02 1.000000000000000021e-02 1.000000000000000021e-02 1.000000000000000021e-02 1.000000000000000021e-02 1.000000000000000021e-02 1.000000000000000021e-02 1.000000000000000021e-02 1.000000000000000021e-02 1.000000000000000021e-02 1.000000000000000021e-02 1.000000000000000021e-02 1.000000000000000021e-02 1.000000000000000021e-02 1.000000000000000021e-02 1.000000000000000021e-02 1.000000000000000021e-02 1.000000000000000021e-02 1.000000000000000021e-02 1.000000000000000021e-02 1.000000000000000021e-02 1.000000000000000021e-02 1.000000000000000021e-02 1.000000000000000021e-02 1.000000000000000021e-02 1.000000000000000021e-02 1.000000000000000021e-02 1.000000000000000021e-02 1.000000000000000021e-02 1.000000000000000021e-02 1.000000000000000021e-02 1.000000000000000021e-02 1.000000000000000021e-02 1.000000000000000021e-02 1.000000000000000021e-02 1.000000000000000021e-02 1.000000000000000021e-02 1.000000000000000021e-02 1.000000000000000021e-02 1.000000000000000021e-02 1.000000000000000021e-02 1.000000000000000021e-02 1.000000000000000021e-02 1.000000000000000021e-02 1.000000000000000021e-02 1.000000000000000021e-02 1.000000000000000021e-02 1.000000000000000021e-02 1.000000000000000021e-02 1.000000000000000021e-02 1.000000000000000021e-02 1.000000000000000021e-02 1.000000000000000021e-02 1.000000000000000021e-02 1.000000000000000021e-02 1.000000000000000021e-02 1.000000000000000021e-02 1.000000000000000021e-02 1.000000000000000021e-02 1.000000000000000021e-02 1.000000000000000021e-02 1.000000000000000021e-02 1.000000000000000021e-02 1.000000000000000021e-02 1.000000000000000021e-02 1.000000000000000021e-02 1.000000000000000021e-02 1.000000000000000021e-02 1.000000000000000021e-02 1.000000000000000021e-02 1.000000000000000021e-02 1.000000000000000021e-02 1.000000000000000021e-02 1.000000000000000021e-02 1.000000000000000021e-02 1.000000000000000021e-02 1.000000000000000021e-02 1.000000000000000021e-02 1.000000000000000021e-02 1.000000000000000021e-02 1.000000000000000021e-02 1.000000000000000021e-02 1.000000000000000021e-02 1.000000000000000021e-02 1.000000000000000021e-02 1.000000000000000021e-02 1.000000000000000021e-02 1.000000000000000021e-02 1.000000000000000021e-02 1.000000000000000021e-02 1.000000000000000021e-02 1.000000000000000021e-02 1.000000000000000021e-02 1.000000000000000021e-02 1.000000000000000021e-02 1.000000000000000021e-02 1.000000000000000021e-02 1.000000000000000021e-02 1.000000000000000021e-02 1.000000000000000021e-02 1.000000000000000021e-02 1.000000000000000021e-02 1.000000000000000021e-02 1.000000000000000021e-02 1.000000000000000021e-02 1.000000000000000021e-02 1.000000000000000021e-02 1.000000000000000021e-02 1.000000000000000021e-02 1.000000000000000021e-02 1.000000000000000021e-02 1.000000000000000021e-02 1.000000000000000021e-02 1.000000000000000021e-02 1.000000000000000021e-02 1.000000000000000021e-02 1.000000000000000021e-02 1.000000000000000021e-02 1.000000000000000021e-02 1.000000000000000021e-02 1.000000000000000021e-02 1.000000000000000021e-02 1.000000000000000021e-02 1.000000000000000021e-02 1.000000000000000021e-02 1.000000000000000021e-02 1.000000000000000021e-02 1.000000000000000021e-02 1.000000000000000021e-02 1.000000000000000021e-02 1.000000000000000021e-02 1.000000000000000021e-02 1.000000000000000021e-02 1.000000000000000021e-02 1.000000000000000021e-02 1.000000000000000021e-02 1.000000000000000021e-02 1.000000000000000021e-02 1.000000000000000021e-02 1.000000000000000021e-02 1.000000000000000021e-02 1.000000000000000021e-02 1.000000000000000021e-02 1.000000000000000021e-02 1.000000000000000021e-02 1.000000000000000021e-02 1.000000000000000021e-02 1.000000000000000021e-02 1.000000000000000021e-02 1.000000000000000021e-02 1.000000000000000021e-02 1.000000000000000021e-02 1.000000000000000021e-02 1.000000000000000021e-02 1.000000000000000021e-02 1.000000000000000021e-02 1.000000000000000021e-02 1.000000000000000021e-02 1.000000000000000021e-02 1.000000000000000021e-02 1.000000000000000021e-02 1.000000000000000021e-02 1.000000000000000021e-02 1.000000000000000021e-02 1.000000000000000021e-02 1.000000000000000021e-02 1.000000000000000021e-02 1.000000000000000021e-02 1.000000000000000021e-02 1.000000000000000021e-02 1.000000000000000021e-02 1.000000000000000021e-02 1.000000000000000021e-02 1.000000000000000021e-02 1.000000000000000021e-02 1.000000000000000021e-02 1.000000000000000021e-02 1.000000000000000021e-02 1.000000000000000021e-02 1.000000000000000021e-02 1.000000000000000021e-02 1.000000000000000021e-02 1.000000000000000021e-02 1.000000000000000021e-02 1.000000000000000021e-02 1.000000000000000021e-02 1.000000000000000021e-02 1.000000000000000021e-02 1.000000000000000021e-02 1.000000000000000021e-02 1.000000000000000021e-02 1.000000000000000021e-02 1.000000000000000021e-02 1.000000000000000021e-02 1.000000000000000021e-02 1.000000000000000021e-02 1.000000000000000021e-02 1.000000000000000021e-02 1.000000000000000021e-02 1.000000000000000021e-02 1.000000000000000021e-02 1.000000000000000021e-02 1.000000000000000021e-02 1.000000000000000021e-02 1.000000000000000021e-02 1.000000000000000021e-02 1.000000000000000021e-02 1.000000000000000021e-02 1.000000000000000021e-02 1.000000000000000021e-02 1.000000000000000021e-02 1.000000000000000021e-02 1.000000000000000021e-02 1.000000000000000021e-02 1.000000000000000021e-02 1.000000000000000021e-02 1.000000000000000021e-02 1.000000000000000021e-02 1.000000000000000021e-02 1.000000000000000021e-02 1.000000000000000021e-02 1.000000000000000021e-02 1.000000000000000021e-02 1.000000000000000021e-02 1.000000000000000021e-02 1.000000000000000021e-02 1.000000000000000021e-02 1.000000000000000021e-02 1.000000000000000021e-02 1.000000000000000021e-02 1.000000000000000021e-02 1.000000000000000021e-02 1.000000000000000021e-02 1.000000000000000021e-02 1.000000000000000021e-02 1.000000000000000021e-02 1.000000000000000021e-02 1.000000000000000021e-02 1.000000000000000021e-02 1.000000000000000021e-02 1.000000000000000021e-02 1.000000000000000021e-02 1.000000000000000021e-02 1.000000000000000021e-02 1.000000000000000021e-02 1.000000000000000021e-02 1.000000000000000021e-02 1.000000000000000021e-02 1.000000000000000021e-02 1.000000000000000021e-02 1.000000000000000021e-02 1.000000000000000021e-02 1.000000000000000021e-02 1.000000000000000021e-02 1.000000000000000021e-02 1.000000000000000021e-02 1.000000000000000021e-02 1.000000000000000021e-02 1.000000000000000021e-02 1.000000000000000021e-02 1.000000000000000021e-02 1.000000000000000021e-02 1.000000000000000021e-02 1.000000000000000021e-02 1.000000000000000021e-02 1.000000000000000021e-02 1.000000000000000021e-02 1.000000000000000021e-02 1.000000000000000021e-02 1.000000000000000021e-02 1.000000000000000021e-02 1.000000000000000021e-02 1.000000000000000021e-02 1.000000000000000021e-02 1.000000000000000021e-02 1.000000000000000021e-02 1.000000000000000021e-02 1.000000000000000021e-02 1.000000000000000021e-02 1.000000000000000021e-02 1.000000000000000021e-02 1.000000000000000021e-02 1.000000000000000021e-02 1.000000000000000021e-02 1.000000000000000021e-02 1.000000000000000021e-02 1.000000000000000021e-02 1.000000000000000021e-02 1.000000000000000021e-02 1.000000000000000021e-02 1.000000000000000021e-02 1.000000000000000021e-02 1.000000000000000021e-02 1.000000000000000021e-02 1.000000000000000021e-02 1.000000000000000021e-02 1.000000000000000021e-02 1.000000000000000021e-02 1.000000000000000021e-02 1.000000000000000021e-02 1.000000000000000021e-02 1.000000000000000021e-02 1.000000000000000021e-02 1.000000000000000021e-02 1.000000000000000021e-02 1.000000000000000021e-02 1.000000000000000021e-02 1.000000000000000021e-02 1.000000000000000021e-02 1.000000000000000021e-02 1.000000000000000021e-02 1.000000000000000021e-02 1.000000000000000021e-02 1.000000000000000021e-02 1.000000000000000021e-02 1.000000000000000021e-02 1.000000000000000021e-02 1.000000000000000021e-02 1.000000000000000021e-02 1.000000000000000021e-02 1.000000000000000021e-02 1.000000000000000021e-02 1.000000000000000021e-02 1.000000000000000021e-02 1.000000000000000021e-02 1.000000000000000021e-02 1.000000000000000021e-02 1.000000000000000021e-02 1.000000000000000021e-02 1.000000000000000021e-02 1.000000000000000021e-02 1.000000000000000021e-02 1.000000000000000021e-02 1.000000000000000021e-02 1.000000000000000021e-02 1.000000000000000021e-02 1.000000000000000021e-02 1.000000000000000021e-02 1.000000000000000021e-02 1.000000000000000021e-02 1.000000000000000021e-02 1.000000000000000021e-02 1.000000000000000021e-02 1.000000000000000021e-02 1.000000000000000021e-02 1.000000000000000021e-02 1.000000000000000021e-02 1.000000000000000021e-02 1.000000000000000021e-02 1.000000000000000021e-02 1.000000000000000021e-02 1.000000000000000021e-02 1.000000000000000021e-02 1.000000000000000021e-02 1.000000000000000021e-02 1.000000000000000021e-02 1.000000000000000021e-02 1.000000000000000021e-02 1.000000000000000021e-02 1.000000000000000021e-02 1.000000000000000021e-02 1.000000000000000021e-02 1.000000000000000021e-02 1.000000000000000021e-02 1.000000000000000021e-02 1.000000000000000021e-02 1.000000000000000021e-02 1.000000000000000021e-02 1.000000000000000021e-02 1.000000000000000021e-02 1.000000000000000021e-02 1.000000000000000021e-02 1.000000000000000021e-02 1.000000000000000021e-02 1.000000000000000021e-02 1.000000000000000021e-02 1.000000000000000021e-02 1.000000000000000021e-02 1.000000000000000021e-02 1.000000000000000021e-02 1.000000000000000021e-02 1.000000000000000021e-02 1.000000000000000021e-02 1.000000000000000021e-02 1.000000000000000021e-02 1.000000000000000021e-02 1.000000000000000021e-02 1.000000000000000021e-02 1.000000000000000021e-02 1.000000000000000021e-02 1.000000000000000021e-02 1.000000000000000021e-02 1.000000000000000021e-02 1.000000000000000021e-02 1.000000000000000021e-02 1.000000000000000021e-02 1.000000000000000021e-02 1.000000000000000021e-02 1.000000000000000021e-02 1.000000000000000021e-02 1.000000000000000021e-02 1.000000000000000021e-02 1.000000000000000021e-02 1.000000000000000021e-02 1.000000000000000021e-02 1.000000000000000021e-02 1.000000000000000021e-02 1.000000000000000021e-02 1.000000000000000021e-02 1.000000000000000021e-02 1.000000000000000021e-02 1.000000000000000021e-02 1.000000000000000021e-02 1.000000000000000021e-02 1.000000000000000021e-02 1.000000000000000021e-02 1.000000000000000021e-02 1.000000000000000021e-02 1.000000000000000021e-02 1.000000000000000021e-02 1.000000000000000021e-02 1.000000000000000021e-02 1.000000000000000021e-02 1.000000000000000021e-02 1.000000000000000021e-02 1.000000000000000021e-02 1.000000000000000021e-02 1.000000000000000021e-02 1.000000000000000021e-02 1.000000000000000021e-02 1.000000000000000021e-02 1.000000000000000021e-02 1.000000000000000021e-02 1.000000000000000021e-02 1.000000000000000021e-02 1.000000000000000021e-02 1.000000000000000021e-02 1.000000000000000021e-02 1.000000000000000021e-02 1.000000000000000021e-02 1.000000000000000021e-02 1.000000000000000021e-02 1.000000000000000021e-02 1.000000000000000021e-02 1.000000000000000021e-02 1.000000000000000021e-02 1.000000000000000021e-02 1.000000000000000021e-02 1.000000000000000021e-02 1.000000000000000021e-02 1.000000000000000021e-02 1.000000000000000021e-02 1.000000000000000021e-02 1.000000000000000021e-02 1.000000000000000021e-02 1.000000000000000021e-02 1.000000000000000021e-02 1.000000000000000021e-02 1.000000000000000021e-02 1.000000000000000021e-02 1.000000000000000021e-02 1.000000000000000021e-02 1.000000000000000021e-02 1.000000000000000021e-02 1.000000000000000021e-02 1.000000000000000021e-02 1.000000000000000021e-02 1.000000000000000021e-02 1.000000000000000021e-02 1.000000000000000021e-02 1.000000000000000021e-02 1.000000000000000021e-02 1.000000000000000021e-02 1.000000000000000021e-02 1.000000000000000021e-02 1.000000000000000021e-02 1.000000000000000021e-02 1.000000000000000021e-02 1.000000000000000021e-02 1.000000000000000021e-02 1.000000000000000021e-02 1.000000000000000021e-02 1.000000000000000021e-02 1.000000000000000021e-02 1.000000000000000021e-02 1.000000000000000021e-02 1.000000000000000021e-02 1.000000000000000021e-02 1.000000000000000021e-02 1.000000000000000021e-02 1.000000000000000021e-02 1.000000000000000021e-02 1.000000000000000021e-02 1.000000000000000021e-02 1.000000000000000021e-02 1.000000000000000021e-02 1.000000000000000021e-02 1.000000000000000021e-02 1.000000000000000021e-02 1.000000000000000021e-02 1.000000000000000021e-02 1.000000000000000021e-02 1.000000000000000021e-02 1.000000000000000021e-02 1.000000000000000021e-02 1.000000000000000021e-02 1.000000000000000021e-02 1.000000000000000021e-02 1.000000000000000021e-02 1.000000000000000021e-02 1.000000000000000021e-02 1.000000000000000021e-02 1.000000000000000021e-02 1.000000000000000021e-02 1.000000000000000021e-02 1.000000000000000021e-02 1.000000000000000021e-02 1.000000000000000021e-02 1.000000000000000021e-02 1.000000000000000021e-02 1.000000000000000021e-02 1.000000000000000021e-02 1.000000000000000021e-02 1.000000000000000021e-02 1.000000000000000021e-02 1.000000000000000021e-02 1.000000000000000021e-02 1.000000000000000021e-02 1.000000000000000021e-02 1.000000000000000021e-02 1.000000000000000021e-02 1.000000000000000021e-02 1.000000000000000021e-02 1.000000000000000021e-02 1.000000000000000021e-02 1.000000000000000021e-02 1.000000000000000021e-02 1.000000000000000021e-02 1.000000000000000021e-02 1.000000000000000021e-02 1.000000000000000021e-02 1.000000000000000021e-02 1.000000000000000021e-02 1.000000000000000021e-02 1.000000000000000021e-02 1.000000000000000021e-02 1.000000000000000021e-02 1.000000000000000021e-02 1.000000000000000021e-02 1.000000000000000021e-02 1.000000000000000021e-02 1.000000000000000021e-02 1.000000000000000021e-02 1.000000000000000021e-02 1.000000000000000021e-02 1.000000000000000021e-02 1.000000000000000021e-02 1.000000000000000021e-02 1.000000000000000021e-02 1.000000000000000021e-02 1.000000000000000021e-02 1.000000000000000021e-02 1.000000000000000021e-02 1.000000000000000021e-02 1.000000000000000021e-02 1.000000000000000021e-02 1.000000000000000021e-02 1.000000000000000021e-02 1.000000000000000021e-02 1.000000000000000021e-02 1.000000000000000021e-02 1.000000000000000021e-02 1.000000000000000021e-02 1.000000000000000021e-02 1.000000000000000021e-02 1.000000000000000021e-02 1.000000000000000021e-02 1.000000000000000021e-02 1.000000000000000021e-02 1.000000000000000021e-02 1.000000000000000021e-02 1.000000000000000021e-02 1.000000000000000021e-02 1.000000000000000021e-02 1.000000000000000021e-02 1.000000000000000021e-02 1.000000000000000021e-02 1.000000000000000021e-02 1.000000000000000021e-02 1.000000000000000021e-02 1.000000000000000021e-02 1.000000000000000021e-02 1.000000000000000021e-02 1.000000000000000021e-02 1.000000000000000021e-02 1.000000000000000021e-02 1.000000000000000021e-02 1.000000000000000021e-02 1.000000000000000021e-02 1.000000000000000021e-02 1.000000000000000021e-02 1.000000000000000021e-02 1.000000000000000021e-02 1.000000000000000021e-02 1.000000000000000021e-02 1.000000000000000021e-02 1.000000000000000021e-02 1.000000000000000021e-02 1.000000000000000021e-02 1.000000000000000021e-02 1.000000000000000021e-02 1.000000000000000021e-02 1.000000000000000021e-02 1.000000000000000021e-02 1.000000000000000021e-02 1.000000000000000021e-02 1.000000000000000021e-02 1.000000000000000021e-02 1.000000000000000021e-02 1.000000000000000021e-02 1.000000000000000021e-02 1.000000000000000021e-02 1.000000000000000021e-02 1.000000000000000021e-02 1.000000000000000021e-02 1.000000000000000021e-02 1.000000000000000021e-02 1.000000000000000021e-02 1.000000000000000021e-02 1.000000000000000021e-02 1.000000000000000021e-02 1.000000000000000021e-02 1.000000000000000021e-02 1.000000000000000021e-02 1.000000000000000021e-02 1.000000000000000021e-02 1.000000000000000021e-02 1.000000000000000021e-02 1.000000000000000021e-02 1.000000000000000021e-02 1.000000000000000021e-02 1.000000000000000021e-02 1.000000000000000021e-02 1.000000000000000021e-02 1.000000000000000021e-02 1.000000000000000021e-02 1.000000000000000021e-02 1.000000000000000021e-02 1.000000000000000021e-02 1.000000000000000021e-02 1.000000000000000021e-02 1.000000000000000021e-02 1.000000000000000021e-02 1.000000000000000021e-02 1.000000000000000021e-02 1.000000000000000021e-02 1.000000000000000021e-02 1.000000000000000021e-02 1.000000000000000021e-02 1.000000000000000021e-02 1.000000000000000021e-02 1.000000000000000021e-02 1.000000000000000021e-02 1.000000000000000021e-02 1.000000000000000021e-02 1.000000000000000021e-02 1.000000000000000021e-02 1.000000000000000021e-02 1.000000000000000021e-02 1.000000000000000021e-02 1.000000000000000021e-02 1.000000000000000021e-02 1.000000000000000021e-02 1.000000000000000021e-02 1.000000000000000021e-02 1.000000000000000021e-02 1.000000000000000021e-02
-1.087836686659883583e+02 1.654417109070690231e+02 3.833176276172290642e+01 -8.610311454450794599e+00 -8.569373655681677349e+01 -1.305662561933510446e+01 -2.027891233959352348e+02 6.859618144629358039e-01 -8.260385609418763408e+01 -1.377745168129355946e+01 -1.935508547761414633e+01 6.380888165267110779e+00 -1.738435265874239466e+00 1.636385903781090576e+02 8.253415136898091475e+01 -3.785199954926157773e+01 -5.152684495838661860e+01 7.725946090998574789e+01 3.201880378061122201e+01 -2.475444129584303354e+01 -7.688887378372847081e+01 -7.196740218306827330e+01 -1.345380154618024626e+01 2.821887826310780056e+01 -1.900992422105353512e+02 -9.627862524718609905e+01 -2.544936107973418871e+01 1.966394242444903284e+02 6.901597189120541032e+01 7.485776365290415413e+01 7.831967452980917699e+01 1.151952766523511196e+00 -7.734836251883032787e+01 2.023735633740760989e+02 -2.388518746532357113e+02 5.742122259312780841e+01 -1.171449642869716854e+02 -3.383554845442242254e+01 3.938166780225565322e+00 1.235949079858446140e+02 -1.198622592506983011e+02 -1.329191666931768800e+01 7.543326188473949401e+01 1.693391816475023006e+02 6.957842065547099253e+01 -6.669928520534661232e+01 4.016903480476718613e+01 -2.769723289208534567e+01 -6.443844741839993162e+01 1.527327496964723821e+02 -6.877450308940161960e+01 -5.081378563232809142e+01 -1.359478144638879371e+02 5.663296734213321137e+00 -4.927943797225811551e+01 3.772685021330083543e+01 -8.655287799435572538e+01 -4.882166324676160230e+01 -9.892094695745467448e+01 -1.516437039584091053e+02 1.894918550376318223e+01 4.428238277509420584e+01 -1.201140978371589796e+02 1.253616739979917583e+01 -7.732514683109481268e+01 4.792109607242960578e+01 1.625890346499691361e+02 -1.407461959786586760e+02 -4.223651374247862833e+01 7.039641869737221391e+00 2.866070652175033651e+00 4.135407661323815631e+01 8.192936752805837841e+01 7.969604874061539945e-01 -8.613286648828266223e+00 -6.830115724829575186e+01 7.633708992935730464e+01 -3.192969973964954278e+01 2.566411384096784332e+01 1.014848741769273630e+02 8.604742824962302450e+01 -4.172499189548637588e+01 5.635606928468653365e+01 1.438312081158743467e+02 1.133809068074106392e+02 -3.902823283041400693e+00 1.699384424709591030e+02 -1.088070509299585211e+02 4.071981699323334425e+00 -4.091596016029905769e+01 2.017749135744873570e+02 -2.070595468719506016e+01 2.826390669633267017e+00 -7.491120883054333035e+01 -6.973988512672739226e+00 -6.226420708320424069e+01 6.613170125800002097e+01 -9.225389440930786122e+01 6.695072582936505512e+01 -4.660279625748243859e+01 -4.853508697156426877e+01 -8.943243442131996801e+01 5.177184202806498092e+01 -5.335348868018534318e+01 -1.456885354743972698e+02 -7.751685963605262941e+01 -1.020551613645158540e+02 -1.533941996278890088e+02 1.326138574632093139e+02 -2.678626967029252270e+01 3.126190107869169310e+01 8.748096145449024164e+01 -1.015074921419096796e+02 5.556174488614758644e+01 -4.226064839952778129e+01 -6.770382452176542643e+01 -8.793157461094747873e+01 1.982627824315988221e+02 -5.535507970982292392e+01 -4.831045837264662168e+01 -4.602453916686027213e+01 7.843600606807541453e+01 -4.041145029830459379e+01 1.346015377273084539e+02 -4.870472818374216928e+01 5.378670051212962733e+01 4.432485098370210430e+00 -7.911479057979776996e+01 6.710983873508030229e+01 2.706463676822161233e+02 -8.982229656687192687e+01 4.631898740283444482e+01 -7.441952630641841893e+01 4.414647791889671424e+01 1.280248705952159014e+02 -5.017888915212323298e+01 1.426172186656303431e+01 -2.629446731083110578e+01 -9.949933628357295845e+01 -1.692999704045470111e+01 4.200708676822038967e+00 -7.622587734988318431e+00 -1.458225138516158204e+01 1.153667419194874242e+02 1.272698799668701213e+02 1.820240045178094022e+02 -2.971120268298937503e+02 3.729376148936237456e+01 -1.539801142449468863e+01 -6.086417107419881489e+01 1.760891844092611791e+02 7.435661165685004903e+01 -2.552655557746080994e+00 -1.132158328559750231e+02 -1.062489836313201508e+01 9.775280084936383673e+01 -1.312288645375221279e+02 -1.646827707718699685e+02 1.048778550406641408e+01 4.143351156383810263e+01 -5.962222911251600976e+01 4.106909691400990425e+01 -1.046086963827825258e+02 -1.478258441365071292e+02 2.060612825602888520e+01 4.746614099354475513e+01 4.712543839169180515e+00 -8.154466845992968160e+01 -9.146372089554529339e+01 -8.238009017159895109e+01 -8.558462216273795775e+01 1.237727056292933803e+01 5.555454861903476882e+01 1.139343367485266327e+02 7.766987181555407460e+01 8.755950760122433962e+01 1.051472767394453314e+02 -7.316445551475247555e+01 -8.072965310502597447e+01 6.901533151607584671e+01 6.708900388951234106e+01 5.798139722314134303e+01 -9.186303093726317925e+00 -8.918431038239992859e+01 5.288470489199762170e+01 -1.754285146834140221e+02 6.582514627397453921e+01 -4.362465979802373539e+01 -9.451404035010808968e+01 7.275316176508684407e+01 -1.682767577612619903e+01 -7.561758007745193311e+01 -5.634406426642586752e+01 -8.997199232679642833e+00 2.381713580528320051e+02 7.549913081754242228e+01 5.384288324751653931e+01 -1.019912270102505829e+02 1.456309881141758638e+02 1.048830850415698013e+00 -8.878807224018903810e+01 1.531398803875621297e+02 -1.515064052145152971e+02 1.551187344835094173e+01 -3.197600034468692343e+01 -2.184957887844912818e+02 -1.325697098616846574e+02 -8.670999309926742171e+01 -2.920237462651535765e+01 -1.185092156412683977e+02 5.730169462396846569e+01 6.461663648852530173e+01 -2.743785434618131447e+01 -9.918954269951670710e+01 1.124312894591586058e+02 1.174837619864508156e+02 4.594300868333475307e+01 1.740176900355299949e+01 2.599583100698679914e+02 4.341566784785389643e+01 -1.188601174443954136e+02 -4.484269330408827869e+01 -1.679548058725114572e+02 3.171037307794759741e+01 1.525179780866136241e+02 -1.475663191120841873e+02 1.310939296282853377e+02 -9.052997803492509377e+01 -1.884226138309890430e+01 -7.976102274026897199e-01 5.263598244505008950e+01 -1.152453547992759120e+01 -2.271954327197988732e+01 -1.874557152882229616e+01 -1.262148144680615189e+02 4.620098681144494890e+01 -3.021209558474987844e+01 -1.287581326535056370e+01 -1.067766944135969887e+01 2.250564870496223762e+02 1.735569037703811546e+02 2.317084504736971553e+02 1.312825122366963626e+02 -8.623728194049847673e+01 7.486869826516418414e+01 2.106286773065995277e+01 4.735036499118344011e+01 -3.952475577835730292e+01 2.544499957376934844e+02 -2.323031017385722308e+01 -1.362326498744294554e+02 -1.488795031274554859e+01 -4.567487380400703501e+01 -7.710347313121728519e+01 4.300088078291540938e+01 -1.167065703510339603e+01 1.812745280851407301e+02 9.202407131814337049e+01 4.073545111536668628e+01 9.765501116499042666e+01 9.428590508518188074e+01 -2.290864972055825177e+01 1.391672260632584255e+02 2.643946580431843074e+01 8.931407772259173328e+01 4.753015997966119954e+01 6.903178978281829359e+00 -1.153845728853363397e+02 -1.155005219624765544e+02 -8.975892392022383603e+01 -1.551638253404526147e+01 8.642950231665305694e+01 -3.053544995416099539e+01 9.858262494586612945e+01 4.368995429212385062e+01 -7.250228228252980500e+01 -2.985506909990605351e+01 -5.840861056474222579e+01 1.751530353105854232e+01 -4.615751281590316069e+01 -1.117043572302639518e+02 1.211433251263026847e+02 1.209797589658483616e+02 -7.873548415480280482e+01 5.388220328784266044e+00 -4.519045856409545081e+01 -3.246962942922630901e+01 -1.130715736519099579e+01 -3.114650880973978886e+01 4.435681640494390621e+01 -1.401412380935923920e+02 -5.269238126346494511e+01 -1.513692078101125560e+02 1.735394795385569466e+02 -2.011984338563093999e+01 5.870372379272175323e+01 1.186645235539648091e+01 1.438553147226915030e+02 4.444013753051705606e+01 3.556410805971226807e+01 1.537601311404782507e+02 -4.906036765689365353e+01 -9.722070446745358652e+01 2.709634054175909412e+01 -1.573245047944478188e+02 -5.317073058922133555e+01 1.018671471624693936e+02 -1.269921394970137953e+02 -3.618806449516493018e+01 9.085169243706540954e+01 -9.398973885741487777e+01 -8.902420631598587875e+01 -8.222386898033651903e+01 -6.346748292886676523e+01 2.478220183787198039e+02 1.971757883912086129e+02 1.024359694564550836e+02 -1.016527836603698347e+02 7.443393340366387179e+01 -6.583834588504508645e+01 -3.122000578295521223e+01 1.652188345251969182e+01 -3.207602138224862642e+01 -9.317830441788039764e+01 -2.779862573874264164e+00 1.466589123057577737e+01 1.081172831116226689e+02 -1.276645186121891413e+02 4.168493018372896586e+01 6.333957121453155281e+01 3.427672761613541041e+01 -8.998098590456554291e+01 -1.474696561678673845e+02 1.917457465211938654e+02 -1.767104413155886533e+01 2.499722699163959305e+01 1.553764142578049245e+02 2.645313952168261906e+01 2.751033429344420611e+01 -4.418713244809629970e+01 8.788272541407224026e+01 -1.351979407151787882e+02 -3.053725283097584864e+01 -6.085441668971412810e+00 -5.293253900384248567e+01 6.235337516446179507e+00 2.107102457886569624e+01 -3.547064459311267370e+01 1.354369220040916666e+01 2.117890654706275484e+02 -2.715156927703229428e+01 -2.774555982276170241e+01 -1.007184708700517746e+02 -1.622255049034471597e+00 -7.998312127616092937e+01 6.317715856100211802e+00 1.110236836426072387e+02 -5.152480620536623945e+01 5.984337804047768827e+00 -5.378404730181809867e+01 3.283433927475333913e+00 8.634788812927327228e+01 -1.147193471650825813e+02 -9.589002921385419143e+01 -1.015753503812613019e+02 7.065062567790111814e+01 8.570270367521709431e+01 -9.132443778582322125e+01 6.201967222936355029e+01 2.557909060601415874e+01 3.830253110168830943e+01 -1.756664713579901971e+01 9.044297019849537378e+01 7.890037576276807840e+01 -7.647633677599935709e+01 1.168306530625476114e+01 8.005830768862563218e+01 7.210539634960474586e+01 -1.970510007837329525e+01 2.471116985356713869e+01 -1.312469797251539774e+02 4.804289801757996514e+01 -3.244588393420860939e+01 -3.234797149086382717e+01 1.714149221020016682e+02 4.693497254406238994e+01 1.189696406831951947e+02 1.890155577800040305e+02 -1.362663270779443963e+02 1.475651796512426301e+02 -6.279375042212461011e+01 -1.337584031157315110e+02 8.146997566368136745e+01 -1.326761281063201920e+02 -2.841897377129369318e+01 5.582073968746564674e+01 7.968554513876865641e+00 -1.664410178133061606e+02 8.339873599935337722e+01 2.497655441625315831e+01 6.837737208047254001e+01 3.592997969397062974e+01 9.369607759374547484e+00 -6.642348145021169614e+01 1.145172522026367972e+02 5.393122894175825621e+01 -6.147677516175907897e+01 -1.001989982034321400e+02 3.851289515442549316e+01 2.545606288909203485e+01 8.155222210118607507e+01 1.818934288286091601e+02 -2.436407181070678973e+01 -1.090201264680019904e+02 -8.381023737837659837e+01 -5.078553223828310337e+01 -4.387381874731094911e+01 -1.451985026453883449e+02 -2.228924754125520735e+01 1.281761499329618630e+02 7.375485192642888421e+01 -1.210943757100539955e+02 -1.483547711140491856e+02 -6.737438557832992103e+01 -7.552331192118573711e+01 1.452780647256672921e+02 -1.686867640698079356e+02 8.566071401795318252e+01 -4.558771757403627056e+00 -4.258615400733233258e+01 1.315043396811655718e+01 9.019081084057933140e+01 4.903883860659286853e+01 1.367533174875437965e+02 -1.574665974921418297e+02 -8.011803191663054236e+01 2.510329887547367278e+01 4.148677947582941528e+01 2.039438125292619191e+02 1.439287006714552888e+02 6.485430341821221134e+01 7.134192939446288051e+01 -3.372207322704858257e+01 1.501947397115059175e+02 -1.774682634079430272e+02 -6.275049871442431026e+01 -5.311195847883351462e+01 -5.124291066624009261e+01 -1.021631131843299585e+02 -1.483570498297239126e+01 -6.790205175605130705e+01 7.040629666438746881e+01 -9.047962926958705410e+00 -5.744373868548598949e+01 -6.157264106343209420e+01 1.782616452478012263e+02 5.840289415302151355e+01 -1.358510448600732978e+01 2.066491347589468148e+02 -1.071884304078410821e+02 -3.494808520380978933e+01 6.624357827171537849e+01 -1.346895380146876098e-01 1.480974491509673463e+01 -1.237636317930539605e+02 1.742838218712684579e+02 -4.842366654763187483e+01 -2.661341009401650481e+01 -1.084901599878423610e+02 1.244502889931093108e+02 9.477826326717006111e+01 -7.663670365287141806e+01 -3.719124337992492002e+01 3.851737549985068654e+01 -1.496496449713728509e+02 -1.834747418370485939e-01 -7.383844489815930956e+01 7.598119811376881749e+00 -1.068339008149507379e+02 -1.566672513739959243e+02 -6.984938225673322165e+01 1.464165256421802326e+02 5.587447978700035378e+01 -8.855411754432179805e+01 8.807914758177632564e+01 3.379654737025052924e+01 8.725642594689165321e+01 -4.159740319490487082e+01 -8.302765669654070280e+01 1.688894121015247833e+02 4.111140362145784621e+01 2.857891934417108359e+01 -7.205550988523769718e+01 -4.176772211834871484e+01 9.399629725689916171e+00 -7.077863135755642077e+00 -1.705743299643722537e+02 -3.416189807240274234e+01 6.355402493981258516e+01 1.100980562983430531e+02 1.536392619698603994e+02 -1.310379900531569319e+01 8.840011522299030844e+01 1.555691313957881334e+02 6.253183920406170415e+01 1.456374234862998946e+02 1.583895815215958969e+01 1.294365868242968247e+02 -8.273378625012588827e+01 5.256339629630747368e+01 2.887884027585337066e+01 7.472268499728326674e+01 -1.046038697295807367e+02 1.950214428153348933e+02 -1.267180887457937644e+02 8.693373393164331731e+01 -1.056825202255826781e+02 4.542275053549178665e+01 1.358299638773548068e+01 8.920839575906347818e+01 -7.243375494422014071e+01 -7.424780431041791928e+01 -1.095341055503195804e+01 8.757386583434218608e+01 -2.908191751513087908e+01 -1.601670637892494042e+01 -1.928743144026696754e+01 4.651955531954782508e+00 9.636427772383844115e+01 -6.140329336634500379e+01 -2.656240267143587630e+00 -1.900786478388816647e+02 1.195389536227846179e+02 -1.222963283385792437e+02 -7.233955131632578173e+01 -2.303865278812470052e+01 -1.057044041602827491e+02 -5.204478846574841810e+01 -5.736538631023232426e+01 -1.927868584060089319e+01 1.333921661826978209e+02 5.293053158711070694e+01 9.831558842440230706e+01 -1.332467096588106870e+02 -1.356677780203861232e+02 -2.806429209806788663e+02 1.000406223795346534e+02 1.020506821386057368e+02 4.142745518989273279e+01 -4.157336761349237264e+01 -3.639864864838872904e+01 -1.798219792743295500e+02 1.430373596003672674e+02 -1.051618796021229372e+02 1.047241460561336339e+02 -1.558664255171375146e+02 -1.401902441135923993e+01 -5.422020089211511618e+01 -1.167715022894058734e+02 -4.514259070722700784e+01 -1.227249351209642114e+01 -9.074505737025711483e+01 -1.013184715805167997e+02 -1.210331205555022116e+01 6.970955150900461206e+01 -1.220295080217008348e+02 -1.532792123668215645e+01 -7.222365869333920330e+01 -1.286932657762688450e+02 6.474316353607908248e+00 9.315266445736672551e+01 1.621334356679192297e+02 -1.866897170041517739e+01 -4.510761830746281476e+01 -1.216400602177054679e+02 -1.603039007862260519e+02 1.016999435335865201e+02 -7.127258723459439693e+01 7.740652784106760009e+01 9.210717362564086130e+00 2.863648944850864453e+01 7.237215531632753596e+01 -8.307542740251359703e+01 8.104603830563679878e+01 1.130068967152079722e+02 1.543920687417216868e+02 -1.142458787887026403e+02 1.019201323671997130e+02 -4.684842049414197618e+01 -8.902759400109086130e+01 2.104107819380535602e+02 4.826032972018867184e+01 8.184450279211412749e+01 2.081394922667687553e+01 -6.202854065861299659e+01 -3.425537983004723941e+01 -2.062947899765916020e+02 1.035848848575946874e+02 7.990429622172760560e+01 -7.422606299870922442e+01 -7.169954135195956724e+01 1.423674003482796877e+02 9.910079712685558206e+01 5.012583130236688334e+01 7.459003262985790172e+01 -7.705988395040057171e+00 1.011860049565383832e+02 -1.015621394127303176e+02 1.827406094220549448e+02 -3.871614496779427128e+01 -1.196350948133233771e+02 -3.696824312803680357e+01 7.034863168233199815e+01 1.444720081121442377e+02 1.261584970191433364e+01 1.704485571082115314e+02 5.117611371324353797e+01 3.297934341353577281e+01 -1.091475893965839958e+02 4.391775704278580150e+01 -1.225721720933833012e+02 4.678675643964728437e+01 3.784175477264121668e+01 -1.209778964102318213e+02 -8.338883271555280885e+01 3.908153520612071929e+01 8.556018593390239957e+00 -2.276363384336165652e+01 4.106694441790257599e+01 -2.098689145816341295e+01 -6.186591205960161943e+01 -2.570886285069066091e+01 -2.199167210372978332e+01 -3.904859056487492808e+01 1.840270715329809192e+01 -7.896130042403203220e+01 1.166348847315058919e+02 -7.284415966047254187e+01 -4.140671359705819121e+00 6.432803971473597926e+01 3.804282633231481192e+00 1.565118017065122302e+01 1.565809028781680645e+01 -1.148422628231824092e+02 -4.323675638183459569e+00 6.378164771622877538e+01 -2.269265705964913309e+02 -8.322967916389241338e+01 -1.105041817422486332e+02 4.294437996369430266e+01 9.433927337928717805e+01 -8.997309473323012696e+01 -1.646078534561788160e+02 -1.815633059290737492e+02 1.956817840020474719e+01 -1.420757822854016013e+02 -6.201204265897044543e+00 1.446452873377412800e+02 -6.936972814893063166e+00 3.636770364099518815e+01 -9.680519466970132214e+01 7.813002908422160431e+01 -1.159330850308696483e+02 -1.508446680004152185e+01 -2.960167252256513848e+01 5.627134732119422722e+01 -8.642546307540115436e+00 1.031997913812069072e+02 -1.191892693316811602e+02 -4.888596173965385816e+01 8.454345871007785718e+01 6.453481593418595708e+01 -8.029449045200942692e+01 -5.305962828271966458e+01 -4.813960662960117531e+01 -2.820591236069257661e+02 1.885828321128769574e+02 7.411420603358493508e+01 -2.296210766727646657e+01 -2.889235409628796702e+01 4.043328009967247283e+01 -8.187199909946099297e+01 9.683695385030181058e+01 5.884243268248499703e+01 7.970550310500520652e+01 -8.178436478476079685e+01 -2.578055843064794672e+01 3.239663143241071452e+01 1.689659788336382462e+01 -4.164472348585252348e+01 1.535197910425063412e+02 -1.679613678975195867e+01 3.440733063122557667e+01 -2.233395014208943508e+02 -8.225377340198306797e+01 -7.105654442821236216e+01 2.236696493593136736e+01 1.060491248899588896e+02 -2.250865773182040641e+02 -1.816635782505958900e+02 2.152573324958575824e+02 -1.026120798297550429e+01 9.327858356195670808e+01 6.084969556527041590e+01 -5.374851953859931086e+01 -1.272171820623764518e+02 -9.241228282733766264e+01 -4.879955253398309623e+01 -3.633521516115634853e+01 -3.802891542074441844e+01 1.567450346346862489e+01 3.612168620813098130e+01 1.620343426676018055e+02 1.196802635315194010e+02 6.777886643854862392e+00 -4.277249213213341505e+00 -1.541666997994154258e+02 1.161939642652846345e+02 1.546984417227200765e+02 -1.004633473546506792e+02 7.159270313632238469e+01 1.662672282753005382e+00 5.334221393208415662e+01 1.217664030956694603e+02 6.889341243522932245e+01 -1.301777595768057267e+02 1.565792013321620857e+01 -2.854097924178596912e+01 1.082409300718396317e+01 -2.245020645349483601e+01 4.403942802814601265e+01 -2.531838599302861894e+02 1.760230117996300976e+02 7.067410325533201920e+00 1.549180444258616376e+02 -1.023327709418484233e+01 1.031956642131443544e+02 6.963798173457266216e+01 -4.081601014982171449e+01 2.911392073148343229e+01 -7.083064862872868162e+01 -8.657327266602527516e+01 -7.009992413635761466e+01 -3.119223976278046706e+01 4.395758836040548090e+01 1.072163968659957760e+02 2.771444980599380870e+01 6.050874825668333301e+01 -1.020654995909761311e+02 -1.335354819971849736e+02 -1.313060599426596831e+01 4.517383551682577547e+01 -4.427368198262727361e+01 9.213293268999785823e+01 5.410705049473453698e+01 -2.692925866090796205e+01 2.917462814183492270e+01 5.981588298576763663e+01 -7.025393361774548850e+01 -1.303096802524695477e+02 1.384516436914326505e+02 7.615069102924081790e+00 4.887741910388399447e+01 -1.455793364685494566e+02 -5.208343806152260669e+01 -4.301396039012456707e-01 -6.417598934836497904e+01 4.158689752445412502e+00 5.493139044378298053e+01 1.819553228286140154e+02 3.819378693509263911e+01 -1.069792618862159372e+01 7.053226190443847088e+01 -4.439956862441131591e+01 -1.064239395067302212e+02 -1.349658583073313309e+02 9.147995435158826183e+00 2.453415366620250637e+01 2.328167244922990520e+01 -5.559006327291059080e+01 1.180906728656599824e+02 -7.901478279499563939e+01 1.254634636134948806e+02 8.535817774118588375e+01 -6.360764937671946484e+01 -8.289374112308145470e+01 8.237945506863341905e+01 1.999103457905209424e+01 -5.138850304456995843e+01 -5.268876622052317771e+01 1.338361563681864368e+02 5.612030031097825145e+01 7.824094937667335614e+01 2.560253874900229576e+01 -4.118368810410963476e+01 1.052165307960419796e+02 -5.345465568640390330e+01 5.504101127632404777e-01 7.499940092483288367e+01 9.759792570360235686e+01 2.504329602423989343e+02 -1.717300499623410417e+02 1.577684676199939133e+02 -6.624140023710717173e+01 -1.493676988931231264e+01 -2.462740312863753545e+01 -2.033589128804335289e+01 -5.408597013008046162e+01 9.124608265807714247e+01 1.806426852163413628e+02 -1.166129387810501470e+02 3.037515501939131823e+01 -1.246504741701186987e+02 6.896595917066878201e+01 -4.370767307491814790e+01 -7.964863978003236866e+01 -5.300858833594320885e+01 4.052058010797848908e+01 1.906004504379937359e+01 -8.047201872930509126e+01 -1.388507869432905864e+02 2.044681059383564659e+01 1.552417212096025310e+02 1.407566622638825926e+01 1.798251910674262888e+02 7.351113619501813190e+00 1.327304964628446839e+02 -3.411081729433098531e+01 8.951005326185132560e+01 -7.048215104387949737e+01 -1.114202883244522013e+02 4.879655040925050713e+01 -5.726783085090277581e+01 -7.755440778377452204e+01 7.197688576833840557e+01 6.388759036045258632e+00 -9.316648830606987985e+01 -1.488390294306809949e+02 1.462549337606794211e+02 -8.819237007670430728e+01 -2.338310663380807952e+00 1.188266406821301899e+02 5.741656580467417825e+01 -9.722014065905628399e+01 1.054012466655880864e+01 2.793103912951703478e+02 5.279913238451716495e+01 -1.562628705156189994e+02 -4.729334303992524724e+01 -6.095759740605980426e+01 9.536524556932175045e+00 1.066521744857412131e+02 -1.026336318834537593e+02 2.140912994117937629e+01 1.294407080947337363e+02 1.862702794806673978e+01 -2.096451953983118131e+02 4.793966598301372528e+01 7.492029787713491373e+01 -1.348864969155070170e+01 3.254864602620113345e+01 1.622182832261346852e-01 2.237849731162538802e+01 2.753435880801542268e+01 1.150000710849831478e+02 9.733921105541915608e+01 1.549492981411300185e+01 1.479594243987735354e+02 -6.356616688923769232e+01 2.449091798136012130e+02 6.458129891457625149e+01 1.407345434351977076e+02 -2.181421117052835612e+01 8.945452000103199452e+01 -4.862683438400340208e+01 -1.453812109188537249e+02 2.599250519318159292e+01 9.437147535617806682e+01 -8.699131551673711726e+01 -1.040424809072175236e+02 -6.609680211525676441e+01 3.636834903067025238e+01 -1.134456872151633036e+02 7.421473255471894959e+01 2.786472539960437089e+01 -9.697168251607045875e+01 1.886787777909866008e+02 -1.168471654769468415e+01 -1.011038068305819024e+02 -1.331755625594244563e+01 -2.030293646521285211e+01 -1.393128176102483451e+02 -3.976453445656773056e+01 6.111278020600641270e+01 1.309396788740430964e+02 2.884998206038784474e+01 2.657670345746663543e+01 4.449999279317469103e+01 -3.549749995792394941e+01 -1.446773343547230013e+02 1.578012061092097618e+01 3.076705180141146201e+01 1.322643219110050552e+02 -9.839910206194939946e+00 -7.564540920415741709e+01 7.273732263730532566e+01 9.754218044337192861e-01 3.164604085441849790e+01 1.383564519048069315e+02 -1.763756809803244892e+02 -9.227349535519493884e+01 1.239498154318504106e+02 -2.083144466048580341e+02 -1.775803360350492426e+02 8.788655026030602357e+01 1.486969716586386596e+02 6.122907219152257596e+01 -4.315453954903841982e+00 1.503806198072905431e+02 -2.119677799399727007e+02 1.034690417005617320e+02 4.092004216208952272e+01 1.227025004403339778e+02 -1.821024477514666557e+02 1.028497077676714042e+02 -2.727148315148856028e+01 -1.290928114070025288e+02 -5.140021136718363692e+00 -8.921484184492621239e+01 -1.568782387911680409e+01 -4.181055966540509594e+00 -1.189549825035604016e+02 -1.190755006166350825e+02 -6.041525762168608082e+01 -1.244753231102779694e+02 1.940682718635671904e+02 -1.555493814992516093e+02 -4.845128376870832199e+01 1.666040226485322364e+02 3.276269370988113394e+01 -2.858079875296431851e+02 -1.227454881615538369e+02 3.428532742687158930e+01 5.277796736906947928e+01 8.263407124854937891e+00 -1.492823599103210768e+02 3.445807493183287562e+01 7.237526592187633057e+00 -7.177164482058054773e+01 1.957539697036854420e+02 1.956063315571387022e+02 4.194127321212272719e+00 -2.013684164000294459e+02 1.216460135707305739e+02 2.969696165070210014e+01 3.665607673976204683e+00 7.396018452651442487e+01 -2.003426542078320836e+02 -1.332723187298610128e+02 1.361690482441408108e+02 1.058768379666479262e+02 5.108912517971973699e+01 1.382623013544344417e+02 -1.721266702496883738e+02 -1.975271310562655103e+01 -1.259193093617552250e+02 4.214169198065837918e+01 -1.002954626544477179e+02 8.406743992275889354e+01 -3.274196278178428798e+01 1.195814213216078237e+01 1.713283928047741824e+02 2.755161657202001280e+01 -2.544947275368722615e+02 -1.220304462609679490e+02 -8.047485347242948706e+01 1.526631856860569769e+02 1.210693394681872093e+01 -5.201390361909816562e+01 2.929338885210973586e+01 6.034164456494386286e+01 -3.819407015196512134e+01 1.038089794806626287e+02 -9.727398906812126711e+01 4.751821659000231790e+01 1.080762231929167143e+02 -3.427794855626265758e+01 -9.474543658034725979e+01 -1.095415779054921899e+02 1.156360707777508878e+02 -4.796642341761631911e+01 1.897807967435728358e+02 5.523475023350862756e+01 1.071254488133929783e+02 1.781278945075403612e+02 8.262482661552789764e+00 -1.200210872231977106e+02 -1.600268129800482484e+02 -1.102385723214934501e+02 4.103600055870265351e+01
-1.282509574754364401e+01 -4.562972345106107497e+00 9.765742194317473945e+01 -2.160098603076052939e+02 1.465794905197202240e+02 5.988462211980247929e+01 1.434893673423861173e+02 -1.218167892563641885e+02 -2.612199758866073029e+00 -2.269409248668771539e+01 -2.070009320700566775e+02 3.085194114474425930e+01 -1.727673556816888834e+01 1.153470404154782187e+02 -1.179775697467786841e+02 5.820016531148154115e+01 1.181486122829716408e+02 -4.333707536912877600e+01 -4.677772880520001308e+01 -2.545841917805434207e+01 5.821027170669005102e+01 5.948243349316327766e+01 3.058494420300944938e+01 -2.192602144220718117e+02 -4.863417969868685020e+01 8.632518053728168184e+01 9.346891661186113254e+00 -9.783105764080232802e+00 -6.273064439378176615e+01 -1.460913605937538584e+01 6.915576186930258018e+01 -1.371094685813804972e+02 -5.841266978120184206e+01 8.462321681510978522e+00 1.957261584393370981e+02 1.999570182909352809e+02 -3.029637360761160281e+01 5.269533060395979618e+01 -2.476423368555815685e-01 -1.316745157806957138e+02 9.049150076656827935e+01 1.010998254943912826e+02 1.023150857858926770e+02 1.101137289296153376e+01 5.834784059710911919e+01 4.536999557331549937e+01 3.665718836087749821e+01 2.767941869335000149e+01 1.039789015921894872e+02 8.458163291541421813e+01 6.183310846013314688e+01 1.536794487340743842e+02 2.336283718277770731e+02 1.844089020643027084e+02 -5.575846298250245781e+01 4.645191854294738931e+01 -6.059521662343838244e+01 5.316897025571896762e+01 -1.812083865978171957e+02 5.327006844847500844e+01 -1.930476430252325031e+02 -1.590765056320710471e+02 1.221124310055971485e+01 -8.731824644126113810e+00 1.598349353255593996e+02 -1.960919414028356300e+02 7.097435912623294030e+01 2.167193077496424394e+02 -6.960094168838189432e+00 -1.836707793769423063e+02 3.351114696481818100e+01 1.859361197403865447e+02 -5.762436120343683399e+01 -2.513569590785635910e+02 -9.672066629675960314e+01 8.390009048277962123e+00 -2.169907862238090104e+02 3.025443870802450519e+01 -1.692590630411898474e+02 -1.750316951034187412e+02 -5.392704490092949499e+01 1.438096656791424834e+02 6.553304563542542382e+01 1.001673292512627356e+01 -8.366756868006143577e+01 -4.020138208831775017e+01 6.015164159390910470e+01 -2.191047905689862034e+02 5.106682064821635691e+01 -7.075288601707997316e+01 -7.376628462706239020e+01 -1.669172315867483860e+02 6.140793891599118837e+01 8.753555691303196795e+01 -1.532653667094545256e+02 1.631677515929496565e+02 -3.766118484743955719e+01 -1.597946014909242862e+01 8.276609944385016604e+01 1.476625098362769961e+02 2.053126828319674857e+01 1.430661907455993571e+02 -1.747722504371323993e+01 -8.568708429193394238e+01 -1.852380001012597788e+01 9.548237055729977385e+01 4.368815095520428571e+01 9.503637677127450445e+01 9.169225033610278786e+01 -8.071891812229256402e+01 -1.650729796737288950e+02 1.195463693929444560e+02 5.270045441133689224e+01 1.576255348218016650e+01 2.970434837144801321e+01 -6.599781785689384606e+01 9.330835199124891233e+01 8.731791104102818224e+01 -1.333116813783067833e+01 -6.924486381112501476e+01 2.984723389873720834e+01 6.106870296739770332e+00 -5.976525618064255241e+01 1.648237244443965608e+02 -3.192077964831559100e+01 1.182084477596277026e+02 -6.814406092245530999e+01 3.732160864705272019e+01 -3.507631925824643560e+01 8.700798042888931150e+01 2.282581830150889957e+01 1.124004740130695410e+02 -1.128388924500739563e+02 7.231048428262363359e+01 1.200953980736888980e+02 -4.347666338933538555e+01 7.431212398181206602e+00 -1.241233563562763997e+01 1.136499101437117218e+02 3.534768846941521492e+00 1.640872709257889142e+02 -1.376204812694087707e+02 1.135320568351279320e+02 -8.885287640198558279e+01 9.325275292927550197e+01 -1.334293427587930410e+02 2.873194930835859751e+01 2.410220039665429681e+01 1.739472709252433802e+00 3.536387252482168719e+01 4.478470282725988483e+01 -1.206692918563374839e+01 1.059680646035296547e+01 1.052945585317568487e+02 1.239583841137921922e+02 -8.447325974503989698e+01 -5.278854873369235889e+01 4.612063179592555429e+01 1.481763848710766496e+00 -1.334933556685316773e+02 -5.373267740842737794e+01 -3.452261302568206247e+01 4.766393186030455098e+01 -6.388060828035102645e+01 2.234055085865867341e+01 1.563860457316484371e+02 -7.748648367577968088e+01 7.884045892756130058e+01 8.200829359279347841e+01 1.099451082738076479e+01 1.204576255325290504e+02 6.137198798222365781e+01 1.640310826301770533e+02 -3.378377802808812902e+01 1.097956574066236470e+02 5.426016453766716552e+01 -1.569113879173286108e+01 1.994299473308315669e+02 -1.356152743067829363e+02 4.778489673340422428e+01 -1.833679471743247120e+02 -8.229712933205817649e+01 4.013528261252751861e+01 -7.063140643265425922e+01 -1.524196587020017546e+02 1.950256879080061765e+02 -8.393751940117863342e+01 -4.648001869199600833e+01 -4.529241443156168145e+01 1.191696234161263703e+02 1.906584634286920164e+02 6.338591988931938914e+01 1.431774882484891123e+02 2.148764872436935605e+02 -1.569014107736783625e+00 1.594831792025125026e+02 6.940821535412410981e+01 1.864330371933368724e+02 -1.231867191113049387e+02 -1.159469917834670305e+01 6.222075837163488110e+00 1.859926444713111096e+02 -8.897411442143129534e+01 -5.925861388683775743e+01 -5.183715661837628375e+01 -1.312330922351186473e+02 4.573916653006721234e+00 -9.883382876182122345e+01 1.509649814739818794e+02 2.306061488437397600e+01 1.174412384541831145e+01 7.080590093030406251e+01 -4.813942648657295820e+00 1.145690648870609323e+02 -1.555815743518893441e+02 4.448279157859982291e+01 -1.672614843815216261e+02 1.149913083286133713e+02 9.409739088373630977e+01 -6.589466502634368794e+01 4.582606356854140017e+01 2.332090787466376867e+02 -2.984076489521641307e+01 4.078893995364055058e+01 -3.200243665202291510e+01 5.674311550900561940e+01 6.293372303738391338e+01 -6.153106733265228279e+00 9.978264376008129943e+01 9.935374067434243273e+01 -1.898334511131200202e+02 -1.500441845910793006e+02 -1.173404664484233706e+02 -9.234496259299341148e+00 -1.466393269012052372e+02 1.131349323714727007e+02 1.080230920553617295e+02 5.776477316461681255e+01 1.093052221448771455e+01 1.543670544227944390e+02 8.219622741067421146e+01 6.609015974318110409e+01 -9.946373834991071305e+01 1.492012042318110616e+02 -3.524255223919196656e+00 1.070449032749132385e+02 8.634639484937627785e+00 3.596461664095153310e+01 -7.407863395162226539e+01 -8.880608670215585221e+01 7.005869423423230558e+01 -3.777627312912545943e+00 1.430643484120075755e+02 -1.228877022575697353e+01 -2.784336835941593424e+00 4.486227955886565155e+01 2.213626644183514358e+01 1.383316724275782121e+02 1.436189125765248242e+01 3.506543897812650101e+01 -1.512720964214785226e+02 6.436305196719901289e+01 1.306660031216217988e+02 -1.720980986301803028e+01 -2.228434183330679730e+02 8.247269043844192993e+01 1.329520132423140240e+02 1.987582973137432418e+01 1.843887998467116063e+02 -4.141141869427125144e+00 4.179501252659058252e+01 -4.250184437370814550e+01 -1.350175134347942958e+02 5.454528557004254452e+01 -4.621635929868533310e+01 -7.882739388056766927e+01 4.010649902566757419e+01 -1.797203751720472553e+02 6.968841203934105977e+01 1.598736539487156278e+02 -9.839402254250433089e+01 1.681396260874685140e+02 -9.485063838984846996e+01 -5.796870029192371376e+00 -1.023994415865397833e+01 7.443667925793901929e+01 -4.526632751139389654e+01 -1.046418428617326128e+02 -8.598712085830267426e+01 1.414845536451016130e+02 5.735439878750577947e+01 -1.278695433267328525e+02 4.289212015078501139e+00 4.210249395967124286e+01 8.004824375140314885e+01 -3.909850862712455921e+01 5.811796070374182932e+01 -6.685094905849261693e+01 -1.573138259935473684e+02 -3.355464318456660067e+01 1.365836113632679769e+02 -1.098691968028329882e+02 -6.192242656062952655e+00 -1.577629665477867889e+02 -4.681475331319242095e+00 -1.412858888493917675e+02 3.189550760132160079e+01 5.830443084534483233e+01 -4.872575524381232270e+01 -7.974368088637534413e+01 5.459740272312017417e+00 7.201253429591461952e+01 -6.558686940184757930e+01 1.303243985073298461e+02 1.021293968273739807e+02 -1.234818108755625872e+02 -1.020116836127643580e+02 1.306406382820743204e+02 6.895860544047322094e+01 1.452275567477446998e+02 9.671591669721337325e+01 7.842694134729093491e+01 -5.824959240141906491e+01 -7.898709220779738871e+01 -7.443740988722163365e+01 1.975171290965900823e+02 2.954334870891446485e+01 -2.405712054628936514e+01 -6.612599582719012403e+01 -4.820629473734221193e+01 -1.266430664875248624e+02 -1.589141796716578625e+01 -1.687290166413709755e+02 1.202263331395851509e+02 4.421642538569874148e+01 -1.107857418500902185e+02 -4.653984806503918037e+01 1.151264628481254135e+02 -9.319076305472404442e+01 9.887105422601727867e+01 -1.139045679483797358e+02 -1.132216442746932650e+01 -9.181569878663015061e+01 8.627173417613502693e+01 -4.083034396056095261e+01 9.875375477042990013e+00 2.821254486210126089e+01 -1.217267131968849299e+02 1.201302601813305770e+01 4.648718658373681478e+01 -2.148572228428540498e+01 -6.606521115432877878e+01 1.946804873998782455e+02 8.308393097587841680e+01 4.526440073565841260e+01 -3.018265259345298546e+01 7.707012887854651240e+01 1.610448131128123919e+02 -8.862361010914295889e+01 2.012661585896258885e+02 -1.278863607365772026e+02 -1.766916224738655501e+02 1.458335312280835865e+02 -2.247825319671420061e+02 -9.155351637284939725e-01 -2.353087113148172591e+02 -1.468784840311880657e+02 6.895103653111131337e+01 -1.398792535433501598e+02 5.607435859228796460e+01 1.056279576400760618e+02 -1.540288678318688369e+02 -2.891333137650662977e+01 7.245076132535136537e+01 1.286453438641855485e+02 -1.788002384151976116e+02 8.405307553510735374e+01 -9.411440525844690796e+01 -9.464528754938195121e+00 -1.331109787196597694e+01 -7.643478693029526028e+01 -8.673692894110239138e+01 1.742361217610164204e+02 -2.085490829444376359e+01 1.296434604723698092e+00 1.251358678911193891e+02 -8.334158619194828077e+01 -3.308689630744954258e+01 -1.035070545327897520e+02 -4.693620258171618076e+01 4.952481539163341218e+00 5.708040792648017714e+01 -1.299667169057264857e+02 2.283226341739845964e+02 -5.189394914987734353e+01 1.181334388535378110e+02 -4.704794194088268711e+01 1.154392644125720153e+02 1.341531762770657963e+02 4.623398604964199166e+01 1.177210600621982337e+02 -4.169148655585109253e+01 1.350145077490665813e+02 -1.509720378912413707e+02 -6.309846587418996933e+01 -6.076260277427461887e+01 2.467731276616220626e+01 -1.566216583199280876e+02 7.000897959767377188e+01 -2.976729496844211198e+01 -7.976323384087348245e+01 8.646581385147386811e+01 -1.458536011886637880e+02 -8.806071238851603766e+01 -5.082074057110966692e+01 3.192489588358387920e+01 1.253012154320258986e+02 1.127780624593821415e+02 6.669703185804306145e+01 -1.509546987625443482e+00 1.688378311819414250e+02 1.182747190612024326e+02 -9.120231906840281511e+01 -7.540235738278730082e+01 5.325890674501893329e+01 9.603000934471866756e+00 9.457475241795394538e+01 1.609462978798109702e+02 6.814382814479863271e+01 2.359143937845955818e+01 -9.866348975219148087e+01 1.657906024311307647e+02 -1.097004394012257507e+02 -1.594944959095933541e+02 6.342793032385809227e+01 1.075910931820600069e+02 1.896014665167980340e+01 -1.339598513507864936e+02 2.866323251766990055e+01 4.090821662913374013e+01 -3.471092731304409318e-01 1.262870979823837985e+02 9.427531471449729850e+01 1.650238120624182514e+01 7.554418676022078216e+01 -1.031207313341847396e+02 -6.134108088016811067e+00 9.481332645326520492e+01 2.862543595711466793e+01 -6.268443828358427083e+01 1.909094099598646324e+02 2.227538289707374872e+02 -1.209206418192633663e+02 -2.662710568331701921e+01 -2.025125903416245876e+02 -6.954659846743746243e+01 1.508383671850851329e+02 3.244339357981481431e+00 -6.838474825508949095e+01 1.577456373036430364e+02 -6.018570550811543995e+01 -1.546908880229986494e+02 1.315171384642807766e+02 -6.470060797592772417e+01 3.323535734458872781e+01 8.312702302781825381e+01 1.327973675521457864e+01 -2.293818465046238089e+02 4.074537268379075527e+01 -5.941932907766649841e+00 8.675341116656014151e+01 -2.268637048127770228e+01 9.732433722141180965e+01 1.636111323605645751e+01 -8.152065962047829828e+01 -1.971904183221530715e+01 -1.686800619867591706e+02 1.106701727467230256e+02 2.433552004069229824e+01 -4.005484916501911385e+01 -4.985628853651664372e+01 -6.055746234915554993e+01 3.958506639405042193e+01 1.546674036387258866e+02 1.277130339572434536e+02 4.142747540508766946e+01 -1.904371241472152008e+02 -3.733855037825918544e+01 4.217769359538426244e+01 1.129142423348785087e+02 8.391262472698889496e+01 1.485675187713361467e+01 -1.790270308105641845e+02 1.267216200923966198e+02 -2.153332698027087986e+02 -1.980733203552988471e+02 -1.759340986030962117e+00 -7.099431297052781531e+01 -2.321570845338264988e+01 8.384228745347965628e+01 5.381556103316683703e+01 -1.070054980354892535e+02 -1.457741101266562396e+02 1.403250350283357406e+01 1.190364104266216003e+02 1.989216698105098402e+01 -5.457621531897942901e+01 -4.971221860948239879e+01 -1.126919078861580914e+01 1.553061932443252147e+02 2.152280725127813099e+01 -1.701997528537419839e+02 1.257475364463523704e+02 -6.548359340330040368e+01 -4.089208710245094025e+00 1.508815752140684197e+02 -5.122301028323700223e+01 -1.919809815826470256e+01 -1.076322455016481427e+02 -5.879014138113143773e+00 -2.336494092602459816e+01 1.290157048231513954e+02 1.176390146982759575e+02 6.621584480633431724e+01 6.412662745381949492e+01 -1.832880704282662165e+01 1.324365143042154216e+02 -1.104916699917086618e+02 -4.168273293573043325e+00 -8.921107610383619146e+01 1.539113688036167673e+02 7.145630186600527622e+01 5.062255921914169221e+01 8.085224710204961696e+00 -5.222502205441971768e+01 3.368432616031386573e+01 6.589421035915009384e+00 3.580010999715596220e+00 2.361086088842419883e+01 5.856077145855202559e+01 1.667987618226441100e+02 -3.807115318449232433e+01 -5.091606446753286264e+01 6.543328957350915687e+01 1.133089562796915999e+02 -1.255448207067784772e+01 9.008029380453560009e+01 1.019721394647154256e+02 2.064918099984949720e+02 -8.477213209600773780e+01 -1.201642025398267180e+02 -2.805992202681902370e+01 6.089279136101934142e+01 -9.940505016093593937e+00 1.052059617395700570e+02 3.648298245891170666e+01 -1.592710936476252073e+02 4.412327672169258364e+01 -8.760587919893988840e+01 -1.324836597767171043e+02 1.317035996883624307e+02 -7.446157680502744824e+01 5.793960518650706604e+01 1.088275955520718128e+02 -9.690402695298287483e+01 2.300393432575593167e+01 -7.060649236077176738e+01 3.942670247511365744e+01 -1.121864726905737371e+02 6.027586100190921314e+01 5.350520658346901826e+01 3.791221669768225500e+00 8.220704454037449693e+01 -1.495520397562681865e+02 7.469746869528438538e+01 -2.866679657506417911e+01 -1.640583607469789058e+02 9.177722953186304267e+01 2.383888543177161168e+01 -1.904481467438790787e+02 2.284799230279186588e+02 -5.225498839733203615e-01 1.021197300480292682e+02 -1.171057164800503756e+02 -1.885782248697454406e+02 -9.061873746907842531e+01 2.426823391725189794e+00 1.387387127678170771e+02 3.853942766208014792e+00 -9.281160877473898552e+01 4.890112720047980588e+01 1.330769672922866107e+02 6.308609332075636189e+01 -5.022642645761415281e+01 -5.743520892519659071e+01 8.205819521132924876e+01 2.983206479374715769e+01 -1.899234234809746624e+02 -2.013063720838462345e+01 1.641326059699061943e+02 9.593841087430440950e+01 -5.567876763421256925e+01 -1.085677326991136908e+02 -4.143657126296282200e+01 -4.668988305157472496e+01 -1.111355798508432713e+02 -1.790857855727819370e+01 -4.433702054255530811e+01 -1.103307031881043656e+02 -1.281038477768998405e+02 -2.617509360707266808e+01 -1.220403095062896455e+02 -1.299597074239363224e+02 -3.722241835743339067e+01 -5.372833627334065909e+01 -1.078147069790105235e+02 1.872721884801308079e+02 1.058601525909883456e+01 -2.829740143496982441e+01 -1.710187219395247382e+01 7.914224274345404808e+01 1.574148437013757196e+01 2.519797561039838030e+01 -2.137529745412642868e+01 -4.655768357298290994e+01 2.103698623837503234e+01 -1.462549264767275190e+02 -1.601423447852643847e+02 -9.093071374202261836e+01 -1.919918946557937431e+02 -9.014850406162207719e+01 8.628442729550963008e+01 6.175744810021910780e+01 -2.620750981259545043e+01 6.113181684607805977e+01 -1.575199224478780309e+02 -4.111813908972165876e+01 -1.168406325306178672e+02 -6.714826753081618449e+01 2.122526591389769806e+02 -2.065186996364204504e+02 2.064952070653120586e+02 2.511869535310363943e+01 -5.678925177438951977e+01 9.276447454696769057e+01 1.248247857321227912e+02 -5.219830100679275375e+01 -2.049844420331305912e+02 -1.499908649920074311e+02 1.028955870915166457e+02 8.426148509588169588e+01 -1.363829496723466832e+02 3.212988396148298165e+01 -3.992360088033965582e+01 -7.786699092297932623e+01 -2.859787479398287147e+01 -5.514563127673383036e+01 -8.694332977569291643e+01 -3.426270051347160717e+01 4.542471031514981661e+00 -3.286580050522425722e+01 -3.767516231575540608e-01 -1.441142266097138069e+01 9.249936040159536788e+01 1.278753054491780006e+02 1.324007507204384737e+01 1.690163734572970000e+01 -6.351808855240655305e+01 -1.972398535970951912e+02 3.405296415733532456e+01 -9.227164052911849978e+01 2.599528032250332643e+01 -8.184675606207241216e+00 1.057364100614287761e+00 7.278830131917570156e+01 1.226256330581446434e+02 -7.090800978434498347e+01 3.822838893846048336e+01 -1.940567100486283891e+02 9.741977537007588950e+00 6.989872172930509997e+00 -1.233013278885201487e+02 -3.391724409830935372e+01 -4.459608286300980495e+01 4.793955740681609790e+00 -1.028618315742619274e+02 2.721495420550255417e+01 -9.823329344553516762e+01 5.640665952588317822e+01 6.827707441229254925e+01 3.711732661290994173e+01 -2.919048982012798277e+01 1.081178819994446769e+02 6.145714429534621814e+01 8.047937322734694021e+01 -6.740179131879345675e+01 2.038233004325824638e+01 1.286254856536122873e+02 -5.882762624120731942e+01 -6.957017528410015750e+00 3.216881551914752180e+01 -1.291465293865972512e+02 9.835540223574245999e+01 9.007044613789024368e+01 -1.017215652923960789e+02 -8.279471148042350137e+01 -5.583136886815623967e+01 -4.585751432159377572e+01 -1.610732291563181491e+02 -1.366088064332626573e+02 -1.331616070724172687e+02 1.061947997919720308e+02 6.009525433845799824e+01 1.603104336225219981e+02 7.239187665676364070e+00 -8.610674905972751958e+01 1.883849341859107795e+01 1.389167872166142814e+01 -6.383553590251387533e+01 7.437585996617292494e+01 1.185670866728800803e+02 1.000990098141141083e+01 1.439641846267695939e+02 2.258674365627923919e+01 1.113922968582682387e+02 1.513546287649756472e+01 -2.085834089268486764e+02 2.192015000640865026e+02 -4.911734092362188875e+01 -1.496219257320300926e+02 -6.742753295741874808e+01 -4.302248947732610418e+01 4.135061746894525214e+01 2.556418625851007320e+01 4.568880795141037510e+01 -7.395413935806172390e+01 1.221244578445595010e+02 -8.606174970835868976e+01 -6.994572754643963108e+00 1.420213954666394045e+02 1.092515148164773677e+02 5.782443844258494181e+01 -1.763624560393990350e+02 2.532939881973492291e+01 1.397838683298681417e+02 2.331924585518473592e+01 9.709294637525120208e+01 1.058407637195945910e+02 -2.102220092696963718e+02 7.644742774459675161e+01 -5.737882079308971583e+01 -2.233928129824842017e+02 8.784527213546009250e+01 2.436694298973562312e+01 -1.204941958528315951e+02 -5.774387060036741559e+01 1.366670451954834391e+02 1.451074123889021052e+02 -7.450191912333427524e+01 -1.253914201746291752e+02 -8.176939687116400535e+01 -1.623819167874620462e+02 1.914378912052736936e+01 3.708532332804185927e+01 -1.658515435336195409e+01 -1.208036179002440313e+01 -8.725798005307542837e+01 -8.601304568283666185e+01 -2.399181324768636969e+01 1.299097644541835450e+02 1.319912726997228276e+02 7.853914894025349724e+01 9.393983704993839012e+01 -7.591255062319748959e+01 -1.743882687685251369e+02 -1.274100789310726967e+01 -2.230057660750360071e+01 -6.844831104278269152e+01 1.433862721165729992e+00 7.038634871624458356e+01 -5.097952971509223374e+01 2.378480631928011846e+01 7.628845003704492456e+01 6.753761686953900778e+01 1.064959688597318177e+02 -1.437037433461752585e+02 3.818421817887750791e+01 8.026060900305790824e+01 9.128636503404429448e+01 5.688978943552208989e+01 -9.945297417407208229e+01 1.319088780826830032e+02 1.228066530587387604e+02 9.233513695201099836e+01 9.781486354540008676e+01 -8.112772398441822475e+01 -1.431806758271525126e+01 -1.246929774491041520e+01 7.422043885171886757e+01 6.259154947438148042e+01 5.395220904276028051e+01 9.399230184024486334e+01 1.122307080513649140e+02 1.193924033503401176e+02 -6.247919927304349130e+01 7.765443111061608761e+01 6.284423065648053353e+01 -1.133517962970788346e+02 1.267876109564148805e+02 -9.661149014967399751e+00 -2.690817540053943091e+01 1.920662906248387003e+02 8.529754783392878892e+01 1.196504126481128338e+02 -1.391778127187931773e+02 -1.521685529644701660e+02 -1.482394466269281281e+02 -1.178376321953170418e+02 -4.272605050048705522e+01 1.059353559933876028e+02 -1.628023936530729543e+02 3.138610156612347524e+01 1.393816709830331320e+02 -5.732292950896587058e+01 -8.823572746078396278e+01 -3.394128187569771171e+01 1.312892207321102376e+02 2.196823221482293036e+02 -6.446684451684635064e+01 1.916519873058227930e+01 -2.676975860748798297e+01 6.624633807061984214e+01 5.827278777213167871e+01 -2.062955417859248257e+02 -8.579677942494036813e+01 1.331504896191784439e+02 1.353026502671951903e+02 9.150788788752801395e+01 -4.824242267728568834e+01 -7.338311873833093557e+01 -4.394706446039279513e+01 -1.709896129684154857e+02 6.889927419913989581e+01 -2.484813300546779047e+01 1.611663214681337308e+02 -2.706722971678103562e+01 -3.048120588061692047e+02 1.403727047190949975e+02 4.868633022235359675e+01 -1.143067308321716666e+02 -2.148855021432308021e+01 3.421652287942688986e+01 -2.013093609379689610e+02 -1.107660160285675062e+02 -1.062818660282003691e+02 -5.468135727697095660e+01 6.087575480520101223e+01 -1.598322915507156097e+02 1.046256984195222657e+02 -5.267425514976756773e+01 2.834735311759030818e+00 -1.293870741759789382e+02 -1.005267740176045237e+02 1.705555805186905332e+02 8.406229473929522555e+01 -4.096722131204120387e+01 3.604145965046088662e+01 -2.721125532712757789e+01 4.199790878048150944e+01 -1.015114038071658769e+02 9.597046794944826331e+01 4.900062830340200293e+01 -1.153844515789292586e+02 1.133066132031759139e+02 -4.766960454085171506e+01 9.696603911627227035e+01 -4.794877864819823543e+01 8.578195737904798079e+01 -1.489101242241895591e+02 1.385549878489458990e+02 2.404187389642464368e+01 9.773468745625760334e+01 1.266419156570496796e+02 -1.424141633429491662e+02 -8.342368961731608579e+01 -1.025922558057267651e+02 6.494640212564553394e+01 -1.664356605257158321e+02 1.471955513807466502e+02 1.382942239560125017e+02 5.146413132722638295e+01 -8.248014438939998172e+01 5.544199710657250080e+01 -1.042841222106935675e+02 -1.062225513766342111e+01 3.398234928203612526e+01 -1.785504819162871399e+02 -7.927057850413318363e+01 -1.315336347542973527e+01 9.932052395627388819e+01 -4.880928172723866254e+01 1.057010537534599592e+02 -6.253105952778482646e+01 -2.049311294963403611e+02 -1.041228326813303084e+02 -3.309777438163737173e+01 -5.851888718279663237e+01 2.925872674819870412e+01 5.000379129145428436e+01 6.164474340022143117e+00 2.468016025794305435e+01 -1.141584628039706644e+02 5.241515548812743219e+01 3.175491611982097240e+01 -7.021780144063043849e+01 9.030027297752932114e+00 5.486409002637939381e+01 -9.286278021723290976e+01 -5.363116668639056428e+01 -2.352767932288699626e+01 9.500206840668052166e+01 -1.668051555105665784e+01 4.085243486033141913e+00 -2.221450440549368750e+02 -9.254430042761947561e+01 9.636509268924594096e+01 -8.686275197807944437e+01 3.052342857195169046e+01 3.025432129505832179e+01 3.692943979998670301e+01 6.437468428412728372e+01 -1.728827777959744481e+02 1.402779924325847105e+02 7.944001903683201249e+01 -7.341504690087563567e+00 -7.873393207461963073e+01 1.090140314768600263e+02 6.051109723499060777e+01 -1.959870213298879094e+02 -4.909134804513791295e+01 -7.962720407949979062e+01 -5.049356723298952687e+01 -6.033868560751657384e+01 -9.650100086300577118e+01 -5.882831671644814264e+01 1.866648502453009542e+02 -1.664253242822772165e+02 6.381191348049576817e+01 2.704357032944493255e+01 -7.328773896986074021e+01 1.013226561999591446e+01 -3.843779933412712069e+01 3.350004085887394734e+00 -9.372427504761839145e+01 -1.925974124741316302e+02 1.793241522590280113e+01 4.084494412380005457e+01 -1.247438790771222550e+01 -8.749136809012144411e+00 -3.878090744664930156e+01 -1.851467828250977448e+02 -2.986822706411514972e+01 -6.372182990538217950e+01 1.359432698124266636e+01 -1.522533868788903000e+01 8.832297792897084321e+01 -6.146503756533859075e+01 -1.011033014708229700e+02 -3.481658786751274448e+01 -8.762057395120002923e+00 4.432277631527567507e+01 -2.157284784285533163e+01 -7.197054759978406935e+01 -1.548644458543135372e+01 1.955061780391868353e+01 4.632557737806678944e+01 -1.111708594761716711e+02 -1.355894293047314250e+02 2.246697708766172354e+02 -2.129128505987002029e+02 -7.406308950848760730e+01 -4.518568015574158636e+01 1.364166709369078205e+02 6.172442395226427436e+01 2.233101438956535674e+02 2.387699000739096107e+02 -6.083198601822914497e+01 1.262847876826346436e+02 -5.464896275303716777e+01 -3.982348229281802077e+01 -9.816686045523125870e+01 -7.789131713978618166e+01 -6.785105262705044993e+01 -8.684843958073619774e+01 -2.378423276942577331e+02 -2.642481505412070533e+02 1.314013277617591484e+02 -2.589372004254647308e+01 5.197324970612992701e+01 1.277212308128326583e+02
