# 
#                 ----------------------------------------------------
#                 Data from a 3D direct N-body simulation. 
# 
#                 rows are i-particle; 
#                 coumns are :mass, tag, x ,y, z, vx, vy, vz, ax, ay, az
# 
#                 NTHU, Computational Physics Lab
# 
#                 ----------------------------------------------------
#                 Time = 7.799999999999878
1.000000000000000000e+00 2.000000000000000000e+00 3.000000000000000000e+00 4.000000000000000000e+00 5.000000000000000000e+00 6.000000000000000000e+00 7.000000000000000000e+00 8.000000000000000000e+00 9.000000000000000000e+00 1.000000000000000000e+01 1.100000000000000000e+01 1.200000000000000000e+01 1.300000000000000000e+01 1.400000000000000000e+01 1.500000000000000000e+01 1.600000000000000000e+01 1.700000000000000000e+01 1.800000000000000000e+01 1.900000000000000000e+01 2.000000000000000000e+01 2.100000000000000000e+01 2.200000000000000000e+01 2.300000000000000000e+01 2.400000000000000000e+01 2.500000000000000000e+01 2.600000000000000000e+01 2.700000000000000000e+01 2.800000000000000000e+01 2.900000000000000000e+01 3.000000000000000000e+01 3.100000000000000000e+01 3.200000000000000000e+01 3.300000000000000000e+01 3.400000000000000000e+01 3.500000000000000000e+01 3.600000000000000000e+01 3.700000000000000000e+01 3.800000000000000000e+01 3.900000000000000000e+01 4.000000000000000000e+01 4.100000000000000000e+01 4.200000000000000000e+01 4.300000000000000000e+01 4.400000000000000000e+01 4.500000000000000000e+01 4.600000000000000000e+01 4.700000000000000000e+01 4.800000000000000000e+01 4.900000000000000000e+01 5.000000000000000000e+01 5.100000000000000000e+01 5.200000000000000000e+01 5.300000000000000000e+01 5.400000000000000000e+01 5.500000000000000000e+01 5.600000000000000000e+01 5.700000000000000000e+01 5.800000000000000000e+01 5.900000000000000000e+01 6.000000000000000000e+01 6.100000000000000000e+01 6.200000000000000000e+01 6.300000000000000000e+01 6.400000000000000000e+01 6.500000000000000000e+01 6.600000000000000000e+01 6.700000000000000000e+01 6.800000000000000000e+01 6.900000000000000000e+01 7.000000000000000000e+01 7.100000000000000000e+01 7.200000000000000000e+01 7.300000000000000000e+01 7.400000000000000000e+01 7.500000000000000000e+01 7.600000000000000000e+01 7.700000000000000000e+01 7.800000000000000000e+01 7.900000000000000000e+01 8.000000000000000000e+01 8.100000000000000000e+01 8.200000000000000000e+01 8.300000000000000000e+01 8.400000000000000000e+01 8.500000000000000000e+01 8.600000000000000000e+01 8.700000000000000000e+01 8.800000000000000000e+01 8.900000000000000000e+01 9.000000000000000000e+01 9.100000000000000000e+01 9.200000000000000000e+01 9.300000000000000000e+01 9.400000000000000000e+01 9.500000000000000000e+01 9.600000000000000000e+01 9.700000000000000000e+01 9.800000000000000000e+01 9.900000000000000000e+01 1.000000000000000000e+02 1.010000000000000000e+02 1.020000000000000000e+02 1.030000000000000000e+02 1.040000000000000000e+02 1.050000000000000000e+02 1.060000000000000000e+02 1.070000000000000000e+02 1.080000000000000000e+02 1.090000000000000000e+02 1.100000000000000000e+02 1.110000000000000000e+02 1.120000000000000000e+02 1.130000000000000000e+02 1.140000000000000000e+02 1.150000000000000000e+02 1.160000000000000000e+02 1.170000000000000000e+02 1.180000000000000000e+02 1.190000000000000000e+02 1.200000000000000000e+02 1.210000000000000000e+02 1.220000000000000000e+02 1.230000000000000000e+02 1.240000000000000000e+02 1.250000000000000000e+02 1.260000000000000000e+02 1.270000000000000000e+02 1.280000000000000000e+02 1.290000000000000000e+02 1.300000000000000000e+02 1.310000000000000000e+02 1.320000000000000000e+02 1.330000000000000000e+02 1.340000000000000000e+02 1.350000000000000000e+02 1.360000000000000000e+02 1.370000000000000000e+02 1.380000000000000000e+02 1.390000000000000000e+02 1.400000000000000000e+02 1.410000000000000000e+02 1.420000000000000000e+02 1.430000000000000000e+02 1.440000000000000000e+02 1.450000000000000000e+02 1.460000000000000000e+02 1.470000000000000000e+02 1.480000000000000000e+02 1.490000000000000000e+02 1.500000000000000000e+02 1.510000000000000000e+02 1.520000000000000000e+02 1.530000000000000000e+02 1.540000000000000000e+02 1.550000000000000000e+02 1.560000000000000000e+02 1.570000000000000000e+02 1.580000000000000000e+02 1.590000000000000000e+02 1.600000000000000000e+02 1.610000000000000000e+02 1.620000000000000000e+02 1.630000000000000000e+02 1.640000000000000000e+02 1.650000000000000000e+02 1.660000000000000000e+02 1.670000000000000000e+02 1.680000000000000000e+02 1.690000000000000000e+02 1.700000000000000000e+02 1.710000000000000000e+02 1.720000000000000000e+02 1.730000000000000000e+02 1.740000000000000000e+02 1.750000000000000000e+02 1.760000000000000000e+02 1.770000000000000000e+02 1.780000000000000000e+02 1.790000000000000000e+02 1.800000000000000000e+02 1.810000000000000000e+02 1.820000000000000000e+02 1.830000000000000000e+02 1.840000000000000000e+02 1.850000000000000000e+02 1.860000000000000000e+02 1.870000000000000000e+02 1.880000000000000000e+02 1.890000000000000000e+02 1.900000000000000000e+02 1.910000000000000000e+02 1.920000000000000000e+02 1.930000000000000000e+02 1.940000000000000000e+02 1.950000000000000000e+02 1.960000000000000000e+02 1.970000000000000000e+02 1.980000000000000000e+02 1.990000000000000000e+02 2.000000000000000000e+02 2.010000000000000000e+02 2.020000000000000000e+02 2.030000000000000000e+02 2.040000000000000000e+02 2.050000000000000000e+02 2.060000000000000000e+02 2.070000000000000000e+02 2.080000000000000000e+02 2.090000000000000000e+02 2.100000000000000000e+02 2.110000000000000000e+02 2.120000000000000000e+02 2.130000000000000000e+02 2.140000000000000000e+02 2.150000000000000000e+02 2.160000000000000000e+02 2.170000000000000000e+02 2.180000000000000000e+02 2.190000000000000000e+02 2.200000000000000000e+02 2.210000000000000000e+02 2.220000000000000000e+02 2.230000000000000000e+02 2.240000000000000000e+02 2.250000000000000000e+02 2.260000000000000000e+02 2.270000000000000000e+02 2.280000000000000000e+02 2.290000000000000000e+02 2.300000000000000000e+02 2.310000000000000000e+02 2.320000000000000000e+02 2.330000000000000000e+02 2.340000000000000000e+02 2.350000000000000000e+02 2.360000000000000000e+02 2.370000000000000000e+02 2.380000000000000000e+02 2.390000000000000000e+02 2.400000000000000000e+02 2.410000000000000000e+02 2.420000000000000000e+02 2.430000000000000000e+02 2.440000000000000000e+02 2.450000000000000000e+02 2.460000000000000000e+02 2.470000000000000000e+02 2.480000000000000000e+02 2.490000000000000000e+02 2.500000000000000000e+02 2.510000000000000000e+02 2.520000000000000000e+02 2.530000000000000000e+02 2.540000000000000000e+02 2.550000000000000000e+02 2.560000000000000000e+02 2.570000000000000000e+02 2.580000000000000000e+02 2.590000000000000000e+02 2.600000000000000000e+02 2.610000000000000000e+02 2.620000000000000000e+02 2.630000000000000000e+02 2.640000000000000000e+02 2.650000000000000000e+02 2.660000000000000000e+02 2.670000000000000000e+02 2.680000000000000000e+02 2.690000000000000000e+02 2.700000000000000000e+02 2.710000000000000000e+02 2.720000000000000000e+02 2.730000000000000000e+02 2.740000000000000000e+02 2.750000000000000000e+02 2.760000000000000000e+02 2.770000000000000000e+02 2.780000000000000000e+02 2.790000000000000000e+02 2.800000000000000000e+02 2.810000000000000000e+02 2.820000000000000000e+02 2.830000000000000000e+02 2.840000000000000000e+02 2.850000000000000000e+02 2.860000000000000000e+02 2.870000000000000000e+02 2.880000000000000000e+02 2.890000000000000000e+02 2.900000000000000000e+02 2.910000000000000000e+02 2.920000000000000000e+02 2.930000000000000000e+02 2.940000000000000000e+02 2.950000000000000000e+02 2.960000000000000000e+02 2.970000000000000000e+02 2.980000000000000000e+02 2.990000000000000000e+02 3.000000000000000000e+02 3.010000000000000000e+02 3.020000000000000000e+02 3.030000000000000000e+02 3.040000000000000000e+02 3.050000000000000000e+02 3.060000000000000000e+02 3.070000000000000000e+02 3.080000000000000000e+02 3.090000000000000000e+02 3.100000000000000000e+02 3.110000000000000000e+02 3.120000000000000000e+02 3.130000000000000000e+02 3.140000000000000000e+02 3.150000000000000000e+02 3.160000000000000000e+02 3.170000000000000000e+02 3.180000000000000000e+02 3.190000000000000000e+02 3.200000000000000000e+02 3.210000000000000000e+02 3.220000000000000000e+02 3.230000000000000000e+02 3.240000000000000000e+02 3.250000000000000000e+02 3.260000000000000000e+02 3.270000000000000000e+02 3.280000000000000000e+02 3.290000000000000000e+02 3.300000000000000000e+02 3.310000000000000000e+02 3.320000000000000000e+02 3.330000000000000000e+02 3.340000000000000000e+02 3.350000000000000000e+02 3.360000000000000000e+02 3.370000000000000000e+02 3.380000000000000000e+02 3.390000000000000000e+02 3.400000000000000000e+02 3.410000000000000000e+02 3.420000000000000000e+02 3.430000000000000000e+02 3.440000000000000000e+02 3.450000000000000000e+02 3.460000000000000000e+02 3.470000000000000000e+02 3.480000000000000000e+02 3.490000000000000000e+02 3.500000000000000000e+02 3.510000000000000000e+02 3.520000000000000000e+02 3.530000000000000000e+02 3.540000000000000000e+02 3.550000000000000000e+02 3.560000000000000000e+02 3.570000000000000000e+02 3.580000000000000000e+02 3.590000000000000000e+02 3.600000000000000000e+02 3.610000000000000000e+02 3.620000000000000000e+02 3.630000000000000000e+02 3.640000000000000000e+02 3.650000000000000000e+02 3.660000000000000000e+02 3.670000000000000000e+02 3.680000000000000000e+02 3.690000000000000000e+02 3.700000000000000000e+02 3.710000000000000000e+02 3.720000000000000000e+02 3.730000000000000000e+02 3.740000000000000000e+02 3.750000000000000000e+02 3.760000000000000000e+02 3.770000000000000000e+02 3.780000000000000000e+02 3.790000000000000000e+02 3.800000000000000000e+02 3.810000000000000000e+02 3.820000000000000000e+02 3.830000000000000000e+02 3.840000000000000000e+02 3.850000000000000000e+02 3.860000000000000000e+02 3.870000000000000000e+02 3.880000000000000000e+02 3.890000000000000000e+02 3.900000000000000000e+02 3.910000000000000000e+02 3.920000000000000000e+02 3.930000000000000000e+02 3.940000000000000000e+02 3.950000000000000000e+02 3.960000000000000000e+02 3.970000000000000000e+02 3.980000000000000000e+02 3.990000000000000000e+02 4.000000000000000000e+02 4.010000000000000000e+02 4.020000000000000000e+02 4.030000000000000000e+02 4.040000000000000000e+02 4.050000000000000000e+02 4.060000000000000000e+02 4.070000000000000000e+02 4.080000000000000000e+02 4.090000000000000000e+02 4.100000000000000000e+02 4.110000000000000000e+02 4.120000000000000000e+02 4.130000000000000000e+02 4.140000000000000000e+02 4.150000000000000000e+02 4.160000000000000000e+02 4.170000000000000000e+02 4.180000000000000000e+02 4.190000000000000000e+02 4.200000000000000000e+02 4.210000000000000000e+02 4.220000000000000000e+02 4.230000000000000000e+02 4.240000000000000000e+02 4.250000000000000000e+02 4.260000000000000000e+02 4.270000000000000000e+02 4.280000000000000000e+02 4.290000000000000000e+02 4.300000000000000000e+02 4.310000000000000000e+02 4.320000000000000000e+02 4.330000000000000000e+02 4.340000000000000000e+02 4.350000000000000000e+02 4.360000000000000000e+02 4.370000000000000000e+02 4.380000000000000000e+02 4.390000000000000000e+02 4.400000000000000000e+02 4.410000000000000000e+02 4.420000000000000000e+02 4.430000000000000000e+02 4.440000000000000000e+02 4.450000000000000000e+02 4.460000000000000000e+02 4.470000000000000000e+02 4.480000000000000000e+02 4.490000000000000000e+02 4.500000000000000000e+02 4.510000000000000000e+02 4.520000000000000000e+02 4.530000000000000000e+02 4.540000000000000000e+02 4.550000000000000000e+02 4.560000000000000000e+02 4.570000000000000000e+02 4.580000000000000000e+02 4.590000000000000000e+02 4.600000000000000000e+02 4.610000000000000000e+02 4.620000000000000000e+02 4.630000000000000000e+02 4.640000000000000000e+02 4.650000000000000000e+02 4.660000000000000000e+02 4.670000000000000000e+02 4.680000000000000000e+02 4.690000000000000000e+02 4.700000000000000000e+02 4.710000000000000000e+02 4.720000000000000000e+02 4.730000000000000000e+02 4.740000000000000000e+02 4.750000000000000000e+02 4.760000000000000000e+02 4.770000000000000000e+02 4.780000000000000000e+02 4.790000000000000000e+02 4.800000000000000000e+02 4.810000000000000000e+02 4.820000000000000000e+02 4.830000000000000000e+02 4.840000000000000000e+02 4.850000000000000000e+02 4.860000000000000000e+02 4.870000000000000000e+02 4.880000000000000000e+02 4.890000000000000000e+02 4.900000000000000000e+02 4.910000000000000000e+02 4.920000000000000000e+02 4.930000000000000000e+02 4.940000000000000000e+02 4.950000000000000000e+02 4.960000000000000000e+02 4.970000000000000000e+02 4.980000000000000000e+02 4.990000000000000000e+02 5.000000000000000000e+02 5.010000000000000000e+02 5.020000000000000000e+02 5.030000000000000000e+02 5.040000000000000000e+02 5.050000000000000000e+02 5.060000000000000000e+02 5.070000000000000000e+02 5.080000000000000000e+02 5.090000000000000000e+02 5.100000000000000000e+02 5.110000000000000000e+02 5.120000000000000000e+02 5.130000000000000000e+02 5.140000000000000000e+02 5.150000000000000000e+02 5.160000000000000000e+02 5.170000000000000000e+02 5.180000000000000000e+02 5.190000000000000000e+02 5.200000000000000000e+02 5.210000000000000000e+02 5.220000000000000000e+02 5.230000000000000000e+02 5.240000000000000000e+02 5.250000000000000000e+02 5.260000000000000000e+02 5.270000000000000000e+02 5.280000000000000000e+02 5.290000000000000000e+02 5.300000000000000000e+02 5.310000000000000000e+02 5.320000000000000000e+02 5.330000000000000000e+02 5.340000000000000000e+02 5.350000000000000000e+02 5.360000000000000000e+02 5.370000000000000000e+02 5.380000000000000000e+02 5.390000000000000000e+02 5.400000000000000000e+02 5.410000000000000000e+02 5.420000000000000000e+02 5.430000000000000000e+02 5.440000000000000000e+02 5.450000000000000000e+02 5.460000000000000000e+02 5.470000000000000000e+02 5.480000000000000000e+02 5.490000000000000000e+02 5.500000000000000000e+02 5.510000000000000000e+02 5.520000000000000000e+02 5.530000000000000000e+02 5.540000000000000000e+02 5.550000000000000000e+02 5.560000000000000000e+02 5.570000000000000000e+02 5.580000000000000000e+02 5.590000000000000000e+02 5.600000000000000000e+02 5.610000000000000000e+02 5.620000000000000000e+02 5.630000000000000000e+02 5.640000000000000000e+02 5.650000000000000000e+02 5.660000000000000000e+02 5.670000000000000000e+02 5.680000000000000000e+02 5.690000000000000000e+02 5.700000000000000000e+02 5.710000000000000000e+02 5.720000000000000000e+02 5.730000000000000000e+02 5.740000000000000000e+02 5.750000000000000000e+02 5.760000000000000000e+02 5.770000000000000000e+02 5.780000000000000000e+02 5.790000000000000000e+02 5.800000000000000000e+02 5.810000000000000000e+02 5.820000000000000000e+02 5.830000000000000000e+02 5.840000000000000000e+02 5.850000000000000000e+02 5.860000000000000000e+02 5.870000000000000000e+02 5.880000000000000000e+02 5.890000000000000000e+02 5.900000000000000000e+02 5.910000000000000000e+02 5.920000000000000000e+02 5.930000000000000000e+02 5.940000000000000000e+02 5.950000000000000000e+02 5.960000000000000000e+02 5.970000000000000000e+02 5.980000000000000000e+02 5.990000000000000000e+02 6.000000000000000000e+02 6.010000000000000000e+02 6.020000000000000000e+02 6.030000000000000000e+02 6.040000000000000000e+02 6.050000000000000000e+02 6.060000000000000000e+02 6.070000000000000000e+02 6.080000000000000000e+02 6.090000000000000000e+02 6.100000000000000000e+02 6.110000000000000000e+02 6.120000000000000000e+02 6.130000000000000000e+02 6.140000000000000000e+02 6.150000000000000000e+02 6.160000000000000000e+02 6.170000000000000000e+02 6.180000000000000000e+02 6.190000000000000000e+02 6.200000000000000000e+02 6.210000000000000000e+02 6.220000000000000000e+02 6.230000000000000000e+02 6.240000000000000000e+02 6.250000000000000000e+02 6.260000000000000000e+02 6.270000000000000000e+02 6.280000000000000000e+02 6.290000000000000000e+02 6.300000000000000000e+02 6.310000000000000000e+02 6.320000000000000000e+02 6.330000000000000000e+02 6.340000000000000000e+02 6.350000000000000000e+02 6.360000000000000000e+02 6.370000000000000000e+02 6.380000000000000000e+02 6.390000000000000000e+02 6.400000000000000000e+02 6.410000000000000000e+02 6.420000000000000000e+02 6.430000000000000000e+02 6.440000000000000000e+02 6.450000000000000000e+02 6.460000000000000000e+02 6.470000000000000000e+02 6.480000000000000000e+02 6.490000000000000000e+02 6.500000000000000000e+02 6.510000000000000000e+02 6.520000000000000000e+02 6.530000000000000000e+02 6.540000000000000000e+02 6.550000000000000000e+02 6.560000000000000000e+02 6.570000000000000000e+02 6.580000000000000000e+02 6.590000000000000000e+02 6.600000000000000000e+02 6.610000000000000000e+02 6.620000000000000000e+02 6.630000000000000000e+02 6.640000000000000000e+02 6.650000000000000000e+02 6.660000000000000000e+02 6.670000000000000000e+02 6.680000000000000000e+02 6.690000000000000000e+02 6.700000000000000000e+02 6.710000000000000000e+02 6.720000000000000000e+02 6.730000000000000000e+02 6.740000000000000000e+02 6.750000000000000000e+02 6.760000000000000000e+02 6.770000000000000000e+02 6.780000000000000000e+02 6.790000000000000000e+02 6.800000000000000000e+02 6.810000000000000000e+02 6.820000000000000000e+02 6.830000000000000000e+02 6.840000000000000000e+02 6.850000000000000000e+02 6.860000000000000000e+02 6.870000000000000000e+02 6.880000000000000000e+02 6.890000000000000000e+02 6.900000000000000000e+02 6.910000000000000000e+02 6.920000000000000000e+02 6.930000000000000000e+02 6.940000000000000000e+02 6.950000000000000000e+02 6.960000000000000000e+02 6.970000000000000000e+02 6.980000000000000000e+02 6.990000000000000000e+02 7.000000000000000000e+02 7.010000000000000000e+02 7.020000000000000000e+02 7.030000000000000000e+02 7.040000000000000000e+02 7.050000000000000000e+02 7.060000000000000000e+02 7.070000000000000000e+02 7.080000000000000000e+02 7.090000000000000000e+02 7.100000000000000000e+02 7.110000000000000000e+02 7.120000000000000000e+02 7.130000000000000000e+02 7.140000000000000000e+02 7.150000000000000000e+02 7.160000000000000000e+02 7.170000000000000000e+02 7.180000000000000000e+02 7.190000000000000000e+02 7.200000000000000000e+02 7.210000000000000000e+02 7.220000000000000000e+02 7.230000000000000000e+02 7.240000000000000000e+02 7.250000000000000000e+02 7.260000000000000000e+02 7.270000000000000000e+02 7.280000000000000000e+02 7.290000000000000000e+02 7.300000000000000000e+02 7.310000000000000000e+02 7.320000000000000000e+02 7.330000000000000000e+02 7.340000000000000000e+02 7.350000000000000000e+02 7.360000000000000000e+02 7.370000000000000000e+02 7.380000000000000000e+02 7.390000000000000000e+02 7.400000000000000000e+02 7.410000000000000000e+02 7.420000000000000000e+02 7.430000000000000000e+02 7.440000000000000000e+02 7.450000000000000000e+02 7.460000000000000000e+02 7.470000000000000000e+02 7.480000000000000000e+02 7.490000000000000000e+02 7.500000000000000000e+02 7.510000000000000000e+02 7.520000000000000000e+02 7.530000000000000000e+02 7.540000000000000000e+02 7.550000000000000000e+02 7.560000000000000000e+02 7.570000000000000000e+02 7.580000000000000000e+02 7.590000000000000000e+02 7.600000000000000000e+02 7.610000000000000000e+02 7.620000000000000000e+02 7.630000000000000000e+02 7.640000000000000000e+02 7.650000000000000000e+02 7.660000000000000000e+02 7.670000000000000000e+02 7.680000000000000000e+02 7.690000000000000000e+02 7.700000000000000000e+02 7.710000000000000000e+02 7.720000000000000000e+02 7.730000000000000000e+02 7.740000000000000000e+02 7.750000000000000000e+02 7.760000000000000000e+02 7.770000000000000000e+02 7.780000000000000000e+02 7.790000000000000000e+02 7.800000000000000000e+02 7.810000000000000000e+02 7.820000000000000000e+02 7.830000000000000000e+02 7.840000000000000000e+02 7.850000000000000000e+02 7.860000000000000000e+02 7.870000000000000000e+02 7.880000000000000000e+02 7.890000000000000000e+02 7.900000000000000000e+02 7.910000000000000000e+02 7.920000000000000000e+02 7.930000000000000000e+02 7.940000000000000000e+02 7.950000000000000000e+02 7.960000000000000000e+02 7.970000000000000000e+02 7.980000000000000000e+02 7.990000000000000000e+02 8.000000000000000000e+02 8.010000000000000000e+02 8.020000000000000000e+02 8.030000000000000000e+02 8.040000000000000000e+02 8.050000000000000000e+02 8.060000000000000000e+02 8.070000000000000000e+02 8.080000000000000000e+02 8.090000000000000000e+02 8.100000000000000000e+02 8.110000000000000000e+02 8.120000000000000000e+02 8.130000000000000000e+02 8.140000000000000000e+02 8.150000000000000000e+02 8.160000000000000000e+02 8.170000000000000000e+02 8.180000000000000000e+02 8.190000000000000000e+02 8.200000000000000000e+02 8.210000000000000000e+02 8.220000000000000000e+02 8.230000000000000000e+02 8.240000000000000000e+02 8.250000000000000000e+02 8.260000000000000000e+02 8.270000000000000000e+02 8.280000000000000000e+02 8.290000000000000000e+02 8.300000000000000000e+02 8.310000000000000000e+02 8.320000000000000000e+02 8.330000000000000000e+02 8.340000000000000000e+02 8.350000000000000000e+02 8.360000000000000000e+02 8.370000000000000000e+02 8.380000000000000000e+02 8.390000000000000000e+02 8.400000000000000000e+02 8.410000000000000000e+02 8.420000000000000000e+02 8.430000000000000000e+02 8.440000000000000000e+02 8.450000000000000000e+02 8.460000000000000000e+02 8.470000000000000000e+02 8.480000000000000000e+02 8.490000000000000000e+02 8.500000000000000000e+02 8.510000000000000000e+02 8.520000000000000000e+02 8.530000000000000000e+02 8.540000000000000000e+02 8.550000000000000000e+02 8.560000000000000000e+02 8.570000000000000000e+02 8.580000000000000000e+02 8.590000000000000000e+02 8.600000000000000000e+02 8.610000000000000000e+02 8.620000000000000000e+02 8.630000000000000000e+02 8.640000000000000000e+02 8.650000000000000000e+02 8.660000000000000000e+02 8.670000000000000000e+02 8.680000000000000000e+02 8.690000000000000000e+02 8.700000000000000000e+02 8.710000000000000000e+02 8.720000000000000000e+02 8.730000000000000000e+02 8.740000000000000000e+02 8.750000000000000000e+02 8.760000000000000000e+02 8.770000000000000000e+02 8.780000000000000000e+02 8.790000000000000000e+02 8.800000000000000000e+02 8.810000000000000000e+02 8.820000000000000000e+02 8.830000000000000000e+02 8.840000000000000000e+02 8.850000000000000000e+02 8.860000000000000000e+02 8.870000000000000000e+02 8.880000000000000000e+02 8.890000000000000000e+02 8.900000000000000000e+02 8.910000000000000000e+02 8.920000000000000000e+02 8.930000000000000000e+02 8.940000000000000000e+02 8.950000000000000000e+02 8.960000000000000000e+02 8.970000000000000000e+02 8.980000000000000000e+02 8.990000000000000000e+02 9.000000000000000000e+02 9.010000000000000000e+02 9.020000000000000000e+02 9.030000000000000000e+02 9.040000000000000000e+02 9.050000000000000000e+02 9.060000000000000000e+02 9.070000000000000000e+02 9.080000000000000000e+02 9.090000000000000000e+02 9.100000000000000000e+02 9.110000000000000000e+02 9.120000000000000000e+02 9.130000000000000000e+02 9.140000000000000000e+02 9.150000000000000000e+02 9.160000000000000000e+02 9.170000000000000000e+02 9.180000000000000000e+02 9.190000000000000000e+02 9.200000000000000000e+02 9.210000000000000000e+02 9.220000000000000000e+02 9.230000000000000000e+02 9.240000000000000000e+02 9.250000000000000000e+02 9.260000000000000000e+02 9.270000000000000000e+02 9.280000000000000000e+02 9.290000000000000000e+02 9.300000000000000000e+02 9.310000000000000000e+02 9.320000000000000000e+02 9.330000000000000000e+02 9.340000000000000000e+02 9.350000000000000000e+02 9.360000000000000000e+02 9.370000000000000000e+02 9.380000000000000000e+02 9.390000000000000000e+02 9.400000000000000000e+02 9.410000000000000000e+02 9.420000000000000000e+02 9.430000000000000000e+02 9.440000000000000000e+02 9.450000000000000000e+02 9.460000000000000000e+02 9.470000000000000000e+02 9.480000000000000000e+02 9.490000000000000000e+02 9.500000000000000000e+02 9.510000000000000000e+02 9.520000000000000000e+02 9.530000000000000000e+02 9.540000000000000000e+02 9.550000000000000000e+02 9.560000000000000000e+02 9.570000000000000000e+02 9.580000000000000000e+02 9.590000000000000000e+02 9.600000000000000000e+02 9.610000000000000000e+02 9.620000000000000000e+02 9.630000000000000000e+02 9.640000000000000000e+02 9.650000000000000000e+02 9.660000000000000000e+02 9.670000000000000000e+02 9.680000000000000000e+02 9.690000000000000000e+02 9.700000000000000000e+02 9.710000000000000000e+02 9.720000000000000000e+02 9.730000000000000000e+02 9.740000000000000000e+02 9.750000000000000000e+02 9.760000000000000000e+02 9.770000000000000000e+02 9.780000000000000000e+02 9.790000000000000000e+02 9.800000000000000000e+02 9.810000000000000000e+02 9.820000000000000000e+02 9.830000000000000000e+02 9.840000000000000000e+02 9.850000000000000000e+02 9.860000000000000000e+02 9.870000000000000000e+02 9.880000000000000000e+02 9.890000000000000000e+02 9.900000000000000000e+02 9.910000000000000000e+02 9.920000000000000000e+02 9.930000000000000000e+02 9.940000000000000000e+02 9.950000000000000000e+02 9.960000000000000000e+02 9.970000000000000000e+02 9.980000000000000000e+02 9.990000000000000000e+02 1.000000000000000000e+03
1.000000000000000021e-02 1.000000000000000021e-02 1.000000000000000021e-02 1.000000000000000021e-02 1.000000000000000021e-02 1.000000000000000021e-02 1.000000000000000021e-02 1.000000000000000021e-02 1.000000000000000021e-02 1.000000000000000021e-02 1.000000000000000021e-02 1.000000000000000021e-02 1.000000000000000021e-02 1.000000000000000021e-02 1.000000000000000021e-02 1.000000000000000021e-02 1.000000000000000021e-02 1.000000000000000021e-02 1.000000000000000021e-02 1.000000000000000021e-02 1.000000000000000021e-02 1.000000000000000021e-02 1.000000000000000021e-02 1.000000000000000021e-02 1.000000000000000021e-02 1.000000000000000021e-02 1.000000000000000021e-02 1.000000000000000021e-02 1.000000000000000021e-02 1.000000000000000021e-02 1.000000000000000021e-02 1.000000000000000021e-02 1.000000000000000021e-02 1.000000000000000021e-02 1.000000000000000021e-02 1.000000000000000021e-02 1.000000000000000021e-02 1.000000000000000021e-02 1.000000000000000021e-02 1.000000000000000021e-02 1.000000000000000021e-02 1.000000000000000021e-02 1.000000000000000021e-02 1.000000000000000021e-02 1.000000000000000021e-02 1.000000000000000021e-02 1.000000000000000021e-02 1.000000000000000021e-02 1.000000000000000021e-02 1.000000000000000021e-02 1.000000000000000021e-02 1.000000000000000021e-02 1.000000000000000021e-02 1.000000000000000021e-02 1.000000000000000021e-02 1.000000000000000021e-02 1.000000000000000021e-02 1.000000000000000021e-02 1.000000000000000021e-02 1.000000000000000021e-02 1.000000000000000021e-02 1.000000000000000021e-02 1.000000000000000021e-02 1.000000000000000021e-02 1.000000000000000021e-02 1.000000000000000021e-02 1.000000000000000021e-02 1.000000000000000021e-02 1.000000000000000021e-02 1.000000000000000021e-02 1.000000000000000021e-02 1.000000000000000021e-02 1.000000000000000021e-02 1.000000000000000021e-02 1.000000000000000021e-02 1.000000000000000021e-02 1.000000000000000021e-02 1.000000000000000021e-02 1.000000000000000021e-02 1.000000000000000021e-02 1.000000000000000021e-02 1.000000000000000021e-02 1.000000000000000021e-02 1.000000000000000021e-02 1.000000000000000021e-02 1.000000000000000021e-02 1.000000000000000021e-02 1.000000000000000021e-02 1.000000000000000021e-02 1.000000000000000021e-02 1.000000000000000021e-02 1.000000000000000021e-02 1.000000000000000021e-02 1.000000000000000021e-02 1.000000000000000021e-02 1.000000000000000021e-02 1.000000000000000021e-02 1.000000000000000021e-02 1.000000000000000021e-02 1.000000000000000021e-02 1.000000000000000021e-02 1.000000000000000021e-02 1.000000000000000021e-02 1.000000000000000021e-02 1.000000000000000021e-02 1.000000000000000021e-02 1.000000000000000021e-02 1.000000000000000021e-02 1.000000000000000021e-02 1.000000000000000021e-02 1.000000000000000021e-02 1.000000000000000021e-02 1.000000000000000021e-02 1.000000000000000021e-02 1.000000000000000021e-02 1.000000000000000021e-02 1.000000000000000021e-02 1.000000000000000021e-02 1.000000000000000021e-02 1.000000000000000021e-02 1.000000000000000021e-02 1.000000000000000021e-02 1.000000000000000021e-02 1.000000000000000021e-02 1.000000000000000021e-02 1.000000000000000021e-02 1.000000000000000021e-02 1.000000000000000021e-02 1.000000000000000021e-02 1.000000000000000021e-02 1.000000000000000021e-02 1.000000000000000021e-02 1.000000000000000021e-02 1.000000000000000021e-02 1.000000000000000021e-02 1.000000000000000021e-02 1.000000000000000021e-02 1.000000000000000021e-02 1.000000000000000021e-02 1.000000000000000021e-02 1.000000000000000021e-02 1.000000000000000021e-02 1.000000000000000021e-02 1.000000000000000021e-02 1.000000000000000021e-02 1.000000000000000021e-02 1.000000000000000021e-02 1.000000000000000021e-02 1.000000000000000021e-02 1.000000000000000021e-02 1.000000000000000021e-02 1.000000000000000021e-02 1.000000000000000021e-02 1.000000000000000021e-02 1.000000000000000021e-02 1.000000000000000021e-02 1.000000000000000021e-02 1.000000000000000021e-02 1.000000000000000021e-02 1.000000000000000021e-02 1.000000000000000021e-02 1.000000000000000021e-02 1.000000000000000021e-02 1.000000000000000021e-02 1.000000000000000021e-02 1.000000000000000021e-02 1.000000000000000021e-02 1.000000000000000021e-02 1.000000000000000021e-02 1.000000000000000021e-02 1.000000000000000021e-02 1.000000000000000021e-02 1.000000000000000021e-02 1.000000000000000021e-02 1.000000000000000021e-02 1.000000000000000021e-02 1.000000000000000021e-02 1.000000000000000021e-02 1.000000000000000021e-02 1.000000000000000021e-02 1.000000000000000021e-02 1.000000000000000021e-02 1.000000000000000021e-02 1.000000000000000021e-02 1.000000000000000021e-02 1.000000000000000021e-02 1.000000000000000021e-02 1.000000000000000021e-02 1.000000000000000021e-02 1.000000000000000021e-02 1.000000000000000021e-02 1.000000000000000021e-02 1.000000000000000021e-02 1.000000000000000021e-02 1.000000000000000021e-02 1.000000000000000021e-02 1.000000000000000021e-02 1.000000000000000021e-02 1.000000000000000021e-02 1.000000000000000021e-02 1.000000000000000021e-02 1.000000000000000021e-02 1.000000000000000021e-02 1.000000000000000021e-02 1.000000000000000021e-02 1.000000000000000021e-02 1.000000000000000021e-02 1.000000000000000021e-02 1.000000000000000021e-02 1.000000000000000021e-02 1.000000000000000021e-02 1.000000000000000021e-02 1.000000000000000021e-02 1.000000000000000021e-02 1.000000000000000021e-02 1.000000000000000021e-02 1.000000000000000021e-02 1.000000000000000021e-02 1.000000000000000021e-02 1.000000000000000021e-02 1.000000000000000021e-02 1.000000000000000021e-02 1.000000000000000021e-02 1.000000000000000021e-02 1.000000000000000021e-02 1.000000000000000021e-02 1.000000000000000021e-02 1.000000000000000021e-02 1.000000000000000021e-02 1.000000000000000021e-02 1.000000000000000021e-02 1.000000000000000021e-02 1.000000000000000021e-02 1.000000000000000021e-02 1.000000000000000021e-02 1.000000000000000021e-02 1.000000000000000021e-02 1.000000000000000021e-02 1.000000000000000021e-02 1.000000000000000021e-02 1.000000000000000021e-02 1.000000000000000021e-02 1.000000000000000021e-02 1.000000000000000021e-02 1.000000000000000021e-02 1.000000000000000021e-02 1.000000000000000021e-02 1.000000000000000021e-02 1.000000000000000021e-02 1.000000000000000021e-02 1.000000000000000021e-02 1.000000000000000021e-02 1.000000000000000021e-02 1.000000000000000021e-02 1.000000000000000021e-02 1.000000000000000021e-02 1.000000000000000021e-02 1.000000000000000021e-02 1.000000000000000021e-02 1.000000000000000021e-02 1.000000000000000021e-02 1.000000000000000021e-02 1.000000000000000021e-02 1.000000000000000021e-02 1.000000000000000021e-02 1.000000000000000021e-02 1.000000000000000021e-02 1.000000000000000021e-02 1.000000000000000021e-02 1.000000000000000021e-02 1.000000000000000021e-02 1.000000000000000021e-02 1.000000000000000021e-02 1.000000000000000021e-02 1.000000000000000021e-02 1.000000000000000021e-02 1.000000000000000021e-02 1.000000000000000021e-02 1.000000000000000021e-02 1.000000000000000021e-02 1.000000000000000021e-02 1.000000000000000021e-02 1.000000000000000021e-02 1.000000000000000021e-02 1.000000000000000021e-02 1.000000000000000021e-02 1.000000000000000021e-02 1.000000000000000021e-02 1.000000000000000021e-02 1.000000000000000021e-02 1.000000000000000021e-02 1.000000000000000021e-02 1.000000000000000021e-02 1.000000000000000021e-02 1.000000000000000021e-02 1.000000000000000021e-02 1.000000000000000021e-02 1.000000000000000021e-02 1.000000000000000021e-02 1.000000000000000021e-02 1.000000000000000021e-02 1.000000000000000021e-02 1.000000000000000021e-02 1.000000000000000021e-02 1.000000000000000021e-02 1.000000000000000021e-02 1.000000000000000021e-02 1.000000000000000021e-02 1.000000000000000021e-02 1.000000000000000021e-02 1.000000000000000021e-02 1.000000000000000021e-02 1.000000000000000021e-02 1.000000000000000021e-02 1.000000000000000021e-02 1.000000000000000021e-02 1.000000000000000021e-02 1.000000000000000021e-02 1.000000000000000021e-02 1.000000000000000021e-02 1.000000000000000021e-02 1.000000000000000021e-02 1.000000000000000021e-02 1.000000000000000021e-02 1.000000000000000021e-02 1.000000000000000021e-02 1.000000000000000021e-02 1.000000000000000021e-02 1.000000000000000021e-02 1.000000000000000021e-02 1.000000000000000021e-02 1.000000000000000021e-02 1.000000000000000021e-02 1.000000000000000021e-02 1.000000000000000021e-02 1.000000000000000021e-02 1.000000000000000021e-02 1.000000000000000021e-02 1.000000000000000021e-02 1.000000000000000021e-02 1.000000000000000021e-02 1.000000000000000021e-02 1.000000000000000021e-02 1.000000000000000021e-02 1.000000000000000021e-02 1.000000000000000021e-02 1.000000000000000021e-02 1.000000000000000021e-02 1.000000000000000021e-02 1.000000000000000021e-02 1.000000000000000021e-02 1.000000000000000021e-02 1.000000000000000021e-02 1.000000000000000021e-02 1.000000000000000021e-02 1.000000000000000021e-02 1.000000000000000021e-02 1.000000000000000021e-02 1.000000000000000021e-02 1.000000000000000021e-02 1.000000000000000021e-02 1.000000000000000021e-02 1.000000000000000021e-02 1.000000000000000021e-02 1.000000000000000021e-02 1.000000000000000021e-02 1.000000000000000021e-02 1.000000000000000021e-02 1.000000000000000021e-02 1.000000000000000021e-02 1.000000000000000021e-02 1.000000000000000021e-02 1.000000000000000021e-02 1.000000000000000021e-02 1.000000000000000021e-02 1.000000000000000021e-02 1.000000000000000021e-02 1.000000000000000021e-02 1.000000000000000021e-02 1.000000000000000021e-02 1.000000000000000021e-02 1.000000000000000021e-02 1.000000000000000021e-02 1.000000000000000021e-02 1.000000000000000021e-02 1.000000000000000021e-02 1.000000000000000021e-02 1.000000000000000021e-02 1.000000000000000021e-02 1.000000000000000021e-02 1.000000000000000021e-02 1.000000000000000021e-02 1.000000000000000021e-02 1.000000000000000021e-02 1.000000000000000021e-02 1.000000000000000021e-02 1.000000000000000021e-02 1.000000000000000021e-02 1.000000000000000021e-02 1.000000000000000021e-02 1.000000000000000021e-02 1.000000000000000021e-02 1.000000000000000021e-02 1.000000000000000021e-02 1.000000000000000021e-02 1.000000000000000021e-02 1.000000000000000021e-02 1.000000000000000021e-02 1.000000000000000021e-02 1.000000000000000021e-02 1.000000000000000021e-02 1.000000000000000021e-02 1.000000000000000021e-02 1.000000000000000021e-02 1.000000000000000021e-02 1.000000000000000021e-02 1.000000000000000021e-02 1.000000000000000021e-02 1.000000000000000021e-02 1.000000000000000021e-02 1.000000000000000021e-02 1.000000000000000021e-02 1.000000000000000021e-02 1.000000000000000021e-02 1.000000000000000021e-02 1.000000000000000021e-02 1.000000000000000021e-02 1.000000000000000021e-02 1.000000000000000021e-02 1.000000000000000021e-02 1.000000000000000021e-02 1.000000000000000021e-02 1.000000000000000021e-02 1.000000000000000021e-02 1.000000000000000021e-02 1.000000000000000021e-02 1.000000000000000021e-02 1.000000000000000021e-02 1.000000000000000021e-02 1.000000000000000021e-02 1.000000000000000021e-02 1.000000000000000021e-02 1.000000000000000021e-02 1.000000000000000021e-02 1.000000000000000021e-02 1.000000000000000021e-02 1.000000000000000021e-02 1.000000000000000021e-02 1.000000000000000021e-02 1.000000000000000021e-02 1.000000000000000021e-02 1.000000000000000021e-02 1.000000000000000021e-02 1.000000000000000021e-02 1.000000000000000021e-02 1.000000000000000021e-02 1.000000000000000021e-02 1.000000000000000021e-02 1.000000000000000021e-02 1.000000000000000021e-02 1.000000000000000021e-02 1.000000000000000021e-02 1.000000000000000021e-02 1.000000000000000021e-02 1.000000000000000021e-02 1.000000000000000021e-02 1.000000000000000021e-02 1.000000000000000021e-02 1.000000000000000021e-02 1.000000000000000021e-02 1.000000000000000021e-02 1.000000000000000021e-02 1.000000000000000021e-02 1.000000000000000021e-02 1.000000000000000021e-02 1.000000000000000021e-02 1.000000000000000021e-02 1.000000000000000021e-02 1.000000000000000021e-02 1.000000000000000021e-02 1.000000000000000021e-02 1.000000000000000021e-02 1.000000000000000021e-02 1.000000000000000021e-02 1.000000000000000021e-02 1.000000000000000021e-02 1.000000000000000021e-02 1.000000000000000021e-02 1.000000000000000021e-02 1.000000000000000021e-02 1.000000000000000021e-02 1.000000000000000021e-02 1.000000000000000021e-02 1.000000000000000021e-02 1.000000000000000021e-02 1.000000000000000021e-02 1.000000000000000021e-02 1.000000000000000021e-02 1.000000000000000021e-02 1.000000000000000021e-02 1.000000000000000021e-02 1.000000000000000021e-02 1.000000000000000021e-02 1.000000000000000021e-02 1.000000000000000021e-02 1.000000000000000021e-02 1.000000000000000021e-02 1.000000000000000021e-02 1.000000000000000021e-02 1.000000000000000021e-02 1.000000000000000021e-02 1.000000000000000021e-02 1.000000000000000021e-02 1.000000000000000021e-02 1.000000000000000021e-02 1.000000000000000021e-02 1.000000000000000021e-02 1.000000000000000021e-02 1.000000000000000021e-02 1.000000000000000021e-02 1.000000000000000021e-02 1.000000000000000021e-02 1.000000000000000021e-02 1.000000000000000021e-02 1.000000000000000021e-02 1.000000000000000021e-02 1.000000000000000021e-02 1.000000000000000021e-02 1.000000000000000021e-02 1.000000000000000021e-02 1.000000000000000021e-02 1.000000000000000021e-02 1.000000000000000021e-02 1.000000000000000021e-02 1.000000000000000021e-02 1.000000000000000021e-02 1.000000000000000021e-02 1.000000000000000021e-02 1.000000000000000021e-02 1.000000000000000021e-02 1.000000000000000021e-02 1.000000000000000021e-02 1.000000000000000021e-02 1.000000000000000021e-02 1.000000000000000021e-02 1.000000000000000021e-02 1.000000000000000021e-02 1.000000000000000021e-02 1.000000000000000021e-02 1.000000000000000021e-02 1.000000000000000021e-02 1.000000000000000021e-02 1.000000000000000021e-02 1.000000000000000021e-02 1.000000000000000021e-02 1.000000000000000021e-02 1.000000000000000021e-02 1.000000000000000021e-02 1.000000000000000021e-02 1.000000000000000021e-02 1.000000000000000021e-02 1.000000000000000021e-02 1.000000000000000021e-02 1.000000000000000021e-02 1.000000000000000021e-02 1.000000000000000021e-02 1.000000000000000021e-02 1.000000000000000021e-02 1.000000000000000021e-02 1.000000000000000021e-02 1.000000000000000021e-02 1.000000000000000021e-02 1.000000000000000021e-02 1.000000000000000021e-02 1.000000000000000021e-02 1.000000000000000021e-02 1.000000000000000021e-02 1.000000000000000021e-02 1.000000000000000021e-02 1.000000000000000021e-02 1.000000000000000021e-02 1.000000000000000021e-02 1.000000000000000021e-02 1.000000000000000021e-02 1.000000000000000021e-02 1.000000000000000021e-02 1.000000000000000021e-02 1.000000000000000021e-02 1.000000000000000021e-02 1.000000000000000021e-02 1.000000000000000021e-02 1.000000000000000021e-02 1.000000000000000021e-02 1.000000000000000021e-02 1.000000000000000021e-02 1.000000000000000021e-02 1.000000000000000021e-02 1.000000000000000021e-02 1.000000000000000021e-02 1.000000000000000021e-02 1.000000000000000021e-02 1.000000000000000021e-02 1.000000000000000021e-02 1.000000000000000021e-02 1.000000000000000021e-02 1.000000000000000021e-02 1.000000000000000021e-02 1.000000000000000021e-02 1.000000000000000021e-02 1.000000000000000021e-02 1.000000000000000021e-02 1.000000000000000021e-02 1.000000000000000021e-02 1.000000000000000021e-02 1.000000000000000021e-02 1.000000000000000021e-02 1.000000000000000021e-02 1.000000000000000021e-02 1.000000000000000021e-02 1.000000000000000021e-02 1.000000000000000021e-02 1.000000000000000021e-02 1.000000000000000021e-02 1.000000000000000021e-02 1.000000000000000021e-02 1.000000000000000021e-02 1.000000000000000021e-02 1.000000000000000021e-02 1.000000000000000021e-02 1.000000000000000021e-02 1.000000000000000021e-02 1.000000000000000021e-02 1.000000000000000021e-02 1.000000000000000021e-02 1.000000000000000021e-02 1.000000000000000021e-02 1.000000000000000021e-02 1.000000000000000021e-02 1.000000000000000021e-02 1.000000000000000021e-02 1.000000000000000021e-02 1.000000000000000021e-02 1.000000000000000021e-02 1.000000000000000021e-02 1.000000000000000021e-02 1.000000000000000021e-02 1.000000000000000021e-02 1.000000000000000021e-02 1.000000000000000021e-02 1.000000000000000021e-02 1.000000000000000021e-02 1.000000000000000021e-02 1.000000000000000021e-02 1.000000000000000021e-02 1.000000000000000021e-02 1.000000000000000021e-02 1.000000000000000021e-02 1.000000000000000021e-02 1.000000000000000021e-02 1.000000000000000021e-02 1.000000000000000021e-02 1.000000000000000021e-02 1.000000000000000021e-02 1.000000000000000021e-02 1.000000000000000021e-02 1.000000000000000021e-02 1.000000000000000021e-02 1.000000000000000021e-02 1.000000000000000021e-02 1.000000000000000021e-02 1.000000000000000021e-02 1.000000000000000021e-02 1.000000000000000021e-02 1.000000000000000021e-02 1.000000000000000021e-02 1.000000000000000021e-02 1.000000000000000021e-02 1.000000000000000021e-02 1.000000000000000021e-02 1.000000000000000021e-02 1.000000000000000021e-02 1.000000000000000021e-02 1.000000000000000021e-02 1.000000000000000021e-02 1.000000000000000021e-02 1.000000000000000021e-02 1.000000000000000021e-02 1.000000000000000021e-02 1.000000000000000021e-02 1.000000000000000021e-02 1.000000000000000021e-02 1.000000000000000021e-02 1.000000000000000021e-02 1.000000000000000021e-02 1.000000000000000021e-02 1.000000000000000021e-02 1.000000000000000021e-02 1.000000000000000021e-02 1.000000000000000021e-02 1.000000000000000021e-02 1.000000000000000021e-02 1.000000000000000021e-02 1.000000000000000021e-02 1.000000000000000021e-02 1.000000000000000021e-02 1.000000000000000021e-02 1.000000000000000021e-02 1.000000000000000021e-02 1.000000000000000021e-02 1.000000000000000021e-02 1.000000000000000021e-02 1.000000000000000021e-02 1.000000000000000021e-02 1.000000000000000021e-02 1.000000000000000021e-02 1.000000000000000021e-02 1.000000000000000021e-02 1.000000000000000021e-02 1.000000000000000021e-02 1.000000000000000021e-02 1.000000000000000021e-02 1.000000000000000021e-02 1.000000000000000021e-02 1.000000000000000021e-02 1.000000000000000021e-02 1.000000000000000021e-02 1.000000000000000021e-02 1.000000000000000021e-02 1.000000000000000021e-02 1.000000000000000021e-02 1.000000000000000021e-02 1.000000000000000021e-02 1.000000000000000021e-02 1.000000000000000021e-02 1.000000000000000021e-02 1.000000000000000021e-02 1.000000000000000021e-02 1.000000000000000021e-02 1.000000000000000021e-02 1.000000000000000021e-02 1.000000000000000021e-02 1.000000000000000021e-02 1.000000000000000021e-02 1.000000000000000021e-02 1.000000000000000021e-02 1.000000000000000021e-02 1.000000000000000021e-02 1.000000000000000021e-02 1.000000000000000021e-02 1.000000000000000021e-02 1.000000000000000021e-02 1.000000000000000021e-02 1.000000000000000021e-02 1.000000000000000021e-02 1.000000000000000021e-02 1.000000000000000021e-02 1.000000000000000021e-02 1.000000000000000021e-02 1.000000000000000021e-02 1.000000000000000021e-02 1.000000000000000021e-02 1.000000000000000021e-02 1.000000000000000021e-02 1.000000000000000021e-02 1.000000000000000021e-02 1.000000000000000021e-02 1.000000000000000021e-02 1.000000000000000021e-02 1.000000000000000021e-02 1.000000000000000021e-02 1.000000000000000021e-02 1.000000000000000021e-02 1.000000000000000021e-02 1.000000000000000021e-02 1.000000000000000021e-02 1.000000000000000021e-02 1.000000000000000021e-02 1.000000000000000021e-02 1.000000000000000021e-02 1.000000000000000021e-02 1.000000000000000021e-02 1.000000000000000021e-02 1.000000000000000021e-02 1.000000000000000021e-02 1.000000000000000021e-02 1.000000000000000021e-02 1.000000000000000021e-02 1.000000000000000021e-02 1.000000000000000021e-02 1.000000000000000021e-02 1.000000000000000021e-02 1.000000000000000021e-02 1.000000000000000021e-02 1.000000000000000021e-02 1.000000000000000021e-02 1.000000000000000021e-02 1.000000000000000021e-02 1.000000000000000021e-02 1.000000000000000021e-02 1.000000000000000021e-02 1.000000000000000021e-02 1.000000000000000021e-02 1.000000000000000021e-02 1.000000000000000021e-02 1.000000000000000021e-02 1.000000000000000021e-02 1.000000000000000021e-02 1.000000000000000021e-02 1.000000000000000021e-02 1.000000000000000021e-02 1.000000000000000021e-02 1.000000000000000021e-02 1.000000000000000021e-02 1.000000000000000021e-02 1.000000000000000021e-02 1.000000000000000021e-02 1.000000000000000021e-02 1.000000000000000021e-02 1.000000000000000021e-02 1.000000000000000021e-02 1.000000000000000021e-02 1.000000000000000021e-02 1.000000000000000021e-02 1.000000000000000021e-02 1.000000000000000021e-02 1.000000000000000021e-02 1.000000000000000021e-02 1.000000000000000021e-02 1.000000000000000021e-02 1.000000000000000021e-02 1.000000000000000021e-02 1.000000000000000021e-02 1.000000000000000021e-02 1.000000000000000021e-02 1.000000000000000021e-02 1.000000000000000021e-02 1.000000000000000021e-02 1.000000000000000021e-02 1.000000000000000021e-02 1.000000000000000021e-02 1.000000000000000021e-02 1.000000000000000021e-02 1.000000000000000021e-02 1.000000000000000021e-02 1.000000000000000021e-02 1.000000000000000021e-02 1.000000000000000021e-02 1.000000000000000021e-02 1.000000000000000021e-02 1.000000000000000021e-02 1.000000000000000021e-02 1.000000000000000021e-02 1.000000000000000021e-02 1.000000000000000021e-02 1.000000000000000021e-02 1.000000000000000021e-02 1.000000000000000021e-02 1.000000000000000021e-02 1.000000000000000021e-02 1.000000000000000021e-02 1.000000000000000021e-02 1.000000000000000021e-02 1.000000000000000021e-02 1.000000000000000021e-02 1.000000000000000021e-02 1.000000000000000021e-02 1.000000000000000021e-02 1.000000000000000021e-02 1.000000000000000021e-02 1.000000000000000021e-02 1.000000000000000021e-02 1.000000000000000021e-02 1.000000000000000021e-02 1.000000000000000021e-02 1.000000000000000021e-02 1.000000000000000021e-02 1.000000000000000021e-02 1.000000000000000021e-02 1.000000000000000021e-02 1.000000000000000021e-02 1.000000000000000021e-02 1.000000000000000021e-02 1.000000000000000021e-02 1.000000000000000021e-02 1.000000000000000021e-02 1.000000000000000021e-02 1.000000000000000021e-02 1.000000000000000021e-02 1.000000000000000021e-02 1.000000000000000021e-02 1.000000000000000021e-02 1.000000000000000021e-02 1.000000000000000021e-02 1.000000000000000021e-02 1.000000000000000021e-02 1.000000000000000021e-02 1.000000000000000021e-02 1.000000000000000021e-02 1.000000000000000021e-02 1.000000000000000021e-02 1.000000000000000021e-02 1.000000000000000021e-02 1.000000000000000021e-02 1.000000000000000021e-02 1.000000000000000021e-02 1.000000000000000021e-02 1.000000000000000021e-02 1.000000000000000021e-02 1.000000000000000021e-02 1.000000000000000021e-02 1.000000000000000021e-02 1.000000000000000021e-02 1.000000000000000021e-02 1.000000000000000021e-02 1.000000000000000021e-02 1.000000000000000021e-02 1.000000000000000021e-02 1.000000000000000021e-02 1.000000000000000021e-02 1.000000000000000021e-02 1.000000000000000021e-02 1.000000000000000021e-02 1.000000000000000021e-02 1.000000000000000021e-02 1.000000000000000021e-02 1.000000000000000021e-02 1.000000000000000021e-02 1.000000000000000021e-02 1.000000000000000021e-02 1.000000000000000021e-02 1.000000000000000021e-02 1.000000000000000021e-02 1.000000000000000021e-02 1.000000000000000021e-02 1.000000000000000021e-02 1.000000000000000021e-02 1.000000000000000021e-02 1.000000000000000021e-02 1.000000000000000021e-02 1.000000000000000021e-02 1.000000000000000021e-02 1.000000000000000021e-02 1.000000000000000021e-02 1.000000000000000021e-02 1.000000000000000021e-02 1.000000000000000021e-02 1.000000000000000021e-02 1.000000000000000021e-02 1.000000000000000021e-02 1.000000000000000021e-02 1.000000000000000021e-02 1.000000000000000021e-02 1.000000000000000021e-02 1.000000000000000021e-02 1.000000000000000021e-02 1.000000000000000021e-02 1.000000000000000021e-02 1.000000000000000021e-02 1.000000000000000021e-02 1.000000000000000021e-02 1.000000000000000021e-02 1.000000000000000021e-02 1.000000000000000021e-02 1.000000000000000021e-02 1.000000000000000021e-02 1.000000000000000021e-02 1.000000000000000021e-02 1.000000000000000021e-02 1.000000000000000021e-02 1.000000000000000021e-02 1.000000000000000021e-02 1.000000000000000021e-02 1.000000000000000021e-02 1.000000000000000021e-02 1.000000000000000021e-02 1.000000000000000021e-02 1.000000000000000021e-02 1.000000000000000021e-02 1.000000000000000021e-02 1.000000000000000021e-02 1.000000000000000021e-02 1.000000000000000021e-02 1.000000000000000021e-02 1.000000000000000021e-02 1.000000000000000021e-02 1.000000000000000021e-02 1.000000000000000021e-02 1.000000000000000021e-02 1.000000000000000021e-02 1.000000000000000021e-02 1.000000000000000021e-02 1.000000000000000021e-02 1.000000000000000021e-02 1.000000000000000021e-02 1.000000000000000021e-02 1.000000000000000021e-02 1.000000000000000021e-02 1.000000000000000021e-02 1.000000000000000021e-02 1.000000000000000021e-02
-1.140710383712661695e+02 1.733120299439426617e+02 4.023491156417730252e+01 -9.047479071420500674e+00 -8.983282943600181625e+01 -1.369015533653496419e+01 -2.124881039212187943e+02 6.902549835347400187e-01 -8.662291193167457948e+01 -1.428594288124825340e+01 -2.026152699491442277e+01 6.643742856241779293e+00 -1.820001890237180175e+00 1.715169792004822398e+02 8.649312958270650142e+01 -3.961705879710120826e+01 -5.393399859462410006e+01 8.097748017131969789e+01 3.354531264304189619e+01 -2.592462195308128159e+01 -8.061297019214083548e+01 -7.546451308241516642e+01 -1.412204549693371192e+01 2.957637701475888292e+01 -1.992613062039396823e+02 -1.009434757432533871e+02 -2.666439335100663044e+01 2.061316947639475643e+02 7.233754586389348162e+01 7.840375117358172474e+01 8.207325040728608201e+01 1.214193180359250723e+00 -8.093909255343281473e+01 2.120059178405402633e+02 -2.502484457934939996e+02 6.010095638004234786e+01 -1.228562524587297133e+02 -3.544576235518964324e+01 4.120279275285959386e+00 1.295294547845632280e+02 -1.256499356132612775e+02 -1.397125974731272002e+01 7.910030806966196337e+01 1.774519588781917605e+02 7.296407173335596497e+01 -6.997185254252428876e+01 4.217669289109889519e+01 -2.900275655191810742e+01 -6.753722058033810072e+01 1.600875115686453682e+02 -7.218923864125059708e+01 -5.329174197488772791e+01 -1.423905351962906423e+02 5.837318275302007642e+00 -5.167923170867087634e+01 3.952025098830529970e+01 -9.070532776541244857e+01 -5.118762730402254846e+01 -1.036734020723824301e+02 -1.589106657346013947e+02 1.991638303375934527e+01 4.634049212690761976e+01 -1.258719049030536326e+02 1.315106335160457540e+01 -8.109257999132954353e+01 5.021552648156188070e+01 1.703210525861986753e+02 -1.474825865084994803e+02 -4.429385067767918116e+01 7.339583079053933368e+00 2.987948416385114214e+00 4.332445505854477119e+01 8.586718550256171056e+01 9.486973730440469987e-01 -8.975265323352212832e+00 -7.161285893728494045e+01 8.002993034950382878e+01 -3.353523523001067019e+01 2.687502305277915937e+01 1.063425675368455643e+02 9.022737653077231812e+01 -4.370468836741567742e+01 5.913354257067630471e+01 1.507563555516904330e+02 1.188143818290358524e+02 -4.132202397302050301e+00 1.781440077322239688e+02 -1.140167773733374048e+02 4.315323031771201912e+00 -4.288143280937536161e+01 2.115057862273925764e+02 -2.170072801483789249e+01 2.934324219053152216e+00 -7.851120895688502799e+01 -7.287769536236158530e+00 -6.530247548919766132e+01 6.928646841456921379e+01 -9.667255845996152175e+01 7.007790862149765587e+01 -4.880876632904934809e+01 -5.089414329919639357e+01 -9.371932441717271445e+01 5.430803861770475294e+01 -5.597259790673075486e+01 -1.527030786586541637e+02 -8.127406341303570514e+01 -1.069808795965405466e+02 -1.607781817858980276e+02 1.390193360423963895e+02 -2.814742903067992330e+01 3.274441437482906281e+01 9.169189529039608999e+01 -1.064422790969845352e+02 5.826915538355277135e+01 -4.430258310764554608e+01 -7.085347379794359313e+01 -9.208939992067260505e+01 2.079019753674899107e+02 -5.802759528472381589e+01 -5.059242359347553730e+01 -4.830632574428943116e+01 8.222278848878529800e+01 -4.233475749555035605e+01 1.411225913699295802e+02 -5.096884083029748780e+01 5.631366850784552014e+01 4.644344982906961405e+00 -8.300475773683281489e+01 7.039393073459818595e+01 2.836464300136232737e+02 -9.408026579225303010e+01 4.858100858887884499e+01 -7.794029358304236155e+01 4.625789689453637976e+01 1.341599802209110237e+02 -5.252128926977825785e+01 1.490695176156489765e+01 -2.752507005762689829e+01 -1.042470140953634967e+02 -1.766021040771445172e+01 4.356934520686999157e+00 -8.004946884912527594e+00 -1.530273139947938432e+01 1.209620825071930881e+02 1.333129589533869819e+02 1.907158608342809316e+02 -3.112794240511362318e+02 3.909634809014467294e+01 -1.610326979093738231e+01 -6.379774324117089179e+01 1.845072880757371081e+02 7.800702854968183431e+01 -2.622579626629875538e+00 -1.186778832678907065e+02 -1.117043144960522483e+01 1.024299023494804146e+02 -1.375700511942701780e+02 -1.726101263650573685e+02 1.098823527226100971e+01 4.344610996644384215e+01 -6.245575201522373732e+01 4.303269314188434436e+01 -1.096394930154257423e+02 -1.549535276230726879e+02 2.163168126795947543e+01 4.975108310533440914e+01 4.910364512791592695e+00 -8.553392751032235708e+01 -9.587409466383778067e+01 -8.640597088725326103e+01 -8.969381005209075397e+01 1.292635161901833740e+01 5.825440943353574852e+01 1.193986950537875771e+02 8.143160308591632202e+01 9.175297734284053774e+01 1.101508144686122677e+02 -7.670297715791247128e+01 -8.463275153369549741e+01 7.233511866016104364e+01 7.020143680933480823e+01 6.077431877959861595e+01 -9.642739931127797703e+00 -9.348097482428504179e+01 5.541247458822197558e+01 -1.837217839151503824e+02 6.895538321875650922e+01 -4.576523714477755078e+01 -9.908222465218034358e+01 7.624203554380684977e+01 -1.759444022966740562e+01 -7.929663342794719938e+01 -5.909465712916649238e+01 -9.396253795255587349e+00 2.495621883817508717e+02 7.899860283874346578e+01 5.641292104394252505e+01 -1.069346101539374132e+02 1.525953506327718117e+02 1.064181257259333657e+00 -9.308060978812433461e+01 1.604417128555749912e+02 -1.587857008313669098e+02 1.625053959123933822e+01 -3.355206534403624374e+01 -2.289441841569860117e+02 -1.390199828335419454e+02 -9.090268604673788388e+01 -3.048340628459636648e+01 -1.242580491667412588e+02 6.008893430884214126e+01 6.770470974470318026e+01 -2.871422089543822054e+01 -1.038849532294582048e+02 1.178431853208497557e+02 1.231983417884723906e+02 4.816116061543395688e+01 1.818413296539511492e+01 2.723839343131010651e+02 4.552881134171817479e+01 -1.244605141822276266e+02 -4.695362327613617737e+01 -1.760712863823174246e+02 3.323062144312888222e+01 1.598991872137166297e+02 -1.547808882981441911e+02 1.373963467158735909e+02 -9.488142584970367466e+01 -1.970486965376989374e+01 -7.651422247675170318e-01 5.513778401266652196e+01 -1.211563111055562203e+01 -2.376717266711368737e+01 -1.976014967850784743e+01 -1.321707615200780879e+02 4.845456063192862217e+01 -3.169347796584724364e+01 -1.356710920105452622e+01 -1.117856656907764545e+01 2.358409366120064590e+02 1.818071565667489722e+02 2.428170712787342893e+02 1.375779425051711939e+02 -9.037047863470101561e+01 7.850947063345306276e+01 2.203187897488482250e+01 4.970913535112632786e+01 -4.149865075610850340e+01 2.666813549710736879e+02 -2.431760230421704350e+01 -1.427619451789888387e+02 -1.562283701773804978e+01 -4.784526098586476195e+01 -8.083884216557376590e+01 4.507392412466420240e+01 -1.223283852307661945e+01 1.899852240458730250e+02 9.653803942877594579e+01 4.270761722944478578e+01 1.024110122784626924e+02 9.866482429450833536e+01 -2.401387460092690418e+01 1.458646322492129457e+02 2.765588071027557859e+01 9.356095455418588358e+01 4.976878653454021872e+01 7.249112629109750294e+00 -1.209523030515867106e+02 -1.210011812622355194e+02 -9.403670936804554970e+01 -1.627466317499753856e+01 9.056073423620898666e+01 -3.204552479483832883e+01 1.033231668395514617e+02 4.576431431464507682e+01 -7.598413225443333374e+01 -3.131862788336467673e+01 -6.122761397408822859e+01 1.834819120330276476e+01 -4.842305879897489262e+01 -1.170688589853582897e+02 1.269945448639761167e+02 1.267714785674710782e+02 -8.247660184744950129e+01 5.713625107231911748e+00 -4.733577718928094669e+01 -3.409175683671649182e+01 -1.185115864822782861e+01 -3.261173181275939470e+01 4.642590717041631621e+01 -1.468002628871145134e+02 -5.518830375656384746e+01 -1.586741137508343229e+02 1.818772301778328710e+02 -2.115119194561821203e+01 6.157477097671800692e+01 1.246618291617931717e+01 1.507856443392957999e+02 4.663093103885649526e+01 3.732213245211283237e+01 1.611145477516732285e+02 -5.142357236784599905e+01 -1.018446326704753631e+02 2.833278076122339328e+01 -1.648866409151497692e+02 -5.571335873991466059e+01 1.067179897050350377e+02 -1.332795230304640484e+02 -3.793894567328889877e+01 9.523775696594879037e+01 -9.857919915696551527e+01 -9.337143750043340162e+01 -8.621176572891059209e+01 -6.659013396277806862e+01 2.596992330392699273e+02 2.066669657088278882e+02 1.074177865691614642e+02 -1.065606262435442062e+02 7.805575603576028243e+01 -6.892073558176029735e+01 -3.251577977832834421e+01 1.729913340928351317e+01 -3.352496477286453569e+01 -9.769355075645810871e+01 -2.814665502131844299e+00 1.542637869265588790e+01 1.132745603830818624e+02 -1.337865304175078336e+02 4.358549746986185625e+01 6.636219299450296205e+01 3.597229644949264582e+01 -9.428910910392576739e+01 -1.544975449633853088e+02 2.010180015820508572e+02 -1.853574994358976369e+01 2.620094670222811217e+01 1.627532021301199165e+02 2.773207590096679453e+01 2.884934128270995046e+01 -4.628608915592223383e+01 9.207576519531048120e+01 -1.417060540430834692e+02 -3.201933098913823272e+01 -6.373541062639865196e+00 -5.550664016597161066e+01 6.402183544451476749e+00 2.214625435992931557e+01 -3.717548032168792105e+01 1.419520403088936966e+01 2.219583021414184145e+02 -2.843891869072981393e+01 -2.903228891722827143e+01 -1.055601373452132208e+02 -1.721953135794780598e+00 -8.385221583198945439e+01 6.658660585281170441e+00 1.163404954914878289e+02 -5.401721560891356688e+01 6.282806153455687159e+00 -5.639660119167476893e+01 3.465049095307256355e+00 9.052892755194868357e+01 -1.202552400845635532e+02 -1.004700518326683181e+02 -1.064324374022163795e+02 7.410810104598319015e+01 8.983722871514055441e+01 -9.580975921993679378e+01 6.495784263999999553e+01 2.678168847134772790e+01 4.014757330184123418e+01 -1.843065497824988697e+01 9.477452118012408278e+01 8.274739352130663406e+01 -8.019861325075321190e+01 1.231715749953388439e+01 8.395189236578598013e+01 7.561096807751303572e+01 -2.062020345531245624e+01 2.593086730462007949e+01 -1.375673853164038860e+02 5.032785076349016862e+01 -3.399382713356058616e+01 -3.386213206851136448e+01 1.796839295874698621e+02 4.922702262003310381e+01 1.247325306891102201e+02 1.980966229866408526e+02 -1.428632584958120049e+02 1.546411320114967509e+02 -6.574315877057406965e+01 -1.401877226294313061e+02 8.540755346400020187e+01 -1.391129351189472061e+02 -2.977519994730469932e+01 5.854063336115085292e+01 8.401419654372858759e+00 -1.743786494461830614e+02 8.736291133715842250e+01 2.615123672380849840e+01 7.168794084304379055e+01 3.762138426684648351e+01 9.833505468872404620e+00 -6.963100392817227657e+01 1.200811261631778848e+02 5.652165784766893353e+01 -6.445313282862753113e+01 -1.050247532299721485e+02 4.042081670264487059e+01 2.660789449010994900e+01 8.545685266897250187e+01 1.905784812451190078e+02 -2.556652263208913212e+01 -1.142542366099843605e+02 -8.792638235094693755e+01 -5.324001681053739787e+01 -4.605948608711683789e+01 -1.522200558245311868e+02 -2.332998464575088704e+01 1.343065920890061022e+02 7.733323235571681664e+01 -1.269377519087030919e+02 -1.553906721293487294e+02 -7.065771284509386874e+01 -7.923805333035844001e+01 1.521879346347690500e+02 -1.767984533475302840e+02 8.973833158889900119e+01 -4.780081376390889147e+00 -4.461545576638093280e+01 1.380891279452984932e+01 9.458318585412914103e+01 5.146086713345548702e+01 1.433445101835937123e+02 -1.650390401636465185e+02 -8.398017299580195072e+01 2.626212363451936938e+01 4.349711201910632496e+01 2.138173203059065486e+02 1.508394082077736869e+02 6.794163352569526637e+01 7.478065955373422469e+01 -3.553526096760336372e+01 1.574767670901823919e+02 -1.859503720296890776e+02 -6.573255461191091342e+01 -5.567907578701912286e+01 -5.371385974827155252e+01 -1.071290048007313231e+02 -1.553215719441176290e+01 -7.119106633481406732e+01 7.382908651862835825e+01 -9.510414663939309676e+00 -6.027489406403778105e+01 -6.464352937210848893e+01 1.868599979777274314e+02 6.115123108573141053e+01 -1.419363039515635450e+01 2.165884271800427996e+02 -1.123122782351598943e+02 -3.664719063377000197e+01 6.942395038331426349e+01 -1.309923915149891482e-01 1.547290689644550987e+01 -1.296386433425753921e+02 1.826647918462990958e+02 -5.081610824696608120e+01 -2.795695055423105302e+01 -1.137296990185346317e+02 1.304475598659130640e+02 9.940886268045547070e+01 -8.035437844655783124e+01 -3.890294724859300146e+01 4.033947006226025422e+01 -1.568889487508369598e+02 -1.303897490720111740e-01 -7.739565719328689397e+01 7.992336395870210275e+00 -1.120205465212464588e+02 -1.642206771199518585e+02 -7.320112931802489697e+01 1.534463428838154471e+02 5.862048373693667003e+01 -9.278615617438811114e+01 9.235780805727381448e+01 3.546784430763351281e+01 9.139298796035200212e+01 -4.359437969291511195e+01 -8.705919318462197509e+01 1.769948762394000994e+02 4.312982977424206865e+01 2.996809762772711494e+01 -7.555649134498796116e+01 -4.377355570318019318e+01 9.906397309307175547e+00 -7.399311590649145565e+00 -1.787619780624571604e+02 -3.578215967605137138e+01 6.662950722528836422e+01 1.154411984708984704e+02 1.609875148695233520e+02 -1.370976428245022838e+01 9.264430512438242715e+01 1.630068008882627453e+02 6.555821531507339728e+01 1.527606457578758068e+02 1.659580387099129339e+01 1.356427411340363278e+02 -8.670567356967545436e+01 5.512975033819635939e+01 3.031515166044345477e+01 7.833517582310318517e+01 -1.096250706313958716e+02 2.043401470807278315e+02 -1.329270179484401808e+02 9.107754288587463520e+01 -1.108479223805017995e+02 4.757228027180610042e+01 1.422399242039083767e+01 9.353343989862572982e+01 -7.596219841166380604e+01 -7.783147933041169608e+01 -1.152068350193758661e+01 9.180085025281820776e+01 -3.047745728611562299e+01 -1.680799737746609779e+01 -2.022148149025150943e+01 4.879336118719754367e+00 1.010431679894639814e+02 -6.441347927842838317e+01 -2.798741636031889524e+00 -1.992427415887540292e+02 1.252088732585402227e+02 -1.281781686814584305e+02 -7.584664234457376608e+01 -2.417647798962612526e+01 -1.107719991229785990e+02 -5.457255832309679278e+01 -6.010506695213510397e+01 -2.017713178309394806e+01 1.398734076952282805e+02 5.548344450213977552e+01 1.030866622091400444e+02 -1.396763224715514866e+02 -1.422336097926946934e+02 -2.940259703584245017e+02 1.048173643144630773e+02 1.070373953739917567e+02 4.337248223274977477e+01 -4.351620753248557349e+01 -3.821752572003633475e+01 -1.884613628665324256e+02 1.500102895627852320e+02 -1.102618746277569244e+02 1.097845531648888482e+02 -1.634485679261748317e+02 -1.468193219288776952e+01 -5.684096558819126699e+01 -1.224027353300488130e+02 -4.731446325907747052e+01 -1.280094053238180152e+01 -9.510688064664718411e+01 -1.062643368946832396e+02 -1.267982840247458043e+01 7.310467357341815386e+01 -1.279628997312044589e+02 -1.609497101679693998e+01 -7.572987696719113160e+01 -1.349316329418221301e+02 6.878993500302370556e+00 9.776145340395180483e+01 1.699428687509438305e+02 -1.959269853217364243e+01 -4.730289545293415898e+01 -1.274813550873716963e+02 -1.679790074674883158e+02 1.065663842135751622e+02 -7.472555403927904649e+01 8.118192248114840481e+01 9.663144242214274371e+00 3.006492399880485067e+01 7.587644645786947706e+01 -8.703700929687839505e+01 8.492696138081824131e+01 1.184376918694630945e+02 1.617286472861102595e+02 -1.198248867772555855e+02 1.068024368261939969e+02 -4.907198451076470747e+01 -9.330017921762241428e+01 2.204738267245979557e+02 5.063453419782993592e+01 8.577404207821048487e+01 2.190408557428272829e+01 -6.489784597766890784e+01 -3.590513702143181973e+01 -2.161871430396678022e+02 1.085480404493553550e+02 8.377329285283963145e+01 -7.779807340509974267e+01 -7.519699788032752963e+01 1.492215621946223791e+02 1.038658069984570034e+02 5.252664791665077360e+01 7.820134847385472199e+01 -8.136176129238467780e+00 1.060616986205661192e+02 -1.063869828028485927e+02 1.915996117944956723e+02 -4.057778941574666476e+01 -1.253657355231424191e+02 -3.869309666411174220e+01 7.373928464343933342e+01 1.514400846958505156e+02 1.330975031511864337e+01 1.786512187089249437e+02 5.366605381425742394e+01 3.454065567545955417e+01 -1.144212150702581283e+02 4.607310969267295064e+01 -1.285365106385198146e+02 4.900853620016288659e+01 3.974160416580127730e+01 -1.267569645958271281e+02 -8.739958521430955329e+01 4.093316699368903500e+01 8.969381490967993642e+00 -2.389440840173431724e+01 4.300613757467960596e+01 -2.199274321391894205e+01 -6.485047695745909380e+01 -2.683941048970904575e+01 -2.309761291705209274e+01 -4.094305192275163563e+01 1.930893072539268474e+01 -8.271845487894441362e+01 1.222694826407255988e+02 -7.642037066696653369e+01 -4.437067228611599745e+00 6.730677515846092263e+01 4.017459916356804328e+00 1.637937799310309117e+01 1.639574865847350083e+01 -1.204090416377121500e+02 -4.546830136327935534e+00 6.686760476718845325e+01 -2.378858023299561637e+02 -8.719749852574429383e+01 -1.158759951981126051e+02 4.500340786266236393e+01 9.890438590412163933e+01 -9.429108882167891181e+01 -1.725577200024185345e+02 -1.902656273534031470e+02 2.053528026507450122e+01 -1.489616086051443347e+02 -6.489044599083825027e+00 1.516234134146213535e+02 -7.317730398144298043e+00 3.815138963721864229e+01 -1.015494310735764003e+02 8.189838671730174724e+01 -1.215565298357304727e+02 -1.578121551222592345e+01 -3.107401832675793329e+01 5.896277623664393275e+01 -9.112363070821752231e+00 1.081973098000866855e+02 -1.249010952002257824e+02 -5.123887232894555410e+01 8.848189156586276738e+01 6.764090188936502557e+01 -8.420994186468053044e+01 -5.558907101802474671e+01 -5.042040831686623648e+01 -2.955799342375447623e+02 1.976417425886483272e+02 7.773374140921973208e+01 -2.410760336894278666e+01 -3.027284154772197766e+01 4.237962337103809318e+01 -8.589007703315587605e+01 1.015526896699631010e+02 6.163602875242875001e+01 8.366661456344657211e+01 -8.573544045129368385e+01 -2.711130007114612894e+01 3.400536722757184549e+01 1.771392245395239939e+01 -4.361131104384561752e+01 1.608450501564704211e+02 -1.762269636912292370e+01 3.602995653631960948e+01 -2.340240339234922828e+02 -8.625339791624089969e+01 -7.450864193889711373e+01 2.343076169390329966e+01 1.111634214442438804e+02 -2.358060388474582112e+02 -1.903851611500829790e+02 2.256585422513029187e+02 -1.076095591002663099e+01 9.780392079908941128e+01 6.387082534078476925e+01 -5.637156686142414941e+01 -1.333440627472241715e+02 -9.686185730037465191e+01 -5.116649691734720307e+01 -3.811799130576852690e+01 -3.985175408138563569e+01 1.647683857244710026e+01 3.778079632181870551e+01 1.697672536921908204e+02 1.253714783809410704e+02 7.030431841619962263e+00 -4.454329556231622966e+00 -1.616454339775062294e+02 1.217790064354131658e+02 1.621709093674988083e+02 -1.052375785455945589e+02 7.504879542434683515e+01 1.830036348561144610e+00 5.585118021259623333e+01 1.276953052867868337e+02 7.220566369490690306e+01 -1.364030235857253501e+02 1.644790952871793621e+01 -2.990991245619473915e+01 1.133675576911000071e+01 -2.361025214620240575e+01 4.618229571430186553e+01 -2.652253502812617967e+02 1.845374166961491937e+02 7.467431681240750407e+00 1.623977917599063403e+02 -1.077477772691606894e+01 1.082082132196310766e+02 7.299989239053181223e+01 -4.282999386018101262e+01 3.045656197133190091e+01 -7.419433796860813857e+01 -9.070222331735237731e+01 -7.351733670485921834e+01 -3.268318495306569105e+01 4.609600105076623322e+01 1.124083508352153871e+02 2.908966786244737079e+01 6.333981574766003320e+01 -1.069661444724858939e+02 -1.399718777990875083e+02 -1.376451534001233412e+01 4.738195684163038379e+01 -4.649736483853897084e+01 9.650428818250659901e+01 5.667696137903806886e+01 -2.824277277594880786e+01 3.059186358737619216e+01 6.266650686120210878e+01 -7.366824783940556642e+01 -1.365951105249524744e+02 1.451631139097316066e+02 7.986497047679914196e+00 5.124269266568587256e+01 -1.525665993862572520e+02 -5.458725861023602022e+01 -4.849428498710333102e-01 -6.716440046653293905e+01 4.373644083903484692e+00 5.755259133387621517e+01 1.906886645398587916e+02 4.002130996701296795e+01 -1.121978451311674263e+01 7.385624076384722514e+01 -4.655556182324671255e+01 -1.115430922095548993e+02 -1.414785961444931104e+02 9.602247417143463082e+00 2.571550505072244164e+01 2.435287940780614946e+01 -5.825656687528677935e+01 1.237876101350744449e+02 -8.283196741383596873e+01 1.315030888227523747e+02 8.947432077875980383e+01 -6.667181027258260428e+01 -8.679085955147864695e+01 8.631304073870320792e+01 2.102276586446597051e+01 -5.381324489134642164e+01 -5.523341199236831045e+01 1.401670941607887642e+02 5.877167700650642956e+01 8.194131616812198615e+01 2.682832173851101842e+01 -4.320078461969883676e+01 1.103221312865850336e+02 -5.600839693353713500e+01 5.369544705401922968e-01 7.863565583053811281e+01 1.022556312668829435e+02 2.623452756031398962e+02 -1.798829850063851552e+02 1.653494555481923101e+02 -6.947502254334780503e+01 -1.564124824394970936e+01 -2.572371084743169689e+01 -2.131333512622673609e+01 -5.675018295607290497e+01 9.554181885479704306e+01 1.893545787038099490e+02 -1.222444452369131938e+02 3.183233006147111155e+01 -1.306368852877515110e+02 7.227359111180417983e+01 -4.584517870181408483e+01 -8.341710050876262983e+01 -5.551682118742617433e+01 4.243549265883276433e+01 2.000402390366302185e+01 -8.437826950900672784e+01 -1.455499217455819974e+02 2.144213606557151763e+01 1.627112349959326991e+02 1.475061426662209918e+01 1.884786163053242092e+02 7.716490833859814380e+00 1.390997512706897794e+02 -3.576600431995817075e+01 9.376354484116677668e+01 -7.388188944048945928e+01 -1.167862394784902733e+02 5.114411645228791770e+01 -6.004751997699194277e+01 -8.126514995755736948e+01 7.550145125314992356e+01 6.658990781801278125e+00 -9.769013104196005770e+01 -1.559612112006942652e+02 1.532594191087569300e+02 -9.243745677931090654e+01 -2.415187755552054671e+00 1.245201926313134919e+02 6.021214110839481748e+01 -1.018733078567059493e+02 1.100646215490183977e+01 2.927347851372355763e+02 5.537311542535544362e+01 -1.638105958256303438e+02 -4.954977013975023681e+01 -6.393723780203719542e+01 1.001681712166220350e+01 1.117785755686150395e+02 -1.075347571796799997e+02 2.240354356136734637e+01 1.356935569448041576e+02 1.952993773681742340e+01 -2.197069347605066127e+02 5.031205463804224820e+01 7.851354666082283984e+01 -1.411305007226398267e+01 3.413378577171420147e+01 1.252760829526362862e-01 2.337988433611472416e+01 2.885797268191778997e+01 1.204900217470201937e+02 1.019664199561845948e+02 1.613732054864082954e+01 1.550660965661564887e+02 -6.661554771284498599e+01 2.566443269387086730e+02 6.765684673951865591e+01 1.474249457403781207e+02 -2.287280258722996962e+01 9.371937499501883906e+01 -5.108040136636325457e+01 -1.523429263681316002e+02 2.727566701944386551e+01 9.900542810574660280e+01 -9.121882945971763945e+01 -1.090248697166311018e+02 -6.926265854708053382e+01 3.807849788721625117e+01 -1.189437374233185949e+02 7.781258631768723433e+01 2.924407572777440834e+01 -1.016254370708054893e+02 1.977721935477578938e+02 -1.224899709115088520e+01 -1.059213489362573881e+02 -1.391421716736811831e+01 -2.127623976707419473e+01 -1.460190756782421886e+02 -4.169645216904606855e+01 6.403274853267957667e+01 1.371951581733498813e+02 3.020203994134818615e+01 2.788375868687215231e+01 4.663955099151171169e+01 -3.725445270470421377e+01 -1.515886680748321567e+02 1.648667358250937554e+01 3.229543996117451599e+01 1.385803413557575823e+02 -1.037496183645866665e+01 -7.930061399502682207e+01 7.624305312265707357e+01 1.049835231568738481e+00 3.331216608117021138e+01 1.450879634940353640e+02 -1.849329447889265339e+02 -9.669417804479071776e+01 1.298967868552938398e+02 -2.183296966115222233e+02 -1.861174115462391114e+02 9.206006091143578374e+01 1.558424872086733899e+02 6.412264428685051598e+01 -4.488280147215421678e+00 1.576680859106868979e+02 -2.220942949789753698e+02 1.084419281948099893e+02 4.289126927614015017e+01 1.286045551980907931e+02 -1.908545318054055997e+02 1.078865891768912775e+02 -2.864848281592386670e+01 -1.353082308874890600e+02 -5.392535925187384116e+00 -9.352446751568116667e+01 -1.655085178838762161e+01 -4.306089234511816244e+00 -1.246676638633296790e+02 -1.247969679852946712e+02 -6.333221919188321181e+01 -1.304843070078583764e+02 2.034179356817148800e+02 -1.629127949371062414e+02 -5.076254343089716770e+01 1.746028802891290468e+02 3.432878174435446539e+01 -2.995260632827582867e+02 -1.285809353555471546e+02 3.596075513839693372e+01 5.529232871440352426e+01 8.734925848354135880e+00 -1.565027266248263231e+02 3.611635115588346423e+01 7.538289656058933197e+00 -7.521702472940150130e+01 2.051238716887065721e+02 2.050391787197432052e+02 4.374207565335727743e+00 -2.110137300232752295e+02 1.275066413616445544e+02 3.115134693692368728e+01 3.770709908191255622e+00 7.756944437993608688e+01 -2.099380879512819433e+02 -1.397000366921325281e+02 1.427467366103572601e+02 1.109471777621076001e+02 5.358093352109028018e+01 1.449668676692324993e+02 -1.803941459726671610e+02 -2.066243308296265724e+01 -1.320090085892562684e+02 4.407218633383493511e+01 -1.051000494207220726e+02 8.807288805450617986e+01 -3.426004840932053241e+01 1.252862947303099084e+01 1.795388560826641537e+02 2.880813179582144556e+01 -2.667123299574752764e+02 -1.278482424519331744e+02 -8.435514049269249881e+01 1.599884161566765783e+02 1.268155731797980401e+01 -5.442135551683642092e+01 3.077438797963920081e+01 6.328061511747029044e+01 -4.007169265149594395e+01 1.087970900316021812e+02 -1.019309985660106719e+02 4.979888923647017407e+01 1.132574862936394595e+02 -3.583070878701946782e+01 -9.929102929528461630e+01 -1.147433555836718000e+02 1.211827906358470415e+02 -5.023828838005861996e+01 1.988913377259391382e+02 5.788520812264577842e+01 1.122832670843336587e+02 1.865610140789154627e+02 8.666169757865805678e+00 -1.257379704714358439e+02 -1.677591492641798254e+02 -1.155625311960893953e+02 4.296064729994834863e+01
-1.347848340587286131e+01 -4.744020102525126958e+00 1.023771919404774451e+02 -2.263551518257075372e+02 1.536135829445251773e+02 6.280258235887490059e+01 1.503673926787078869e+02 -1.276502824592518266e+02 -2.759459625685916073e+00 -2.380392599370611251e+01 -2.169247441080477188e+02 3.237122558421110341e+01 -1.811628867336051130e+01 1.208660642962088900e+02 -1.235819513989021203e+02 6.098877065518141194e+01 1.238593482701029842e+02 -4.540233496420535886e+01 -4.911499406170359094e+01 -2.676403728826882045e+01 6.097075558848251831e+01 6.240086324992469713e+01 3.202858624613321581e+01 -2.298299431782776594e+02 -5.104881328503039839e+01 9.040357082074186224e+01 9.783262832013317478e+00 -1.021921457613670725e+01 -6.576453290233902749e+01 -1.525974761063482710e+01 7.248151316863754801e+01 -1.437088569104140561e+02 -6.116231128041451370e+01 8.899038769845102337e+00 2.050526909039989505e+02 2.095488761953812400e+02 -3.166767636604916447e+01 5.523267531912645723e+01 -2.790911937796149433e-01 -1.380348287324183332e+02 9.486545061843504811e+01 1.059946357020259882e+02 1.072516407861289167e+02 1.156294465197497878e+01 6.117936504969708977e+01 4.756417700890002465e+01 3.843399133452563632e+01 2.896708877238683399e+01 1.089988245884084108e+02 8.867644297666467423e+01 6.484555171898244907e+01 1.610564036498960547e+02 2.447147300237074887e+02 1.932673687308370063e+02 -5.843005817107109579e+01 4.868637907989916869e+01 -6.354949527462265735e+01 5.576770030220197327e+01 -1.898707085737395062e+02 5.583834022084472082e+01 -2.023830673079109204e+02 -1.667250873462420486e+02 1.278674015095564442e+01 -9.119622246868495097e+00 1.675584233663137468e+02 -2.054736860046762388e+02 7.440648076068018213e+01 2.270991439349531049e+02 -7.222193923504979907e+00 -1.924008591585790384e+02 3.519089312659702529e+01 1.949309223537941023e+02 -6.038428383747675099e+01 -2.633484407954485960e+02 -1.013710302564381465e+02 8.709689153943251938e+00 -2.274282704649938296e+02 3.162937536521123860e+01 -1.774032993694597735e+02 -1.834910008316564642e+02 -5.643565715009387418e+01 1.507904382853841980e+02 6.875392105024455702e+01 1.048246200051275601e+01 -8.763484954397196702e+01 -4.214485520121430540e+01 6.307236913015133695e+01 -2.295779318986127180e+02 5.353330433989642501e+01 -7.424506830848018524e+01 -7.726905078174186770e+01 -1.749518771214839603e+02 6.443082328320230090e+01 9.181833867744626332e+01 -1.606719874358864502e+02 1.709904390564761911e+02 -3.950502758759125044e+01 -1.674410645336550019e+01 8.665786755024501531e+01 1.547328959524016057e+02 2.145021391346677220e+01 1.499342645018317626e+02 -1.826997899698769601e+01 -8.981413003679111284e+01 -1.943082044214525439e+01 1.001030649390434064e+02 4.578013031498564089e+01 9.958544670191049875e+01 9.610743758424533212e+01 -8.453269208391803602e+01 -1.729772729495525425e+02 1.252828386246672778e+02 5.524166812019652895e+01 1.643248382992867462e+01 3.113757401903473365e+01 -6.916101443870245191e+01 9.779271145167551538e+01 9.146819154019971165e+01 -1.390534633958515087e+01 -7.254291352482897537e+01 3.135645096401452392e+01 6.385675106296694103e+00 -6.269144009713544108e+01 1.726792768116540344e+02 -3.363849921810794541e+01 1.238870879295703133e+02 -7.144090647040914632e+01 3.911006009770532188e+01 -3.681552182258088379e+01 9.115520882095765387e+01 2.394058279665518896e+01 1.177907342316736248e+02 -1.182165262244639337e+02 7.578142703594983232e+01 1.258996012215010722e+02 -4.559930875174191556e+01 7.713621795331944142e+00 -1.288180307448686968e+01 1.190633773684426160e+02 3.580724160715528459e+00 1.720595819492010605e+02 -1.442432210806711339e+02 1.190439451119074903e+02 -9.321392178325096722e+01 9.768509996708594656e+01 -1.398511116669237424e+02 3.013199831166656395e+01 2.524517498313541708e+01 1.868674686834533638e+00 3.706711547822718700e+01 4.683205077249807857e+01 -1.270714564373772681e+01 1.099880115185806240e+01 1.103651686116254922e+02 1.299662186657900804e+02 -8.849969106521649564e+01 -5.539541083296243329e+01 4.839563092443278691e+01 1.583101136574152079e+00 -1.398919500079589398e+02 -5.626172155021129129e+01 -3.624907221227760346e+01 4.999783874835921438e+01 -6.701413731088250358e+01 2.344440577581526597e+01 1.639187992547724377e+02 -8.125262362792152260e+01 8.258490988454768456e+01 8.600302224798942063e+01 1.146454116956623714e+01 1.262510736310161406e+02 6.433374949053846592e+01 1.719436707524094174e+02 -3.533203509804933873e+01 1.151205197142555221e+02 5.684965219380291046e+01 -1.646673370056520724e+01 2.090179867282353996e+02 -1.421714733216801392e+02 5.006265786681255037e+01 -1.921631130897538640e+02 -8.626505748852757449e+01 4.203333943883950496e+01 -7.400598576504134485e+01 -1.597757615121249444e+02 2.043567822131303444e+02 -8.796247994824140903e+01 -4.870165417263613961e+01 -4.746994062202220022e+01 1.248760201219819237e+02 1.998121905076412190e+02 6.643376587699106040e+01 1.500449604774547652e+02 2.251491958974539216e+02 -1.679732245352315134e+00 1.671755135940844639e+02 7.274455391687446593e+01 1.953734388446427488e+02 -1.290545526763957582e+02 -1.219604103767562542e+01 6.494305733025507621e+00 1.949399915438790458e+02 -9.330130719350893287e+01 -6.202876816229800028e+01 -5.434730174915322465e+01 -1.374405470478311031e+02 4.781985490939099748e+00 -1.035916681284338807e+02 1.581170123254643443e+02 2.419974424931355728e+01 1.233494523453573422e+01 7.420821682123701635e+01 -5.078224246980563628e+00 1.199962887178551227e+02 -1.629990390999029444e+02 4.658509810329064038e+01 -1.753621880149755725e+02 1.205070530909156048e+02 9.851090599243261181e+01 -6.909730470574284311e+01 4.797501633926186315e+01 2.443854471173264074e+02 -3.124501014437038293e+01 4.275802064157562654e+01 -3.352608012291756268e+01 5.945351910414723307e+01 6.598658290940713300e+01 -6.429818227856669566e+00 1.046131366015779207e+02 1.042002070111579144e+02 -1.989527463881919402e+02 -1.572539541931511451e+02 -1.229303083931819458e+02 -9.712260755810730117e+00 -1.537193227918752996e+02 1.185591552146595689e+02 1.132455212648818872e+02 6.049355868416392923e+01 1.144929674010601239e+01 1.617971642632249427e+02 8.614582869208500426e+01 6.923964696650263306e+01 -1.042977322151495514e+02 1.562559817467525534e+02 -3.656380090677376238e+00 1.121400423231007437e+02 9.040493305485659548e+00 3.769512182992374960e+01 -7.767022595877340052e+01 -9.309689659173045584e+01 7.341633413082539050e+01 -3.917677631255397586e+00 1.500170227823860500e+02 -1.290402582079760130e+01 -2.935856767392035049e+00 4.701679778515331520e+01 2.322349143759056034e+01 1.449790606575721483e+02 1.497568532992687373e+01 3.673078339855779006e+01 -1.585785570770963488e+02 6.749966747986009352e+01 1.369743486787703546e+02 -1.814227576825035371e+01 -2.335820501524465840e+02 8.645229160111550470e+01 1.393171854668030392e+02 2.075403360695644750e+01 1.931863449889721949e+02 -4.202731278398974979e+00 4.383492353766283145e+01 -4.449294459713619432e+01 -1.415598165876308769e+02 5.711939940606926314e+01 -4.841828155903916553e+01 -8.269728661419705418e+01 4.201672904487089966e+01 -1.883916829375208124e+02 7.312974062946827303e+01 1.674712197843322485e+02 -1.031326218402958403e+02 1.761549500936869492e+02 -9.948598117409204633e+01 -6.103607516625922713e+00 -1.069735775817804324e+01 7.795875273141078310e+01 -4.738193036648827672e+01 -1.097137266974952041e+02 -9.004923984692888439e+01 1.482521157957297078e+02 6.009678981111023433e+01 -1.338949323649292467e+02 4.523813404736333865e+00 4.415996000507067976e+01 8.390891942218479471e+01 -4.098383266056245589e+01 6.096028186712641883e+01 -7.006174663323949403e+01 -1.649379008605971819e+02 -3.518098786254730470e+01 1.431778196589814911e+02 -1.150987608166940674e+02 -6.531746396260417420e+00 -1.654326354865160340e+02 -4.822594296606196984e+00 -1.480749902588916314e+02 3.337135543016979966e+01 6.101600883331932579e+01 -5.107804310276127779e+01 -8.361775123122367859e+01 5.708684994558003822e+00 7.546524918670476723e+01 -6.874491521485137469e+01 1.366384977028157266e+02 1.069762439608396107e+02 -1.294333565293014772e+02 -1.069102910211324939e+02 1.369399240003424154e+02 7.232730596129843548e+01 1.522097915787317106e+02 1.016164018138755694e+02 8.225630338338999081e+01 -6.104249861151396317e+01 -8.284246579849877890e+01 -7.806312720989016896e+01 2.070727640800813560e+02 3.088614674632260915e+01 -2.519562836180990573e+01 -6.938282947529272349e+01 -5.064266663080125852e+01 -1.327288946619699175e+02 -1.670382119626523476e+01 -1.768359926319925819e+02 1.260365681684202599e+02 4.639994507186501949e+01 -1.161659171918595632e+02 -4.875948294476216915e+01 1.206970837808558485e+02 -9.776316288892532214e+01 1.036234715423770467e+02 -1.193659280930099555e+02 -1.185239132148511132e+01 -9.624058696264181378e+01 9.038696564051076621e+01 -4.281119886585441492e+01 1.043130886197439899e+01 2.953946425232862794e+01 -1.276175695274281594e+02 1.259771664318419404e+01 4.867756569899428598e+01 -2.259363070359009384e+01 -6.925376987441867982e+01 2.039611269677568544e+02 8.707109168199059468e+01 4.748696552731411913e+01 -3.165033398552558452e+01 8.082682440484786923e+01 1.687903036981041396e+02 -9.296248754828428673e+01 2.109270420793750702e+02 -1.340378728459134834e+02 -1.852378905731727059e+02 1.529463496185740325e+02 -2.355856022710815125e+02 -1.017947756005878501e+00 -2.466284926494707008e+02 -1.540049133356307323e+02 7.224892856873759683e+01 -1.466680022973969244e+02 5.879554685656773927e+01 1.106312333475189433e+02 -1.615104417033608968e+02 -3.036307749126945055e+01 7.591814211694645564e+01 1.348642028116050255e+02 -1.873584788030877064e+02 8.805168107576419345e+01 -9.862367874376325005e+01 -9.953195831145894346e+00 -1.399591525808103576e+01 -8.013989120380803399e+01 -9.094847522120200267e+01 1.826152689899166717e+02 -2.181203579380132496e+01 1.334125923938129343e+00 1.311301793683192614e+02 -8.727558368915931908e+01 -3.467116169560386396e+01 -1.084276038257798831e+02 -4.921339102518257391e+01 5.233133642049364376e+00 5.986242687240639526e+01 -1.362176531413904002e+02 2.392901086087469196e+02 -5.441896387880282049e+01 1.238938996204293517e+02 -4.932103636301133776e+01 1.210481510532355856e+02 1.405266939428663022e+02 4.854078341900310534e+01 1.234507405284564925e+02 -4.370106155065845854e+01 1.415239907038065041e+02 -1.581829958668542986e+02 -6.613112365312763075e+01 -6.369193543785581113e+01 2.580704770424964067e+01 -1.641845417008667312e+02 7.339998292997174190e+01 -3.119348296648928098e+01 -8.360699199071046905e+01 9.066783233211805282e+01 -1.528700443260256634e+02 -9.227535292606094686e+01 -5.320192274261986398e+01 3.347681047415927935e+01 1.313600047058681639e+02 1.182664877114375486e+02 6.996192973614792265e+01 -1.645814008736434575e+00 1.768970631199640309e+02 1.239673621931983973e+02 -9.552525979821977842e+01 -7.909434804487416670e+01 5.615477321522704557e+01 1.011869087052635230e+01 9.912385178484501580e+01 1.685835285377129935e+02 7.139784403958938697e+01 2.464965338905085801e+01 -1.033597311834620598e+02 1.738014947447481404e+02 -1.149902260081150587e+02 -1.671658926294565788e+02 6.645667488647076482e+01 1.127247967624365828e+02 1.983921595793507464e+01 -1.403809617390425331e+02 3.007427180027159963e+01 4.290146185768743692e+01 -3.019491377746274519e-01 1.323215953066817292e+02 9.857112238336773657e+01 1.728446414723424951e+01 7.917039754877443158e+01 -1.081726126435330997e+02 -6.352908278801812081e+00 9.933608900765685235e+01 2.998389248736799573e+01 -6.570196390608825254e+01 2.000198454244172410e+02 2.334188036037865857e+02 -1.267997127633578884e+02 -2.786831153224351354e+01 -2.123014365548394267e+02 -7.288772107266036926e+01 1.581625507956276522e+02 3.456833218424472776e+00 -7.166630961677404343e+01 1.653804021071198065e+02 -6.312320719921195433e+01 -1.621091351205735123e+02 1.378272768363664795e+02 -6.786227884630962137e+01 3.475182872443132709e+01 8.716580001981337489e+01 1.389898220232865000e+01 -2.403759359860445102e+02 4.265543455152801045e+01 -6.168848196491098612e+00 9.087205565967997245e+01 -2.376953947034661496e+01 1.020864715381562320e+02 1.710430725720550527e+01 -8.554000814861869628e+01 -2.065173537510071355e+01 -1.767539182246481460e+02 1.160099289285486748e+02 2.548597827941075522e+01 -4.200052631972238260e+01 -5.227219608624739067e+01 -6.340153302165658999e+01 4.144855385271750237e+01 1.620850563284360248e+02 1.338634542599665735e+02 4.345770220195456091e+01 -1.995794155780625374e+02 -3.912930503559480400e+01 4.418679262580000966e+01 1.183754273233296743e+02 8.800621602141774247e+01 1.559814163221271244e+01 -1.876713693610645919e+02 1.328877782521485358e+02 -2.257181704581177257e+02 -2.076076324845267322e+02 -1.873284475140204464e+00 -7.442528838889052167e+01 -2.427237398064445628e+01 8.789867360357372661e+01 5.641336343204346093e+01 -1.121960727232414712e+02 -1.527605603371537200e+02 1.472926170291523640e+01 1.247763424595409276e+02 2.090339233266418617e+01 -5.720744693789455937e+01 -5.204836120226484297e+01 -1.191052825500229950e+01 1.627873186344922942e+02 2.257761208317091572e+01 -1.782984796023234821e+02 1.316995837271068410e+02 -6.857309205314669498e+01 -4.289828976362990431e+00 1.581358972273706911e+02 -5.372968429622984843e+01 -2.010216221517403667e+01 -1.128053264966449660e+02 -6.175599991736028471e+00 -2.450749771306526270e+01 1.352775405421675146e+02 1.233443146534448829e+02 6.940127541621883722e+01 6.715785858315807388e+01 -1.922036650429177485e+01 1.388908683709776994e+02 -1.157731954910594538e+02 -4.383188840374627304e+00 -9.350695127763368930e+01 1.614042861327280605e+02 7.491762961915495111e+01 5.310486331706084684e+01 8.515880838524706675e+00 -5.470050090267156406e+01 3.531110466118220614e+01 6.947269340825559247e+00 3.668129785148215749e+00 2.477649019118887708e+01 6.138424996455916016e+01 1.748246702120704015e+02 -3.985110269443549669e+01 -5.339455100818822331e+01 6.857131072942407002e+01 1.187805887106740244e+02 -1.314826186146890485e+01 9.436782255631499083e+01 1.067791797541145655e+02 2.163635793339142879e+02 -8.886510086791878393e+01 -1.259815484097236578e+02 -2.939506676213194325e+01 6.378042655682919104e+01 -1.041567309321808210e+01 1.102742544097638557e+02 3.821211589826737054e+01 -1.669387888976658019e+02 4.625619467084731440e+01 -9.182102290545120127e+01 -1.388651441200310614e+02 1.380305217695409112e+02 -7.799684391932935057e+01 6.066721075646599104e+01 1.141238060809311889e+02 -1.016271299955346450e+02 2.406493586420474529e+01 -7.401442812810543614e+01 4.128050331811310514e+01 -1.174882835906912817e+02 6.312252930172929410e+01 5.604424636578526986e+01 4.048824570011271717e+00 8.621378142396849853e+01 -1.568126294930200686e+02 7.830361726899955954e+01 -2.994954081306655524e+01 -1.719347365555417184e+02 9.613040452166322325e+01 2.493874325707476203e+01 -1.996665061628332296e+02 2.393898981238180852e+02 -5.360782945020161616e-01 1.070421010087638081e+02 -1.227414751718024633e+02 -1.976466118680691864e+02 -9.496795929094781741e+01 2.505953915183361858e+00 1.454538847434936315e+02 4.103026132835132067e+00 -9.725550161232945356e+01 5.133056907969994853e+01 1.394760528540230666e+02 6.615161880758394375e+01 -5.267789506924889054e+01 -6.018353462273856280e+01 8.600878376964188021e+01 3.131643657936621139e+01 -1.989893069420827487e+02 -2.110310834232744526e+01 1.720414082642486164e+02 1.006076147952956745e+02 -5.832543982570168595e+01 -1.137864115334228075e+02 -4.344380515666432530e+01 -4.893221648864830797e+01 -1.164830306440891121e+02 -1.883862773286758596e+01 -4.647586938262349321e+01 -1.156263784556856820e+02 -1.341935772150778519e+02 -2.738706283180669487e+01 -1.278772922477393337e+02 -1.361206885341900090e+02 -3.901050037094621814e+01 -5.634849462572093159e+01 -1.129460210886976768e+02 1.963125774423155576e+02 1.111093791124971197e+01 -2.967562262476456425e+01 -1.794525635101630812e+01 8.296134054453293061e+01 1.648488351653931971e+01 2.641609362599360722e+01 -2.247956647873678548e+01 -4.872283049226079754e+01 2.206896786253861720e+01 -1.532882320948860695e+02 -1.679007500001047219e+02 -9.540516099063768252e+01 -2.012672165460969040e+02 -9.452934775018677271e+01 9.051932067006023885e+01 6.472993012132317858e+01 -2.749512594889785078e+01 6.409123612000024650e+01 -1.650860750876786369e+02 -4.301132679228762612e+01 -1.224585680026482208e+02 -7.040402643758233125e+01 2.224233299668834434e+02 -2.165002861547210955e+02 2.164835245233042542e+02 2.638377668817772204e+01 -5.957983053246054084e+01 9.732058198726767273e+01 1.308666948070640501e+02 -5.472897176556582366e+01 -2.148328220531595321e+02 -1.572479274032501735e+02 1.078442516370721620e+02 8.834153074451968735e+01 -1.430079834901586082e+02 3.372138593106065940e+01 -4.181514687297314481e+01 -8.162833493502417070e+01 -2.997510603824626330e+01 -5.783597472303165432e+01 -9.117992606462671290e+01 -3.587878449689755200e+01 4.691849561062361396e+00 -3.452701108615444525e+01 -4.351462675965197535e-01 -1.517262361720023023e+01 9.703377030491449773e+01 1.340044466796074403e+02 1.389540128469177205e+01 1.769715089947780129e+01 -6.653178568154511652e+01 -2.067048029284242148e+02 3.570803574536429892e+01 -9.676290865462777901e+01 2.723103130168420805e+01 -8.667172046663019103e+00 1.046123031003747039e+00 7.615482011693116249e+01 1.285297414978734878e+02 -7.429498866724362927e+01 4.007498280617330266e+01 -2.033335096656631151e+02 1.018526572180018341e+01 7.424441915940157344e+00 -1.292329962709400490e+02 -3.558158956563160302e+01 -4.674811667779641766e+01 5.038902262615682304e+00 -1.078465181107876703e+02 2.853801606367173704e+01 -1.029935898939609018e+02 5.922507072536301109e+01 7.153473554165508119e+01 3.888218835429866260e+01 -3.060532749782053230e+01 1.132934154923560754e+02 6.437871888446231594e+01 8.434385686356657175e+01 -7.062400856586955911e+01 2.143095608606774860e+01 1.348447571766803890e+02 -6.162668492555494026e+01 -7.283759096546351230e+00 3.372823788520873478e+01 -1.353260664952042305e+02 1.031152062693537346e+02 9.440371833563200710e+01 -1.065504551726996993e+02 -8.678639732428351294e+01 -5.849084199166447462e+01 -4.795349162868379267e+01 -1.688898905384128852e+02 -1.432128341393167261e+02 -1.395347047886583596e+02 1.112930731784400251e+02 6.292918043023154695e+01 1.679757522251283604e+02 7.570270162608912834e+00 -9.032036774401132107e+01 1.970299259300455219e+01 1.456634103064689256e+01 -6.681979675957069276e+01 7.794181441821066869e+01 1.242604131668568357e+02 1.053836625562540164e+01 1.509524598429363778e+02 2.370276381782466757e+01 1.167614235401497922e+02 1.590192526183007260e+01 -2.185879193571360588e+02 2.297216219894732490e+02 -5.147724802733024774e+01 -1.568864416688786605e+02 -7.066708535996816920e+01 -4.518209451982485092e+01 4.325774474421758242e+01 2.676886491819954728e+01 4.782741777585244591e+01 -7.753169545692603037e+01 1.279417221035695604e+02 -9.016379232701287094e+01 -7.324615398089044938e+00 1.488766582832575409e+02 1.145406996204628740e+02 6.054369217142205173e+01 -1.848076560199843925e+02 2.654565639493929652e+01 1.465320522754564365e+02 2.445471470119467838e+01 1.017565741822742211e+02 1.109458141360908030e+02 -2.202191406551973500e+02 8.012315288086071519e+01 -6.014116424618598700e+01 -2.340977221681031892e+02 9.206364536047487945e+01 2.555835610858778040e+01 -1.263093721134519143e+02 -6.053845649414036245e+01 1.433198058109734632e+02 1.520617309488347644e+02 -7.802827256197885220e+01 -1.314144406538351006e+02 -8.572316846394589618e+01 -1.702275743133262438e+02 2.004911408004836915e+01 3.882720439446027427e+01 -1.731050294518804122e+01 -1.264847042211012607e+01 -9.139216949259261469e+01 -9.021844236178353071e+01 -2.511977760806641768e+01 1.361433232827250777e+02 1.384205817746573359e+02 8.235074413643449986e+01 9.843649970807021532e+01 -7.966859635371714887e+01 -1.827250655289568044e+02 -1.340739630345670541e+01 -2.344656339392447109e+01 -7.170984858006316642e+01 1.521579161878612974e+00 7.381699395669913599e+01 -5.346512497020846411e+01 2.485118021415016187e+01 7.996547166658027095e+01 7.079144521724754213e+01 1.116112463599978923e+02 -1.506842199763182748e+02 4.004189715490021939e+01 8.414195320949004042e+01 9.570413429145541784e+01 5.967446373369317314e+01 -1.042710185177449063e+02 1.383103381390980644e+02 1.287152533411482977e+02 9.678146116242301389e+01 1.025382996946703571e+02 -8.507454628269961461e+01 -1.502913399130553707e+01 -1.304192945616881438e+01 7.784207517816443556e+01 6.561136278355243689e+01 5.649621057846291450e+01 9.857110928500007674e+01 1.176178345271128194e+02 1.250680608897942818e+02 -6.559304676633327347e+01 8.138863010515059671e+01 6.590804384179651265e+01 -1.188282975791949241e+02 1.329137493383903745e+02 -1.014874772687104709e+01 -2.819357466608361662e+01 2.012843752055975983e+02 8.935980806669003584e+01 1.253734304491309075e+02 -1.458420539429735925e+02 -1.594587396449831260e+02 -1.554553495755509118e+02 -1.235310649717914089e+02 -4.477892167495769371e+01 1.110944831012240570e+02 -1.705947226368575116e+02 3.292864316055315754e+01 1.460861844798274376e+02 -6.005639793346281152e+01 -9.248846481511188244e+01 -3.554107837585007701e+01 1.376353235716186418e+02 2.302599143743264563e+02 -6.748654769227329098e+01 2.007163990065882331e+01 -2.808170297932919368e+01 6.941359499152795820e+01 6.110087022453357264e+01 -2.161776319104259585e+02 -8.989680726987256776e+01 1.395066219723746030e+02 1.417947068470184604e+02 9.589545567297612649e+01 -5.050744940736262834e+01 -7.692743321782123189e+01 -4.609744073542222509e+01 -1.791146243532254800e+02 7.223669128927163285e+01 -2.606973405455821791e+01 1.689047239651798691e+02 -2.834065669363753415e+01 -3.193401208551718469e+02 1.471189170015584580e+02 5.112175343154378737e+01 -1.198192330772130845e+02 -2.246948331157953405e+01 3.587618756807226106e+01 -2.109408260477849240e+02 -1.161118925956099304e+02 -1.113146622513147719e+02 -5.736550502656020001e+01 6.383215217814933595e+01 -1.674616783278411560e+02 1.097048687254788035e+02 -5.519509237304924198e+01 2.947139567830730389e+00 -1.356001140161348815e+02 -1.052592826111967668e+02 1.787652355949678622e+02 8.809460351687245350e+01 -4.293996213172899701e+01 3.781446940651682098e+01 -2.853780943174006168e+01 4.392000583155180493e+01 -1.063852503172513480e+02 1.004770564479218820e+02 5.138516393545155836e+01 -1.209505494606086842e+02 1.187692649837289309e+02 -5.000570300543767388e+01 1.016504091540022898e+02 -5.027659255899147439e+01 8.994269769424938943e+01 -1.561090509849836110e+02 1.451935025846448184e+02 2.521534073163078205e+01 1.024130414209166702e+02 1.327253725763867180e+02 -1.492598141684290738e+02 -8.743178362743104515e+01 -1.075256627926237201e+02 6.809336706132114614e+01 -1.744465673602232698e+02 1.542017099835967429e+02 1.450179883700882897e+02 5.396133075564605264e+01 -8.645394861307740086e+01 5.809862076015862442e+01 -1.092587163070936214e+02 -1.117276554410004152e+01 3.564738294575433741e+01 -1.871645686358378669e+02 -8.313347350346781184e+01 -1.378945756459374294e+01 1.041496562279658775e+02 -5.114900026822409984e+01 1.107399854752834898e+02 -6.557637609080873631e+01 -2.148660895514416893e+02 -1.091591265655317358e+02 -3.476019617331380118e+01 -6.136532960705348927e+01 3.069440663559484150e+01 5.235522410858266085e+01 6.483281611539641887e+00 2.576145388157882010e+01 -1.195862898867279114e+02 5.487417231274756801e+01 3.327301964562426662e+01 -7.364848693950575864e+01 9.432913566979937769e+00 5.741777400828205202e+01 -9.734829640494696434e+01 -5.617925848958742563e+01 -2.461539169318168163e+01 9.960683270139811896e+01 -1.747826120383351878e+01 4.277964420982777405e+00 -2.327203474077074361e+02 -9.701866478263980298e+01 1.009729562407223824e+02 -9.112663027533997706e+01 3.199718499436837504e+01 3.172015682823516514e+01 3.875451435530533217e+01 6.747460958946221865e+01 -1.811896122115913101e+02 1.469919473653596356e+02 8.315434031788947777e+01 -7.660121045787939842e+00 -8.251995785793877758e+01 1.143234728911074853e+02 6.341175888499141422e+01 -2.053449874024239818e+02 -5.146739436570303639e+01 -8.341477904324490567e+01 -5.297151097152253385e+01 -6.328474091767584753e+01 -1.012053214587772487e+02 -6.167289329609462101e+01 1.955730495939587570e+02 -1.744767076352981405e+02 6.690239897621420084e+01 2.833596225301100446e+01 -7.678656713933581557e+01 1.059695792504978762e+01 -4.025287300695042347e+01 3.494537447957167586e+00 -9.819327418106807670e+01 -2.018074361887955774e+02 1.878966267200616969e+01 4.283217774735047811e+01 -1.307879360447912198e+01 -9.251744062259783519e+00 -4.064570429051534006e+01 -1.940765443054551724e+02 -3.132862435420092240e+01 -6.679756951219552263e+01 1.429175845401105072e+01 -1.594663215099890863e+01 9.250105944883321740e+01 -6.440928546973233892e+01 -1.059794159084823377e+02 -3.655580916321113705e+01 -9.232905112485457977e+00 4.654472798721983651e+01 -2.264330064756579830e+01 -7.531245422369947562e+01 -1.621742674611064317e+01 2.052292542246102514e+01 4.855185234545054129e+01 -1.165516531524928041e+02 -1.421198420036121775e+02 2.354434976505729651e+02 -2.231134666403152949e+02 -7.765923739181380370e+01 -4.739153788035282133e+01 1.429899168592004628e+02 6.469897067167045179e+01 2.339421142932037299e+02 2.502130591256408536e+02 -6.371359512373560108e+01 1.323907095764312487e+02 -5.716276241504365885e+01 -4.171830399366857023e+01 -1.029267701461549649e+02 -8.163909709799267489e+01 -7.115318526774100860e+01 -9.097674205666376679e+01 -2.492466112717812905e+02 -2.769846788556027946e+02 1.377403246711526492e+02 -2.711772174564405802e+01 5.446059508156208295e+01 1.337853485655193424e+02
