# 
#                 ----------------------------------------------------
#                 Data from a 3D direct N-body simulation. 
# 
#                 rows are i-particle; 
#                 coumns are :mass, tag, x ,y, z, vx, vy, vz, ax, ay, az
# 
#                 NTHU, Computational Physics Lab
# 
#                 ----------------------------------------------------
#                 Time = 7.4999999999998845
1.000000000000000000e+00 2.000000000000000000e+00 3.000000000000000000e+00 4.000000000000000000e+00 5.000000000000000000e+00 6.000000000000000000e+00 7.000000000000000000e+00 8.000000000000000000e+00 9.000000000000000000e+00 1.000000000000000000e+01 1.100000000000000000e+01 1.200000000000000000e+01 1.300000000000000000e+01 1.400000000000000000e+01 1.500000000000000000e+01 1.600000000000000000e+01 1.700000000000000000e+01 1.800000000000000000e+01 1.900000000000000000e+01 2.000000000000000000e+01 2.100000000000000000e+01 2.200000000000000000e+01 2.300000000000000000e+01 2.400000000000000000e+01 2.500000000000000000e+01 2.600000000000000000e+01 2.700000000000000000e+01 2.800000000000000000e+01 2.900000000000000000e+01 3.000000000000000000e+01 3.100000000000000000e+01 3.200000000000000000e+01 3.300000000000000000e+01 3.400000000000000000e+01 3.500000000000000000e+01 3.600000000000000000e+01 3.700000000000000000e+01 3.800000000000000000e+01 3.900000000000000000e+01 4.000000000000000000e+01 4.100000000000000000e+01 4.200000000000000000e+01 4.300000000000000000e+01 4.400000000000000000e+01 4.500000000000000000e+01 4.600000000000000000e+01 4.700000000000000000e+01 4.800000000000000000e+01 4.900000000000000000e+01 5.000000000000000000e+01 5.100000000000000000e+01 5.200000000000000000e+01 5.300000000000000000e+01 5.400000000000000000e+01 5.500000000000000000e+01 5.600000000000000000e+01 5.700000000000000000e+01 5.800000000000000000e+01 5.900000000000000000e+01 6.000000000000000000e+01 6.100000000000000000e+01 6.200000000000000000e+01 6.300000000000000000e+01 6.400000000000000000e+01 6.500000000000000000e+01 6.600000000000000000e+01 6.700000000000000000e+01 6.800000000000000000e+01 6.900000000000000000e+01 7.000000000000000000e+01 7.100000000000000000e+01 7.200000000000000000e+01 7.300000000000000000e+01 7.400000000000000000e+01 7.500000000000000000e+01 7.600000000000000000e+01 7.700000000000000000e+01 7.800000000000000000e+01 7.900000000000000000e+01 8.000000000000000000e+01 8.100000000000000000e+01 8.200000000000000000e+01 8.300000000000000000e+01 8.400000000000000000e+01 8.500000000000000000e+01 8.600000000000000000e+01 8.700000000000000000e+01 8.800000000000000000e+01 8.900000000000000000e+01 9.000000000000000000e+01 9.100000000000000000e+01 9.200000000000000000e+01 9.300000000000000000e+01 9.400000000000000000e+01 9.500000000000000000e+01 9.600000000000000000e+01 9.700000000000000000e+01 9.800000000000000000e+01 9.900000000000000000e+01 1.000000000000000000e+02 1.010000000000000000e+02 1.020000000000000000e+02 1.030000000000000000e+02 1.040000000000000000e+02 1.050000000000000000e+02 1.060000000000000000e+02 1.070000000000000000e+02 1.080000000000000000e+02 1.090000000000000000e+02 1.100000000000000000e+02 1.110000000000000000e+02 1.120000000000000000e+02 1.130000000000000000e+02 1.140000000000000000e+02 1.150000000000000000e+02 1.160000000000000000e+02 1.170000000000000000e+02 1.180000000000000000e+02 1.190000000000000000e+02 1.200000000000000000e+02 1.210000000000000000e+02 1.220000000000000000e+02 1.230000000000000000e+02 1.240000000000000000e+02 1.250000000000000000e+02 1.260000000000000000e+02 1.270000000000000000e+02 1.280000000000000000e+02 1.290000000000000000e+02 1.300000000000000000e+02 1.310000000000000000e+02 1.320000000000000000e+02 1.330000000000000000e+02 1.340000000000000000e+02 1.350000000000000000e+02 1.360000000000000000e+02 1.370000000000000000e+02 1.380000000000000000e+02 1.390000000000000000e+02 1.400000000000000000e+02 1.410000000000000000e+02 1.420000000000000000e+02 1.430000000000000000e+02 1.440000000000000000e+02 1.450000000000000000e+02 1.460000000000000000e+02 1.470000000000000000e+02 1.480000000000000000e+02 1.490000000000000000e+02 1.500000000000000000e+02 1.510000000000000000e+02 1.520000000000000000e+02 1.530000000000000000e+02 1.540000000000000000e+02 1.550000000000000000e+02 1.560000000000000000e+02 1.570000000000000000e+02 1.580000000000000000e+02 1.590000000000000000e+02 1.600000000000000000e+02 1.610000000000000000e+02 1.620000000000000000e+02 1.630000000000000000e+02 1.640000000000000000e+02 1.650000000000000000e+02 1.660000000000000000e+02 1.670000000000000000e+02 1.680000000000000000e+02 1.690000000000000000e+02 1.700000000000000000e+02 1.710000000000000000e+02 1.720000000000000000e+02 1.730000000000000000e+02 1.740000000000000000e+02 1.750000000000000000e+02 1.760000000000000000e+02 1.770000000000000000e+02 1.780000000000000000e+02 1.790000000000000000e+02 1.800000000000000000e+02 1.810000000000000000e+02 1.820000000000000000e+02 1.830000000000000000e+02 1.840000000000000000e+02 1.850000000000000000e+02 1.860000000000000000e+02 1.870000000000000000e+02 1.880000000000000000e+02 1.890000000000000000e+02 1.900000000000000000e+02 1.910000000000000000e+02 1.920000000000000000e+02 1.930000000000000000e+02 1.940000000000000000e+02 1.950000000000000000e+02 1.960000000000000000e+02 1.970000000000000000e+02 1.980000000000000000e+02 1.990000000000000000e+02 2.000000000000000000e+02 2.010000000000000000e+02 2.020000000000000000e+02 2.030000000000000000e+02 2.040000000000000000e+02 2.050000000000000000e+02 2.060000000000000000e+02 2.070000000000000000e+02 2.080000000000000000e+02 2.090000000000000000e+02 2.100000000000000000e+02 2.110000000000000000e+02 2.120000000000000000e+02 2.130000000000000000e+02 2.140000000000000000e+02 2.150000000000000000e+02 2.160000000000000000e+02 2.170000000000000000e+02 2.180000000000000000e+02 2.190000000000000000e+02 2.200000000000000000e+02 2.210000000000000000e+02 2.220000000000000000e+02 2.230000000000000000e+02 2.240000000000000000e+02 2.250000000000000000e+02 2.260000000000000000e+02 2.270000000000000000e+02 2.280000000000000000e+02 2.290000000000000000e+02 2.300000000000000000e+02 2.310000000000000000e+02 2.320000000000000000e+02 2.330000000000000000e+02 2.340000000000000000e+02 2.350000000000000000e+02 2.360000000000000000e+02 2.370000000000000000e+02 2.380000000000000000e+02 2.390000000000000000e+02 2.400000000000000000e+02 2.410000000000000000e+02 2.420000000000000000e+02 2.430000000000000000e+02 2.440000000000000000e+02 2.450000000000000000e+02 2.460000000000000000e+02 2.470000000000000000e+02 2.480000000000000000e+02 2.490000000000000000e+02 2.500000000000000000e+02 2.510000000000000000e+02 2.520000000000000000e+02 2.530000000000000000e+02 2.540000000000000000e+02 2.550000000000000000e+02 2.560000000000000000e+02 2.570000000000000000e+02 2.580000000000000000e+02 2.590000000000000000e+02 2.600000000000000000e+02 2.610000000000000000e+02 2.620000000000000000e+02 2.630000000000000000e+02 2.640000000000000000e+02 2.650000000000000000e+02 2.660000000000000000e+02 2.670000000000000000e+02 2.680000000000000000e+02 2.690000000000000000e+02 2.700000000000000000e+02 2.710000000000000000e+02 2.720000000000000000e+02 2.730000000000000000e+02 2.740000000000000000e+02 2.750000000000000000e+02 2.760000000000000000e+02 2.770000000000000000e+02 2.780000000000000000e+02 2.790000000000000000e+02 2.800000000000000000e+02 2.810000000000000000e+02 2.820000000000000000e+02 2.830000000000000000e+02 2.840000000000000000e+02 2.850000000000000000e+02 2.860000000000000000e+02 2.870000000000000000e+02 2.880000000000000000e+02 2.890000000000000000e+02 2.900000000000000000e+02 2.910000000000000000e+02 2.920000000000000000e+02 2.930000000000000000e+02 2.940000000000000000e+02 2.950000000000000000e+02 2.960000000000000000e+02 2.970000000000000000e+02 2.980000000000000000e+02 2.990000000000000000e+02 3.000000000000000000e+02 3.010000000000000000e+02 3.020000000000000000e+02 3.030000000000000000e+02 3.040000000000000000e+02 3.050000000000000000e+02 3.060000000000000000e+02 3.070000000000000000e+02 3.080000000000000000e+02 3.090000000000000000e+02 3.100000000000000000e+02 3.110000000000000000e+02 3.120000000000000000e+02 3.130000000000000000e+02 3.140000000000000000e+02 3.150000000000000000e+02 3.160000000000000000e+02 3.170000000000000000e+02 3.180000000000000000e+02 3.190000000000000000e+02 3.200000000000000000e+02 3.210000000000000000e+02 3.220000000000000000e+02 3.230000000000000000e+02 3.240000000000000000e+02 3.250000000000000000e+02 3.260000000000000000e+02 3.270000000000000000e+02 3.280000000000000000e+02 3.290000000000000000e+02 3.300000000000000000e+02 3.310000000000000000e+02 3.320000000000000000e+02 3.330000000000000000e+02 3.340000000000000000e+02 3.350000000000000000e+02 3.360000000000000000e+02 3.370000000000000000e+02 3.380000000000000000e+02 3.390000000000000000e+02 3.400000000000000000e+02 3.410000000000000000e+02 3.420000000000000000e+02 3.430000000000000000e+02 3.440000000000000000e+02 3.450000000000000000e+02 3.460000000000000000e+02 3.470000000000000000e+02 3.480000000000000000e+02 3.490000000000000000e+02 3.500000000000000000e+02 3.510000000000000000e+02 3.520000000000000000e+02 3.530000000000000000e+02 3.540000000000000000e+02 3.550000000000000000e+02 3.560000000000000000e+02 3.570000000000000000e+02 3.580000000000000000e+02 3.590000000000000000e+02 3.600000000000000000e+02 3.610000000000000000e+02 3.620000000000000000e+02 3.630000000000000000e+02 3.640000000000000000e+02 3.650000000000000000e+02 3.660000000000000000e+02 3.670000000000000000e+02 3.680000000000000000e+02 3.690000000000000000e+02 3.700000000000000000e+02 3.710000000000000000e+02 3.720000000000000000e+02 3.730000000000000000e+02 3.740000000000000000e+02 3.750000000000000000e+02 3.760000000000000000e+02 3.770000000000000000e+02 3.780000000000000000e+02 3.790000000000000000e+02 3.800000000000000000e+02 3.810000000000000000e+02 3.820000000000000000e+02 3.830000000000000000e+02 3.840000000000000000e+02 3.850000000000000000e+02 3.860000000000000000e+02 3.870000000000000000e+02 3.880000000000000000e+02 3.890000000000000000e+02 3.900000000000000000e+02 3.910000000000000000e+02 3.920000000000000000e+02 3.930000000000000000e+02 3.940000000000000000e+02 3.950000000000000000e+02 3.960000000000000000e+02 3.970000000000000000e+02 3.980000000000000000e+02 3.990000000000000000e+02 4.000000000000000000e+02 4.010000000000000000e+02 4.020000000000000000e+02 4.030000000000000000e+02 4.040000000000000000e+02 4.050000000000000000e+02 4.060000000000000000e+02 4.070000000000000000e+02 4.080000000000000000e+02 4.090000000000000000e+02 4.100000000000000000e+02 4.110000000000000000e+02 4.120000000000000000e+02 4.130000000000000000e+02 4.140000000000000000e+02 4.150000000000000000e+02 4.160000000000000000e+02 4.170000000000000000e+02 4.180000000000000000e+02 4.190000000000000000e+02 4.200000000000000000e+02 4.210000000000000000e+02 4.220000000000000000e+02 4.230000000000000000e+02 4.240000000000000000e+02 4.250000000000000000e+02 4.260000000000000000e+02 4.270000000000000000e+02 4.280000000000000000e+02 4.290000000000000000e+02 4.300000000000000000e+02 4.310000000000000000e+02 4.320000000000000000e+02 4.330000000000000000e+02 4.340000000000000000e+02 4.350000000000000000e+02 4.360000000000000000e+02 4.370000000000000000e+02 4.380000000000000000e+02 4.390000000000000000e+02 4.400000000000000000e+02 4.410000000000000000e+02 4.420000000000000000e+02 4.430000000000000000e+02 4.440000000000000000e+02 4.450000000000000000e+02 4.460000000000000000e+02 4.470000000000000000e+02 4.480000000000000000e+02 4.490000000000000000e+02 4.500000000000000000e+02 4.510000000000000000e+02 4.520000000000000000e+02 4.530000000000000000e+02 4.540000000000000000e+02 4.550000000000000000e+02 4.560000000000000000e+02 4.570000000000000000e+02 4.580000000000000000e+02 4.590000000000000000e+02 4.600000000000000000e+02 4.610000000000000000e+02 4.620000000000000000e+02 4.630000000000000000e+02 4.640000000000000000e+02 4.650000000000000000e+02 4.660000000000000000e+02 4.670000000000000000e+02 4.680000000000000000e+02 4.690000000000000000e+02 4.700000000000000000e+02 4.710000000000000000e+02 4.720000000000000000e+02 4.730000000000000000e+02 4.740000000000000000e+02 4.750000000000000000e+02 4.760000000000000000e+02 4.770000000000000000e+02 4.780000000000000000e+02 4.790000000000000000e+02 4.800000000000000000e+02 4.810000000000000000e+02 4.820000000000000000e+02 4.830000000000000000e+02 4.840000000000000000e+02 4.850000000000000000e+02 4.860000000000000000e+02 4.870000000000000000e+02 4.880000000000000000e+02 4.890000000000000000e+02 4.900000000000000000e+02 4.910000000000000000e+02 4.920000000000000000e+02 4.930000000000000000e+02 4.940000000000000000e+02 4.950000000000000000e+02 4.960000000000000000e+02 4.970000000000000000e+02 4.980000000000000000e+02 4.990000000000000000e+02 5.000000000000000000e+02 5.010000000000000000e+02 5.020000000000000000e+02 5.030000000000000000e+02 5.040000000000000000e+02 5.050000000000000000e+02 5.060000000000000000e+02 5.070000000000000000e+02 5.080000000000000000e+02 5.090000000000000000e+02 5.100000000000000000e+02 5.110000000000000000e+02 5.120000000000000000e+02 5.130000000000000000e+02 5.140000000000000000e+02 5.150000000000000000e+02 5.160000000000000000e+02 5.170000000000000000e+02 5.180000000000000000e+02 5.190000000000000000e+02 5.200000000000000000e+02 5.210000000000000000e+02 5.220000000000000000e+02 5.230000000000000000e+02 5.240000000000000000e+02 5.250000000000000000e+02 5.260000000000000000e+02 5.270000000000000000e+02 5.280000000000000000e+02 5.290000000000000000e+02 5.300000000000000000e+02 5.310000000000000000e+02 5.320000000000000000e+02 5.330000000000000000e+02 5.340000000000000000e+02 5.350000000000000000e+02 5.360000000000000000e+02 5.370000000000000000e+02 5.380000000000000000e+02 5.390000000000000000e+02 5.400000000000000000e+02 5.410000000000000000e+02 5.420000000000000000e+02 5.430000000000000000e+02 5.440000000000000000e+02 5.450000000000000000e+02 5.460000000000000000e+02 5.470000000000000000e+02 5.480000000000000000e+02 5.490000000000000000e+02 5.500000000000000000e+02 5.510000000000000000e+02 5.520000000000000000e+02 5.530000000000000000e+02 5.540000000000000000e+02 5.550000000000000000e+02 5.560000000000000000e+02 5.570000000000000000e+02 5.580000000000000000e+02 5.590000000000000000e+02 5.600000000000000000e+02 5.610000000000000000e+02 5.620000000000000000e+02 5.630000000000000000e+02 5.640000000000000000e+02 5.650000000000000000e+02 5.660000000000000000e+02 5.670000000000000000e+02 5.680000000000000000e+02 5.690000000000000000e+02 5.700000000000000000e+02 5.710000000000000000e+02 5.720000000000000000e+02 5.730000000000000000e+02 5.740000000000000000e+02 5.750000000000000000e+02 5.760000000000000000e+02 5.770000000000000000e+02 5.780000000000000000e+02 5.790000000000000000e+02 5.800000000000000000e+02 5.810000000000000000e+02 5.820000000000000000e+02 5.830000000000000000e+02 5.840000000000000000e+02 5.850000000000000000e+02 5.860000000000000000e+02 5.870000000000000000e+02 5.880000000000000000e+02 5.890000000000000000e+02 5.900000000000000000e+02 5.910000000000000000e+02 5.920000000000000000e+02 5.930000000000000000e+02 5.940000000000000000e+02 5.950000000000000000e+02 5.960000000000000000e+02 5.970000000000000000e+02 5.980000000000000000e+02 5.990000000000000000e+02 6.000000000000000000e+02 6.010000000000000000e+02 6.020000000000000000e+02 6.030000000000000000e+02 6.040000000000000000e+02 6.050000000000000000e+02 6.060000000000000000e+02 6.070000000000000000e+02 6.080000000000000000e+02 6.090000000000000000e+02 6.100000000000000000e+02 6.110000000000000000e+02 6.120000000000000000e+02 6.130000000000000000e+02 6.140000000000000000e+02 6.150000000000000000e+02 6.160000000000000000e+02 6.170000000000000000e+02 6.180000000000000000e+02 6.190000000000000000e+02 6.200000000000000000e+02 6.210000000000000000e+02 6.220000000000000000e+02 6.230000000000000000e+02 6.240000000000000000e+02 6.250000000000000000e+02 6.260000000000000000e+02 6.270000000000000000e+02 6.280000000000000000e+02 6.290000000000000000e+02 6.300000000000000000e+02 6.310000000000000000e+02 6.320000000000000000e+02 6.330000000000000000e+02 6.340000000000000000e+02 6.350000000000000000e+02 6.360000000000000000e+02 6.370000000000000000e+02 6.380000000000000000e+02 6.390000000000000000e+02 6.400000000000000000e+02 6.410000000000000000e+02 6.420000000000000000e+02 6.430000000000000000e+02 6.440000000000000000e+02 6.450000000000000000e+02 6.460000000000000000e+02 6.470000000000000000e+02 6.480000000000000000e+02 6.490000000000000000e+02 6.500000000000000000e+02 6.510000000000000000e+02 6.520000000000000000e+02 6.530000000000000000e+02 6.540000000000000000e+02 6.550000000000000000e+02 6.560000000000000000e+02 6.570000000000000000e+02 6.580000000000000000e+02 6.590000000000000000e+02 6.600000000000000000e+02 6.610000000000000000e+02 6.620000000000000000e+02 6.630000000000000000e+02 6.640000000000000000e+02 6.650000000000000000e+02 6.660000000000000000e+02 6.670000000000000000e+02 6.680000000000000000e+02 6.690000000000000000e+02 6.700000000000000000e+02 6.710000000000000000e+02 6.720000000000000000e+02 6.730000000000000000e+02 6.740000000000000000e+02 6.750000000000000000e+02 6.760000000000000000e+02 6.770000000000000000e+02 6.780000000000000000e+02 6.790000000000000000e+02 6.800000000000000000e+02 6.810000000000000000e+02 6.820000000000000000e+02 6.830000000000000000e+02 6.840000000000000000e+02 6.850000000000000000e+02 6.860000000000000000e+02 6.870000000000000000e+02 6.880000000000000000e+02 6.890000000000000000e+02 6.900000000000000000e+02 6.910000000000000000e+02 6.920000000000000000e+02 6.930000000000000000e+02 6.940000000000000000e+02 6.950000000000000000e+02 6.960000000000000000e+02 6.970000000000000000e+02 6.980000000000000000e+02 6.990000000000000000e+02 7.000000000000000000e+02 7.010000000000000000e+02 7.020000000000000000e+02 7.030000000000000000e+02 7.040000000000000000e+02 7.050000000000000000e+02 7.060000000000000000e+02 7.070000000000000000e+02 7.080000000000000000e+02 7.090000000000000000e+02 7.100000000000000000e+02 7.110000000000000000e+02 7.120000000000000000e+02 7.130000000000000000e+02 7.140000000000000000e+02 7.150000000000000000e+02 7.160000000000000000e+02 7.170000000000000000e+02 7.180000000000000000e+02 7.190000000000000000e+02 7.200000000000000000e+02 7.210000000000000000e+02 7.220000000000000000e+02 7.230000000000000000e+02 7.240000000000000000e+02 7.250000000000000000e+02 7.260000000000000000e+02 7.270000000000000000e+02 7.280000000000000000e+02 7.290000000000000000e+02 7.300000000000000000e+02 7.310000000000000000e+02 7.320000000000000000e+02 7.330000000000000000e+02 7.340000000000000000e+02 7.350000000000000000e+02 7.360000000000000000e+02 7.370000000000000000e+02 7.380000000000000000e+02 7.390000000000000000e+02 7.400000000000000000e+02 7.410000000000000000e+02 7.420000000000000000e+02 7.430000000000000000e+02 7.440000000000000000e+02 7.450000000000000000e+02 7.460000000000000000e+02 7.470000000000000000e+02 7.480000000000000000e+02 7.490000000000000000e+02 7.500000000000000000e+02 7.510000000000000000e+02 7.520000000000000000e+02 7.530000000000000000e+02 7.540000000000000000e+02 7.550000000000000000e+02 7.560000000000000000e+02 7.570000000000000000e+02 7.580000000000000000e+02 7.590000000000000000e+02 7.600000000000000000e+02 7.610000000000000000e+02 7.620000000000000000e+02 7.630000000000000000e+02 7.640000000000000000e+02 7.650000000000000000e+02 7.660000000000000000e+02 7.670000000000000000e+02 7.680000000000000000e+02 7.690000000000000000e+02 7.700000000000000000e+02 7.710000000000000000e+02 7.720000000000000000e+02 7.730000000000000000e+02 7.740000000000000000e+02 7.750000000000000000e+02 7.760000000000000000e+02 7.770000000000000000e+02 7.780000000000000000e+02 7.790000000000000000e+02 7.800000000000000000e+02 7.810000000000000000e+02 7.820000000000000000e+02 7.830000000000000000e+02 7.840000000000000000e+02 7.850000000000000000e+02 7.860000000000000000e+02 7.870000000000000000e+02 7.880000000000000000e+02 7.890000000000000000e+02 7.900000000000000000e+02 7.910000000000000000e+02 7.920000000000000000e+02 7.930000000000000000e+02 7.940000000000000000e+02 7.950000000000000000e+02 7.960000000000000000e+02 7.970000000000000000e+02 7.980000000000000000e+02 7.990000000000000000e+02 8.000000000000000000e+02 8.010000000000000000e+02 8.020000000000000000e+02 8.030000000000000000e+02 8.040000000000000000e+02 8.050000000000000000e+02 8.060000000000000000e+02 8.070000000000000000e+02 8.080000000000000000e+02 8.090000000000000000e+02 8.100000000000000000e+02 8.110000000000000000e+02 8.120000000000000000e+02 8.130000000000000000e+02 8.140000000000000000e+02 8.150000000000000000e+02 8.160000000000000000e+02 8.170000000000000000e+02 8.180000000000000000e+02 8.190000000000000000e+02 8.200000000000000000e+02 8.210000000000000000e+02 8.220000000000000000e+02 8.230000000000000000e+02 8.240000000000000000e+02 8.250000000000000000e+02 8.260000000000000000e+02 8.270000000000000000e+02 8.280000000000000000e+02 8.290000000000000000e+02 8.300000000000000000e+02 8.310000000000000000e+02 8.320000000000000000e+02 8.330000000000000000e+02 8.340000000000000000e+02 8.350000000000000000e+02 8.360000000000000000e+02 8.370000000000000000e+02 8.380000000000000000e+02 8.390000000000000000e+02 8.400000000000000000e+02 8.410000000000000000e+02 8.420000000000000000e+02 8.430000000000000000e+02 8.440000000000000000e+02 8.450000000000000000e+02 8.460000000000000000e+02 8.470000000000000000e+02 8.480000000000000000e+02 8.490000000000000000e+02 8.500000000000000000e+02 8.510000000000000000e+02 8.520000000000000000e+02 8.530000000000000000e+02 8.540000000000000000e+02 8.550000000000000000e+02 8.560000000000000000e+02 8.570000000000000000e+02 8.580000000000000000e+02 8.590000000000000000e+02 8.600000000000000000e+02 8.610000000000000000e+02 8.620000000000000000e+02 8.630000000000000000e+02 8.640000000000000000e+02 8.650000000000000000e+02 8.660000000000000000e+02 8.670000000000000000e+02 8.680000000000000000e+02 8.690000000000000000e+02 8.700000000000000000e+02 8.710000000000000000e+02 8.720000000000000000e+02 8.730000000000000000e+02 8.740000000000000000e+02 8.750000000000000000e+02 8.760000000000000000e+02 8.770000000000000000e+02 8.780000000000000000e+02 8.790000000000000000e+02 8.800000000000000000e+02 8.810000000000000000e+02 8.820000000000000000e+02 8.830000000000000000e+02 8.840000000000000000e+02 8.850000000000000000e+02 8.860000000000000000e+02 8.870000000000000000e+02 8.880000000000000000e+02 8.890000000000000000e+02 8.900000000000000000e+02 8.910000000000000000e+02 8.920000000000000000e+02 8.930000000000000000e+02 8.940000000000000000e+02 8.950000000000000000e+02 8.960000000000000000e+02 8.970000000000000000e+02 8.980000000000000000e+02 8.990000000000000000e+02 9.000000000000000000e+02 9.010000000000000000e+02 9.020000000000000000e+02 9.030000000000000000e+02 9.040000000000000000e+02 9.050000000000000000e+02 9.060000000000000000e+02 9.070000000000000000e+02 9.080000000000000000e+02 9.090000000000000000e+02 9.100000000000000000e+02 9.110000000000000000e+02 9.120000000000000000e+02 9.130000000000000000e+02 9.140000000000000000e+02 9.150000000000000000e+02 9.160000000000000000e+02 9.170000000000000000e+02 9.180000000000000000e+02 9.190000000000000000e+02 9.200000000000000000e+02 9.210000000000000000e+02 9.220000000000000000e+02 9.230000000000000000e+02 9.240000000000000000e+02 9.250000000000000000e+02 9.260000000000000000e+02 9.270000000000000000e+02 9.280000000000000000e+02 9.290000000000000000e+02 9.300000000000000000e+02 9.310000000000000000e+02 9.320000000000000000e+02 9.330000000000000000e+02 9.340000000000000000e+02 9.350000000000000000e+02 9.360000000000000000e+02 9.370000000000000000e+02 9.380000000000000000e+02 9.390000000000000000e+02 9.400000000000000000e+02 9.410000000000000000e+02 9.420000000000000000e+02 9.430000000000000000e+02 9.440000000000000000e+02 9.450000000000000000e+02 9.460000000000000000e+02 9.470000000000000000e+02 9.480000000000000000e+02 9.490000000000000000e+02 9.500000000000000000e+02 9.510000000000000000e+02 9.520000000000000000e+02 9.530000000000000000e+02 9.540000000000000000e+02 9.550000000000000000e+02 9.560000000000000000e+02 9.570000000000000000e+02 9.580000000000000000e+02 9.590000000000000000e+02 9.600000000000000000e+02 9.610000000000000000e+02 9.620000000000000000e+02 9.630000000000000000e+02 9.640000000000000000e+02 9.650000000000000000e+02 9.660000000000000000e+02 9.670000000000000000e+02 9.680000000000000000e+02 9.690000000000000000e+02 9.700000000000000000e+02 9.710000000000000000e+02 9.720000000000000000e+02 9.730000000000000000e+02 9.740000000000000000e+02 9.750000000000000000e+02 9.760000000000000000e+02 9.770000000000000000e+02 9.780000000000000000e+02 9.790000000000000000e+02 9.800000000000000000e+02 9.810000000000000000e+02 9.820000000000000000e+02 9.830000000000000000e+02 9.840000000000000000e+02 9.850000000000000000e+02 9.860000000000000000e+02 9.870000000000000000e+02 9.880000000000000000e+02 9.890000000000000000e+02 9.900000000000000000e+02 9.910000000000000000e+02 9.920000000000000000e+02 9.930000000000000000e+02 9.940000000000000000e+02 9.950000000000000000e+02 9.960000000000000000e+02 9.970000000000000000e+02 9.980000000000000000e+02 9.990000000000000000e+02 1.000000000000000000e+03
1.000000000000000021e-02 1.000000000000000021e-02 1.000000000000000021e-02 1.000000000000000021e-02 1.000000000000000021e-02 1.000000000000000021e-02 1.000000000000000021e-02 1.000000000000000021e-02 1.000000000000000021e-02 1.000000000000000021e-02 1.000000000000000021e-02 1.000000000000000021e-02 1.000000000000000021e-02 1.000000000000000021e-02 1.000000000000000021e-02 1.000000000000000021e-02 1.000000000000000021e-02 1.000000000000000021e-02 1.000000000000000021e-02 1.000000000000000021e-02 1.000000000000000021e-02 1.000000000000000021e-02 1.000000000000000021e-02 1.000000000000000021e-02 1.000000000000000021e-02 1.000000000000000021e-02 1.000000000000000021e-02 1.000000000000000021e-02 1.000000000000000021e-02 1.000000000000000021e-02 1.000000000000000021e-02 1.000000000000000021e-02 1.000000000000000021e-02 1.000000000000000021e-02 1.000000000000000021e-02 1.000000000000000021e-02 1.000000000000000021e-02 1.000000000000000021e-02 1.000000000000000021e-02 1.000000000000000021e-02 1.000000000000000021e-02 1.000000000000000021e-02 1.000000000000000021e-02 1.000000000000000021e-02 1.000000000000000021e-02 1.000000000000000021e-02 1.000000000000000021e-02 1.000000000000000021e-02 1.000000000000000021e-02 1.000000000000000021e-02 1.000000000000000021e-02 1.000000000000000021e-02 1.000000000000000021e-02 1.000000000000000021e-02 1.000000000000000021e-02 1.000000000000000021e-02 1.000000000000000021e-02 1.000000000000000021e-02 1.000000000000000021e-02 1.000000000000000021e-02 1.000000000000000021e-02 1.000000000000000021e-02 1.000000000000000021e-02 1.000000000000000021e-02 1.000000000000000021e-02 1.000000000000000021e-02 1.000000000000000021e-02 1.000000000000000021e-02 1.000000000000000021e-02 1.000000000000000021e-02 1.000000000000000021e-02 1.000000000000000021e-02 1.000000000000000021e-02 1.000000000000000021e-02 1.000000000000000021e-02 1.000000000000000021e-02 1.000000000000000021e-02 1.000000000000000021e-02 1.000000000000000021e-02 1.000000000000000021e-02 1.000000000000000021e-02 1.000000000000000021e-02 1.000000000000000021e-02 1.000000000000000021e-02 1.000000000000000021e-02 1.000000000000000021e-02 1.000000000000000021e-02 1.000000000000000021e-02 1.000000000000000021e-02 1.000000000000000021e-02 1.000000000000000021e-02 1.000000000000000021e-02 1.000000000000000021e-02 1.000000000000000021e-02 1.000000000000000021e-02 1.000000000000000021e-02 1.000000000000000021e-02 1.000000000000000021e-02 1.000000000000000021e-02 1.000000000000000021e-02 1.000000000000000021e-02 1.000000000000000021e-02 1.000000000000000021e-02 1.000000000000000021e-02 1.000000000000000021e-02 1.000000000000000021e-02 1.000000000000000021e-02 1.000000000000000021e-02 1.000000000000000021e-02 1.000000000000000021e-02 1.000000000000000021e-02 1.000000000000000021e-02 1.000000000000000021e-02 1.000000000000000021e-02 1.000000000000000021e-02 1.000000000000000021e-02 1.000000000000000021e-02 1.000000000000000021e-02 1.000000000000000021e-02 1.000000000000000021e-02 1.000000000000000021e-02 1.000000000000000021e-02 1.000000000000000021e-02 1.000000000000000021e-02 1.000000000000000021e-02 1.000000000000000021e-02 1.000000000000000021e-02 1.000000000000000021e-02 1.000000000000000021e-02 1.000000000000000021e-02 1.000000000000000021e-02 1.000000000000000021e-02 1.000000000000000021e-02 1.000000000000000021e-02 1.000000000000000021e-02 1.000000000000000021e-02 1.000000000000000021e-02 1.000000000000000021e-02 1.000000000000000021e-02 1.000000000000000021e-02 1.000000000000000021e-02 1.000000000000000021e-02 1.000000000000000021e-02 1.000000000000000021e-02 1.000000000000000021e-02 1.000000000000000021e-02 1.000000000000000021e-02 1.000000000000000021e-02 1.000000000000000021e-02 1.000000000000000021e-02 1.000000000000000021e-02 1.000000000000000021e-02 1.000000000000000021e-02 1.000000000000000021e-02 1.000000000000000021e-02 1.000000000000000021e-02 1.000000000000000021e-02 1.000000000000000021e-02 1.000000000000000021e-02 1.000000000000000021e-02 1.000000000000000021e-02 1.000000000000000021e-02 1.000000000000000021e-02 1.000000000000000021e-02 1.000000000000000021e-02 1.000000000000000021e-02 1.000000000000000021e-02 1.000000000000000021e-02 1.000000000000000021e-02 1.000000000000000021e-02 1.000000000000000021e-02 1.000000000000000021e-02 1.000000000000000021e-02 1.000000000000000021e-02 1.000000000000000021e-02 1.000000000000000021e-02 1.000000000000000021e-02 1.000000000000000021e-02 1.000000000000000021e-02 1.000000000000000021e-02 1.000000000000000021e-02 1.000000000000000021e-02 1.000000000000000021e-02 1.000000000000000021e-02 1.000000000000000021e-02 1.000000000000000021e-02 1.000000000000000021e-02 1.000000000000000021e-02 1.000000000000000021e-02 1.000000000000000021e-02 1.000000000000000021e-02 1.000000000000000021e-02 1.000000000000000021e-02 1.000000000000000021e-02 1.000000000000000021e-02 1.000000000000000021e-02 1.000000000000000021e-02 1.000000000000000021e-02 1.000000000000000021e-02 1.000000000000000021e-02 1.000000000000000021e-02 1.000000000000000021e-02 1.000000000000000021e-02 1.000000000000000021e-02 1.000000000000000021e-02 1.000000000000000021e-02 1.000000000000000021e-02 1.000000000000000021e-02 1.000000000000000021e-02 1.000000000000000021e-02 1.000000000000000021e-02 1.000000000000000021e-02 1.000000000000000021e-02 1.000000000000000021e-02 1.000000000000000021e-02 1.000000000000000021e-02 1.000000000000000021e-02 1.000000000000000021e-02 1.000000000000000021e-02 1.000000000000000021e-02 1.000000000000000021e-02 1.000000000000000021e-02 1.000000000000000021e-02 1.000000000000000021e-02 1.000000000000000021e-02 1.000000000000000021e-02 1.000000000000000021e-02 1.000000000000000021e-02 1.000000000000000021e-02 1.000000000000000021e-02 1.000000000000000021e-02 1.000000000000000021e-02 1.000000000000000021e-02 1.000000000000000021e-02 1.000000000000000021e-02 1.000000000000000021e-02 1.000000000000000021e-02 1.000000000000000021e-02 1.000000000000000021e-02 1.000000000000000021e-02 1.000000000000000021e-02 1.000000000000000021e-02 1.000000000000000021e-02 1.000000000000000021e-02 1.000000000000000021e-02 1.000000000000000021e-02 1.000000000000000021e-02 1.000000000000000021e-02 1.000000000000000021e-02 1.000000000000000021e-02 1.000000000000000021e-02 1.000000000000000021e-02 1.000000000000000021e-02 1.000000000000000021e-02 1.000000000000000021e-02 1.000000000000000021e-02 1.000000000000000021e-02 1.000000000000000021e-02 1.000000000000000021e-02 1.000000000000000021e-02 1.000000000000000021e-02 1.000000000000000021e-02 1.000000000000000021e-02 1.000000000000000021e-02 1.000000000000000021e-02 1.000000000000000021e-02 1.000000000000000021e-02 1.000000000000000021e-02 1.000000000000000021e-02 1.000000000000000021e-02 1.000000000000000021e-02 1.000000000000000021e-02 1.000000000000000021e-02 1.000000000000000021e-02 1.000000000000000021e-02 1.000000000000000021e-02 1.000000000000000021e-02 1.000000000000000021e-02 1.000000000000000021e-02 1.000000000000000021e-02 1.000000000000000021e-02 1.000000000000000021e-02 1.000000000000000021e-02 1.000000000000000021e-02 1.000000000000000021e-02 1.000000000000000021e-02 1.000000000000000021e-02 1.000000000000000021e-02 1.000000000000000021e-02 1.000000000000000021e-02 1.000000000000000021e-02 1.000000000000000021e-02 1.000000000000000021e-02 1.000000000000000021e-02 1.000000000000000021e-02 1.000000000000000021e-02 1.000000000000000021e-02 1.000000000000000021e-02 1.000000000000000021e-02 1.000000000000000021e-02 1.000000000000000021e-02 1.000000000000000021e-02 1.000000000000000021e-02 1.000000000000000021e-02 1.000000000000000021e-02 1.000000000000000021e-02 1.000000000000000021e-02 1.000000000000000021e-02 1.000000000000000021e-02 1.000000000000000021e-02 1.000000000000000021e-02 1.000000000000000021e-02 1.000000000000000021e-02 1.000000000000000021e-02 1.000000000000000021e-02 1.000000000000000021e-02 1.000000000000000021e-02 1.000000000000000021e-02 1.000000000000000021e-02 1.000000000000000021e-02 1.000000000000000021e-02 1.000000000000000021e-02 1.000000000000000021e-02 1.000000000000000021e-02 1.000000000000000021e-02 1.000000000000000021e-02 1.000000000000000021e-02 1.000000000000000021e-02 1.000000000000000021e-02 1.000000000000000021e-02 1.000000000000000021e-02 1.000000000000000021e-02 1.000000000000000021e-02 1.000000000000000021e-02 1.000000000000000021e-02 1.000000000000000021e-02 1.000000000000000021e-02 1.000000000000000021e-02 1.000000000000000021e-02 1.000000000000000021e-02 1.000000000000000021e-02 1.000000000000000021e-02 1.000000000000000021e-02 1.000000000000000021e-02 1.000000000000000021e-02 1.000000000000000021e-02 1.000000000000000021e-02 1.000000000000000021e-02 1.000000000000000021e-02 1.000000000000000021e-02 1.000000000000000021e-02 1.000000000000000021e-02 1.000000000000000021e-02 1.000000000000000021e-02 1.000000000000000021e-02 1.000000000000000021e-02 1.000000000000000021e-02 1.000000000000000021e-02 1.000000000000000021e-02 1.000000000000000021e-02 1.000000000000000021e-02 1.000000000000000021e-02 1.000000000000000021e-02 1.000000000000000021e-02 1.000000000000000021e-02 1.000000000000000021e-02 1.000000000000000021e-02 1.000000000000000021e-02 1.000000000000000021e-02 1.000000000000000021e-02 1.000000000000000021e-02 1.000000000000000021e-02 1.000000000000000021e-02 1.000000000000000021e-02 1.000000000000000021e-02 1.000000000000000021e-02 1.000000000000000021e-02 1.000000000000000021e-02 1.000000000000000021e-02 1.000000000000000021e-02 1.000000000000000021e-02 1.000000000000000021e-02 1.000000000000000021e-02 1.000000000000000021e-02 1.000000000000000021e-02 1.000000000000000021e-02 1.000000000000000021e-02 1.000000000000000021e-02 1.000000000000000021e-02 1.000000000000000021e-02 1.000000000000000021e-02 1.000000000000000021e-02 1.000000000000000021e-02 1.000000000000000021e-02 1.000000000000000021e-02 1.000000000000000021e-02 1.000000000000000021e-02 1.000000000000000021e-02 1.000000000000000021e-02 1.000000000000000021e-02 1.000000000000000021e-02 1.000000000000000021e-02 1.000000000000000021e-02 1.000000000000000021e-02 1.000000000000000021e-02 1.000000000000000021e-02 1.000000000000000021e-02 1.000000000000000021e-02 1.000000000000000021e-02 1.000000000000000021e-02 1.000000000000000021e-02 1.000000000000000021e-02 1.000000000000000021e-02 1.000000000000000021e-02 1.000000000000000021e-02 1.000000000000000021e-02 1.000000000000000021e-02 1.000000000000000021e-02 1.000000000000000021e-02 1.000000000000000021e-02 1.000000000000000021e-02 1.000000000000000021e-02 1.000000000000000021e-02 1.000000000000000021e-02 1.000000000000000021e-02 1.000000000000000021e-02 1.000000000000000021e-02 1.000000000000000021e-02 1.000000000000000021e-02 1.000000000000000021e-02 1.000000000000000021e-02 1.000000000000000021e-02 1.000000000000000021e-02 1.000000000000000021e-02 1.000000000000000021e-02 1.000000000000000021e-02 1.000000000000000021e-02 1.000000000000000021e-02 1.000000000000000021e-02 1.000000000000000021e-02 1.000000000000000021e-02 1.000000000000000021e-02 1.000000000000000021e-02 1.000000000000000021e-02 1.000000000000000021e-02 1.000000000000000021e-02 1.000000000000000021e-02 1.000000000000000021e-02 1.000000000000000021e-02 1.000000000000000021e-02 1.000000000000000021e-02 1.000000000000000021e-02 1.000000000000000021e-02 1.000000000000000021e-02 1.000000000000000021e-02 1.000000000000000021e-02 1.000000000000000021e-02 1.000000000000000021e-02 1.000000000000000021e-02 1.000000000000000021e-02 1.000000000000000021e-02 1.000000000000000021e-02 1.000000000000000021e-02 1.000000000000000021e-02 1.000000000000000021e-02 1.000000000000000021e-02 1.000000000000000021e-02 1.000000000000000021e-02 1.000000000000000021e-02 1.000000000000000021e-02 1.000000000000000021e-02 1.000000000000000021e-02 1.000000000000000021e-02 1.000000000000000021e-02 1.000000000000000021e-02 1.000000000000000021e-02 1.000000000000000021e-02 1.000000000000000021e-02 1.000000000000000021e-02 1.000000000000000021e-02 1.000000000000000021e-02 1.000000000000000021e-02 1.000000000000000021e-02 1.000000000000000021e-02 1.000000000000000021e-02 1.000000000000000021e-02 1.000000000000000021e-02 1.000000000000000021e-02 1.000000000000000021e-02 1.000000000000000021e-02 1.000000000000000021e-02 1.000000000000000021e-02 1.000000000000000021e-02 1.000000000000000021e-02 1.000000000000000021e-02 1.000000000000000021e-02 1.000000000000000021e-02 1.000000000000000021e-02 1.000000000000000021e-02 1.000000000000000021e-02 1.000000000000000021e-02 1.000000000000000021e-02 1.000000000000000021e-02 1.000000000000000021e-02 1.000000000000000021e-02 1.000000000000000021e-02 1.000000000000000021e-02 1.000000000000000021e-02 1.000000000000000021e-02 1.000000000000000021e-02 1.000000000000000021e-02 1.000000000000000021e-02 1.000000000000000021e-02 1.000000000000000021e-02 1.000000000000000021e-02 1.000000000000000021e-02 1.000000000000000021e-02 1.000000000000000021e-02 1.000000000000000021e-02 1.000000000000000021e-02 1.000000000000000021e-02 1.000000000000000021e-02 1.000000000000000021e-02 1.000000000000000021e-02 1.000000000000000021e-02 1.000000000000000021e-02 1.000000000000000021e-02 1.000000000000000021e-02 1.000000000000000021e-02 1.000000000000000021e-02 1.000000000000000021e-02 1.000000000000000021e-02 1.000000000000000021e-02 1.000000000000000021e-02 1.000000000000000021e-02 1.000000000000000021e-02 1.000000000000000021e-02 1.000000000000000021e-02 1.000000000000000021e-02 1.000000000000000021e-02 1.000000000000000021e-02 1.000000000000000021e-02 1.000000000000000021e-02 1.000000000000000021e-02 1.000000000000000021e-02 1.000000000000000021e-02 1.000000000000000021e-02 1.000000000000000021e-02 1.000000000000000021e-02 1.000000000000000021e-02 1.000000000000000021e-02 1.000000000000000021e-02 1.000000000000000021e-02 1.000000000000000021e-02 1.000000000000000021e-02 1.000000000000000021e-02 1.000000000000000021e-02 1.000000000000000021e-02 1.000000000000000021e-02 1.000000000000000021e-02 1.000000000000000021e-02 1.000000000000000021e-02 1.000000000000000021e-02 1.000000000000000021e-02 1.000000000000000021e-02 1.000000000000000021e-02 1.000000000000000021e-02 1.000000000000000021e-02 1.000000000000000021e-02 1.000000000000000021e-02 1.000000000000000021e-02 1.000000000000000021e-02 1.000000000000000021e-02 1.000000000000000021e-02 1.000000000000000021e-02 1.000000000000000021e-02 1.000000000000000021e-02 1.000000000000000021e-02 1.000000000000000021e-02 1.000000000000000021e-02 1.000000000000000021e-02 1.000000000000000021e-02 1.000000000000000021e-02 1.000000000000000021e-02 1.000000000000000021e-02 1.000000000000000021e-02 1.000000000000000021e-02 1.000000000000000021e-02 1.000000000000000021e-02 1.000000000000000021e-02 1.000000000000000021e-02 1.000000000000000021e-02 1.000000000000000021e-02 1.000000000000000021e-02 1.000000000000000021e-02 1.000000000000000021e-02 1.000000000000000021e-02 1.000000000000000021e-02 1.000000000000000021e-02 1.000000000000000021e-02 1.000000000000000021e-02 1.000000000000000021e-02 1.000000000000000021e-02 1.000000000000000021e-02 1.000000000000000021e-02 1.000000000000000021e-02 1.000000000000000021e-02 1.000000000000000021e-02 1.000000000000000021e-02 1.000000000000000021e-02 1.000000000000000021e-02 1.000000000000000021e-02 1.000000000000000021e-02 1.000000000000000021e-02 1.000000000000000021e-02 1.000000000000000021e-02 1.000000000000000021e-02 1.000000000000000021e-02 1.000000000000000021e-02 1.000000000000000021e-02 1.000000000000000021e-02 1.000000000000000021e-02 1.000000000000000021e-02 1.000000000000000021e-02 1.000000000000000021e-02 1.000000000000000021e-02 1.000000000000000021e-02 1.000000000000000021e-02 1.000000000000000021e-02 1.000000000000000021e-02 1.000000000000000021e-02 1.000000000000000021e-02 1.000000000000000021e-02 1.000000000000000021e-02 1.000000000000000021e-02 1.000000000000000021e-02 1.000000000000000021e-02 1.000000000000000021e-02 1.000000000000000021e-02 1.000000000000000021e-02 1.000000000000000021e-02 1.000000000000000021e-02 1.000000000000000021e-02 1.000000000000000021e-02 1.000000000000000021e-02 1.000000000000000021e-02 1.000000000000000021e-02 1.000000000000000021e-02 1.000000000000000021e-02 1.000000000000000021e-02 1.000000000000000021e-02 1.000000000000000021e-02 1.000000000000000021e-02 1.000000000000000021e-02 1.000000000000000021e-02 1.000000000000000021e-02 1.000000000000000021e-02 1.000000000000000021e-02 1.000000000000000021e-02 1.000000000000000021e-02 1.000000000000000021e-02 1.000000000000000021e-02 1.000000000000000021e-02 1.000000000000000021e-02 1.000000000000000021e-02 1.000000000000000021e-02 1.000000000000000021e-02 1.000000000000000021e-02 1.000000000000000021e-02 1.000000000000000021e-02 1.000000000000000021e-02 1.000000000000000021e-02 1.000000000000000021e-02 1.000000000000000021e-02 1.000000000000000021e-02 1.000000000000000021e-02 1.000000000000000021e-02 1.000000000000000021e-02 1.000000000000000021e-02 1.000000000000000021e-02 1.000000000000000021e-02 1.000000000000000021e-02 1.000000000000000021e-02 1.000000000000000021e-02 1.000000000000000021e-02 1.000000000000000021e-02 1.000000000000000021e-02 1.000000000000000021e-02 1.000000000000000021e-02 1.000000000000000021e-02 1.000000000000000021e-02 1.000000000000000021e-02 1.000000000000000021e-02 1.000000000000000021e-02 1.000000000000000021e-02 1.000000000000000021e-02 1.000000000000000021e-02 1.000000000000000021e-02 1.000000000000000021e-02 1.000000000000000021e-02 1.000000000000000021e-02 1.000000000000000021e-02 1.000000000000000021e-02 1.000000000000000021e-02 1.000000000000000021e-02 1.000000000000000021e-02 1.000000000000000021e-02 1.000000000000000021e-02 1.000000000000000021e-02 1.000000000000000021e-02 1.000000000000000021e-02 1.000000000000000021e-02 1.000000000000000021e-02 1.000000000000000021e-02 1.000000000000000021e-02 1.000000000000000021e-02 1.000000000000000021e-02 1.000000000000000021e-02 1.000000000000000021e-02 1.000000000000000021e-02 1.000000000000000021e-02 1.000000000000000021e-02 1.000000000000000021e-02 1.000000000000000021e-02 1.000000000000000021e-02 1.000000000000000021e-02 1.000000000000000021e-02 1.000000000000000021e-02 1.000000000000000021e-02 1.000000000000000021e-02 1.000000000000000021e-02 1.000000000000000021e-02 1.000000000000000021e-02 1.000000000000000021e-02 1.000000000000000021e-02 1.000000000000000021e-02 1.000000000000000021e-02 1.000000000000000021e-02 1.000000000000000021e-02 1.000000000000000021e-02 1.000000000000000021e-02 1.000000000000000021e-02 1.000000000000000021e-02 1.000000000000000021e-02 1.000000000000000021e-02 1.000000000000000021e-02 1.000000000000000021e-02 1.000000000000000021e-02 1.000000000000000021e-02 1.000000000000000021e-02 1.000000000000000021e-02 1.000000000000000021e-02 1.000000000000000021e-02 1.000000000000000021e-02 1.000000000000000021e-02 1.000000000000000021e-02 1.000000000000000021e-02 1.000000000000000021e-02 1.000000000000000021e-02 1.000000000000000021e-02 1.000000000000000021e-02 1.000000000000000021e-02 1.000000000000000021e-02 1.000000000000000021e-02 1.000000000000000021e-02 1.000000000000000021e-02 1.000000000000000021e-02 1.000000000000000021e-02 1.000000000000000021e-02 1.000000000000000021e-02 1.000000000000000021e-02 1.000000000000000021e-02 1.000000000000000021e-02 1.000000000000000021e-02 1.000000000000000021e-02 1.000000000000000021e-02 1.000000000000000021e-02 1.000000000000000021e-02 1.000000000000000021e-02 1.000000000000000021e-02 1.000000000000000021e-02 1.000000000000000021e-02 1.000000000000000021e-02 1.000000000000000021e-02 1.000000000000000021e-02 1.000000000000000021e-02 1.000000000000000021e-02 1.000000000000000021e-02 1.000000000000000021e-02 1.000000000000000021e-02 1.000000000000000021e-02 1.000000000000000021e-02 1.000000000000000021e-02 1.000000000000000021e-02 1.000000000000000021e-02 1.000000000000000021e-02 1.000000000000000021e-02 1.000000000000000021e-02 1.000000000000000021e-02 1.000000000000000021e-02 1.000000000000000021e-02 1.000000000000000021e-02 1.000000000000000021e-02 1.000000000000000021e-02 1.000000000000000021e-02 1.000000000000000021e-02 1.000000000000000021e-02 1.000000000000000021e-02 1.000000000000000021e-02 1.000000000000000021e-02 1.000000000000000021e-02 1.000000000000000021e-02 1.000000000000000021e-02 1.000000000000000021e-02 1.000000000000000021e-02 1.000000000000000021e-02 1.000000000000000021e-02 1.000000000000000021e-02 1.000000000000000021e-02 1.000000000000000021e-02 1.000000000000000021e-02 1.000000000000000021e-02 1.000000000000000021e-02 1.000000000000000021e-02 1.000000000000000021e-02 1.000000000000000021e-02 1.000000000000000021e-02 1.000000000000000021e-02 1.000000000000000021e-02 1.000000000000000021e-02 1.000000000000000021e-02 1.000000000000000021e-02 1.000000000000000021e-02 1.000000000000000021e-02 1.000000000000000021e-02 1.000000000000000021e-02 1.000000000000000021e-02 1.000000000000000021e-02 1.000000000000000021e-02 1.000000000000000021e-02 1.000000000000000021e-02 1.000000000000000021e-02 1.000000000000000021e-02 1.000000000000000021e-02 1.000000000000000021e-02 1.000000000000000021e-02 1.000000000000000021e-02 1.000000000000000021e-02 1.000000000000000021e-02 1.000000000000000021e-02 1.000000000000000021e-02 1.000000000000000021e-02 1.000000000000000021e-02 1.000000000000000021e-02 1.000000000000000021e-02 1.000000000000000021e-02 1.000000000000000021e-02 1.000000000000000021e-02 1.000000000000000021e-02 1.000000000000000021e-02 1.000000000000000021e-02 1.000000000000000021e-02 1.000000000000000021e-02 1.000000000000000021e-02 1.000000000000000021e-02 1.000000000000000021e-02 1.000000000000000021e-02 1.000000000000000021e-02 1.000000000000000021e-02 1.000000000000000021e-02 1.000000000000000021e-02 1.000000000000000021e-02 1.000000000000000021e-02 1.000000000000000021e-02 1.000000000000000021e-02 1.000000000000000021e-02 1.000000000000000021e-02 1.000000000000000021e-02 1.000000000000000021e-02 1.000000000000000021e-02 1.000000000000000021e-02 1.000000000000000021e-02 1.000000000000000021e-02 1.000000000000000021e-02 1.000000000000000021e-02 1.000000000000000021e-02 1.000000000000000021e-02 1.000000000000000021e-02 1.000000000000000021e-02 1.000000000000000021e-02 1.000000000000000021e-02 1.000000000000000021e-02 1.000000000000000021e-02 1.000000000000000021e-02 1.000000000000000021e-02 1.000000000000000021e-02 1.000000000000000021e-02 1.000000000000000021e-02 1.000000000000000021e-02 1.000000000000000021e-02 1.000000000000000021e-02 1.000000000000000021e-02 1.000000000000000021e-02 1.000000000000000021e-02 1.000000000000000021e-02 1.000000000000000021e-02 1.000000000000000021e-02 1.000000000000000021e-02 1.000000000000000021e-02 1.000000000000000021e-02 1.000000000000000021e-02 1.000000000000000021e-02 1.000000000000000021e-02 1.000000000000000021e-02 1.000000000000000021e-02 1.000000000000000021e-02 1.000000000000000021e-02 1.000000000000000021e-02 1.000000000000000021e-02 1.000000000000000021e-02 1.000000000000000021e-02 1.000000000000000021e-02 1.000000000000000021e-02 1.000000000000000021e-02 1.000000000000000021e-02 1.000000000000000021e-02 1.000000000000000021e-02 1.000000000000000021e-02 1.000000000000000021e-02 1.000000000000000021e-02 1.000000000000000021e-02 1.000000000000000021e-02 1.000000000000000021e-02 1.000000000000000021e-02 1.000000000000000021e-02 1.000000000000000021e-02 1.000000000000000021e-02 1.000000000000000021e-02 1.000000000000000021e-02 1.000000000000000021e-02 1.000000000000000021e-02 1.000000000000000021e-02 1.000000000000000021e-02 1.000000000000000021e-02 1.000000000000000021e-02 1.000000000000000021e-02 1.000000000000000021e-02 1.000000000000000021e-02 1.000000000000000021e-02 1.000000000000000021e-02 1.000000000000000021e-02 1.000000000000000021e-02 1.000000000000000021e-02 1.000000000000000021e-02 1.000000000000000021e-02 1.000000000000000021e-02 1.000000000000000021e-02 1.000000000000000021e-02 1.000000000000000021e-02 1.000000000000000021e-02 1.000000000000000021e-02 1.000000000000000021e-02 1.000000000000000021e-02 1.000000000000000021e-02 1.000000000000000021e-02 1.000000000000000021e-02 1.000000000000000021e-02 1.000000000000000021e-02 1.000000000000000021e-02 1.000000000000000021e-02 1.000000000000000021e-02 1.000000000000000021e-02 1.000000000000000021e-02 1.000000000000000021e-02 1.000000000000000021e-02 1.000000000000000021e-02 1.000000000000000021e-02 1.000000000000000021e-02 1.000000000000000021e-02 1.000000000000000021e-02 1.000000000000000021e-02 1.000000000000000021e-02 1.000000000000000021e-02 1.000000000000000021e-02 1.000000000000000021e-02 1.000000000000000021e-02 1.000000000000000021e-02 1.000000000000000021e-02 1.000000000000000021e-02 1.000000000000000021e-02 1.000000000000000021e-02 1.000000000000000021e-02 1.000000000000000021e-02 1.000000000000000021e-02 1.000000000000000021e-02 1.000000000000000021e-02 1.000000000000000021e-02 1.000000000000000021e-02 1.000000000000000021e-02 1.000000000000000021e-02
-1.136744667753636406e+02 1.727217375960528329e+02 4.009216761363150283e+01 -9.014689765905734120e+00 -8.952238369937721529e+01 -1.364263852853829739e+01 -2.117606660104310095e+02 6.899306970732539401e-01 -8.632147157673949778e+01 -1.424780429913141333e+01 -2.019354179969690577e+01 6.624028396353025983e+00 -1.813889487783621135e+00 1.709260828994051451e+02 8.619619378907050589e+01 -3.948466815459056534e+01 -5.375345686506850029e+01 8.069861244781279197e+01 3.343081548181604745e+01 -2.583685677283080651e+01 -8.033364993321113445e+01 -7.520222093633145732e+01 -1.407193063370829655e+01 2.947456335360145729e+01 -1.985741320443068503e+02 -1.005935885968125802e+02 -2.657325957285351592e+01 2.054197563459455296e+02 7.208841698961090572e+01 7.813779674297022382e+01 8.179171185170523017e+01 1.209523858158189302e+00 -8.066976731085973995e+01 2.112834750312456720e+02 -2.493936931629732499e+02 5.989997240259230438e+01 -1.224278860450903466e+02 -3.532499431967323744e+01 4.106618693676505671e+00 1.290843501285744992e+02 -1.252158445270067517e+02 -1.392030995631491841e+01 7.882526334832448356e+01 1.768434849819590511e+02 7.271013882002091577e+01 -6.972640706693684365e+01 4.202609731742415988e+01 -2.890483318507707011e+01 -6.730480178679319181e+01 1.595358919726505462e+02 -7.193312767566337129e+01 -5.310590111357870313e+01 -1.419073261228001570e+02 5.824265333431213776e+00 -5.149923300212648769e+01 3.938574127476667996e+01 -9.039388313847894096e+01 -5.101018046159485664e+01 -1.033169563889872364e+02 -1.583656114802712978e+02 1.984384500590537215e+01 4.618612628717868063e+01 -1.254400469270332934e+02 1.310494401694883138e+01 -8.081001228978907136e+01 5.004343772637744792e+01 1.697411344886621976e+02 -1.469773463351584155e+02 -4.413952590980068891e+01 7.317079617614372644e+00 2.978801196078646907e+00 4.317667144703402471e+01 8.557183824651666271e+01 9.373176868217993896e-01 -8.948116565092435692e+00 -7.136447974891370905e+01 7.975296212022446696e+01 -3.341479435508455964e+01 2.678420547027129217e+01 1.059782302883637755e+02 8.991387441213517207e+01 -4.355620269553581636e+01 5.892522740911784496e+01 1.502369511196877454e+02 1.184068624111697261e+02 -4.115000942575548493e+00 1.775285697482880778e+02 -1.136260392708939406e+02 4.297066529532335366e+00 -4.273400773894288562e+01 2.107759517949217525e+02 -2.162611794956803735e+01 2.926228199624975268e+00 -7.824120663189997060e+01 -7.264235360280508758e+00 -6.507458975700083670e+01 6.904984526699250580e+01 -9.634114043785403680e+01 6.984336577173256444e+01 -4.864331487149794953e+01 -5.071720229629035970e+01 -9.339779261674672739e+01 5.411781146123628616e+01 -5.577615039036165001e+01 -1.521769677842081876e+02 -8.099226666770609029e+01 -1.066114289012229648e+02 -1.602243687763841251e+02 1.385389132032797477e+02 -2.804532911543456919e+01 3.263322764640064122e+01 9.137605123292043174e+01 -1.060721409491494995e+02 5.806608670768036262e+01 -4.414943359260749389e+01 -7.061724047680411331e+01 -9.177755216577460828e+01 2.071790154652998694e+02 -5.782714668854107032e+01 -5.042128103335386413e+01 -4.813518491508558839e+01 8.193876855273505555e+01 -4.219050339274537720e+01 1.406335003725305626e+02 -5.079901695382123705e+01 5.612413665009997743e+01 4.628455430900178413e+00 -8.271299430579334455e+01 7.014762519371258520e+01 2.826714106509432440e+02 -9.376089978268696257e+01 4.841133941456824630e+01 -7.767622065037092227e+01 4.609953091355148302e+01 1.336998329794420783e+02 -5.234559840324439506e+01 1.485855279069576795e+01 -2.743277757823357632e+01 -1.038909287424852437e+02 -1.760550601027090778e+01 4.345215108832215734e+00 -7.976269528686526833e+00 -1.524869229870595788e+01 1.205424122377710603e+02 1.328597106458800567e+02 1.900639548562068910e+02 -3.102168547089004846e+02 3.896115383018230460e+01 -1.605032360407310321e+01 -6.357770640022185660e+01 1.838759561095007768e+02 7.773322837087651749e+01 -2.617321877075290626e+00 -1.182682103933742894e+02 -1.112951962844981502e+01 1.020791048161399459e+02 -1.370944401082488469e+02 -1.720155602583230063e+02 1.095069556708384084e+01 4.329514197490374983e+01 -6.224322836101195122e+01 4.288541591221046190e+01 -1.092621723210783529e+02 -1.544189262684620019e+02 2.155475774270131595e+01 4.957970064297295210e+01 4.895522668270295696e+00 -8.523472082232699165e+01 -9.554329529120350628e+01 -8.610399842996990571e+01 -8.938560681767400240e+01 1.288516789038557597e+01 5.805191373772331076e+01 1.189888514924293048e+02 8.114946053392418435e+01 9.143844539079253764e+01 1.097755272819587304e+02 -7.643758133772504948e+01 -8.434000638070759237e+01 7.208611448576391467e+01 6.996799778974470030e+01 6.056483331818111537e+01 -9.608521201849400839e+00 -9.315871011736875573e+01 5.522288304902988898e+01 -1.830997775074540925e+02 6.872060609396780251e+01 -4.560469422138746864e+01 -9.873958969933828200e+01 7.598036540036162023e+01 -1.753692736692325838e+01 -7.902068409734813770e+01 -5.888835178341348353e+01 -9.366322171309864331e+00 2.487078557030793036e+02 7.873613571844441594e+01 5.622015099361639301e+01 -1.065638407291930889e+02 1.520730065183251440e+02 1.063023699133074151e+00 -9.275866448011990428e+01 1.598940589655992426e+02 -1.582397275911063161e+02 1.619514137751298222e+01 -3.343384666759753543e+01 -2.281605389882143413e+02 -1.385361792754812313e+02 -9.058821235017619244e+01 -3.038732633717323850e+01 -1.238268708101316520e+02 5.987985738637998168e+01 6.747309094731902235e+01 -2.861852498841951231e+01 -1.035327881740792009e+02 1.174372771519064855e+02 1.227697298857429615e+02 4.799479291793321067e+01 1.812546607527547593e+01 2.714520046308182941e+02 4.537030761924118849e+01 -1.240404636783408847e+02 -4.679530160343415446e+01 -1.754625208672337919e+02 3.311659002388407202e+01 1.593455683470639030e+02 -1.542397696613068376e+02 1.369236420298195185e+02 -9.455504365175004011e+01 -1.964016904393251295e+01 -7.675884139307439513e-01 5.495014119407531439e+01 -1.207128759814025898e+01 -2.368860052058304433e+01 -1.968403980572732692e+01 -1.317240507320611869e+02 4.828552638438523559e+01 -3.158237112493671006e+01 -1.351525777757463409e+01 -1.114102333289258517e+01 2.350320869128148900e+02 1.811883773485627387e+02 2.419839036926985330e+02 1.371057604114270987e+02 -9.006047423598603530e+01 7.823638925966143631e+01 2.195920371664388782e+01 4.953222068377985465e+01 -4.135059759233990206e+01 2.657639849920494726e+02 -2.423605379877535881e+01 -1.422722169746097620e+02 -1.556771928097805535e+01 -4.768247931180109589e+01 -8.055865692980326287e+01 4.491843021452264395e+01 -1.219067947145832953e+01 1.893318897963177960e+02 9.619947426768221987e+01 4.255968141765082180e+01 1.020542944950011588e+02 9.833639373531576666e+01 -2.393098060897627022e+01 1.453622984953084654e+02 2.756463879256427418e+01 9.324243138997509561e+01 4.960087545593260216e+01 7.223154098463701267e+00 -1.205346846651273012e+02 -1.205886156004635126e+02 -9.371587069403550174e+01 -1.621777339175737609e+01 9.025087303702984798e+01 -3.193225896561181898e+01 1.029676010047983539e+02 4.560872869390752982e+01 -7.572296931876161352e+01 -3.120885350454357265e+01 -6.101618556875565957e+01 1.828570459449140628e+01 -4.825313511715763326e+01 -1.166665029989477205e+02 1.265556850921422694e+02 1.263370792673078853e+02 -8.219600048958761818e+01 5.689213660422280938e+00 -4.717485799178474082e+01 -3.397009268174923591e+01 -1.181035178713516665e+01 -3.250184287509547687e+01 4.627071688797345672e+01 -1.463007969802888226e+02 -5.500110691531302365e+01 -1.581262186071124063e+02 1.812518242673452562e+02 -2.107383516267973533e+01 6.135940539282081829e+01 1.242119529778740450e+01 1.502658445021169200e+02 4.646660311832048507e+01 3.719025970258410041e+01 1.605629565024944156e+02 -5.124632841542231176e+01 -1.014977990494537039e+02 2.824004930312151984e+01 -1.643194661715715199e+02 -5.552265411226387215e+01 1.063541502658865170e+02 -1.328079356474003987e+02 -3.780761719239067276e+01 9.490878615996071233e+01 -9.823496380995965183e+01 -9.304537301510480063e+01 -8.591264636529446364e+01 -6.635591549937338129e+01 2.588084218289650948e+02 2.059551080638315739e+02 1.070441348402537614e+02 -1.061925273435609540e+02 7.778409500508780638e+01 -6.868955031191636351e+01 -3.241861743709007726e+01 1.724082634674094194e+01 -3.341628690010963254e+01 -9.735489358618134759e+01 -2.812061760111599362e+00 1.536933695237332920e+01 1.128877400271213247e+02 -1.333273658500201293e+02 4.344295424867290478e+01 6.613547405278492874e+01 3.584513226018458454e+01 -9.396598318783559023e+01 -1.539704416400245748e+02 2.003225596454367121e+02 -1.847090043291902361e+01 2.611065765453039589e+01 1.621999289322097013e+02 2.763613160335590635e+01 2.874890976066739157e+01 -4.612865046063321017e+01 9.176126475937645921e+01 -1.412179108506078649e+02 -3.190817424309113903e+01 -6.351933580163612092e+00 -5.531356207633958633e+01 6.389672836004436363e+00 2.206560563398381092e+01 -3.704761791450787456e+01 1.414633615131062783e+01 2.211955908645619218e+02 -2.834236561634802598e+01 -2.893578408869231566e+01 -1.051970057660992950e+02 -1.714479742824337904e+00 -8.356202197033078960e+01 6.633075109413950621e+00 1.159417065785487466e+02 -5.383028247577768610e+01 6.260414944904568735e+00 -5.620065595951575688e+01 3.451422529580610910e+00 9.021533345790690817e+01 -1.198400196431871052e+02 -1.001265391551816037e+02 -1.060681476316211160e+02 7.384878457063888391e+01 8.952712236692356385e+01 -9.547333237182101584e+01 6.473747357267390612e+01 2.669148147814884808e+01 4.000919898628676918e+01 -1.836585252492885800e+01 9.444962584903763059e+01 8.245884534475457883e+01 -7.991942009382310630e+01 1.226959997873854391e+01 8.365985881548340330e+01 7.534802469628931476e+01 -2.055157635496972190e+01 2.583940543890022923e+01 -1.370933271339283976e+02 5.015646823908024743e+01 -3.387772459255899804e+01 -3.374856083963004494e+01 1.790637289107862102e+02 4.905510081612959539e+01 1.243002784650090149e+02 1.974155185224133788e+02 -1.423684652698829325e+02 1.541103895884490385e+02 -6.552192885077970175e+01 -1.397055018485345386e+02 8.511221668466775725e+01 -1.386301645710728678e+02 -2.967349411758899791e+01 5.833664035421546856e+01 8.368946413068933055e+00 -1.737833054702740583e+02 8.706556935281483334e+01 2.606312994492825297e+01 7.143963279498012753e+01 3.749451671589137192e+01 9.798718047671711062e+00 -6.939042003147787341e+01 1.196638094962609387e+02 5.632735140687788089e+01 -6.422988921853560385e+01 -1.046628004247220076e+02 4.027770920931863685e+01 2.652150148445684508e+01 8.516398197491743360e+01 1.899270798954427732e+02 -2.547634607270969909e+01 -1.138616516526986970e+02 -8.761764672350318506e+01 -5.305591594230325825e+01 -4.589554715357956383e+01 -1.516934084564580303e+02 -2.325192963194123763e+01 1.338468136055454920e+02 7.706483375861235174e+01 -1.264994741207209188e+02 -1.548629457369537761e+02 -7.041144078237846315e+01 -7.895943433349242468e+01 1.516696716529035598e+02 -1.761900558827117891e+02 8.943249830153951052e+01 -4.763477719189135762e+00 -4.446324495860199733e+01 1.375951401636252314e+01 9.425374214598758726e+01 5.127920135214434083e+01 1.428501499740171425e+02 -1.644710690008029133e+02 -8.369049609433020009e+01 2.617520209180197810e+01 4.334632904194916847e+01 2.130767760515699365e+02 1.503210836731452957e+02 6.771006033418358072e+01 7.452273768502952578e+01 -3.539920538090680679e+01 1.569305875127454044e+02 -1.853141828284542783e+02 -6.550887337041166347e+01 -5.548652214248404135e+01 -5.352853611545241819e+01 -1.067565119430982179e+02 -1.547993010164827510e+01 -7.094437797099887177e+01 7.357236976216367452e+01 -9.475724612796009083e+00 -6.006253164391121402e+01 -6.441320612153261038e+01 1.862150955706796367e+02 6.094511773838589619e+01 -1.414799956294233141e+01 2.158429414081916207e+02 -1.119279716075616022e+02 -3.651974466269177810e+01 6.918540926023686666e+01 -1.312619118644652583e-01 1.542316869795853229e+01 -1.291979796076375635e+02 1.820361822703170276e+02 -5.063665827573506562e+01 -2.785618163880001674e+01 -1.133367085376567758e+02 1.299976990442968088e+02 9.906153880958393643e+01 -8.007553905025640972e+01 -3.877455785089218665e+01 4.020281374938636532e+01 -1.563459676208208862e+02 -1.343865685672631927e-01 -7.712885316818949377e+01 7.962769577889348582e+00 -1.116315405686538327e+02 -1.636541349898735973e+02 -7.294978739639188348e+01 1.529190802041125039e+02 5.841450137073396576e+01 -9.246873005942545376e+01 9.203689763245353106e+01 3.534247716443949372e+01 9.108273145765632250e+01 -4.344458682249359072e+01 -8.675679969292163207e+01 1.763869414776850704e+02 4.297844251365022217e+01 2.986390268565027029e+01 -7.529390443495067586e+01 -4.362311034714841895e+01 9.868385182647312348e+00 -7.375198154800934880e+00 -1.781478692658810985e+02 -3.566062342139878893e+01 6.639882561955458584e+01 1.150404371526573470e+02 1.604363659314265931e+02 -1.366431357665334900e+01 9.232597108849572010e+01 1.624489320365864558e+02 6.533122331804999305e+01 1.522263795812265528e+02 1.653903829841959450e+01 1.351772558020204258e+02 -8.640776022143225532e+01 5.493724315020569549e+01 3.020742552201581077e+01 7.806423712635448453e+01 -1.092484652206434390e+02 2.036412251434912264e+02 -1.324613102878711572e+02 9.076674222504050249e+01 -1.104604894675922253e+02 4.741103867379241166e+01 1.417591441794474427e+01 9.320904113589760698e+01 -7.569753931951085235e+01 -7.756269623547420622e+01 -1.147813210325876199e+01 9.148380576329124381e+01 -3.037278244308071962e+01 -1.674864762789378858e+01 -2.015142910248800590e+01 4.862291214229310654e+00 1.006922233939416884e+02 -6.418769832400680286e+01 -2.788051203403189238e+00 -1.985553993598772138e+02 1.247836006916893155e+02 -1.277370102488452090e+02 -7.558350417118981568e+01 -2.409113035005091419e+01 -1.103919065347580215e+02 -5.438295916628650417e+01 -5.989957104125969067e+01 -2.010974147987584715e+01 1.393872845928011941e+02 5.529196192146178390e+01 1.027288109609344104e+02 -1.391940677147699432e+02 -1.417411413371712570e+02 -2.930222298258985916e+02 1.044590974981634304e+02 1.066634065361212151e+02 4.322660051322281305e+01 -4.337048014700807386e+01 -3.808109987816729358e+01 -1.878133886991809334e+02 1.494872920325284156e+02 -1.098793461126842175e+02 1.094049535635459165e+02 -1.628798642130613530e+02 -1.463221206715803291e+01 -5.664439481316033209e+01 -1.219803784477688140e+02 -4.715156311820816626e+01 -1.276129906464601405e+01 -9.477971716468215391e+01 -1.058933788006730197e+02 -1.263658898347710569e+01 7.285002094059711908e+01 -1.275178632070851705e+02 -1.603743720593152844e+01 -7.546688316654932294e+01 -1.344637305733637334e+02 6.848634795971785927e+00 9.741578098628076532e+01 1.693571259348903766e+02 -1.952341599299717601e+01 -4.713824034090784210e+01 -1.270432324466286360e+02 -1.674033444565521620e+02 1.062013840345607605e+02 -7.446656092985051600e+01 8.089874538927797687e+01 9.629204848333250411e+00 2.995779097349243969e+01 7.561359489629684560e+01 -8.673987379733328851e+01 8.463587077449662388e+01 1.180303642124277701e+02 1.611783751753632146e+02 -1.194064139549434600e+02 1.064362433942802539e+02 -4.890520309894205297e+01 -9.297971022104123051e+01 2.197190862372931406e+02 5.045646760228070349e+01 8.547929944879948039e+01 2.182231650636677145e+01 -6.468263868825650320e+01 -3.578139926117360403e+01 -2.154451922204279413e+02 1.081757942788828331e+02 8.348309254214585451e+01 -7.753015825175701536e+01 -7.493466360974844065e+01 1.487074837086130685e+02 1.035084074782849939e+02 5.234656551688233606e+01 7.793047863382930984e+01 -8.103907710241605500e+00 1.056959827780481049e+02 -1.060250895501321224e+02 1.909351614069104812e+02 -4.043815339632648431e+01 -1.249359251303133220e+02 -3.856372797589909851e+01 7.348496973719777259e+01 1.509174541659177464e+02 1.325771162902506717e+01 1.780359993344646909e+02 5.347929901325175450e+01 3.442354993426622656e+01 -1.140256711558332796e+02 4.591144036978727172e+01 -1.280891651951004917e+02 4.884189255353098247e+01 3.959908923044803686e+01 -1.263235142619109155e+02 -8.709877999651459390e+01 4.079425764033023682e+01 8.938375944573726528e+00 -2.380959592699246841e+01 4.286067956510738242e+01 -2.191728930220697791e+01 -6.462662224818869561e+01 -2.675463414194623724e+01 -2.301465915269372076e+01 -4.080094870588326472e+01 1.924095212175123137e+01 -8.243665227486805236e+01 1.218468568554189773e+02 -7.615213665645896413e+01 -4.414837392761278068e+00 6.708336236073461123e+01 4.001473939335047803e+00 1.632476390921175735e+01 1.634042697791809573e+01 -1.199915081655697122e+02 -4.530091749317674221e+00 6.663615821356953006e+01 -2.370638362897916238e+02 -8.689989756823869982e+01 -1.154730888848719133e+02 4.484899918864657309e+01 9.856196413929717437e+01 -9.396721296362434828e+01 -1.719614626868118421e+02 -1.896129254312961052e+02 2.046273990218723426e+01 -1.484451412598109243e+02 -6.467459181695956794e+00 1.511000300380090948e+02 -7.289169145302526687e+00 3.801753299175699397e+01 -1.011935745141890806e+02 8.161573852732806245e+01 -1.211347587323448636e+02 -1.572895706845435804e+01 -3.096358459590424772e+01 5.876090014500798020e+01 -9.077124388693858847e+00 1.078224715601097188e+02 -1.244726934475001059e+02 -5.106239421823758562e+01 8.818649396518841854e+01 6.740792721149588829e+01 -8.391626068509903291e+01 -5.539935328347213783e+01 -5.024933162694217259e+01 -2.945658603212094135e+02 1.969622993752498132e+02 7.746222713248933189e+01 -2.402169632732144677e+01 -3.016930255967001528e+01 4.223370420231277222e+01 -8.558870642851277921e+01 1.011989956085454736e+02 6.142649983377002343e+01 8.336951590995977313e+01 -8.543908618600607952e+01 -2.701142639512057642e+01 3.388470598719772653e+01 1.765262219950039579e+01 -4.346380541429734734e+01 1.602956238028467624e+02 -1.756069225010442736e+01 3.590825082875478813e+01 -2.332226700885225057e+02 -8.595339796324049075e+01 -7.424971134564087549e+01 2.335097731584970404e+01 1.107798291792792043e+02 -2.350020563912489706e+02 -1.897310264183084030e+02 2.248784304077399270e+02 -1.072346828571799193e+01 9.746449827138282274e+01 6.364421403658644749e+01 -5.617481373123266053e+01 -1.328845100156313492e+02 -9.652811108626178793e+01 -5.098895816281135041e+01 -3.798427939627417516e+01 -3.971503767875292823e+01 1.641665772046733096e+01 3.765634181434135996e+01 1.691872605513506187e+02 1.249446263970314419e+02 7.011521819110965836e+00 -4.441041694428117026e+00 -1.610844910197858155e+02 1.213601007560583014e+02 1.616104368431205103e+02 -1.048794969441448899e+02 7.478957993298052997e+01 1.817463666473397410e+00 5.566299491608331351e+01 1.272506087166848658e+02 7.195724321121498690e+01 -1.359360947439635652e+02 1.638865952512304602e+01 -2.980724077070918199e+01 1.129836923018809181e+01 -2.352323285891267801e+01 4.602156348990934731e+01 -2.643222265947127312e+02 1.838988058759754836e+02 7.437441951157871323e+00 1.618367805130585850e+02 -1.073415903733112842e+01 1.078322493628844256e+02 7.274773469282727945e+01 -4.267892678436541587e+01 3.035585591690336926e+01 -7.394208282521337594e+01 -9.039252827483451824e+01 -7.326101850999440046e+01 -3.257141242775635703e+01 4.593562824250201260e+01 1.120189519911432541e+02 2.898651286887327672e+01 6.312747672307155256e+01 -1.065985880995632016e+02 -1.394891317291470330e+02 -1.371695900702707860e+01 4.721634187203736843e+01 -4.633058199387026832e+01 9.617642476406415142e+01 5.648420567946298121e+01 -2.814425418161136250e+01 3.048556580880573463e+01 6.245270751239286255e+01 -7.341216125268553583e+01 -1.361236827764595034e+02 1.446597455438628117e+02 7.958638235875413969e+00 5.106527634035374064e+01 -1.520425287950835411e+02 -5.439945673652483293e+01 -4.808265929817097661e-01 -6.694026822844899982e+01 4.357515828450290840e+00 5.735599681720420051e+01 1.900336465035998970e+02 3.988423376811986998e+01 -1.118064294246393864e+01 7.360693379053076058e+01 -4.639385389681717697e+01 -1.111591451025669244e+02 -1.409901139841777251e+02 9.568182718333677172e+00 2.562690224185864452e+01 2.427254141554055522e+01 -5.805656672792275685e+01 1.233603177909967599e+02 -8.254565721807888679e+01 1.310500923347776734e+02 8.916559234306765802e+01 -6.644195062611247238e+01 -8.649856605319021696e+01 8.601803323321777839e+01 2.094538807088125409e+01 -5.363138488668131743e+01 -5.504255546581610048e+01 1.396922517037579041e+02 5.857279336703921047e+01 8.166378334095526270e+01 2.673638634182801610e+01 -4.304948593151579672e+01 1.099391881592179345e+02 -5.581685331202998412e+01 5.379721967261898996e-01 7.836291818294138523e+01 1.019062828572533022e+02 2.614518312105529958e+02 -1.792714972847692820e+02 1.647808579070700432e+02 -6.923248439537401566e+01 -1.558840275197637837e+01 -2.564148402221303868e+01 -2.124001569239276321e+01 -5.655035684384007055e+01 9.521963107552834060e+01 1.887011663967774950e+02 -1.218220639655494750e+02 3.172304051367584421e+01 -1.301878906537637306e+02 7.202549463575256539e+01 -4.568484990002152557e+01 -8.313445481429883444e+01 -5.532870766317585520e+01 4.229186472026773203e+01 1.993322924660146356e+01 -8.408528316945364622e+01 -1.450474671181724204e+02 2.136747396939388821e+01 1.621510060769718109e+02 1.470000474874521679e+01 1.878295936816247433e+02 7.689080636257870971e+00 1.386220360911442810e+02 -3.564186103080661638e+01 9.344450790095463333e+01 -7.362689703834602994e+01 -1.163837784662745065e+02 5.096803814808659183e+01 -5.983903991506844022e+01 -8.098683491460549533e+01 7.523709095022036308e+01 6.638722202239085490e+00 -9.735084870370184262e+01 -1.554270226147997676e+02 1.527340603784315931e+02 -9.211905763500047328e+01 -2.409414899676281419e+00 1.240931586606253774e+02 6.000246379676944031e+01 -1.015243004399221292e+02 1.097148201082040231e+01 2.917279399025604221e+02 5.518006424170329893e+01 -1.632445022677325426e+02 -4.938052071316989355e+01 -6.371375542793044389e+01 9.980783197849813604e+00 1.113940748726156329e+02 -1.071671631998201235e+02 2.232895577726861802e+01 1.352245749178154313e+02 1.946220220258660660e+01 -2.189522827153603259e+02 5.013412160818359808e+01 7.824403982550916226e+01 -1.406622276539748384e+01 3.401489021042444705e+01 1.280425511739389788e-01 2.330478963446546103e+01 2.875869950231652794e+01 1.200782512278830580e+02 1.016193581383860760e+02 1.608913637424931053e+01 1.545330700988648971e+02 -6.638683937936406210e+01 2.557641795604813240e+02 6.742618181330479388e+01 1.469233762695455425e+02 -2.279340550345350991e+01 9.339949058064517828e+01 -5.089637401999844712e+01 -1.518207829793106214e+02 2.717942171160497367e+01 9.865786785867305753e+01 -9.090175434450934233e+01 -1.086511861948934694e+02 -6.902520482298952231e+01 3.795023643790234757e+01 -1.185313479346661296e+02 7.754273461670486256e+01 2.914061013504105091e+01 -1.012763913843771633e+02 1.970901666743744727e+02 -1.220667599983250540e+01 -1.055600250431599392e+02 -1.386946144122672386e+01 -2.120323088339368311e+01 -1.455160986821137215e+02 -4.155155514173259945e+01 6.381374353463830573e+01 1.367259766340789895e+02 3.010062470890921560e+01 2.778572672096653307e+01 4.647908046812248983e+01 -3.712266504380207266e+01 -1.510702890115387049e+02 1.643362100105872514e+01 3.218081075461603291e+01 1.381066251812362680e+02 -1.033483317021388714e+01 -7.902646594105442546e+01 7.598009851711570661e+01 1.044251967786110180e+00 3.318720461330325833e+01 1.445828563309794674e+02 -1.842911263729708367e+02 -9.636260679494652948e+01 1.294507481375790974e+02 -2.175785334381081952e+02 -1.854771159609312861e+02 9.174703776012700018e+01 1.553065554744416943e+02 6.390562112119237526e+01 -4.475314860410826157e+00 1.571215022870804319e+02 -2.213347807002222680e+02 1.080689417200010354e+02 4.274341895908371924e+01 1.281618766526811442e+02 -1.901981148893133025e+02 1.075088064276003337e+02 -2.854520167553151921e+01 -1.348420419260901042e+02 -5.373583095393471787e+00 -9.320122322185993369e+01 -1.648612137843482373e+01 -4.296709845016207119e+00 -1.242391997382198667e+02 -1.243678415685769920e+02 -6.311343462711863594e+01 -1.300336183273421966e+02 2.027166981485509893e+02 -1.623605263130013157e+02 -5.058918718854614127e+01 1.740029535385374402e+02 3.421132016650603447e+01 -2.984971946502480478e+02 -1.281432598091649311e+02 3.583508357344221196e+01 5.510374159922357507e+01 8.699551965600809567e+00 -1.559611878578107280e+02 3.599197576100296914e+01 7.515730771106905017e+00 -7.495860743800652415e+01 2.044211092282296534e+02 2.043316943189651340e+02 4.360702635449190012e+00 -2.102903048969500333e+02 1.270670807587645328e+02 3.104226064893428827e+01 3.762826233625962136e+00 7.729873820306016796e+01 -2.092184164022926325e+02 -1.392179391706954164e+02 1.422533888299577995e+02 1.105668948010003589e+02 5.339403603689947886e+01 1.444640105898579066e+02 -1.797740648819311673e+02 -2.059419815881329185e+01 -1.315522630150983048e+02 4.392741071959165566e+01 -1.047396931210791280e+02 8.777246602662978603e+01 -3.414619357626762763e+01 1.248583793809589793e+01 1.789230504553318326e+02 2.871389077339317808e+01 -2.657960051796620746e+02 -1.274118928481442765e+02 -8.406410533446738498e+01 1.594390053830846625e+02 1.263845884475011516e+01 -5.424079263510642335e+01 3.066330921413937105e+01 6.306018455527082978e+01 -3.993086137371552269e+01 1.084229666887500514e+02 -1.015817050585614965e+02 4.962783555407861513e+01 1.128688840849026747e+02 -3.571425953362417260e+01 -9.895009782551910860e+01 -1.143532047037768677e+02 1.207667752611661314e+02 -5.006789081068347258e+01 1.982080262970361844e+02 5.768641021624199539e+01 1.118964140936726608e+02 1.859285232523936884e+02 8.635892879955548551e+00 -1.253092050118239484e+02 -1.671792060914104638e+02 -1.151632188032692881e+02 4.281630311308416736e+01
-1.342947463945964692e+01 -4.730441003828831370e+00 1.020231936891759119e+02 -2.255792396561098769e+02 1.530860070847896850e+02 6.258372157281214498e+01 1.498515321430994618e+02 -1.272127549981474601e+02 -2.748413215637087514e+00 -2.372068718521394359e+01 -2.161804389147552001e+02 3.225727204623458277e+01 -1.805331553751015505e+01 1.204521272938466154e+02 -1.231616067168282171e+02 6.077961152084619556e+01 1.234310284258362174e+02 -4.524743012223810723e+01 -4.893968624887377672e+01 -2.666610570862244245e+01 6.076371331883828475e+01 6.218196564302603946e+01 3.192030564463565412e+01 -2.290371972587267067e+02 -5.086770987507188124e+01 9.009767613924900331e+01 9.750533397305574113e+00 -1.018650440096772058e+01 -6.553698347401997637e+01 -1.521096196978420778e+01 7.223207227156296995e+01 -1.432138897685419181e+02 -6.095608587678027845e+01 8.866284853841715830e+00 2.043531932475562201e+02 2.088294699799643581e+02 -3.156482525683683349e+01 5.504236631368960531e+01 -2.767269433623857910e-01 -1.375577942185823872e+02 9.453739286498176853e+01 1.056275154877242954e+02 1.068813881402822119e+02 1.152157609533140636e+01 6.096699473813905712e+01 4.739961189493019589e+01 3.830071313136247824e+01 2.887050390476506934e+01 1.086223166483633378e+02 8.836932661582133619e+01 6.461960164867630851e+01 1.605031206945157578e+02 2.438832444433031696e+02 1.926029658668831814e+02 -5.822967900883944026e+01 4.851878952692430147e+01 -6.332791623196649056e+01 5.557278899368749592e+01 -1.892210163871733641e+02 5.564571476239467529e+01 -2.016828873319170157e+02 -1.661514190344170174e+02 1.274357564883020544e+01 -9.090536814304023494e+00 1.669791416416886705e+02 -2.047700298662635419e+02 7.414906551015657499e+01 2.263206414080937350e+02 -7.202527772252227400e+00 -1.917461013945249704e+02 3.506489834887475610e+01 1.942562859567125031e+02 -6.017728639990266259e+01 -2.624490736018091752e+02 -1.010222322869611133e+02 8.685711260580806226e+00 -2.266454438540106082e+02 3.152624565835957071e+01 -1.767924582538979905e+02 -1.828565363351838187e+02 -5.624750630758470749e+01 1.502668554409134174e+02 6.851234131765789925e+01 1.044753268392215695e+01 -8.733729781175262019e+01 -4.199908972637820170e+01 6.285330857676439109e+01 -2.287924284908121138e+02 5.334833186986067233e+01 -7.398313145434345017e+01 -7.700633704182328643e+01 -1.743492536554856827e+02 6.420407786427622909e+01 9.149710939098891060e+01 -1.601164707515779071e+02 1.704037083529236156e+02 -3.936673573687966154e+01 -1.668675527234011824e+01 8.636597926198284370e+01 1.542025988011702395e+02 2.138130089930990607e+01 1.494191426037916699e+02 -1.821051748224525468e+01 -8.950459176332651623e+01 -1.936278920795383840e+01 9.975650278107750069e+01 4.562322136516535664e+01 9.924425755874904098e+01 9.577629162754851677e+01 -8.424665340108778366e+01 -1.723844324345610914e+02 1.248525851676742633e+02 5.505108936756612792e+01 1.638223325181568768e+01 3.103007860095938852e+01 -6.892375969256052315e+01 9.745636993249081570e+01 9.115691279692724436e+01 -1.386227666084360699e+01 -7.229554383298744824e+01 3.124324936155659671e+01 6.364765301570134426e+00 -6.247197077320340952e+01 1.720900937489093963e+02 -3.350967250986747104e+01 1.234611730520517057e+02 -7.119363709476877489e+01 3.897592970645030874e+01 -3.668506488665329357e+01 9.084416233241790906e+01 2.385697007511580736e+01 1.173864293636200671e+02 -1.178131779230329101e+02 7.552110097291297564e+01 1.254642700714078529e+02 -4.544009894507978231e+01 7.692446906679061946e+00 -1.284660279345722245e+01 1.186573519974962778e+02 3.577338602705725457e+00 1.714616348308987313e+02 -1.437464905945332134e+02 1.186305336968746644e+02 -9.288683334826116322e+01 9.735266194303679299e+01 -1.393694658339001933e+02 3.002699356521168639e+01 2.515945918566546879e+01 1.858924579944757793e+00 3.693936761938670088e+01 4.667854539881999187e+01 -1.265912336441314778e+01 1.096866759608513853e+01 1.099848577220765549e+02 1.295156050362152769e+02 -8.819770119939343545e+01 -5.519988486042844045e+01 4.822499872544301525e+01 1.575502395084360518e+00 -1.394120262333244682e+02 -5.607203439996062144e+01 -3.611957909705709824e+01 4.982278334367745032e+01 -6.677911332409065892e+01 2.336161575016566161e+01 1.633538186675931456e+02 -8.097015242178267158e+01 8.230406461005898677e+01 8.570339951609831530e+01 1.142928500039464446e+01 1.258165457355201511e+02 6.411162217348480397e+01 1.713502086609028368e+02 -3.521591428857878014e+01 1.147211359587585946e+02 5.665543348207690855e+01 -1.640855781438144589e+01 2.082988609936462012e+02 -1.416797390198959192e+02 4.989182281972964716e+01 -1.915034582765747473e+02 -8.596744880101589104e+01 4.189098755927024342e+01 -7.375287953369407035e+01 -1.592240414958942551e+02 2.036569362322877055e+02 -8.766059705426594917e+01 -4.853500643321452657e+01 -4.730661520906985373e+01 1.244480210523373245e+02 1.991256352454402361e+02 6.620516895131623869e+01 1.495298674975321092e+02 2.243787127654394169e+02 -1.671426924094231214e+00 1.665985696508928129e+02 7.249432186200967010e+01 1.947028882382872723e+02 -1.286144506292681342e+02 -1.215094280868167154e+01 6.473888415913656935e+00 1.942689221072274108e+02 -9.297675055338042682e+01 -6.182100257377108932e+01 -5.415904128710232612e+01 -1.369749783214302283e+02 4.766375468300282137e+00 -1.032348118405790842e+02 1.575805868212273992e+02 2.411430928527888184e+01 1.229062597927554457e+01 7.395303382966545769e+01 -5.058388086149555818e+00 1.195892302856781129e+02 -1.624427149617911255e+02 4.642742185408060607e+01 -1.747546195036353538e+02 1.200933552510157369e+02 9.817988860797298400e+01 -6.885709390190307033e+01 4.781384059515785623e+01 2.435471972989766982e+02 -3.113968785462073541e+01 4.261033405761750714e+01 -3.341181341863609333e+01 5.925022731743339932e+01 6.575760742009700266e+01 -6.409065768435349142e+00 1.042508184406190850e+02 1.038366933397069829e+02 -1.982687796101889717e+02 -1.567131990004094462e+02 -1.225110509309649984e+02 -9.676434330787596849e+00 -1.531883046103733932e+02 1.181523242737910380e+02 1.128538224985735496e+02 6.028888779724604063e+01 1.141039149867534341e+01 1.612398945138668864e+02 8.584961173899401388e+01 6.900343044592555941e+01 -1.039351691698773834e+02 1.557268511963509923e+02 -3.646461543234805980e+00 1.117578869926538232e+02 9.010061988936289623e+00 3.756531508349740278e+01 -7.740085231454477821e+01 -9.277506434885859221e+01 7.316450312187643590e+01 -3.907171089257988950e+00 1.494955447747583150e+02 -1.285787718405103952e+01 -2.924490421571583454e+00 4.685516947310492242e+01 2.314194762728704546e+01 1.444804768972405782e+02 1.492965538312565243e+01 3.660588694142446542e+01 -1.580305436733060844e+02 6.726441289817394420e+01 1.365012040181519808e+02 -1.807228052887182201e+01 -2.327766332043377417e+02 8.615379337358561429e+01 1.388397612558190986e+02 2.068816549246900394e+01 1.925265098926922178e+02 -4.198113994617217237e+00 4.368193065540670261e+01 -4.434360508604750351e+01 -1.410691277985734757e+02 5.692633188228001018e+01 -4.825312238554184319e+01 -8.240701744958917629e+01 4.187345938420450153e+01 -1.877413238544469891e+02 7.287160831399366145e+01 1.669013682181591207e+02 -1.027772067062869752e+02 1.755537790415291113e+02 -9.913829569317324797e+01 -6.080589140852990404e+00 -1.066305152249583976e+01 7.769458823572183803e+01 -4.722325009364632109e+01 -1.093333033597838408e+02 -8.974456789319113170e+01 1.477445187129310682e+02 5.989109666169185431e+01 -1.334430222803662787e+02 4.506220784141582669e+00 4.400559574858858980e+01 8.361935594428629770e+01 -4.084243681079813371e+01 6.074709660827477364e+01 -6.982092728918610192e+01 -1.643660665568877448e+02 -3.505900030719377725e+01 1.426832411572088404e+02 -1.147065108675825797e+02 -6.506301088270808108e+00 -1.648573814510187105e+02 -4.812010491067603368e+00 -1.475657819313579182e+02 3.326066146456288664e+01 6.081261958275953816e+01 -5.090160422201817170e+01 -8.332717264107286326e+01 5.690011534365858381e+00 7.520626966357635013e+01 -6.850804027749886416e+01 1.361649171187795275e+02 1.066127221463020334e+02 -1.289869796331427949e+02 -1.065428710001685033e+02 1.364674614567665287e+02 7.207463012696437943e+01 1.516861029386909934e+02 1.012488086688413063e+02 8.196907409331689109e+01 -6.083300279401615285e+01 -8.255329593482335326e+01 -7.779117111545478735e+01 2.063560624630927407e+02 3.078543434491322017e+01 -2.511023865942654965e+01 -6.913855179144380259e+01 -5.045992012872513044e+01 -1.322724432085772435e+02 -1.664288233025895991e+01 -1.762279592777404105e+02 1.256007893104601010e+02 4.623615563796396088e+01 -1.157623845128605637e+02 -4.859299696913011957e+01 1.202792628459750262e+02 -9.742021299606804519e+01 1.032670157901689549e+02 -1.189563072133848891e+02 -1.181261702129442881e+01 -9.590867110817423224e+01 9.007831083208412792e+01 -4.266261327649332458e+01 1.038961456845927422e+01 2.943996094233344962e+01 -1.271757370668649685e+02 1.255386298951584223e+01 4.851328425570226699e+01 -2.251052057956410479e+01 -6.901459413466018589e+01 2.032650530184768058e+02 8.677202461558322000e+01 4.732026770934468374e+01 -3.154024393905531909e+01 8.054506093337374750e+01 1.682093797650923364e+02 -9.263705075988070803e+01 2.102024418239806209e+02 -1.335764761293919776e+02 -1.845968991198066647e+02 1.524128612174855846e+02 -2.347753491429707253e+02 -1.010241303964879878e+00 -2.457794953404866192e+02 -1.534704011427143655e+02 7.200156614831468005e+01 -1.461588308947723931e+02 5.859144469141060796e+01 1.102559752421352215e+02 -1.609492957165288942e+02 -3.025433705330774004e+01 7.565807634175605756e+01 1.343977647086857701e+02 -1.867165845451418704e+02 8.775177989774815046e+01 -9.828546083989327542e+01 -9.916556427886266789e+00 -1.394458548684758625e+01 -7.986199654671588632e+01 -9.063258012858180734e+01 1.819868020595849885e+02 -2.174024463838977894e+01 1.331302877969520848e+00 1.306805872954813594e+02 -8.698053047986350350e+01 -3.455234029981634336e+01 -1.080585389270054861e+02 -4.904258781956659874e+01 5.212080265305361060e+00 5.965376153857699393e+01 -1.357488118617673649e+02 2.384675305508108636e+02 -5.422958137784429766e+01 1.234618365576924361e+02 -4.915053917556849683e+01 1.206274724272996934e+02 1.400486613212712541e+02 4.836775413808010882e+01 1.230209890176074339e+02 -4.355032757214504358e+01 1.410357523887606703e+02 -1.576421450864647227e+02 -6.590366103629209249e+01 -6.347222291831056395e+01 2.572231036850051211e+01 -1.636173015846660803e+02 7.314563912397166234e+01 -3.108652711640122135e+01 -8.331869038755813506e+01 9.035267082080603984e+01 -1.523437968027080842e+02 -9.195923603568007820e+01 -5.302332052950505670e+01 3.336040854974503134e+01 1.309055642103409127e+02 1.178548398557293808e+02 6.971704496046594102e+01 -1.635553133656008962e+00 1.762925836869735008e+02 1.235403906542629784e+02 -9.520102581210926473e+01 -7.881742689878728925e+01 5.593756763390920383e+01 1.008001723913239900e+01 9.878265093860002821e+01 1.680107168017408412e+02 7.115377795128364369e+01 2.457027038155833054e+01 -1.030074902559899499e+02 1.732006407420406902e+02 -1.145934765851533257e+02 -1.665905164631550690e+02 6.622950703310397103e+01 1.123397518241217199e+02 1.977327734848204344e+01 -1.398993484075579659e+02 2.996843986869813747e+01 4.275196300452294906e+01 -3.053359749841993431e-01 1.318689814264975837e+02 9.824894464382802539e+01 1.722580723107949296e+01 7.889842158092940849e+01 -1.077936984961840494e+02 -6.336498180732329288e+00 9.899685547950612374e+01 2.988202630921570346e+01 -6.547564065796781563e+01 1.993365366063639783e+02 2.326189109272996802e+02 -1.263587588881353128e+02 -2.777521326285008740e+01 -2.115672429268692269e+02 -7.263712798400555926e+01 1.576131810568791423e+02 3.440890951532987518e+00 -7.142018164539932457e+01 1.648077658740238292e+02 -6.290287445521514798e+01 -1.615527300069029764e+02 1.373539969117810529e+02 -6.762514637839487364e+01 3.463809470766691589e+01 8.686286587951535410e+01 1.385251813423669454e+01 -2.395513510482673212e+02 4.251217487247773619e+01 -6.151870491350766912e+00 9.056313959354596932e+01 -2.368829967228298017e+01 1.017292833406594923e+02 1.704856504294277642e+01 -8.523854656718739875e+01 -2.058178162649512899e+01 -1.761483519116490299e+02 1.156094135151737419e+02 2.539966030341307146e+01 -4.185459056211922046e+01 -5.209106355038282032e+01 -6.318821643898631635e+01 4.130877871396380385e+01 1.615287036678810750e+02 1.334021438565673066e+02 4.330541534520373403e+01 -1.988937169347521490e+02 -3.899498875930489561e+01 4.403610123993599501e+01 1.179658287068744045e+02 8.769917978319865881e+01 1.554252911439320073e+01 -1.870230178935158847e+02 1.324252834955753428e+02 -2.249392695110938405e+02 -2.068925254806511305e+02 -1.864733827171596969e+00 -7.416793640681684963e+01 -2.419311757589402490e+01 8.759442748563840553e+01 5.621851065168326045e+01 -1.118067516851371579e+02 -1.522365533376565452e+02 1.467700844867886367e+01 1.243458203807524711e+02 2.082754372338679616e+01 -5.701007488920003397e+01 -5.187314365205167377e+01 -1.186240857380310310e+01 1.622262118766552419e+02 2.249850391851423836e+01 -1.776910695514148983e+02 1.312531624304622255e+02 -6.834137279378246888e+01 -4.274773339143854933e+00 1.575917927540862706e+02 -5.354166969750988869e+01 -2.003434773384811152e+01 -1.124173165805541430e+02 -6.153357848844808409e+00 -2.442179650039611616e+01 1.348078710761421632e+02 1.229163764673619141e+02 6.916236512103643008e+01 6.693049248525750272e+01 -1.915348892663972435e+01 1.384067666351734829e+02 -1.153770558228723075e+02 -4.367067784933646557e+00 -9.318474294070942676e+01 1.608422782250746650e+02 7.465802206329013302e+01 5.291868354883713721e+01 8.483576947976880334e+00 -5.451476065852168063e+01 3.518908671074535732e+01 6.920439929281764435e+00 3.661527073270833377e+00 2.468906315089638071e+01 6.117248257993257710e+01 1.742226979671915501e+02 -3.971759225197496335e+01 -5.320865138359654622e+01 6.833594475357068632e+01 1.183701966293981229e+02 -1.310372703790784499e+01 9.404627332449119592e+01 1.064186755378090226e+02 2.156231694361433711e+02 -8.855811204760520639e+01 -1.255452134594846854e+02 -2.929492749787240768e+01 6.356384281036368122e+01 -1.038002706449846890e+01 1.098940574431460249e+02 3.808244068071732613e+01 -1.663636854064731949e+02 4.609621540813539298e+01 -9.150486175157772095e+01 -1.383865129015440232e+02 1.375559754688370901e+02 -7.773168725075205998e+01 6.046263143707437848e+01 1.137265587678050736e+02 -1.012728651482151605e+02 2.398536400800253787e+01 -7.375880143292971525e+01 4.114145413771904458e+01 -1.170906288437602996e+02 6.290901682671319861e+01 5.585379989547867297e+01 4.029508552005147237e+00 8.591324782142066852e+01 -1.562680528941940850e+02 7.803316059985512254e+01 -2.985332795295195396e+01 -1.713439846160560478e+02 9.580389421362134783e+01 2.485624423904002711e+01 -1.989751059930405575e+02 2.385716308174431219e+02 -5.350720385562924841e-01 1.066729057808188372e+02 -1.223187796131189344e+02 -1.969664579964158975e+02 -9.464174838253214261e+01 2.500015271128006145e+00 1.449502166739081304e+02 4.084360950735275608e+00 -9.692219042588396860e+01 5.114836169337457505e+01 1.389961030567554872e+02 6.592169602396447203e+01 -5.249402646355613911e+01 -5.997739199539498145e+01 8.571245275764725591e+01 3.120510567762427101e+01 -1.983093454446285477e+02 -2.103016586285527367e+01 1.714482207581623072e+02 1.002574043468229661e+02 -5.812693781014216654e+01 -1.133949844444608459e+02 -4.329325214028216351e+01 -4.876402993764639149e+01 -1.160819541293356281e+02 -1.876886245509944473e+01 -4.631544891112747564e+01 -1.152291848448617486e+02 -1.337368469955877401e+02 -2.729615737963959887e+01 -1.274395000683723111e+02 -1.356585901505770266e+02 -3.887639123388707674e+01 -5.615197165073884378e+01 -1.125611614584988729e+02 1.956345109243125080e+02 1.107157751473791585e+01 -2.957224030869118181e+01 -1.788199162098826278e+01 8.267489211136977190e+01 1.642909105480451259e+01 2.632472589560574150e+01 -2.239674583740311675e+01 -4.856042602587861978e+01 2.199154793039413036e+01 -1.527607035877753390e+02 -1.673188335316644100e+02 -9.506956799688377657e+01 -2.005715248608418051e+02 -9.420075765035279858e+01 9.020169458402192220e+01 6.450697317965506272e+01 -2.739853467783960994e+01 6.386926220985510838e+01 -1.645186072807512971e+02 -4.286933685650869563e+01 -1.220371961973027624e+02 -7.015981846069138328e+01 2.216605019249024053e+02 -2.157516372155374142e+02 2.157343664088827211e+02 2.628887688001141498e+01 -5.937051936443153721e+01 9.697885163515495321e+01 1.304135168055271095e+02 -5.453916202020560888e+01 -2.140941665085437364e+02 -1.567036263630012058e+02 1.074730807375130581e+02 8.803549861861395698e+01 -1.425110832327533785e+02 3.360201788571486503e+01 -4.167327128989153806e+01 -8.134620844013913654e+01 -2.987179853565809395e+01 -5.763418676206455871e+01 -9.086216538348843130e+01 -3.575757551589720151e+01 4.680613745937449721e+00 -3.440241203096558564e+01 -4.307696228840238728e-01 -1.511553730530186890e+01 9.669367651503731054e+01 1.335447325130157026e+02 1.384624967442034205e+01 1.763748410425260715e+01 -6.630574420187888052e+01 -2.059949122344218608e+02 3.558389531433833497e+01 -9.642603933516362247e+01 2.713834432363735516e+01 -8.630980517273309616e+00 1.046974733660398726e+00 7.590232216095093065e+01 1.280869286839251231e+02 -7.404095681980602706e+01 3.993647821732891146e+01 -2.026377357307242733e+02 1.015201497926326191e+01 7.391914803839971349e+00 -1.287881079356321550e+02 -3.545676609233182575e+01 -4.658670007896163412e+01 5.020533857856467108e+00 -1.074726428718284836e+02 2.843880140449228477e+01 -1.026365365341472682e+02 5.901367753215532019e+01 7.129039768592814141e+01 3.874979129792944121e+01 -3.049920408606625344e+01 1.129052300235310895e+02 6.415959734545712934e+01 8.405400438116294026e+01 -7.038233405426574052e+01 2.135230674146754026e+01 1.343782994559239796e+02 -6.141675561370510650e+01 -7.259250258179966053e+00 3.361127513522968258e+01 -1.348625859871309274e+02 1.027582053785877889e+02 9.407868847314419725e+01 -1.061882859858789772e+02 -8.648701306082094220e+01 -5.829136190674561391e+01 -4.779628381376129198e+01 -1.683036177701324334e+02 -1.427174911239041535e+02 -1.390566951212956610e+02 1.109106974390672349e+02 6.271663014956988036e+01 1.674008388357694059e+02 7.545422755427601658e+00 -9.000431960264766929e+01 1.963814552891588150e+01 1.451573731245002641e+01 -6.659596423887346361e+01 7.767435087751695733e+01 1.238333946164448776e+02 1.049873789934502355e+01 1.504283095402470281e+02 2.361906067022436417e+01 1.163587260221796384e+02 1.584443869823664564e+01 -2.178375557880187614e+02 2.289325880351728983e+02 -5.130023718050659909e+01 -1.563415708648527698e+02 -7.042410281788515647e+01 -4.502012037320253057e+01 4.311470639351876599e+01 2.667850070348174896e+01 4.766703952719518611e+01 -7.726336978337363348e+01 1.275054015300916035e+02 -8.985611449403791084e+01 -7.299860231935694443e+00 1.483624865369329768e+02 1.141439938223340391e+02 6.033973604597649398e+01 -1.841742464335002296e+02 2.645440828366075792e+01 1.460259062199495759e+02 2.436954742363649729e+01 1.014067768136484773e+02 1.105629203797281406e+02 -2.194693335817209743e+02 7.984746635279635996e+01 -5.993397223701435195e+01 -2.332948299431448334e+02 9.174724952608440276e+01 2.546899406001924859e+01 -1.258732006362954507e+02 -6.032885270508458575e+01 1.428208163177291112e+02 1.515401433695818412e+02 -7.776377556532304425e+01 -1.309626972403397644e+02 -8.542662561722374903e+01 -1.696391195712485569e+02 1.998121080650341952e+01 3.869655791170188053e+01 -1.725609485920918829e+01 -1.260585692168172578e+01 -9.108209299127810255e+01 -8.990301487033221406e+01 -2.503518555700028969e+01 1.356757947749099458e+02 1.379383708804209903e+02 8.206485925419551108e+01 9.809923068077293351e+01 -7.938687957819300323e+01 -1.820997894696697585e+02 -1.335741827121882608e+01 -2.336061171068781661e+01 -7.146520892385233026e+01 1.515010113280244486e+00 7.355967867609000166e+01 -5.327869162052238039e+01 2.477120423333850852e+01 7.968968764239679103e+01 7.054739765875370949e+01 1.112275687319228865e+02 -1.501606453773788132e+02 3.990256579414894844e+01 8.385085853490420504e+01 9.537277826514541346e+01 5.946560722287485845e+01 -1.039096494732252864e+02 1.378302049740361497e+02 1.282720769208000036e+02 9.644797331096388859e+01 1.021840241974164059e+02 -8.477851867884540127e+01 -1.497580614273820210e+01 -1.299898259878995965e+01 7.757043695232695768e+01 6.538486587700009522e+01 5.630540585476888538e+01 9.822769178666599998e+01 1.172137837257219388e+02 1.246423674219614384e+02 -6.535949043336249531e+01 8.110854907637155975e+01 6.567826318106151007e+01 -1.184175236308543191e+02 1.324542637176865014e+02 -1.011217439468118329e+01 -2.809716599088535816e+01 2.005929996087871530e+02 8.905511309746215431e+01 1.249441945697099783e+02 -1.453422110236835465e+02 -1.589119551181455563e+02 -1.549141333707632384e+02 -1.231040381789692333e+02 -4.462497036654553284e+01 1.107075308539120613e+02 -1.700102823463682853e+02 3.281294766528006335e+01 1.455833295089895216e+02 -5.985137166949647991e+01 -9.216950092845273446e+01 -3.542109499402030792e+01 1.371593458934488581e+02 2.294665770032444527e+02 -6.726006520465574567e+01 2.000365105167859170e+01 -2.798330075290281727e+01 6.917604060166480906e+01 6.088875925935409583e+01 -2.154364567709814082e+02 -8.958929528648995699e+01 1.390298875851320872e+02 1.413077828826271514e+02 9.556637428286236968e+01 -5.033756493566452406e+01 -7.666160035842710840e+01 -4.593615328186151459e+01 -1.785052340072128061e+02 7.198637763728370942e+01 -2.597811012057166380e+01 1.683243251375253635e+02 -2.824514902278247774e+01 -3.182505025379642802e+02 1.466129378049027707e+02 5.093908411534325609e+01 -1.194057797729467296e+02 -2.239588722438772095e+01 3.575170179637508028e+01 -2.102184459234273106e+02 -1.157109369141582107e+02 -1.109371883376231551e+02 -5.716417743915945948e+01 6.361041256438234370e+01 -1.668894580950165505e+02 1.093239072451459606e+02 -5.500602018375816016e+01 2.938713747166087131e+00 -1.351341181361435986e+02 -1.049043163331278095e+02 1.781494815678193504e+02 8.779216916366641499e+01 -4.279199132762662572e+01 3.768149512829229053e+01 -2.843831505164186169e+01 4.377584168884315829e+01 -1.060197064749330167e+02 1.001390778938063022e+02 5.120622792190608408e+01 -1.205330821240545447e+02 1.183595560978423009e+02 -4.983048974996032854e+01 1.012990601598627762e+02 -5.010196861268605062e+01 8.963063432174918432e+01 -1.555691156058960303e+02 1.446955914459704502e+02 2.512732608851415605e+01 1.020621512534425506e+02 1.322690813672174102e+02 -1.487463704842188861e+02 -8.713116615002421383e+01 -1.071556456075398529e+02 6.785733439541277789e+01 -1.738457257474791220e+02 1.536762444728047683e+02 1.445136787551358282e+02 5.377401229677413852e+01 -8.615590041709978664e+01 5.789936034227998363e+01 -1.088855971819265420e+02 -1.113147721114482813e+01 3.552250315222729427e+01 -1.865184979653538733e+02 -8.284373509975932848e+01 -1.374174243145649399e+01 1.037874548206214484e+02 -5.097351636281483422e+01 1.103620476795678655e+02 -6.534797012058803034e+01 -2.141209488142321504e+02 -1.087813947955089873e+02 -3.463550950052065502e+01 -6.115184145821105943e+01 3.058670992798776922e+01 5.217895815258111725e+01 6.459370844462085870e+00 2.568035610229623700e+01 -1.191791809905174802e+02 5.468974439633561246e+01 3.315915991276481378e+01 -7.339116565379111989e+01 9.402692095982727594e+00 5.722623286836709156e+01 -9.701187978757808139e+01 -5.598814616722498982e+01 -2.453380758162542818e+01 9.926146228257515247e+01 -1.741842893808698634e+01 4.263509894731853045e+00 -2.319271883836247525e+02 -9.668306825724715736e+01 1.006273432198684645e+02 -9.080683478603511105e+01 3.188664511144144598e+01 3.161021119163229542e+01 3.861762894423871728e+01 6.724210417283565278e+01 -1.805665853708077861e+02 1.464883769066179582e+02 8.287574918921262679e+01 -7.636224454605090806e+00 -8.223600015023708920e+01 1.139252564166325499e+02 6.319419812613158172e+01 -2.046431257683805143e+02 -5.128918379042406883e+01 -8.313070639038869558e+01 -5.278564864191341854e+01 -6.306377599187046457e+01 -1.008524826294498098e+02 -6.145954969022630365e+01 1.949049211845719185e+02 -1.738728355469288829e+02 6.667060297438489158e+01 2.823903176633069378e+01 -7.652414541849724117e+01 1.056210614079261845e+01 -4.011673977519681245e+01 3.483696049211981727e+00 -9.785808351498079105e+01 -2.011166588349534265e+02 1.872537601311806554e+01 4.268313228665130765e+01 -1.303346573988048718e+01 -9.214048157129665739e+00 -4.050584338587696465e+01 -1.934067932401963787e+02 -3.121908817833410410e+01 -6.656687906207963579e+01 1.423945030054386329e+01 -1.589253711145084935e+01 9.218768753753109024e+01 -6.418846592331645695e+01 -1.056136976271702252e+02 -3.642536170106487248e+01 -9.197589926194261523e+00 4.637806993400267430e+01 -2.256301170782134591e+01 -7.506180836671069301e+01 -1.616260281796746767e+01 2.044999994429312196e+01 4.838487491077000868e+01 -1.161480823220248766e+02 -1.416300412255184256e+02 2.346354528428257140e+02 -2.223483979293482378e+02 -7.738951755338246130e+01 -4.722609069068084153e+01 1.424969037951769621e+02 6.447587168305535954e+01 2.331446994768563741e+02 2.493548069392741127e+02 -6.349746942948648609e+01 1.319327501052666776e+02 -5.697421799521335117e+01 -4.157618534065996840e+01 -1.025697604765662021e+02 -8.135800626376990863e+01 -7.090551664361484541e+01 -9.066711680321392919e+01 -2.483912823171243360e+02 -2.760294211983314767e+02 1.372649038232397345e+02 -2.702591839487950054e+01 5.427403637600778552e+01 1.333305199032542703e+02
