# 
#                 ----------------------------------------------------
#                 Data from a 3D direct N-body simulation. 
# 
#                 rows are i-particle; 
#                 coumns are :mass, tag, x ,y, z, vx, vy, vz, ax, ay, az
# 
#                 NTHU, Computational Physics Lab
# 
#                 ----------------------------------------------------
#                 Time = 8.899999999999855
1.000000000000000000e+00 2.000000000000000000e+00 3.000000000000000000e+00 4.000000000000000000e+00 5.000000000000000000e+00 6.000000000000000000e+00 7.000000000000000000e+00 8.000000000000000000e+00 9.000000000000000000e+00 1.000000000000000000e+01 1.100000000000000000e+01 1.200000000000000000e+01 1.300000000000000000e+01 1.400000000000000000e+01 1.500000000000000000e+01 1.600000000000000000e+01 1.700000000000000000e+01 1.800000000000000000e+01 1.900000000000000000e+01 2.000000000000000000e+01 2.100000000000000000e+01 2.200000000000000000e+01 2.300000000000000000e+01 2.400000000000000000e+01 2.500000000000000000e+01 2.600000000000000000e+01 2.700000000000000000e+01 2.800000000000000000e+01 2.900000000000000000e+01 3.000000000000000000e+01 3.100000000000000000e+01 3.200000000000000000e+01 3.300000000000000000e+01 3.400000000000000000e+01 3.500000000000000000e+01 3.600000000000000000e+01 3.700000000000000000e+01 3.800000000000000000e+01 3.900000000000000000e+01 4.000000000000000000e+01 4.100000000000000000e+01 4.200000000000000000e+01 4.300000000000000000e+01 4.400000000000000000e+01 4.500000000000000000e+01 4.600000000000000000e+01 4.700000000000000000e+01 4.800000000000000000e+01 4.900000000000000000e+01 5.000000000000000000e+01 5.100000000000000000e+01 5.200000000000000000e+01 5.300000000000000000e+01 5.400000000000000000e+01 5.500000000000000000e+01 5.600000000000000000e+01 5.700000000000000000e+01 5.800000000000000000e+01 5.900000000000000000e+01 6.000000000000000000e+01 6.100000000000000000e+01 6.200000000000000000e+01 6.300000000000000000e+01 6.400000000000000000e+01 6.500000000000000000e+01 6.600000000000000000e+01 6.700000000000000000e+01 6.800000000000000000e+01 6.900000000000000000e+01 7.000000000000000000e+01 7.100000000000000000e+01 7.200000000000000000e+01 7.300000000000000000e+01 7.400000000000000000e+01 7.500000000000000000e+01 7.600000000000000000e+01 7.700000000000000000e+01 7.800000000000000000e+01 7.900000000000000000e+01 8.000000000000000000e+01 8.100000000000000000e+01 8.200000000000000000e+01 8.300000000000000000e+01 8.400000000000000000e+01 8.500000000000000000e+01 8.600000000000000000e+01 8.700000000000000000e+01 8.800000000000000000e+01 8.900000000000000000e+01 9.000000000000000000e+01 9.100000000000000000e+01 9.200000000000000000e+01 9.300000000000000000e+01 9.400000000000000000e+01 9.500000000000000000e+01 9.600000000000000000e+01 9.700000000000000000e+01 9.800000000000000000e+01 9.900000000000000000e+01 1.000000000000000000e+02 1.010000000000000000e+02 1.020000000000000000e+02 1.030000000000000000e+02 1.040000000000000000e+02 1.050000000000000000e+02 1.060000000000000000e+02 1.070000000000000000e+02 1.080000000000000000e+02 1.090000000000000000e+02 1.100000000000000000e+02 1.110000000000000000e+02 1.120000000000000000e+02 1.130000000000000000e+02 1.140000000000000000e+02 1.150000000000000000e+02 1.160000000000000000e+02 1.170000000000000000e+02 1.180000000000000000e+02 1.190000000000000000e+02 1.200000000000000000e+02 1.210000000000000000e+02 1.220000000000000000e+02 1.230000000000000000e+02 1.240000000000000000e+02 1.250000000000000000e+02 1.260000000000000000e+02 1.270000000000000000e+02 1.280000000000000000e+02 1.290000000000000000e+02 1.300000000000000000e+02 1.310000000000000000e+02 1.320000000000000000e+02 1.330000000000000000e+02 1.340000000000000000e+02 1.350000000000000000e+02 1.360000000000000000e+02 1.370000000000000000e+02 1.380000000000000000e+02 1.390000000000000000e+02 1.400000000000000000e+02 1.410000000000000000e+02 1.420000000000000000e+02 1.430000000000000000e+02 1.440000000000000000e+02 1.450000000000000000e+02 1.460000000000000000e+02 1.470000000000000000e+02 1.480000000000000000e+02 1.490000000000000000e+02 1.500000000000000000e+02 1.510000000000000000e+02 1.520000000000000000e+02 1.530000000000000000e+02 1.540000000000000000e+02 1.550000000000000000e+02 1.560000000000000000e+02 1.570000000000000000e+02 1.580000000000000000e+02 1.590000000000000000e+02 1.600000000000000000e+02 1.610000000000000000e+02 1.620000000000000000e+02 1.630000000000000000e+02 1.640000000000000000e+02 1.650000000000000000e+02 1.660000000000000000e+02 1.670000000000000000e+02 1.680000000000000000e+02 1.690000000000000000e+02 1.700000000000000000e+02 1.710000000000000000e+02 1.720000000000000000e+02 1.730000000000000000e+02 1.740000000000000000e+02 1.750000000000000000e+02 1.760000000000000000e+02 1.770000000000000000e+02 1.780000000000000000e+02 1.790000000000000000e+02 1.800000000000000000e+02 1.810000000000000000e+02 1.820000000000000000e+02 1.830000000000000000e+02 1.840000000000000000e+02 1.850000000000000000e+02 1.860000000000000000e+02 1.870000000000000000e+02 1.880000000000000000e+02 1.890000000000000000e+02 1.900000000000000000e+02 1.910000000000000000e+02 1.920000000000000000e+02 1.930000000000000000e+02 1.940000000000000000e+02 1.950000000000000000e+02 1.960000000000000000e+02 1.970000000000000000e+02 1.980000000000000000e+02 1.990000000000000000e+02 2.000000000000000000e+02 2.010000000000000000e+02 2.020000000000000000e+02 2.030000000000000000e+02 2.040000000000000000e+02 2.050000000000000000e+02 2.060000000000000000e+02 2.070000000000000000e+02 2.080000000000000000e+02 2.090000000000000000e+02 2.100000000000000000e+02 2.110000000000000000e+02 2.120000000000000000e+02 2.130000000000000000e+02 2.140000000000000000e+02 2.150000000000000000e+02 2.160000000000000000e+02 2.170000000000000000e+02 2.180000000000000000e+02 2.190000000000000000e+02 2.200000000000000000e+02 2.210000000000000000e+02 2.220000000000000000e+02 2.230000000000000000e+02 2.240000000000000000e+02 2.250000000000000000e+02 2.260000000000000000e+02 2.270000000000000000e+02 2.280000000000000000e+02 2.290000000000000000e+02 2.300000000000000000e+02 2.310000000000000000e+02 2.320000000000000000e+02 2.330000000000000000e+02 2.340000000000000000e+02 2.350000000000000000e+02 2.360000000000000000e+02 2.370000000000000000e+02 2.380000000000000000e+02 2.390000000000000000e+02 2.400000000000000000e+02 2.410000000000000000e+02 2.420000000000000000e+02 2.430000000000000000e+02 2.440000000000000000e+02 2.450000000000000000e+02 2.460000000000000000e+02 2.470000000000000000e+02 2.480000000000000000e+02 2.490000000000000000e+02 2.500000000000000000e+02 2.510000000000000000e+02 2.520000000000000000e+02 2.530000000000000000e+02 2.540000000000000000e+02 2.550000000000000000e+02 2.560000000000000000e+02 2.570000000000000000e+02 2.580000000000000000e+02 2.590000000000000000e+02 2.600000000000000000e+02 2.610000000000000000e+02 2.620000000000000000e+02 2.630000000000000000e+02 2.640000000000000000e+02 2.650000000000000000e+02 2.660000000000000000e+02 2.670000000000000000e+02 2.680000000000000000e+02 2.690000000000000000e+02 2.700000000000000000e+02 2.710000000000000000e+02 2.720000000000000000e+02 2.730000000000000000e+02 2.740000000000000000e+02 2.750000000000000000e+02 2.760000000000000000e+02 2.770000000000000000e+02 2.780000000000000000e+02 2.790000000000000000e+02 2.800000000000000000e+02 2.810000000000000000e+02 2.820000000000000000e+02 2.830000000000000000e+02 2.840000000000000000e+02 2.850000000000000000e+02 2.860000000000000000e+02 2.870000000000000000e+02 2.880000000000000000e+02 2.890000000000000000e+02 2.900000000000000000e+02 2.910000000000000000e+02 2.920000000000000000e+02 2.930000000000000000e+02 2.940000000000000000e+02 2.950000000000000000e+02 2.960000000000000000e+02 2.970000000000000000e+02 2.980000000000000000e+02 2.990000000000000000e+02 3.000000000000000000e+02 3.010000000000000000e+02 3.020000000000000000e+02 3.030000000000000000e+02 3.040000000000000000e+02 3.050000000000000000e+02 3.060000000000000000e+02 3.070000000000000000e+02 3.080000000000000000e+02 3.090000000000000000e+02 3.100000000000000000e+02 3.110000000000000000e+02 3.120000000000000000e+02 3.130000000000000000e+02 3.140000000000000000e+02 3.150000000000000000e+02 3.160000000000000000e+02 3.170000000000000000e+02 3.180000000000000000e+02 3.190000000000000000e+02 3.200000000000000000e+02 3.210000000000000000e+02 3.220000000000000000e+02 3.230000000000000000e+02 3.240000000000000000e+02 3.250000000000000000e+02 3.260000000000000000e+02 3.270000000000000000e+02 3.280000000000000000e+02 3.290000000000000000e+02 3.300000000000000000e+02 3.310000000000000000e+02 3.320000000000000000e+02 3.330000000000000000e+02 3.340000000000000000e+02 3.350000000000000000e+02 3.360000000000000000e+02 3.370000000000000000e+02 3.380000000000000000e+02 3.390000000000000000e+02 3.400000000000000000e+02 3.410000000000000000e+02 3.420000000000000000e+02 3.430000000000000000e+02 3.440000000000000000e+02 3.450000000000000000e+02 3.460000000000000000e+02 3.470000000000000000e+02 3.480000000000000000e+02 3.490000000000000000e+02 3.500000000000000000e+02 3.510000000000000000e+02 3.520000000000000000e+02 3.530000000000000000e+02 3.540000000000000000e+02 3.550000000000000000e+02 3.560000000000000000e+02 3.570000000000000000e+02 3.580000000000000000e+02 3.590000000000000000e+02 3.600000000000000000e+02 3.610000000000000000e+02 3.620000000000000000e+02 3.630000000000000000e+02 3.640000000000000000e+02 3.650000000000000000e+02 3.660000000000000000e+02 3.670000000000000000e+02 3.680000000000000000e+02 3.690000000000000000e+02 3.700000000000000000e+02 3.710000000000000000e+02 3.720000000000000000e+02 3.730000000000000000e+02 3.740000000000000000e+02 3.750000000000000000e+02 3.760000000000000000e+02 3.770000000000000000e+02 3.780000000000000000e+02 3.790000000000000000e+02 3.800000000000000000e+02 3.810000000000000000e+02 3.820000000000000000e+02 3.830000000000000000e+02 3.840000000000000000e+02 3.850000000000000000e+02 3.860000000000000000e+02 3.870000000000000000e+02 3.880000000000000000e+02 3.890000000000000000e+02 3.900000000000000000e+02 3.910000000000000000e+02 3.920000000000000000e+02 3.930000000000000000e+02 3.940000000000000000e+02 3.950000000000000000e+02 3.960000000000000000e+02 3.970000000000000000e+02 3.980000000000000000e+02 3.990000000000000000e+02 4.000000000000000000e+02 4.010000000000000000e+02 4.020000000000000000e+02 4.030000000000000000e+02 4.040000000000000000e+02 4.050000000000000000e+02 4.060000000000000000e+02 4.070000000000000000e+02 4.080000000000000000e+02 4.090000000000000000e+02 4.100000000000000000e+02 4.110000000000000000e+02 4.120000000000000000e+02 4.130000000000000000e+02 4.140000000000000000e+02 4.150000000000000000e+02 4.160000000000000000e+02 4.170000000000000000e+02 4.180000000000000000e+02 4.190000000000000000e+02 4.200000000000000000e+02 4.210000000000000000e+02 4.220000000000000000e+02 4.230000000000000000e+02 4.240000000000000000e+02 4.250000000000000000e+02 4.260000000000000000e+02 4.270000000000000000e+02 4.280000000000000000e+02 4.290000000000000000e+02 4.300000000000000000e+02 4.310000000000000000e+02 4.320000000000000000e+02 4.330000000000000000e+02 4.340000000000000000e+02 4.350000000000000000e+02 4.360000000000000000e+02 4.370000000000000000e+02 4.380000000000000000e+02 4.390000000000000000e+02 4.400000000000000000e+02 4.410000000000000000e+02 4.420000000000000000e+02 4.430000000000000000e+02 4.440000000000000000e+02 4.450000000000000000e+02 4.460000000000000000e+02 4.470000000000000000e+02 4.480000000000000000e+02 4.490000000000000000e+02 4.500000000000000000e+02 4.510000000000000000e+02 4.520000000000000000e+02 4.530000000000000000e+02 4.540000000000000000e+02 4.550000000000000000e+02 4.560000000000000000e+02 4.570000000000000000e+02 4.580000000000000000e+02 4.590000000000000000e+02 4.600000000000000000e+02 4.610000000000000000e+02 4.620000000000000000e+02 4.630000000000000000e+02 4.640000000000000000e+02 4.650000000000000000e+02 4.660000000000000000e+02 4.670000000000000000e+02 4.680000000000000000e+02 4.690000000000000000e+02 4.700000000000000000e+02 4.710000000000000000e+02 4.720000000000000000e+02 4.730000000000000000e+02 4.740000000000000000e+02 4.750000000000000000e+02 4.760000000000000000e+02 4.770000000000000000e+02 4.780000000000000000e+02 4.790000000000000000e+02 4.800000000000000000e+02 4.810000000000000000e+02 4.820000000000000000e+02 4.830000000000000000e+02 4.840000000000000000e+02 4.850000000000000000e+02 4.860000000000000000e+02 4.870000000000000000e+02 4.880000000000000000e+02 4.890000000000000000e+02 4.900000000000000000e+02 4.910000000000000000e+02 4.920000000000000000e+02 4.930000000000000000e+02 4.940000000000000000e+02 4.950000000000000000e+02 4.960000000000000000e+02 4.970000000000000000e+02 4.980000000000000000e+02 4.990000000000000000e+02 5.000000000000000000e+02 5.010000000000000000e+02 5.020000000000000000e+02 5.030000000000000000e+02 5.040000000000000000e+02 5.050000000000000000e+02 5.060000000000000000e+02 5.070000000000000000e+02 5.080000000000000000e+02 5.090000000000000000e+02 5.100000000000000000e+02 5.110000000000000000e+02 5.120000000000000000e+02 5.130000000000000000e+02 5.140000000000000000e+02 5.150000000000000000e+02 5.160000000000000000e+02 5.170000000000000000e+02 5.180000000000000000e+02 5.190000000000000000e+02 5.200000000000000000e+02 5.210000000000000000e+02 5.220000000000000000e+02 5.230000000000000000e+02 5.240000000000000000e+02 5.250000000000000000e+02 5.260000000000000000e+02 5.270000000000000000e+02 5.280000000000000000e+02 5.290000000000000000e+02 5.300000000000000000e+02 5.310000000000000000e+02 5.320000000000000000e+02 5.330000000000000000e+02 5.340000000000000000e+02 5.350000000000000000e+02 5.360000000000000000e+02 5.370000000000000000e+02 5.380000000000000000e+02 5.390000000000000000e+02 5.400000000000000000e+02 5.410000000000000000e+02 5.420000000000000000e+02 5.430000000000000000e+02 5.440000000000000000e+02 5.450000000000000000e+02 5.460000000000000000e+02 5.470000000000000000e+02 5.480000000000000000e+02 5.490000000000000000e+02 5.500000000000000000e+02 5.510000000000000000e+02 5.520000000000000000e+02 5.530000000000000000e+02 5.540000000000000000e+02 5.550000000000000000e+02 5.560000000000000000e+02 5.570000000000000000e+02 5.580000000000000000e+02 5.590000000000000000e+02 5.600000000000000000e+02 5.610000000000000000e+02 5.620000000000000000e+02 5.630000000000000000e+02 5.640000000000000000e+02 5.650000000000000000e+02 5.660000000000000000e+02 5.670000000000000000e+02 5.680000000000000000e+02 5.690000000000000000e+02 5.700000000000000000e+02 5.710000000000000000e+02 5.720000000000000000e+02 5.730000000000000000e+02 5.740000000000000000e+02 5.750000000000000000e+02 5.760000000000000000e+02 5.770000000000000000e+02 5.780000000000000000e+02 5.790000000000000000e+02 5.800000000000000000e+02 5.810000000000000000e+02 5.820000000000000000e+02 5.830000000000000000e+02 5.840000000000000000e+02 5.850000000000000000e+02 5.860000000000000000e+02 5.870000000000000000e+02 5.880000000000000000e+02 5.890000000000000000e+02 5.900000000000000000e+02 5.910000000000000000e+02 5.920000000000000000e+02 5.930000000000000000e+02 5.940000000000000000e+02 5.950000000000000000e+02 5.960000000000000000e+02 5.970000000000000000e+02 5.980000000000000000e+02 5.990000000000000000e+02 6.000000000000000000e+02 6.010000000000000000e+02 6.020000000000000000e+02 6.030000000000000000e+02 6.040000000000000000e+02 6.050000000000000000e+02 6.060000000000000000e+02 6.070000000000000000e+02 6.080000000000000000e+02 6.090000000000000000e+02 6.100000000000000000e+02 6.110000000000000000e+02 6.120000000000000000e+02 6.130000000000000000e+02 6.140000000000000000e+02 6.150000000000000000e+02 6.160000000000000000e+02 6.170000000000000000e+02 6.180000000000000000e+02 6.190000000000000000e+02 6.200000000000000000e+02 6.210000000000000000e+02 6.220000000000000000e+02 6.230000000000000000e+02 6.240000000000000000e+02 6.250000000000000000e+02 6.260000000000000000e+02 6.270000000000000000e+02 6.280000000000000000e+02 6.290000000000000000e+02 6.300000000000000000e+02 6.310000000000000000e+02 6.320000000000000000e+02 6.330000000000000000e+02 6.340000000000000000e+02 6.350000000000000000e+02 6.360000000000000000e+02 6.370000000000000000e+02 6.380000000000000000e+02 6.390000000000000000e+02 6.400000000000000000e+02 6.410000000000000000e+02 6.420000000000000000e+02 6.430000000000000000e+02 6.440000000000000000e+02 6.450000000000000000e+02 6.460000000000000000e+02 6.470000000000000000e+02 6.480000000000000000e+02 6.490000000000000000e+02 6.500000000000000000e+02 6.510000000000000000e+02 6.520000000000000000e+02 6.530000000000000000e+02 6.540000000000000000e+02 6.550000000000000000e+02 6.560000000000000000e+02 6.570000000000000000e+02 6.580000000000000000e+02 6.590000000000000000e+02 6.600000000000000000e+02 6.610000000000000000e+02 6.620000000000000000e+02 6.630000000000000000e+02 6.640000000000000000e+02 6.650000000000000000e+02 6.660000000000000000e+02 6.670000000000000000e+02 6.680000000000000000e+02 6.690000000000000000e+02 6.700000000000000000e+02 6.710000000000000000e+02 6.720000000000000000e+02 6.730000000000000000e+02 6.740000000000000000e+02 6.750000000000000000e+02 6.760000000000000000e+02 6.770000000000000000e+02 6.780000000000000000e+02 6.790000000000000000e+02 6.800000000000000000e+02 6.810000000000000000e+02 6.820000000000000000e+02 6.830000000000000000e+02 6.840000000000000000e+02 6.850000000000000000e+02 6.860000000000000000e+02 6.870000000000000000e+02 6.880000000000000000e+02 6.890000000000000000e+02 6.900000000000000000e+02 6.910000000000000000e+02 6.920000000000000000e+02 6.930000000000000000e+02 6.940000000000000000e+02 6.950000000000000000e+02 6.960000000000000000e+02 6.970000000000000000e+02 6.980000000000000000e+02 6.990000000000000000e+02 7.000000000000000000e+02 7.010000000000000000e+02 7.020000000000000000e+02 7.030000000000000000e+02 7.040000000000000000e+02 7.050000000000000000e+02 7.060000000000000000e+02 7.070000000000000000e+02 7.080000000000000000e+02 7.090000000000000000e+02 7.100000000000000000e+02 7.110000000000000000e+02 7.120000000000000000e+02 7.130000000000000000e+02 7.140000000000000000e+02 7.150000000000000000e+02 7.160000000000000000e+02 7.170000000000000000e+02 7.180000000000000000e+02 7.190000000000000000e+02 7.200000000000000000e+02 7.210000000000000000e+02 7.220000000000000000e+02 7.230000000000000000e+02 7.240000000000000000e+02 7.250000000000000000e+02 7.260000000000000000e+02 7.270000000000000000e+02 7.280000000000000000e+02 7.290000000000000000e+02 7.300000000000000000e+02 7.310000000000000000e+02 7.320000000000000000e+02 7.330000000000000000e+02 7.340000000000000000e+02 7.350000000000000000e+02 7.360000000000000000e+02 7.370000000000000000e+02 7.380000000000000000e+02 7.390000000000000000e+02 7.400000000000000000e+02 7.410000000000000000e+02 7.420000000000000000e+02 7.430000000000000000e+02 7.440000000000000000e+02 7.450000000000000000e+02 7.460000000000000000e+02 7.470000000000000000e+02 7.480000000000000000e+02 7.490000000000000000e+02 7.500000000000000000e+02 7.510000000000000000e+02 7.520000000000000000e+02 7.530000000000000000e+02 7.540000000000000000e+02 7.550000000000000000e+02 7.560000000000000000e+02 7.570000000000000000e+02 7.580000000000000000e+02 7.590000000000000000e+02 7.600000000000000000e+02 7.610000000000000000e+02 7.620000000000000000e+02 7.630000000000000000e+02 7.640000000000000000e+02 7.650000000000000000e+02 7.660000000000000000e+02 7.670000000000000000e+02 7.680000000000000000e+02 7.690000000000000000e+02 7.700000000000000000e+02 7.710000000000000000e+02 7.720000000000000000e+02 7.730000000000000000e+02 7.740000000000000000e+02 7.750000000000000000e+02 7.760000000000000000e+02 7.770000000000000000e+02 7.780000000000000000e+02 7.790000000000000000e+02 7.800000000000000000e+02 7.810000000000000000e+02 7.820000000000000000e+02 7.830000000000000000e+02 7.840000000000000000e+02 7.850000000000000000e+02 7.860000000000000000e+02 7.870000000000000000e+02 7.880000000000000000e+02 7.890000000000000000e+02 7.900000000000000000e+02 7.910000000000000000e+02 7.920000000000000000e+02 7.930000000000000000e+02 7.940000000000000000e+02 7.950000000000000000e+02 7.960000000000000000e+02 7.970000000000000000e+02 7.980000000000000000e+02 7.990000000000000000e+02 8.000000000000000000e+02 8.010000000000000000e+02 8.020000000000000000e+02 8.030000000000000000e+02 8.040000000000000000e+02 8.050000000000000000e+02 8.060000000000000000e+02 8.070000000000000000e+02 8.080000000000000000e+02 8.090000000000000000e+02 8.100000000000000000e+02 8.110000000000000000e+02 8.120000000000000000e+02 8.130000000000000000e+02 8.140000000000000000e+02 8.150000000000000000e+02 8.160000000000000000e+02 8.170000000000000000e+02 8.180000000000000000e+02 8.190000000000000000e+02 8.200000000000000000e+02 8.210000000000000000e+02 8.220000000000000000e+02 8.230000000000000000e+02 8.240000000000000000e+02 8.250000000000000000e+02 8.260000000000000000e+02 8.270000000000000000e+02 8.280000000000000000e+02 8.290000000000000000e+02 8.300000000000000000e+02 8.310000000000000000e+02 8.320000000000000000e+02 8.330000000000000000e+02 8.340000000000000000e+02 8.350000000000000000e+02 8.360000000000000000e+02 8.370000000000000000e+02 8.380000000000000000e+02 8.390000000000000000e+02 8.400000000000000000e+02 8.410000000000000000e+02 8.420000000000000000e+02 8.430000000000000000e+02 8.440000000000000000e+02 8.450000000000000000e+02 8.460000000000000000e+02 8.470000000000000000e+02 8.480000000000000000e+02 8.490000000000000000e+02 8.500000000000000000e+02 8.510000000000000000e+02 8.520000000000000000e+02 8.530000000000000000e+02 8.540000000000000000e+02 8.550000000000000000e+02 8.560000000000000000e+02 8.570000000000000000e+02 8.580000000000000000e+02 8.590000000000000000e+02 8.600000000000000000e+02 8.610000000000000000e+02 8.620000000000000000e+02 8.630000000000000000e+02 8.640000000000000000e+02 8.650000000000000000e+02 8.660000000000000000e+02 8.670000000000000000e+02 8.680000000000000000e+02 8.690000000000000000e+02 8.700000000000000000e+02 8.710000000000000000e+02 8.720000000000000000e+02 8.730000000000000000e+02 8.740000000000000000e+02 8.750000000000000000e+02 8.760000000000000000e+02 8.770000000000000000e+02 8.780000000000000000e+02 8.790000000000000000e+02 8.800000000000000000e+02 8.810000000000000000e+02 8.820000000000000000e+02 8.830000000000000000e+02 8.840000000000000000e+02 8.850000000000000000e+02 8.860000000000000000e+02 8.870000000000000000e+02 8.880000000000000000e+02 8.890000000000000000e+02 8.900000000000000000e+02 8.910000000000000000e+02 8.920000000000000000e+02 8.930000000000000000e+02 8.940000000000000000e+02 8.950000000000000000e+02 8.960000000000000000e+02 8.970000000000000000e+02 8.980000000000000000e+02 8.990000000000000000e+02 9.000000000000000000e+02 9.010000000000000000e+02 9.020000000000000000e+02 9.030000000000000000e+02 9.040000000000000000e+02 9.050000000000000000e+02 9.060000000000000000e+02 9.070000000000000000e+02 9.080000000000000000e+02 9.090000000000000000e+02 9.100000000000000000e+02 9.110000000000000000e+02 9.120000000000000000e+02 9.130000000000000000e+02 9.140000000000000000e+02 9.150000000000000000e+02 9.160000000000000000e+02 9.170000000000000000e+02 9.180000000000000000e+02 9.190000000000000000e+02 9.200000000000000000e+02 9.210000000000000000e+02 9.220000000000000000e+02 9.230000000000000000e+02 9.240000000000000000e+02 9.250000000000000000e+02 9.260000000000000000e+02 9.270000000000000000e+02 9.280000000000000000e+02 9.290000000000000000e+02 9.300000000000000000e+02 9.310000000000000000e+02 9.320000000000000000e+02 9.330000000000000000e+02 9.340000000000000000e+02 9.350000000000000000e+02 9.360000000000000000e+02 9.370000000000000000e+02 9.380000000000000000e+02 9.390000000000000000e+02 9.400000000000000000e+02 9.410000000000000000e+02 9.420000000000000000e+02 9.430000000000000000e+02 9.440000000000000000e+02 9.450000000000000000e+02 9.460000000000000000e+02 9.470000000000000000e+02 9.480000000000000000e+02 9.490000000000000000e+02 9.500000000000000000e+02 9.510000000000000000e+02 9.520000000000000000e+02 9.530000000000000000e+02 9.540000000000000000e+02 9.550000000000000000e+02 9.560000000000000000e+02 9.570000000000000000e+02 9.580000000000000000e+02 9.590000000000000000e+02 9.600000000000000000e+02 9.610000000000000000e+02 9.620000000000000000e+02 9.630000000000000000e+02 9.640000000000000000e+02 9.650000000000000000e+02 9.660000000000000000e+02 9.670000000000000000e+02 9.680000000000000000e+02 9.690000000000000000e+02 9.700000000000000000e+02 9.710000000000000000e+02 9.720000000000000000e+02 9.730000000000000000e+02 9.740000000000000000e+02 9.750000000000000000e+02 9.760000000000000000e+02 9.770000000000000000e+02 9.780000000000000000e+02 9.790000000000000000e+02 9.800000000000000000e+02 9.810000000000000000e+02 9.820000000000000000e+02 9.830000000000000000e+02 9.840000000000000000e+02 9.850000000000000000e+02 9.860000000000000000e+02 9.870000000000000000e+02 9.880000000000000000e+02 9.890000000000000000e+02 9.900000000000000000e+02 9.910000000000000000e+02 9.920000000000000000e+02 9.930000000000000000e+02 9.940000000000000000e+02 9.950000000000000000e+02 9.960000000000000000e+02 9.970000000000000000e+02 9.980000000000000000e+02 9.990000000000000000e+02 1.000000000000000000e+03
1.000000000000000021e-02 1.000000000000000021e-02 1.000000000000000021e-02 1.000000000000000021e-02 1.000000000000000021e-02 1.000000000000000021e-02 1.000000000000000021e-02 1.000000000000000021e-02 1.000000000000000021e-02 1.000000000000000021e-02 1.000000000000000021e-02 1.000000000000000021e-02 1.000000000000000021e-02 1.000000000000000021e-02 1.000000000000000021e-02 1.000000000000000021e-02 1.000000000000000021e-02 1.000000000000000021e-02 1.000000000000000021e-02 1.000000000000000021e-02 1.000000000000000021e-02 1.000000000000000021e-02 1.000000000000000021e-02 1.000000000000000021e-02 1.000000000000000021e-02 1.000000000000000021e-02 1.000000000000000021e-02 1.000000000000000021e-02 1.000000000000000021e-02 1.000000000000000021e-02 1.000000000000000021e-02 1.000000000000000021e-02 1.000000000000000021e-02 1.000000000000000021e-02 1.000000000000000021e-02 1.000000000000000021e-02 1.000000000000000021e-02 1.000000000000000021e-02 1.000000000000000021e-02 1.000000000000000021e-02 1.000000000000000021e-02 1.000000000000000021e-02 1.000000000000000021e-02 1.000000000000000021e-02 1.000000000000000021e-02 1.000000000000000021e-02 1.000000000000000021e-02 1.000000000000000021e-02 1.000000000000000021e-02 1.000000000000000021e-02 1.000000000000000021e-02 1.000000000000000021e-02 1.000000000000000021e-02 1.000000000000000021e-02 1.000000000000000021e-02 1.000000000000000021e-02 1.000000000000000021e-02 1.000000000000000021e-02 1.000000000000000021e-02 1.000000000000000021e-02 1.000000000000000021e-02 1.000000000000000021e-02 1.000000000000000021e-02 1.000000000000000021e-02 1.000000000000000021e-02 1.000000000000000021e-02 1.000000000000000021e-02 1.000000000000000021e-02 1.000000000000000021e-02 1.000000000000000021e-02 1.000000000000000021e-02 1.000000000000000021e-02 1.000000000000000021e-02 1.000000000000000021e-02 1.000000000000000021e-02 1.000000000000000021e-02 1.000000000000000021e-02 1.000000000000000021e-02 1.000000000000000021e-02 1.000000000000000021e-02 1.000000000000000021e-02 1.000000000000000021e-02 1.000000000000000021e-02 1.000000000000000021e-02 1.000000000000000021e-02 1.000000000000000021e-02 1.000000000000000021e-02 1.000000000000000021e-02 1.000000000000000021e-02 1.000000000000000021e-02 1.000000000000000021e-02 1.000000000000000021e-02 1.000000000000000021e-02 1.000000000000000021e-02 1.000000000000000021e-02 1.000000000000000021e-02 1.000000000000000021e-02 1.000000000000000021e-02 1.000000000000000021e-02 1.000000000000000021e-02 1.000000000000000021e-02 1.000000000000000021e-02 1.000000000000000021e-02 1.000000000000000021e-02 1.000000000000000021e-02 1.000000000000000021e-02 1.000000000000000021e-02 1.000000000000000021e-02 1.000000000000000021e-02 1.000000000000000021e-02 1.000000000000000021e-02 1.000000000000000021e-02 1.000000000000000021e-02 1.000000000000000021e-02 1.000000000000000021e-02 1.000000000000000021e-02 1.000000000000000021e-02 1.000000000000000021e-02 1.000000000000000021e-02 1.000000000000000021e-02 1.000000000000000021e-02 1.000000000000000021e-02 1.000000000000000021e-02 1.000000000000000021e-02 1.000000000000000021e-02 1.000000000000000021e-02 1.000000000000000021e-02 1.000000000000000021e-02 1.000000000000000021e-02 1.000000000000000021e-02 1.000000000000000021e-02 1.000000000000000021e-02 1.000000000000000021e-02 1.000000000000000021e-02 1.000000000000000021e-02 1.000000000000000021e-02 1.000000000000000021e-02 1.000000000000000021e-02 1.000000000000000021e-02 1.000000000000000021e-02 1.000000000000000021e-02 1.000000000000000021e-02 1.000000000000000021e-02 1.000000000000000021e-02 1.000000000000000021e-02 1.000000000000000021e-02 1.000000000000000021e-02 1.000000000000000021e-02 1.000000000000000021e-02 1.000000000000000021e-02 1.000000000000000021e-02 1.000000000000000021e-02 1.000000000000000021e-02 1.000000000000000021e-02 1.000000000000000021e-02 1.000000000000000021e-02 1.000000000000000021e-02 1.000000000000000021e-02 1.000000000000000021e-02 1.000000000000000021e-02 1.000000000000000021e-02 1.000000000000000021e-02 1.000000000000000021e-02 1.000000000000000021e-02 1.000000000000000021e-02 1.000000000000000021e-02 1.000000000000000021e-02 1.000000000000000021e-02 1.000000000000000021e-02 1.000000000000000021e-02 1.000000000000000021e-02 1.000000000000000021e-02 1.000000000000000021e-02 1.000000000000000021e-02 1.000000000000000021e-02 1.000000000000000021e-02 1.000000000000000021e-02 1.000000000000000021e-02 1.000000000000000021e-02 1.000000000000000021e-02 1.000000000000000021e-02 1.000000000000000021e-02 1.000000000000000021e-02 1.000000000000000021e-02 1.000000000000000021e-02 1.000000000000000021e-02 1.000000000000000021e-02 1.000000000000000021e-02 1.000000000000000021e-02 1.000000000000000021e-02 1.000000000000000021e-02 1.000000000000000021e-02 1.000000000000000021e-02 1.000000000000000021e-02 1.000000000000000021e-02 1.000000000000000021e-02 1.000000000000000021e-02 1.000000000000000021e-02 1.000000000000000021e-02 1.000000000000000021e-02 1.000000000000000021e-02 1.000000000000000021e-02 1.000000000000000021e-02 1.000000000000000021e-02 1.000000000000000021e-02 1.000000000000000021e-02 1.000000000000000021e-02 1.000000000000000021e-02 1.000000000000000021e-02 1.000000000000000021e-02 1.000000000000000021e-02 1.000000000000000021e-02 1.000000000000000021e-02 1.000000000000000021e-02 1.000000000000000021e-02 1.000000000000000021e-02 1.000000000000000021e-02 1.000000000000000021e-02 1.000000000000000021e-02 1.000000000000000021e-02 1.000000000000000021e-02 1.000000000000000021e-02 1.000000000000000021e-02 1.000000000000000021e-02 1.000000000000000021e-02 1.000000000000000021e-02 1.000000000000000021e-02 1.000000000000000021e-02 1.000000000000000021e-02 1.000000000000000021e-02 1.000000000000000021e-02 1.000000000000000021e-02 1.000000000000000021e-02 1.000000000000000021e-02 1.000000000000000021e-02 1.000000000000000021e-02 1.000000000000000021e-02 1.000000000000000021e-02 1.000000000000000021e-02 1.000000000000000021e-02 1.000000000000000021e-02 1.000000000000000021e-02 1.000000000000000021e-02 1.000000000000000021e-02 1.000000000000000021e-02 1.000000000000000021e-02 1.000000000000000021e-02 1.000000000000000021e-02 1.000000000000000021e-02 1.000000000000000021e-02 1.000000000000000021e-02 1.000000000000000021e-02 1.000000000000000021e-02 1.000000000000000021e-02 1.000000000000000021e-02 1.000000000000000021e-02 1.000000000000000021e-02 1.000000000000000021e-02 1.000000000000000021e-02 1.000000000000000021e-02 1.000000000000000021e-02 1.000000000000000021e-02 1.000000000000000021e-02 1.000000000000000021e-02 1.000000000000000021e-02 1.000000000000000021e-02 1.000000000000000021e-02 1.000000000000000021e-02 1.000000000000000021e-02 1.000000000000000021e-02 1.000000000000000021e-02 1.000000000000000021e-02 1.000000000000000021e-02 1.000000000000000021e-02 1.000000000000000021e-02 1.000000000000000021e-02 1.000000000000000021e-02 1.000000000000000021e-02 1.000000000000000021e-02 1.000000000000000021e-02 1.000000000000000021e-02 1.000000000000000021e-02 1.000000000000000021e-02 1.000000000000000021e-02 1.000000000000000021e-02 1.000000000000000021e-02 1.000000000000000021e-02 1.000000000000000021e-02 1.000000000000000021e-02 1.000000000000000021e-02 1.000000000000000021e-02 1.000000000000000021e-02 1.000000000000000021e-02 1.000000000000000021e-02 1.000000000000000021e-02 1.000000000000000021e-02 1.000000000000000021e-02 1.000000000000000021e-02 1.000000000000000021e-02 1.000000000000000021e-02 1.000000000000000021e-02 1.000000000000000021e-02 1.000000000000000021e-02 1.000000000000000021e-02 1.000000000000000021e-02 1.000000000000000021e-02 1.000000000000000021e-02 1.000000000000000021e-02 1.000000000000000021e-02 1.000000000000000021e-02 1.000000000000000021e-02 1.000000000000000021e-02 1.000000000000000021e-02 1.000000000000000021e-02 1.000000000000000021e-02 1.000000000000000021e-02 1.000000000000000021e-02 1.000000000000000021e-02 1.000000000000000021e-02 1.000000000000000021e-02 1.000000000000000021e-02 1.000000000000000021e-02 1.000000000000000021e-02 1.000000000000000021e-02 1.000000000000000021e-02 1.000000000000000021e-02 1.000000000000000021e-02 1.000000000000000021e-02 1.000000000000000021e-02 1.000000000000000021e-02 1.000000000000000021e-02 1.000000000000000021e-02 1.000000000000000021e-02 1.000000000000000021e-02 1.000000000000000021e-02 1.000000000000000021e-02 1.000000000000000021e-02 1.000000000000000021e-02 1.000000000000000021e-02 1.000000000000000021e-02 1.000000000000000021e-02 1.000000000000000021e-02 1.000000000000000021e-02 1.000000000000000021e-02 1.000000000000000021e-02 1.000000000000000021e-02 1.000000000000000021e-02 1.000000000000000021e-02 1.000000000000000021e-02 1.000000000000000021e-02 1.000000000000000021e-02 1.000000000000000021e-02 1.000000000000000021e-02 1.000000000000000021e-02 1.000000000000000021e-02 1.000000000000000021e-02 1.000000000000000021e-02 1.000000000000000021e-02 1.000000000000000021e-02 1.000000000000000021e-02 1.000000000000000021e-02 1.000000000000000021e-02 1.000000000000000021e-02 1.000000000000000021e-02 1.000000000000000021e-02 1.000000000000000021e-02 1.000000000000000021e-02 1.000000000000000021e-02 1.000000000000000021e-02 1.000000000000000021e-02 1.000000000000000021e-02 1.000000000000000021e-02 1.000000000000000021e-02 1.000000000000000021e-02 1.000000000000000021e-02 1.000000000000000021e-02 1.000000000000000021e-02 1.000000000000000021e-02 1.000000000000000021e-02 1.000000000000000021e-02 1.000000000000000021e-02 1.000000000000000021e-02 1.000000000000000021e-02 1.000000000000000021e-02 1.000000000000000021e-02 1.000000000000000021e-02 1.000000000000000021e-02 1.000000000000000021e-02 1.000000000000000021e-02 1.000000000000000021e-02 1.000000000000000021e-02 1.000000000000000021e-02 1.000000000000000021e-02 1.000000000000000021e-02 1.000000000000000021e-02 1.000000000000000021e-02 1.000000000000000021e-02 1.000000000000000021e-02 1.000000000000000021e-02 1.000000000000000021e-02 1.000000000000000021e-02 1.000000000000000021e-02 1.000000000000000021e-02 1.000000000000000021e-02 1.000000000000000021e-02 1.000000000000000021e-02 1.000000000000000021e-02 1.000000000000000021e-02 1.000000000000000021e-02 1.000000000000000021e-02 1.000000000000000021e-02 1.000000000000000021e-02 1.000000000000000021e-02 1.000000000000000021e-02 1.000000000000000021e-02 1.000000000000000021e-02 1.000000000000000021e-02 1.000000000000000021e-02 1.000000000000000021e-02 1.000000000000000021e-02 1.000000000000000021e-02 1.000000000000000021e-02 1.000000000000000021e-02 1.000000000000000021e-02 1.000000000000000021e-02 1.000000000000000021e-02 1.000000000000000021e-02 1.000000000000000021e-02 1.000000000000000021e-02 1.000000000000000021e-02 1.000000000000000021e-02 1.000000000000000021e-02 1.000000000000000021e-02 1.000000000000000021e-02 1.000000000000000021e-02 1.000000000000000021e-02 1.000000000000000021e-02 1.000000000000000021e-02 1.000000000000000021e-02 1.000000000000000021e-02 1.000000000000000021e-02 1.000000000000000021e-02 1.000000000000000021e-02 1.000000000000000021e-02 1.000000000000000021e-02 1.000000000000000021e-02 1.000000000000000021e-02 1.000000000000000021e-02 1.000000000000000021e-02 1.000000000000000021e-02 1.000000000000000021e-02 1.000000000000000021e-02 1.000000000000000021e-02 1.000000000000000021e-02 1.000000000000000021e-02 1.000000000000000021e-02 1.000000000000000021e-02 1.000000000000000021e-02 1.000000000000000021e-02 1.000000000000000021e-02 1.000000000000000021e-02 1.000000000000000021e-02 1.000000000000000021e-02 1.000000000000000021e-02 1.000000000000000021e-02 1.000000000000000021e-02 1.000000000000000021e-02 1.000000000000000021e-02 1.000000000000000021e-02 1.000000000000000021e-02 1.000000000000000021e-02 1.000000000000000021e-02 1.000000000000000021e-02 1.000000000000000021e-02 1.000000000000000021e-02 1.000000000000000021e-02 1.000000000000000021e-02 1.000000000000000021e-02 1.000000000000000021e-02 1.000000000000000021e-02 1.000000000000000021e-02 1.000000000000000021e-02 1.000000000000000021e-02 1.000000000000000021e-02 1.000000000000000021e-02 1.000000000000000021e-02 1.000000000000000021e-02 1.000000000000000021e-02 1.000000000000000021e-02 1.000000000000000021e-02 1.000000000000000021e-02 1.000000000000000021e-02 1.000000000000000021e-02 1.000000000000000021e-02 1.000000000000000021e-02 1.000000000000000021e-02 1.000000000000000021e-02 1.000000000000000021e-02 1.000000000000000021e-02 1.000000000000000021e-02 1.000000000000000021e-02 1.000000000000000021e-02 1.000000000000000021e-02 1.000000000000000021e-02 1.000000000000000021e-02 1.000000000000000021e-02 1.000000000000000021e-02 1.000000000000000021e-02 1.000000000000000021e-02 1.000000000000000021e-02 1.000000000000000021e-02 1.000000000000000021e-02 1.000000000000000021e-02 1.000000000000000021e-02 1.000000000000000021e-02 1.000000000000000021e-02 1.000000000000000021e-02 1.000000000000000021e-02 1.000000000000000021e-02 1.000000000000000021e-02 1.000000000000000021e-02 1.000000000000000021e-02 1.000000000000000021e-02 1.000000000000000021e-02 1.000000000000000021e-02 1.000000000000000021e-02 1.000000000000000021e-02 1.000000000000000021e-02 1.000000000000000021e-02 1.000000000000000021e-02 1.000000000000000021e-02 1.000000000000000021e-02 1.000000000000000021e-02 1.000000000000000021e-02 1.000000000000000021e-02 1.000000000000000021e-02 1.000000000000000021e-02 1.000000000000000021e-02 1.000000000000000021e-02 1.000000000000000021e-02 1.000000000000000021e-02 1.000000000000000021e-02 1.000000000000000021e-02 1.000000000000000021e-02 1.000000000000000021e-02 1.000000000000000021e-02 1.000000000000000021e-02 1.000000000000000021e-02 1.000000000000000021e-02 1.000000000000000021e-02 1.000000000000000021e-02 1.000000000000000021e-02 1.000000000000000021e-02 1.000000000000000021e-02 1.000000000000000021e-02 1.000000000000000021e-02 1.000000000000000021e-02 1.000000000000000021e-02 1.000000000000000021e-02 1.000000000000000021e-02 1.000000000000000021e-02 1.000000000000000021e-02 1.000000000000000021e-02 1.000000000000000021e-02 1.000000000000000021e-02 1.000000000000000021e-02 1.000000000000000021e-02 1.000000000000000021e-02 1.000000000000000021e-02 1.000000000000000021e-02 1.000000000000000021e-02 1.000000000000000021e-02 1.000000000000000021e-02 1.000000000000000021e-02 1.000000000000000021e-02 1.000000000000000021e-02 1.000000000000000021e-02 1.000000000000000021e-02 1.000000000000000021e-02 1.000000000000000021e-02 1.000000000000000021e-02 1.000000000000000021e-02 1.000000000000000021e-02 1.000000000000000021e-02 1.000000000000000021e-02 1.000000000000000021e-02 1.000000000000000021e-02 1.000000000000000021e-02 1.000000000000000021e-02 1.000000000000000021e-02 1.000000000000000021e-02 1.000000000000000021e-02 1.000000000000000021e-02 1.000000000000000021e-02 1.000000000000000021e-02 1.000000000000000021e-02 1.000000000000000021e-02 1.000000000000000021e-02 1.000000000000000021e-02 1.000000000000000021e-02 1.000000000000000021e-02 1.000000000000000021e-02 1.000000000000000021e-02 1.000000000000000021e-02 1.000000000000000021e-02 1.000000000000000021e-02 1.000000000000000021e-02 1.000000000000000021e-02 1.000000000000000021e-02 1.000000000000000021e-02 1.000000000000000021e-02 1.000000000000000021e-02 1.000000000000000021e-02 1.000000000000000021e-02 1.000000000000000021e-02 1.000000000000000021e-02 1.000000000000000021e-02 1.000000000000000021e-02 1.000000000000000021e-02 1.000000000000000021e-02 1.000000000000000021e-02 1.000000000000000021e-02 1.000000000000000021e-02 1.000000000000000021e-02 1.000000000000000021e-02 1.000000000000000021e-02 1.000000000000000021e-02 1.000000000000000021e-02 1.000000000000000021e-02 1.000000000000000021e-02 1.000000000000000021e-02 1.000000000000000021e-02 1.000000000000000021e-02 1.000000000000000021e-02 1.000000000000000021e-02 1.000000000000000021e-02 1.000000000000000021e-02 1.000000000000000021e-02 1.000000000000000021e-02 1.000000000000000021e-02 1.000000000000000021e-02 1.000000000000000021e-02 1.000000000000000021e-02 1.000000000000000021e-02 1.000000000000000021e-02 1.000000000000000021e-02 1.000000000000000021e-02 1.000000000000000021e-02 1.000000000000000021e-02 1.000000000000000021e-02 1.000000000000000021e-02 1.000000000000000021e-02 1.000000000000000021e-02 1.000000000000000021e-02 1.000000000000000021e-02 1.000000000000000021e-02 1.000000000000000021e-02 1.000000000000000021e-02 1.000000000000000021e-02 1.000000000000000021e-02 1.000000000000000021e-02 1.000000000000000021e-02 1.000000000000000021e-02 1.000000000000000021e-02 1.000000000000000021e-02 1.000000000000000021e-02 1.000000000000000021e-02 1.000000000000000021e-02 1.000000000000000021e-02 1.000000000000000021e-02 1.000000000000000021e-02 1.000000000000000021e-02 1.000000000000000021e-02 1.000000000000000021e-02 1.000000000000000021e-02 1.000000000000000021e-02 1.000000000000000021e-02 1.000000000000000021e-02 1.000000000000000021e-02 1.000000000000000021e-02 1.000000000000000021e-02 1.000000000000000021e-02 1.000000000000000021e-02 1.000000000000000021e-02 1.000000000000000021e-02 1.000000000000000021e-02 1.000000000000000021e-02 1.000000000000000021e-02 1.000000000000000021e-02 1.000000000000000021e-02 1.000000000000000021e-02 1.000000000000000021e-02 1.000000000000000021e-02 1.000000000000000021e-02 1.000000000000000021e-02 1.000000000000000021e-02 1.000000000000000021e-02 1.000000000000000021e-02 1.000000000000000021e-02 1.000000000000000021e-02 1.000000000000000021e-02 1.000000000000000021e-02 1.000000000000000021e-02 1.000000000000000021e-02 1.000000000000000021e-02 1.000000000000000021e-02 1.000000000000000021e-02 1.000000000000000021e-02 1.000000000000000021e-02 1.000000000000000021e-02 1.000000000000000021e-02 1.000000000000000021e-02 1.000000000000000021e-02 1.000000000000000021e-02 1.000000000000000021e-02 1.000000000000000021e-02 1.000000000000000021e-02 1.000000000000000021e-02 1.000000000000000021e-02 1.000000000000000021e-02 1.000000000000000021e-02 1.000000000000000021e-02 1.000000000000000021e-02 1.000000000000000021e-02 1.000000000000000021e-02 1.000000000000000021e-02 1.000000000000000021e-02 1.000000000000000021e-02 1.000000000000000021e-02 1.000000000000000021e-02 1.000000000000000021e-02 1.000000000000000021e-02 1.000000000000000021e-02 1.000000000000000021e-02 1.000000000000000021e-02 1.000000000000000021e-02 1.000000000000000021e-02 1.000000000000000021e-02 1.000000000000000021e-02 1.000000000000000021e-02 1.000000000000000021e-02 1.000000000000000021e-02 1.000000000000000021e-02 1.000000000000000021e-02 1.000000000000000021e-02 1.000000000000000021e-02 1.000000000000000021e-02 1.000000000000000021e-02 1.000000000000000021e-02 1.000000000000000021e-02 1.000000000000000021e-02 1.000000000000000021e-02 1.000000000000000021e-02 1.000000000000000021e-02 1.000000000000000021e-02 1.000000000000000021e-02 1.000000000000000021e-02 1.000000000000000021e-02 1.000000000000000021e-02 1.000000000000000021e-02 1.000000000000000021e-02 1.000000000000000021e-02 1.000000000000000021e-02 1.000000000000000021e-02 1.000000000000000021e-02 1.000000000000000021e-02 1.000000000000000021e-02 1.000000000000000021e-02 1.000000000000000021e-02 1.000000000000000021e-02 1.000000000000000021e-02 1.000000000000000021e-02 1.000000000000000021e-02 1.000000000000000021e-02 1.000000000000000021e-02 1.000000000000000021e-02 1.000000000000000021e-02 1.000000000000000021e-02 1.000000000000000021e-02 1.000000000000000021e-02 1.000000000000000021e-02 1.000000000000000021e-02 1.000000000000000021e-02 1.000000000000000021e-02 1.000000000000000021e-02 1.000000000000000021e-02 1.000000000000000021e-02 1.000000000000000021e-02 1.000000000000000021e-02 1.000000000000000021e-02 1.000000000000000021e-02 1.000000000000000021e-02 1.000000000000000021e-02 1.000000000000000021e-02 1.000000000000000021e-02 1.000000000000000021e-02 1.000000000000000021e-02 1.000000000000000021e-02 1.000000000000000021e-02 1.000000000000000021e-02 1.000000000000000021e-02 1.000000000000000021e-02 1.000000000000000021e-02 1.000000000000000021e-02 1.000000000000000021e-02 1.000000000000000021e-02 1.000000000000000021e-02 1.000000000000000021e-02 1.000000000000000021e-02 1.000000000000000021e-02 1.000000000000000021e-02 1.000000000000000021e-02 1.000000000000000021e-02 1.000000000000000021e-02 1.000000000000000021e-02 1.000000000000000021e-02 1.000000000000000021e-02 1.000000000000000021e-02 1.000000000000000021e-02 1.000000000000000021e-02 1.000000000000000021e-02 1.000000000000000021e-02 1.000000000000000021e-02 1.000000000000000021e-02 1.000000000000000021e-02 1.000000000000000021e-02 1.000000000000000021e-02 1.000000000000000021e-02 1.000000000000000021e-02 1.000000000000000021e-02 1.000000000000000021e-02 1.000000000000000021e-02 1.000000000000000021e-02 1.000000000000000021e-02 1.000000000000000021e-02 1.000000000000000021e-02 1.000000000000000021e-02 1.000000000000000021e-02 1.000000000000000021e-02 1.000000000000000021e-02 1.000000000000000021e-02 1.000000000000000021e-02 1.000000000000000021e-02 1.000000000000000021e-02 1.000000000000000021e-02 1.000000000000000021e-02 1.000000000000000021e-02 1.000000000000000021e-02 1.000000000000000021e-02 1.000000000000000021e-02 1.000000000000000021e-02 1.000000000000000021e-02 1.000000000000000021e-02 1.000000000000000021e-02 1.000000000000000021e-02 1.000000000000000021e-02 1.000000000000000021e-02 1.000000000000000021e-02 1.000000000000000021e-02 1.000000000000000021e-02 1.000000000000000021e-02 1.000000000000000021e-02 1.000000000000000021e-02 1.000000000000000021e-02 1.000000000000000021e-02 1.000000000000000021e-02 1.000000000000000021e-02 1.000000000000000021e-02 1.000000000000000021e-02 1.000000000000000021e-02 1.000000000000000021e-02 1.000000000000000021e-02 1.000000000000000021e-02 1.000000000000000021e-02 1.000000000000000021e-02 1.000000000000000021e-02 1.000000000000000021e-02 1.000000000000000021e-02 1.000000000000000021e-02 1.000000000000000021e-02 1.000000000000000021e-02 1.000000000000000021e-02 1.000000000000000021e-02 1.000000000000000021e-02 1.000000000000000021e-02 1.000000000000000021e-02 1.000000000000000021e-02 1.000000000000000021e-02 1.000000000000000021e-02 1.000000000000000021e-02 1.000000000000000021e-02 1.000000000000000021e-02 1.000000000000000021e-02 1.000000000000000021e-02 1.000000000000000021e-02 1.000000000000000021e-02 1.000000000000000021e-02 1.000000000000000021e-02 1.000000000000000021e-02 1.000000000000000021e-02 1.000000000000000021e-02 1.000000000000000021e-02 1.000000000000000021e-02 1.000000000000000021e-02 1.000000000000000021e-02 1.000000000000000021e-02 1.000000000000000021e-02 1.000000000000000021e-02 1.000000000000000021e-02 1.000000000000000021e-02 1.000000000000000021e-02 1.000000000000000021e-02 1.000000000000000021e-02 1.000000000000000021e-02 1.000000000000000021e-02 1.000000000000000021e-02 1.000000000000000021e-02 1.000000000000000021e-02 1.000000000000000021e-02 1.000000000000000021e-02 1.000000000000000021e-02 1.000000000000000021e-02 1.000000000000000021e-02 1.000000000000000021e-02 1.000000000000000021e-02 1.000000000000000021e-02 1.000000000000000021e-02 1.000000000000000021e-02 1.000000000000000021e-02 1.000000000000000021e-02 1.000000000000000021e-02 1.000000000000000021e-02 1.000000000000000021e-02 1.000000000000000021e-02 1.000000000000000021e-02 1.000000000000000021e-02 1.000000000000000021e-02 1.000000000000000021e-02 1.000000000000000021e-02 1.000000000000000021e-02 1.000000000000000021e-02 1.000000000000000021e-02 1.000000000000000021e-02 1.000000000000000021e-02 1.000000000000000021e-02 1.000000000000000021e-02 1.000000000000000021e-02 1.000000000000000021e-02 1.000000000000000021e-02 1.000000000000000021e-02 1.000000000000000021e-02 1.000000000000000021e-02 1.000000000000000021e-02 1.000000000000000021e-02 1.000000000000000021e-02 1.000000000000000021e-02 1.000000000000000021e-02 1.000000000000000021e-02 1.000000000000000021e-02 1.000000000000000021e-02 1.000000000000000021e-02 1.000000000000000021e-02 1.000000000000000021e-02 1.000000000000000021e-02 1.000000000000000021e-02 1.000000000000000021e-02 1.000000000000000021e-02 1.000000000000000021e-02 1.000000000000000021e-02 1.000000000000000021e-02 1.000000000000000021e-02 1.000000000000000021e-02 1.000000000000000021e-02 1.000000000000000021e-02 1.000000000000000021e-02 1.000000000000000021e-02 1.000000000000000021e-02 1.000000000000000021e-02 1.000000000000000021e-02 1.000000000000000021e-02 1.000000000000000021e-02 1.000000000000000021e-02 1.000000000000000021e-02 1.000000000000000021e-02 1.000000000000000021e-02 1.000000000000000021e-02 1.000000000000000021e-02 1.000000000000000021e-02 1.000000000000000021e-02 1.000000000000000021e-02 1.000000000000000021e-02 1.000000000000000021e-02 1.000000000000000021e-02 1.000000000000000021e-02 1.000000000000000021e-02 1.000000000000000021e-02 1.000000000000000021e-02 1.000000000000000021e-02 1.000000000000000021e-02 1.000000000000000021e-02
-1.155251593837240023e+02 1.754764597843778233e+02 4.075831644066274606e+01 -9.167708837761544771e+00 -9.097114883343301983e+01 -1.386438640031710001e+01 -2.151553954247037552e+02 6.914470865460931037e-01 -8.772820813004857143e+01 -1.442578668345155712e+01 -2.051080881816727697e+01 6.716029683782716475e+00 -1.842407236836691942e+00 1.736836218272012218e+02 8.758191073233902557e+01 -4.010250610074665900e+01 -5.459599189441541256e+01 8.200001686536315049e+01 3.396514756770904597e+01 -2.624642976864110366e+01 -8.163716185099023903e+01 -7.642626271429858775e+01 -1.430579540442558439e+01 2.994969544587984700e+01 -2.017809706062936073e+02 -1.022264264293434195e+02 -2.699855902299336208e+01 2.087421598067595880e+02 7.325103283847916202e+01 7.937892466382254497e+01 8.310558560232790626e+01 1.231315749811161320e+00 -8.192664570034990845e+01 2.146548964521828111e+02 -2.533825518360255842e+02 6.083790288730415341e+01 -1.244269557225555616e+02 -3.588858114594792426e+01 4.170370933553003034e+00 1.311615233865948369e+02 -1.272416234050382258e+02 -1.415807439908834553e+01 8.010882706915700169e+01 1.796830506392175835e+02 7.389517119574928472e+01 -7.087182322303718252e+01 4.272890494644068582e+01 -2.936182089745764401e+01 -6.838943722438196460e+01 1.621101333654790437e+02 -7.312831991916492314e+01 -5.397315062920812068e+01 -1.441623084846825122e+02 5.885180829386476908e+00 -5.233924584320444495e+01 4.001345948063579527e+01 -9.184730592396479665e+01 -5.183826510825276301e+01 -1.049803849833480314e+02 -1.609092407926418105e+02 2.018235342441528246e+01 4.690651039161026148e+01 -1.274554140830700959e+02 1.332017042325745848e+01 -8.212867521101244961e+01 5.084652722376058165e+01 1.724474412913966148e+02 -1.493351483265851414e+02 -4.485974109832265810e+01 7.422106297388481266e+00 3.021496757461957561e+00 4.386633527721091497e+01 8.695013999437732366e+01 9.904221168548897891e-01 -9.074811249576852035e+00 -7.252358475246028036e+01 8.104548745468501636e+01 -3.397688619526472564e+01 2.720802003209703201e+01 1.076784844439048499e+02 9.137689228969034616e+01 -4.424914711228879582e+01 5.989737103117294481e+01 1.526608629726686956e+02 1.203086315415052638e+02 -4.195271774922139763e+00 1.804006411236174472e+02 -1.154494952460394614e+02 4.382271444229560942e+00 -4.342201084624366558e+01 2.141818711284617223e+02 -2.197430099876669374e+01 2.964010922182214181e+00 -7.950122059048324274e+01 -7.374062318979211383e+00 -6.613807730676269614e+01 7.015410736591903174e+01 -9.788778217749234045e+01 7.093790459124161885e+01 -4.941542660995769864e+01 -5.154294262192320986e+01 -9.489829442755811328e+01 5.500555474170464976e+01 -5.669292455367403960e+01 -1.546321787154667220e+02 -8.230732676153245109e+01 -1.083355612533382129e+02 -1.628088486308020890e+02 1.407809023829575494e+02 -2.852181265491740803e+01 3.315209668216520100e+01 9.285002215934123626e+01 -1.077994911463748480e+02 5.901375821580709413e+01 -4.486413720195553623e+01 -7.171967547515419028e+01 -9.323285616010541332e+01 2.105528555904194832e+02 -5.876258671746891338e+01 -5.121993993032816661e+01 -4.893385117171680321e+01 8.326420992808343158e+01 -4.286369729771701742e+01 1.429159409988958203e+02 -5.159154896988259509e+01 5.700863097890505315e+01 4.702606754798233091e+00 -8.407457820039499552e+01 7.129704946729370363e+01 2.872215206004524930e+02 -9.525129904687609894e+01 4.920315230379129900e+01 -7.890858153415594245e+01 4.683858493840758541e+01 1.358472054643982574e+02 -5.316550355022420149e+01 1.508442363447962187e+01 -2.786347228054879466e+01 -1.055526730695875983e+02 -1.786070836216164892e+01 4.399908999072273730e+00 -8.110097762205640493e+00 -1.550087888967946270e+01 1.225008998077376816e+02 1.349748926133268583e+02 1.931062050869801112e+02 -3.151755310490215720e+02 3.959206069768568170e+01 -1.629747744926119069e+01 -6.460457031270259165e+01 1.868221359357805227e+02 7.901098774024805493e+01 -2.641876207784709329e+00 -1.201800426217184565e+02 -1.132043723687718817e+01 1.037161798849807468e+02 -1.393139879670578978e+02 -1.747902214028746073e+02 1.112588879558500032e+01 4.399969001105638000e+01 -6.323501799416990821e+01 4.357271964650816187e+01 -1.110230168672071756e+02 -1.569137660495667035e+02 2.191374361635587675e+01 5.037950121096341860e+01 4.964791669411480868e+00 -8.663103504840856317e+01 -9.708705415036203590e+01 -8.751324515908416402e+01 -9.082390744908694558e+01 1.307736227580193322e+01 5.899690183292140944e+01 1.209014771160750712e+02 8.246614272677335578e+01 9.290629011834009532e+01 1.115268966383820128e+02 -7.767610410208392580e+01 -8.570616746212483861e+01 7.324816082955197771e+01 7.105738861580820753e+01 6.154245393774536410e+01 -9.768190053299049325e+00 -9.466263189807295930e+01 5.610765527636934280e+01 -1.860024890365271233e+02 6.981624515545384213e+01 -4.635389396152931596e+01 -1.003385809968824702e+02 7.720149897899204916e+01 -1.780532810747785533e+01 -8.030847467775372195e+01 -5.985112462765456343e+01 -9.506006459401609376e+00 2.526947687577496708e+02 7.996099124160309657e+01 5.711976753186391420e+01 -1.082941188148468825e+02 1.545106349751051198e+02 1.068434073227145786e+00 -9.426108257066266560e+01 1.624497990637047451e+02 -1.607876374881237496e+02 1.645366406520153291e+01 -3.398555227776164145e+01 -2.318175704764799150e+02 -1.407939733365041661e+02 -9.205578524318366362e+01 -3.083570285346208095e+01 -1.258390575810502554e+02 6.085559517187468259e+01 6.855399639661034428e+01 -2.906506340321450566e+01 -1.051762375110610463e+02 1.193315365831362840e+02 1.247699433413837511e+02 4.877118392369684585e+01 1.839923097577000632e+01 2.758010203069194972e+02 4.611001562591592062e+01 -1.260007269779973456e+02 -4.753413864115029952e+01 -1.783034659099175201e+02 3.364875371052272612e+01 1.619291606599442161e+02 -1.567650246687649940e+02 1.391296284507976679e+02 -9.607819201193026970e+01 -1.994211183463308501e+01 -7.561580867297418296e-01 5.582581795877214859e+01 -1.227823919783097395e+01 -2.405527042850790309e+01 -2.003924134499186138e+01 -1.338087207550262008e+02 4.907437452350429652e+01 -3.210087394799504779e+01 -1.375723671959690542e+01 -1.131619281264578269e+01 2.388067401597194817e+02 1.840760275399649117e+02 2.458720471405814862e+02 1.393093099512884123e+02 -9.150718097506410231e+01 7.951080022515981227e+01 2.229835411373212040e+01 5.035783151815086711e+01 -4.204152708263894311e+01 2.700450689479371817e+02 -2.461661562464982822e+01 -1.445576566159273284e+02 -1.582493699476519744e+01 -4.844213061928087427e+01 -8.186623140258065234e+01 4.564408932242616856e+01 -1.238741581563496830e+01 1.923808257178883991e+02 9.777946843637893437e+01 4.325007918840336885e+01 1.037190011131887672e+02 9.986908513614569927e+01 -2.431782207868024415e+01 1.477065604231806617e+02 2.799044753765075555e+01 9.472888269613108037e+01 5.038447927439369067e+01 7.344312032952961644e+00 -1.224836219830376507e+02 -1.225139438381207810e+02 -9.521312426233097881e+01 -1.648328398379049986e+01 9.169691704080774741e+01 -3.246084643179131035e+01 1.046269418194584944e+02 4.633480640474643764e+01 -7.694176200186886661e+01 -3.172114384260594733e+01 -6.200285566203881871e+01 1.857733542483185118e+01 -4.904612265673796401e+01 -1.185441887466847817e+02 1.286037217668880146e+02 1.283643029031803167e+02 -8.350549684932698824e+01 5.803141785758802129e+00 -4.792584127330209043e+01 -3.453786492079035497e+01 -1.200079284658410828e+01 -3.301465421135367961e+01 4.699494950057193421e+01 -1.486316895710202743e+02 -5.587469571587098471e+01 -1.606830988724582312e+02 1.841704864399896451e+02 -2.143484107640780323e+01 6.236449407189202532e+01 1.263114797276475798e+01 1.526916105805883603e+02 4.723349130092765336e+01 3.780569375688974532e+01 1.631370623266504936e+02 -5.207347161824931447e+01 -1.031164083534356166e+02 2.867279404213235239e+01 -1.669663010290123566e+02 -5.641261909158190235e+01 1.080521026640915494e+02 -1.350087218543064580e+02 -3.842050000419621369e+01 9.644400457809945237e+01 -9.984142990339593382e+01 -9.456703678342070418e+01 -8.730857287842269443e+01 -6.744896115644655765e+01 2.629655676373930078e+02 2.092771362062146352e+02 1.087878636410361395e+02 -1.079103365079703565e+02 7.905187890322139310e+01 -6.976842294955449120e+01 -3.287202016845663621e+01 1.751294372946542310e+01 -3.392345966826017190e+01 -9.893531198282758510e+01 -2.824203949069080899e+00 1.563553866390896374e+01 1.146929344582278532e+02 -1.354701520957432592e+02 4.410815695438346040e+01 6.719352553712081999e+01 3.643856057272901694e+01 -9.547392641274268499e+01 -1.564302727057854838e+02 2.035679857651606710e+02 -1.877352667096801753e+01 2.653201996874538438e+01 1.647818891738517380e+02 2.808390381374491795e+01 2.921759817489528999e+01 -4.686338694785813175e+01 9.322896342689483618e+01 -1.434959586788631896e+02 -3.242690695748792251e+01 -6.452768348510138807e+00 -5.621462056471584390e+01 6.448052519952082839e+00 2.244197489601570794e+01 -3.764430876438953533e+01 1.437439222295001251e+01 2.247549348787902659e+02 -2.879294906982923052e+01 -2.938614009737278820e+01 -1.068916285963853454e+02 -1.749350333903659349e+00 -8.491627567328394832e+01 6.752493466461283234e+00 1.178027588688704981e+02 -5.470264027704278220e+01 6.364915383811546867e+00 -5.711507197602054475e+01 3.515020409046990313e+00 9.167879397167443756e+01 -1.217777529915068726e+02 -1.017296129633054420e+02 -1.077681771769254624e+02 7.505893589231543217e+01 9.097430795217252353e+01 -9.704336139504420089e+01 6.576587090540142810e+01 2.711246361571998520e+01 4.065494067745898832e+01 -1.866826644204289209e+01 9.596584267892281161e+01 8.380543263418741162e+01 -8.122235140131481046e+01 1.249153583686686275e+01 8.502270160450355263e+01 7.657512779362735955e+01 -2.087182854765938700e+01 2.626620815730668568e+01 -1.393056356839303760e+02 5.095626814559134488e+01 -3.441954548212893883e+01 -3.427857223807319542e+01 1.819580322248928326e+02 4.985742683370681760e+01 1.263175028229457695e+02 2.005940388029540884e+02 -1.446775314944754882e+02 1.565872490867780584e+02 -6.655436772285285940e+01 -1.419558946547074925e+02 8.649047960684271175e+01 -1.408831071683160872e+02 -3.014810656454100979e+01 5.928860887601646823e+01 8.520499369681699520e+00 -1.765616061582494467e+02 8.845320392665898623e+01 2.647430235142528332e+01 7.259842420980456268e+01 3.808658156984905929e+01 9.961052721209640026e+00 -7.051317122188081044e+01 1.216113220806023065e+02 5.723414711248242526e+01 -6.527171509122243265e+01 -1.063519417678498229e+02 4.094556206359244754e+01 2.692467636295444322e+01 8.653074309955368904e+01 1.929669827219557021e+02 -2.589716028764129518e+01 -1.156937503850054725e+02 -8.905844594349679255e+01 -5.391507267339702736e+01 -4.666061401922595309e+01 -1.541511373910790326e+02 -2.361618588755241532e+01 1.359924392918743479e+02 7.831738732003634595e+01 -1.285448032258067599e+02 -1.573257139961414453e+02 -7.156074043123464890e+01 -8.025967423010980895e+01 1.540882625474717429e+02 -1.790292717578554402e+02 9.085973629145038899e+01 -4.840968821721554960e+00 -4.517357965367645534e+01 1.399005885367470370e+01 9.579116685222487604e+01 5.212699320330786179e+01 1.451571919760255867e+02 -1.671216517985608618e+02 -8.504234347344662126e+01 2.658084895071262110e+01 4.404999366760447543e+01 2.165326908177738119e+02 1.527399601242811116e+02 6.879076648863262733e+01 7.572639585907400317e+01 -3.603421400632610982e+01 1.594794622751953455e+02 -1.882831071998200798e+02 -6.655275530165940268e+01 -5.638513204778251264e+01 -5.439338323312301782e+01 -1.084948800504400452e+02 -1.572364742222154099e+01 -7.209560669156940094e+01 7.477039132021226919e+01 -9.637619656001763957e+00 -6.105359061734058912e+01 -6.548805679817208159e+01 1.892246747405665985e+02 6.190696369103720542e+01 -1.436093194540025308e+01 2.193219267514487569e+02 -1.137214265757011162e+02 -3.711451006319121149e+01 7.029861879299471639e+01 -1.300145118130318911e-01 1.565528167692516881e+01 -1.312544608886130959e+02 1.849697427058354435e+02 -5.147411417567172265e+01 -2.832644109023614831e+01 -1.151706975230410279e+02 1.320971378147585540e+02 1.006824221526981233e+02 -8.137680794500208492e+01 -3.937372381706688884e+01 4.084054223736591638e+01 -1.588799240654321068e+02 -1.157140642491187588e-01 -7.837395607943822995e+01 8.100748819606346629e+00 -1.134469116128852590e+02 -1.662980452331928802e+02 -7.412266935720676031e+01 1.553796746182503057e+02 5.937579517915852279e+01 -9.395008290425089115e+01 9.353449401940828523e+01 3.592755032168984286e+01 9.253061428010087752e+01 -4.414364641285006030e+01 -8.816800702043498461e+01 1.792240036534794285e+02 4.368492347522597896e+01 3.035015452591746055e+01 -7.651932775626403327e+01 -4.432519912065401257e+01 1.004578119820022941e+01 -7.487733892672387981e+00 -1.810137572487962245e+02 -3.622781470459948849e+01 6.747536702595934344e+01 1.169106909192310439e+02 1.630084342774468951e+02 -1.387642130969590859e+01 9.381155632684358636e+01 1.650523782671153583e+02 6.639053769488651824e+01 1.547196543674392899e+02 1.680394713294709774e+01 1.373495523547094308e+02 -8.779805163732024198e+01 5.583565132094467032e+01 3.071015123775548616e+01 7.932862034574806387e+01 -1.110059775858320705e+02 2.069028863566211953e+02 -1.346346633092662728e+02 9.221716532325523019e+01 -1.122685468186290336e+02 4.816353528961548847e+01 1.440028284945212000e+01 9.472292930972548675e+01 -7.693264955768449909e+01 -7.881702732967943348e+01 -1.167671317623963212e+01 9.296337430010935066e+01 -3.086127753822258057e+01 -1.702561702573956026e+01 -2.047833842028590468e+01 4.941822575337553758e+00 1.023300019236644118e+02 -6.524136548633053678e+01 -2.837943656806787285e+00 -2.017630433865344060e+02 1.267682441606096404e+02 -1.297957768030178727e+02 -7.681161908609163902e+01 -2.448943368087656580e+01 -1.121657027265500943e+02 -5.526777714007143061e+01 -6.085857836338744420e+01 -2.042423860784732881e+01 1.416558989776333419e+02 5.618556607753231447e+01 1.043988110505272857e+02 -1.414446349698412462e+02 -1.440393689056959090e+02 -2.977063680962211834e+02 1.061310244206238593e+02 1.084086594596849977e+02 4.390738811634518868e+01 -4.405056047808694331e+01 -3.871776706532434531e+01 -1.908372953589578742e+02 1.519279842477500893e+02 -1.116645176285468324e+02 1.111765193526185556e+02 -1.655338721201907504e+02 -1.486424203585213988e+01 -5.756174299924713722e+01 -1.239513965181878490e+02 -4.791177668865776695e+01 -1.294630314781653802e+01 -9.630651578804629764e+01 -1.076245410848519271e+02 -1.283837379910497667e+01 7.403842456865864108e+01 -1.295947431933006726e+02 -1.630593515190826892e+01 -7.669422417881160925e+01 -1.366473080865271186e+02 6.990319316588147203e+00 9.902893661830110261e+01 1.720906395654959908e+02 -1.984673857679594988e+01 -4.790664332147125748e+01 -1.290878387623471326e+02 -1.700898119785336462e+02 1.079047410335568742e+02 -7.567522283424678164e+01 8.222026848524721743e+01 9.787598505092624634e+00 3.045774566384615056e+01 7.684027517757026260e+01 -8.812652860641456698e+01 8.599432211116501890e+01 1.199312506543126489e+02 1.637463499923377697e+02 -1.213593499845133579e+02 1.081451735471686675e+02 -4.968353498720467343e+01 -9.447526568993895069e+01 2.232412247337848328e+02 5.128744681017939655e+01 8.685480130647070496e+01 2.220391729999802166e+01 -6.568695192763603075e+01 -3.635885022849397075e+01 -2.189076618498791333e+02 1.099129557510033379e+02 8.483739465458023687e+01 -7.878044813725995255e+01 -7.615892356087924497e+01 1.511065383291200419e+02 1.051763035865268847e+02 5.318697829299887303e+01 7.919456608522435204e+01 -8.254499462408313448e+00 1.074027085037303237e+02 -1.077139648052864516e+02 1.940359635059469952e+02 -4.108980503385034666e+01 -1.269417235034028835e+02 -3.916745490403970820e+01 7.467179387930760015e+01 1.533564297116785724e+02 1.350055378180756982e+01 1.809070494465467505e+02 5.435083380592081426e+01 3.497005306635845301e+01 -1.158715720810096172e+02 4.666592064548611063e+01 -1.301768040072199426e+02 4.961957670911928631e+01 4.026419395672098744e+01 -1.283463095397525535e+02 -8.850253584016468267e+01 4.144255065419205408e+01 9.083072927359912896e+00 -2.420539331204954792e+01 4.353950853402248811e+01 -2.226942791929492671e+01 -6.567129411376451742e+01 -2.715023759159888428e+01 -2.340178769896014899e+01 -4.146412191217578425e+01 1.955820135119746084e+01 -8.375175251541767807e+01 1.238191517750822186e+02 -7.740391962365843881e+01 -4.518576812181354541e+00 6.812596560388325884e+01 4.076072050829481874e+00 1.657962864136853653e+01 1.659859140104347475e+01 -1.219400311195992543e+02 -4.608206557087010324e+00 6.771624211352282430e+01 -2.408997093119074577e+02 -8.828872138339737319e+01 -1.173533454210266171e+02 4.556954829549845698e+01 1.001599831741893496e+02 -9.547866870596318734e+01 -1.747440201264203097e+02 -1.926589048434156837e+02 2.080127188858033449e+01 -1.508553626349876993e+02 -6.568187667770261307e+00 1.535425177137234130e+02 -7.422460915132552017e+00 3.864230379303629093e+01 -1.028542902822893126e+02 8.293479196931056663e+01 -1.231030408097282418e+02 -1.597283287770285654e+01 -3.147895243420073541e+01 5.970301378210081111e+01 -9.241575111974253076e+00 1.095717491634409271e+02 -1.264719214051047516e+02 -5.188597187744079520e+01 8.956503622195120329e+01 6.849516655313934166e+01 -8.528680259144439901e+01 -5.628471536686702592e+01 -5.104771156237279683e+01 -2.992982227670803468e+02 2.001330676287902861e+02 7.872935970999655808e+01 -2.442258864727955014e+01 -3.065248770724307548e+01 4.291458615146166267e+01 -8.699512228574360506e+01 1.028495864764595922e+02 6.240431373738987730e+01 8.475599670484767501e+01 -8.682210427822491283e+01 -2.747759454644322830e+01 3.444779964595523580e+01 1.793869132527753862e+01 -4.415218056652233258e+01 1.628596562373962229e+02 -1.785006099048176154e+01 3.647622246411824420e+01 -2.369623998606862187e+02 -8.735343530904098941e+01 -7.545808520521707408e+01 2.372330392901455554e+01 1.125699530942838038e+02 -2.387540050502848885e+02 -1.927836765473593630e+02 2.285189804983958766e+02 -1.089841922349105907e+01 9.904849971564888733e+01 6.470176904495795611e+01 -5.709302767055069694e+01 -1.350291382838727259e+02 -9.808563091416543500e+01 -5.181749627167497607e+01 -3.860827323869330741e+01 -4.035305218164278074e+01 1.669750928775266274e+01 3.823715796177743442e+01 1.718939283651695575e+02 1.269366168693086934e+02 7.099726899224933163e+00 -4.503060817663639526e+00 -1.637022753554814471e+02 1.233150306657236683e+02 1.642260253043037608e+02 -1.065505634013172482e+02 7.599926372700878119e+01 1.876163896126929798e+00 5.654121002351558190e+01 1.293258979236480570e+02 7.311654094786725011e+01 -1.381151413943881607e+02 1.666516062228048511e+01 -3.028637756460759434e+01 1.147741674428215397e+01 -2.392934400734975142e+01 4.677167004481353985e+01 -2.685368196805001162e+02 1.868790303234834766e+02 7.577378107873002477e+00 1.644548730648477601e+02 -1.092372109029473748e+01 1.095867775955491510e+02 7.392449015568784887e+01 -4.338393090029710208e+01 3.082582801728819533e+01 -7.511924465550612240e+01 -9.183780332175986416e+01 -7.445718641256405590e+01 -3.309295238736201838e+01 4.668402393835870612e+01 1.138361496105129902e+02 2.946792102264759095e+01 6.411840412788080812e+01 -1.083138618555985033e+02 -1.417419686046999061e+02 -1.393890612760504588e+01 4.798921956480560169e+01 -4.710891078312861424e+01 9.770646972660942708e+01 5.738374878640360066e+01 -2.860401435983083829e+01 3.098162886380473680e+01 6.345044121812767912e+01 -7.460724936682733244e+01 -1.383237062387024991e+02 1.470088087027474728e+02 8.088648322190586271e+00 5.189324695615946581e+01 -1.544882260684935602e+02 -5.527588592555377289e+01 -5.000438832497826613e-01 -6.798622053973636525e+01 4.432789929166409237e+00 5.827344440218139709e+01 1.930904205579758752e+02 4.052393860493486955e+01 -1.136330653589937612e+01 7.477037778505629717e+01 -4.714850215245604659e+01 -1.129509124722701188e+02 -1.432697331340808091e+02 9.727145729939220331e+00 2.604038407041967318e+01 2.464744823521355244e+01 -5.898991722964355944e+01 1.253543781597640958e+02 -8.388179994230355874e+01 1.331641087871163336e+02 9.060634873559146740e+01 -6.751469263230441697e+01 -8.786261515243752740e+01 8.739471961615993223e+01 2.130648168826033739e+01 -5.448007076473193422e+01 -5.593323004176087920e+01 1.419082126795615011e+02 5.950095750957878238e+01 8.295894365576843654e+01 2.716542042755026998e+01 -4.375556836616851086e+01 1.117262868370744968e+02 -5.671074097461720953e+01 5.332114948550392697e-01 7.963571857495449535e+01 1.035366027633219232e+02 2.656212660640571812e+02 -1.821251301288749858e+02 1.674343449829604822e+02 -7.036435108414659112e+01 -1.583502780771361707e+01 -2.602521410232765220e+01 -2.158218789380050850e+01 -5.748289225793968171e+01 9.672318424751607324e+01 1.917504508972102428e+02 -1.237932010284176698e+02 3.223306029851087118e+01 -1.322832173899046211e+02 7.318330997085071488e+01 -4.643307222430748027e+01 -8.445348289969247446e+01 -5.620656555460089265e+01 4.296214110477936288e+01 2.026359962336869813e+01 -8.545257614058321849e+01 -1.473922814080479782e+02 2.171591403970316492e+01 1.647654282225069267e+02 1.493616706149781770e+01 1.908583869073045491e+02 7.817004107310207672e+00 1.408514016932241759e+02 -3.622120206774903295e+01 9.493338035150752319e+01 -7.481687761270524106e+01 -1.182619494027542260e+02 5.178975132071941090e+01 -6.081195138567424152e+01 -8.228565095650535000e+01 7.647079591239544527e+01 6.733310547634317800e+00 -9.893417844795739313e+01 -1.579199359643931189e+02 1.551857642959079442e+02 -9.360494383890578263e+01 -2.436364426571774100e+00 1.260860072899471049e+02 6.098097013333040906e+01 -1.031530282164539187e+02 1.113472912089408950e+01 2.964265719313541467e+02 5.608097304398987859e+01 -1.658862910893105322e+02 -5.017037459396622978e+01 -6.475668563635178998e+01 1.014895740299251514e+01 1.131884389358628340e+02 -1.088826145503636269e+02 2.267704113106866615e+01 1.374131822042451176e+02 1.977832443053401690e+01 -2.224740210637374389e+02 5.096448092987029810e+01 7.950175599258349735e+01 -1.428474657857286800e+01 3.456974961744183616e+01 1.151379484961226329e-01 2.365521911725494064e+01 2.922197718575216285e+01 1.219998793160699506e+02 1.032390081117380021e+02 1.631400226597342140e+01 1.570205617107610863e+02 -6.745415137233472080e+01 2.598715491235385002e+02 6.850261644399255090e+01 1.492637345742632533e+02 -2.316392887232467501e+01 9.489231163788475953e+01 -5.175518143643092372e+01 -1.542574717810285847e+02 2.762857703777540763e+01 1.002798340317990125e+02 -9.238145365294434441e+01 -1.103950484380715835e+02 -7.013334151760018642e+01 3.854879023887658462e+01 -1.204558800525069557e+02 7.880205945624955177e+01 2.962346867541817019e+01 -1.029052900566373410e+02 2.002729863379507833e+02 -1.240417449402943184e+01 -1.072462142142178578e+02 -1.407832972692583340e+01 -2.154395386256943468e+01 -1.478633347974202650e+02 -4.222774553923412100e+01 6.483577671613521431e+01 1.389155179536738842e+02 3.057391033644469047e+01 2.824321300729069506e+01 4.722794777330127403e+01 -3.773769581630867265e+01 -1.534894300401245459e+02 1.668128660844242717e+01 3.271574720468384356e+01 1.403173202029220477e+02 -1.052210002578236647e+01 -8.030583380391283299e+01 7.720725307223585787e+01 1.070310220061955198e+00 3.377036078864862390e+01 1.469403653224319442e+02 -1.872863104873277109e+02 -9.790996601033246804e+01 1.315322833269545981e+02 -2.210839874894384138e+02 -1.884651819266213408e+02 9.320782563409866839e+01 1.578075943397778929e+02 6.491840287799315945e+01 -4.535824022127922461e+00 1.596722574170327960e+02 -2.248792149283125923e+02 1.098095719282786717e+02 4.343339815545015625e+01 1.302277424627889673e+02 -1.932614079908892677e+02 1.092718147914450526e+02 -2.902718855119942276e+01 -1.370176337857266162e+02 -5.462048592883512299e+00 -9.470972648728870524e+01 -1.678820104585563300e+01 -4.340482898376349929e+00 -1.262387163603020923e+02 -1.263704533687182447e+02 -6.413444585254899266e+01 -1.321368520338606345e+02 2.059891569612015587e+02 -1.649377967327463068e+02 -5.139819865997048254e+01 1.768026282908816142e+02 3.475948082632542935e+01 -3.032985988784049027e+02 -1.301857683767216258e+02 3.642157020184208704e+01 5.598382817193030547e+01 8.864643309651775382e+00 -1.584883838030573315e+02 3.657240050874805348e+01 7.621007763138258007e+00 -7.616457320005673637e+01 2.077006938158394007e+02 2.076333160247717160e+02 4.423724180509817749e+00 -2.136663243303781030e+02 1.291183816122979522e+02 3.155133986191708217e+01 3.799618074149293090e+00 7.856204928558982203e+01 -2.125769022979807801e+02 -1.414677525096294062e+02 1.445557067263971760e+02 1.123415586089111855e+02 5.426624012113790485e+01 1.468106964458339974e+02 -1.826678038662381027e+02 -2.091263571039165825e+01 -1.336837665369532147e+02 4.460301495248915415e+01 -1.064213722285092842e+02 8.917445338410621503e+01 -3.467751391856914722e+01 1.268553841585706543e+01 1.817968379068921081e+02 2.915368535379833403e+01 -2.700721936079232819e+02 -1.294482108555363027e+02 -8.542228758050519843e+01 1.620029469747118469e+02 1.283958734461146101e+01 -5.508342473147642693e+01 3.118168191051533000e+01 6.408887088003289989e+01 -4.058808679777994399e+01 1.101688956962822346e+02 -1.032117651539607266e+02 5.042609038943669475e+01 1.146823710309684117e+02 -3.625767892827381900e+01 -1.005411273775018941e+02 -1.161739322123308256e+02 1.227081955293857476e+02 -5.086308973269197509e+01 2.013968407867696158e+02 5.861415186302145486e+01 1.137017502036938339e+02 1.888801562641903615e+02 8.777185438766810677e+00 -1.273101092845548123e+02 -1.698856315135096793e+02 -1.170266972766395952e+02 4.348990364756794236e+01
-1.365818847514870349e+01 -4.793810816569378908e+00 1.036752061947872647e+02 -2.292001835195666786e+02 1.555480529987535476e+02 6.360509026023039070e+01 1.522588928239856330e+02 -1.292545704537492952e+02 -2.799965689843494143e+00 -2.410913666198966965e+01 -2.196538888784523920e+02 3.278906479243202199e+01 -1.834719902866797980e+01 1.223838469185076292e+02 -1.251232366423997746e+02 6.175570578069115157e+01 1.254298738506661834e+02 -4.597033321818702944e+01 -4.975780660646807263e+01 -2.712313334145077803e+01 6.172991853710075105e+01 6.320350830526424346e+01 3.242562506438098069e+01 -2.327366999046756462e+02 -5.171286698072024990e+01 9.152520520491276557e+01 9.903272909143202796e+00 -1.033915457019369200e+01 -6.659889119589705331e+01 -1.543861464316087329e+01 7.339614252857327870e+01 -1.455237537908546130e+02 -6.191847418529062708e+01 9.019136656228534221e+00 2.076175259426514970e+02 2.121867214874112619e+02 -3.204480163929701320e+01 5.593048587200001975e+01 -2.877675396195555346e-01 -1.397839700090562189e+02 9.606834440292956856e+01 1.073407557689849057e+02 1.086092485262021512e+02 1.171463025699362959e+01 6.195806416666727046e+01 4.816758445554972923e+01 3.892270198456623120e+01 2.932124612700222954e+01 1.103793719575571401e+02 8.980254377794753395e+01 6.567405778514898884e+01 1.630851229675299692e+02 2.477635221201408058e+02 1.957035363940187267e+02 -5.916479439931999451e+01 4.930088079357395259e+01 -6.436196262483582586e+01 5.648238384238083398e+01 -1.922529373126951100e+02 5.654464038477498633e+01 -2.049504247667060781e+02 -1.688285707377174845e+02 1.294501296957322545e+01 -9.226269650280196188e+00 1.696824831565462262e+02 -2.080537922443572540e+02 7.535034485580466423e+01 2.299536729577790197e+02 -7.294314658590380418e+00 -1.948016400204425906e+02 3.565289235338038054e+01 1.974046240753001484e+02 -6.114327878431552676e+01 -2.666461286103873363e+02 -1.026499837158157789e+02 8.797610565193261678e+00 -2.302986551012421046e+02 3.200753029877286338e+01 -1.796430813369602788e+02 -1.858173927437358657e+02 -5.712555011082938705e+01 1.527102752621524928e+02 6.963973216263219967e+01 1.061053567608380277e+01 -8.872588020704368716e+01 -4.267933528546502941e+01 6.387559914552905127e+01 -2.324581348135562280e+02 5.421151843473210619e+01 -7.520553422218790729e+01 -7.823234286597097764e+01 -1.771615299107930639e+02 6.526226186748127134e+01 9.299620697816585846e+01 -1.627089087907247915e+02 1.731418238216002123e+02 -4.001210256948222366e+01 -1.695439772854698290e+01 8.772813216574232342e+01 1.566773431281083901e+02 2.170288442821016517e+01 1.518230666137365574e+02 -1.848801117828414320e+01 -9.094911680918865216e+01 -1.968027457380277667e+01 1.013738062929237458e+02 4.635547714754573434e+01 1.008364854273862363e+02 9.732164864416115790e+01 -8.558150791952436975e+01 -1.751510461934204557e+02 1.268604589938462226e+02 5.594044041595648764e+01 1.661674375757661437e+01 3.153172854088706956e+01 -7.003096850089991676e+01 9.902598312771327471e+01 9.260955720386579060e+01 -1.406327683858535060e+01 -7.344995724590708619e+01 3.177153717930893606e+01 6.462343648917592276e+00 -6.349616832310693582e+01 1.748396368935653129e+02 -3.411086061301910632e+01 1.254487982665242498e+02 -7.234756879915929062e+01 3.960186688062510285e+01 -3.729388614338456875e+01 9.229571842523729686e+01 2.424717004463722958e+01 1.192732326604010922e+02 -1.196955043539095414e+02 7.673596309474186228e+01 1.274958366697547092e+02 -4.618309324950612904e+01 7.791255278127144912e+00 -1.301085794418671071e+01 1.205521573594675999e+02 3.593055976272242713e+00 1.742520864455940455e+02 -1.460645995204459098e+02 1.205598133852475655e+02 -9.441325944008421800e+01 9.890405537637512623e+01 -1.416171639467999341e+02 3.051701714464209303e+01 2.555945652412957614e+01 1.904505705664376602e+00 3.753553051703722332e+01 4.739484213630472453e+01 -1.288323542162312307e+01 1.110926963130041401e+01 1.117596620728914019e+02 1.316185033788224246e+02 -8.960699726203611704e+01 -5.611235449716878065e+01 4.902129196574058057e+01 1.610961076425578842e+00 -1.416517094130778958e+02 -5.695725279845678557e+01 -3.672389187517711662e+01 5.063972512036440321e+01 -6.787590434358742186e+01 2.374797041352460880e+01 1.659904268338597433e+02 -8.228836564505209594e+01 8.361469114841329997e+01 8.710166307259807184e+01 1.159381891868480707e+01 1.278443683341156571e+02 6.514821007532924568e+01 1.741197224170404638e+02 -3.575781344529875128e+01 1.165849522525381303e+02 5.756179698438297976e+01 -1.668005366446938353e+01 2.116548114766492574e+02 -1.439745249402326692e+02 5.068905700277846194e+01 -1.945818705613934867e+02 -8.735630812669887746e+01 4.255529312899884786e+01 -7.493405899931033787e+01 -1.617987513827108899e+02 2.069229027000095869e+02 -8.906939842582720246e+01 -4.931272960983248055e+01 -4.806881504610934286e+01 1.264453758110272616e+02 2.023295941160099858e+02 6.727196589956400885e+01 1.519336782011836249e+02 2.279743407115465459e+02 -1.710187043078863933e+00 1.692909999040430762e+02 7.366208032069495459e+01 1.978321517727859771e+02 -1.306682795624974460e+02 -1.236139792541925075e+01 6.569169317084086579e+00 1.974006040386232996e+02 -9.449137113350477080e+01 -6.279058064105524295e+01 -5.503758964745414062e+01 -1.391476452050243893e+02 4.839228713687377059e+00 -1.049001656412214771e+02 1.600839367740940986e+02 2.451300615557395091e+01 1.249745948720450173e+01 7.514390017890036688e+01 -5.150977238581194939e+00 1.214888585388622886e+02 -1.650389133182479782e+02 4.716324868491616229e+01 -1.775899601487197685e+02 1.220239677712738882e+02 9.972464140618313877e+01 -6.997809475378763011e+01 4.856599981375216402e+01 2.474590593872140403e+02 -3.163119706088292915e+01 4.329954549785428952e+01 -3.394504934505166460e+01 6.019893754754489379e+01 6.682617438338957072e+01 -6.505909331377418781e+00 1.059416781102063680e+02 1.055331287384176591e+02 -2.014606508002188718e+02 -1.592367531842169797e+02 -1.244676114894651562e+02 -9.843616238598771773e+00 -1.556664141259682026e+02 1.200508876026424190e+02 1.146817721778364501e+02 6.124403457603926171e+01 1.159194529776019600e+01 1.638405020318301410e+02 8.723195401473850552e+01 7.010578085263811943e+01 -1.056271480540472538e+02 1.581961567273559979e+02 -3.692760378772879104e+00 1.135413050807316893e+02 9.152064421313225395e+00 3.817110505203484649e+01 -7.865793498323077415e+01 -9.427697683185100175e+01 7.433972530726836681e+01 -3.956205308813665056e+00 1.519291454436018114e+02 -1.307324345254494879e+01 -2.977536564294845256e+00 4.760948730953217733e+01 2.352248798902768812e+01 1.468072406516759258e+02 1.514445556302227303e+01 3.718873123813741444e+01 -1.605879780821369422e+02 6.836227885526173509e+01 1.387092374469577294e+02 -1.839900404395272560e+01 -2.365352717240644438e+02 8.754682268286030933e+01 1.410677894614826187e+02 2.099555378408270911e+01 1.956057659418978574e+02 -4.219658683395199006e+00 4.439589694719198576e+01 -4.504053211759860886e+01 -1.433590302291426610e+02 5.782732565024677029e+01 -4.902388514462659685e+01 -8.376164315611691791e+01 4.254205444372461642e+01 -1.907763475813486025e+02 7.407626926516836363e+01 1.695607210022570825e+02 -1.044358375895883881e+02 1.783592729605421994e+02 -1.007608742197624707e+02 -6.188025728623532729e+00 -1.082314749625201955e+01 7.892736798306098933e+01 -4.796377151407538264e+01 -1.111086550382958933e+02 -9.116638787242230535e+01 1.501133449928856862e+02 6.085101635626590166e+01 -1.355519438951527889e+02 4.588316357460337613e+00 4.472603551154452362e+01 8.497066935469841553e+01 -4.150227961781504860e+01 6.174197606136001326e+01 -7.094476363705068422e+01 -1.670346649076895176e+02 -3.562829117855187633e+01 1.449912913329757487e+02 -1.165370541549109760e+02 -6.625022200045540544e+00 -1.675419387911360047e+02 -4.861401425433314216e+00 -1.499421217802061790e+02 3.377724048451855055e+01 6.176179715773186985e+01 -5.172500874935561654e+01 -8.468323717821743912e+01 5.777157818525451738e+00 7.641487527900069665e+01 -6.961348531490020264e+01 1.383749907554549168e+02 1.083091683217946297e+02 -1.310700864531598313e+02 -1.082575303029017135e+02 1.386723083092099955e+02 7.325381520683561121e+01 1.541300113505371883e+02 1.029643132744401299e+02 8.330951361902215524e+01 -6.181068700545515071e+01 -8.390277781524409306e+01 -7.906033595220135624e+01 2.097007086724205749e+02 3.125542893877175388e+01 -2.550872610263473561e+01 -7.027853454138171685e+01 -5.131276198117468113e+01 -1.344025691565765896e+02 -1.692727516224486450e+01 -1.790654618123508044e+02 1.276344389550761207e+02 4.700054026875603341e+01 -1.176455630547693687e+02 -4.936994940917657715e+01 1.222291263695604613e+02 -9.902067240577262908e+01 1.049305085808375821e+02 -1.208678965264169562e+02 -1.199824013586626670e+01 -9.745767743235670366e+01 9.151871648571868434e+01 -4.335604137486542697e+01 1.058418696040063267e+01 2.990428892077117595e+01 -1.292376461974336053e+02 1.275851585529030707e+01 4.927993499847301706e+01 -2.289839052070256642e+01 -7.013079272145584753e+01 2.065134327322597017e+02 8.816771089030156361e+01 4.809819821932256900e+01 -3.205401608215856868e+01 8.185997223914297649e+01 1.709203742484583302e+02 -9.415578375609048578e+01 2.135839550340050437e+02 -1.357297052358075007e+02 -1.875882210199500264e+02 1.549025097999656850e+02 -2.385565608902571171e+02 -1.046238993653110017e+00 -2.497415010667087927e+02 -1.559648313709535046e+02 7.315595151610031621e+01 -1.485349844203778389e+02 5.954393879024642189e+01 1.120071963759376956e+02 -1.635680142806141646e+02 -3.076180498525481255e+01 7.687173292936827806e+01 1.365745073808426469e+02 -1.897121260440226536e+02 8.915132636735634719e+01 -9.986384084679360740e+01 -1.008752609139228618e+01 -1.418408423441372967e+01 -8.115885406825171344e+01 -9.210679607872353358e+01 1.849196889752584525e+02 -2.207527875434389486e+01 1.344471989193780637e+00 1.327787085132627567e+02 -8.835745000632616097e+01 -3.510684214996185659e+01 -1.097808734140980533e+02 -4.983968813345320115e+01 5.310335588866007761e+00 6.062755184708348821e+01 -1.379367659319007657e+02 2.423062514467827953e+02 -5.511337505387896840e+01 1.254781689560532385e+02 -4.994621284763713476e+01 1.225906555322252984e+02 1.422795053454644858e+02 4.917525009248007706e+01 1.250265300747348789e+02 -4.425377393285886285e+01 1.433142338097964057e+02 -1.601661540551745873e+02 -6.696517091214283823e+01 -6.449756478515632807e+01 2.611776087300683002e+01 -1.662644539464036768e+02 7.433260166118006396e+01 -3.158564319244499075e+01 -8.466412417876173890e+01 9.182343801236591219e+01 -1.547996376541253767e+02 -9.343447331259324073e+01 -5.385681559713673749e+01 3.390362862752675710e+01 1.330263282298303693e+02 1.197758844843832549e+02 7.085986385202272686e+01 -1.683492525296868214e+00 1.791135371699096481e+02 1.255329555865368008e+02 -9.671413565107330612e+01 -8.010975475258906897e+01 5.695121454422939422e+01 1.026049006027031751e+01 1.003749461020968852e+02 1.706838641737665512e+02 7.229277297571680094e+01 2.494074699310248278e+01 -1.046513116400919756e+02 1.760046754786626479e+02 -1.164449944667854027e+02 -1.692756338003958092e+02 6.728963972758563727e+01 1.141366511230846186e+02 2.008100207661808057e+01 -1.421469173841475140e+02 3.046232753221688938e+01 4.344963162098225240e+01 -2.895309795024497701e-01 1.339812149249319191e+02 9.975243598204170326e+01 1.749954044178495138e+01 8.016765633131339541e+01 -1.095619953071295072e+02 -6.413079051882298209e+00 1.005799803366340797e+02 3.035737757089817634e+01 -6.653182757084447019e+01 2.025253460078159549e+02 2.363517695333330266e+02 -1.284165752458301881e+02 -2.820968232114002916e+01 -2.149935200843669350e+02 -7.380657425873593525e+01 1.601769814858402015e+02 3.515295173817026164e+00 -7.256879334293586226e+01 1.674801067903087812e+02 -6.393112071808358365e+01 -1.641493360132702151e+02 1.395626626546667239e+02 -6.873177414574092836e+01 3.516885167192652517e+01 8.827659247617988569e+01 1.406937844716497743e+01 -2.433994517471054166e+02 4.318072677869985654e+01 -6.231044439662264622e+00 9.200477151688487254e+01 -2.406742156162310664e+01 1.033961989863469029e+02 1.730869895400317660e+01 -8.664538121707271046e+01 -2.090823478989282691e+01 -1.789743641523976123e+02 1.174785303910004330e+02 2.580252249672549425e+01 -4.253563738928972526e+01 -5.293627406058573825e+01 -6.418370888990475009e+01 4.196108079552829651e+01 1.641250544222822612e+02 1.355549642932474796e+02 4.401611388777063638e+01 -2.020936796612709827e+02 -3.962181091211354556e+01 4.473933956495491771e+01 1.198773019072739316e+02 8.913203805519798095e+01 1.580206525277342244e+01 -1.900486928483839222e+02 1.345836362023506467e+02 -2.285741851445480108e+02 -2.102297363007468505e+02 -1.904643365978051728e+00 -7.536895084427308689e+01 -2.456298942704192001e+01 8.901426558411431245e+01 5.712784708425780167e+01 -1.136236202390275309e+02 -1.546819503305063961e+02 1.492085205641862267e+01 1.263549596076734076e+02 2.118151296010966789e+01 -5.793118394840798402e+01 -5.269083465097149599e+01 -1.208699294180041939e+01 1.648447395582068111e+02 2.286767239767239346e+01 -1.805256572241060269e+02 1.333364854840300495e+02 -6.942273847621589766e+01 -4.345045125430826438e+00 1.601309874088339029e+02 -5.441908990288757053e+01 -2.035082817868170224e+01 -1.142280679978952094e+02 -6.257152046042461890e+00 -2.482174813238971822e+01 1.369997043199948052e+02 1.249134755728389621e+02 7.027728389993241365e+01 6.799156591163846031e+01 -1.946559843524917355e+01 1.406659416743742668e+02 -1.172257413066423339e+02 -4.442302580319767102e+00 -9.468840541665933586e+01 1.634650339336465379e+02 7.586953464126186475e+01 5.378753174996448649e+01 8.634334658491587433e+00 -5.538164813185638735e+01 3.575851655056032996e+01 7.045631416061063135e+00 3.692331522760830875e+00 2.509706239836917163e+01 6.216073907218186179e+01 1.770319405654846037e+02 -4.034066079922075687e+01 -5.407620050413619595e+01 6.943433850774647453e+01 1.202853858869321471e+02 -1.331155800254699173e+01 9.554681621729829999e+01 1.081009843220476796e+02 2.190784519124426879e+02 -8.999074807616635496e+01 -1.275814886021739198e+02 -2.976224861715239101e+01 6.457458175013368873e+01 -1.054638642458826148e+01 1.116684226974608265e+02 3.868757875909570032e+01 -1.690475368585445608e+02 4.684279920773631289e+01 -9.298031429422005090e+01 -1.406201517521748201e+02 1.397705610663866196e+02 -7.896910053549773068e+01 6.141734683161479325e+01 1.155804216494869507e+02 -1.029261439405051419e+02 2.435669494766132814e+01 -7.495176802531338467e+01 4.179036913506756434e+01 -1.189463762422915778e+02 6.390542486236451936e+01 5.674257465922434562e+01 4.119644347586974398e+00 8.731577575949638970e+01 -1.588094535521006492e+02 7.929528584322565621e+01 -3.030233067817144388e+01 -1.741008586773093896e+02 9.732763861141779671e+01 2.524125257189243499e+01 -2.022016710619580806e+02 2.423902371639402986e+02 -5.397567247179998473e-01 1.083958400804801556e+02 -1.242913770882618394e+02 -2.001405425508815199e+02 -9.616409165947302995e+01 2.527734151943907825e+00 1.473007079247906574e+02 4.171443209815102193e+00 -9.847766825707137173e+01 5.199866179190298254e+01 1.412358933048855363e+02 6.699468018376097689e+01 -5.335209131004094019e+01 -6.093941513878345262e+01 8.709537968912809447e+01 3.172465391647779853e+01 -2.014825260858324611e+02 -2.137057367956544240e+01 1.742164655792343240e+02 1.018917466305822757e+02 -5.905328261312997995e+01 -1.152216790847144807e+02 -4.399584680430649541e+01 -4.954891589499675320e+01 -1.179536681629461015e+02 -1.909444924678283684e+01 -4.706408685030287842e+01 -1.170827789918896258e+02 -1.358682556078397283e+02 -2.772039345276303735e+01 -1.294825547988991730e+02 -1.378150823299006333e+02 -3.950223787102605399e+01 -5.706909367734986205e+01 -1.143571878326186351e+02 1.987988711673740738e+02 1.125524760889530995e+01 -3.005471209872157345e+01 -1.817724128661417993e+01 8.401167292765610739e+01 1.668950631100208781e+01 2.675112044969536385e+01 -2.278324284553922752e+01 -4.931833828285981269e+01 2.235286931133142829e+01 -1.552225440771227909e+02 -1.700344918102071006e+02 -9.663568112622141371e+01 -2.038181426418450712e+02 -9.573421370583332646e+01 9.168396229196039826e+01 6.554746660149076831e+01 -2.784932074794423329e+01 6.490516373778346804e+01 -1.671667988687021591e+02 -4.353195770009907761e+01 -1.240036334739760662e+02 -7.129949060411746586e+01 2.252204031128059114e+02 -2.192453722036901809e+02 2.192304833827250548e+02 2.673176648794868981e+01 -6.034732849795400966e+01 9.857362308288753638e+01 1.325283937468971089e+02 -5.542495340724018149e+01 -2.175412617805426123e+02 -1.592437263659851396e+02 1.092052396700707391e+02 8.946368655245481705e+01 -1.448299814185351693e+02 3.415907588725375632e+01 -4.233537019058730522e+01 -8.266283301411012019e+01 -3.035392044036495207e+01 -5.857588010659646471e+01 -9.234506985074169449e+01 -3.632322099899401735e+01 4.733091905063930405e+00 -3.498388526595896764e+01 -4.511899993794549757e-01 -1.538193481388900175e+01 9.828079829771404263e+01 1.356901034104615462e+02 1.407562668923894122e+01 1.791593372714718413e+01 -6.736062338532990168e+01 -2.093077614817508447e+02 3.616323070923171912e+01 -9.799812841508594374e+01 2.757089096018374974e+01 -8.799880031602070218e+00 1.042988567019845325e+00 7.708065805020071082e+01 1.301533947272579326e+02 -7.522645001803824982e+01 4.058284645824756609e+01 -2.058846995141551588e+02 1.030719057927515436e+01 7.543619368940264636e+00 -1.308642710657450152e+02 -3.603927240288037126e+01 -4.733999629427351863e+01 5.106249582995867620e+00 -1.092174256967332298e+02 2.890178269965359448e+01 -1.043028272949790960e+02 6.000019554234324914e+01 7.243065859862311129e+01 3.936768759496164449e+01 -3.099446082316672602e+01 1.147167895416228731e+02 6.518216911427823845e+01 8.540667081829231222e+01 -7.151015943335457337e+01 2.171934023336480735e+01 1.365551186453186290e+02 -6.239642563203164372e+01 -7.373629112422335652e+00 3.415710938099130090e+01 -1.370255153226343054e+02 1.044242303121117317e+02 9.559554081672513348e+01 -1.078784122841804844e+02 -8.788415009358165264e+01 -5.922229510718614875e+01 -4.852993298767162855e+01 -1.710395882268867638e+02 -1.450291461456804711e+02 -1.412874434165416915e+02 1.126951245718253034e+02 6.370853926761384400e+01 1.700837873633632569e+02 7.661399661197163091e+00 -9.147924659905814337e+01 1.994077792994142229e+01 1.475189340849415665e+01 -6.764053331214469722e+01 7.892253663141383413e+01 1.258261732664423818e+02 1.068366046913532230e+01 1.528743839529029742e+02 2.400967753410336059e+01 1.182379984781563422e+02 1.611271184424267844e+01 -2.213392861804375684e+02 2.326147795782134722e+02 -5.212631218864835603e+01 -1.588843441561974714e+02 -7.155804281979131076e+01 -4.577600475716115369e+01 4.378222377944697996e+01 2.710021814014367436e+01 4.841544794750200253e+01 -7.851556824430809911e+01 1.295415985332262778e+02 -9.129197719100623942e+01 -7.415386946998419937e+00 1.507619907503939203e+02 1.159953099371650183e+02 6.129154740849497074e+01 -1.871301839580818012e+02 2.688027171305387952e+01 1.483879641602173649e+02 2.476700421954205922e+01 1.030391982582604555e+02 1.123497778047728701e+02 -2.229684629049114903e+02 8.113401306332757201e+01 -6.090088997631222867e+01 -2.370416923923426396e+02 9.322378719875305819e+01 2.588602504647530722e+01 -1.279087118660925881e+02 -6.130701681525442126e+01 1.451494772071626471e+02 1.539742369871014773e+02 -7.899812214411554123e+01 -1.330708556844413692e+02 -8.681050556075858537e+01 -1.723852822706821541e+02 2.029809794805735379e+01 3.930624870634697032e+01 -1.751000849210031518e+01 -1.280472707881275340e+01 -9.252913311910744198e+01 -9.137504016345195623e+01 -2.542994097172786994e+01 1.378576099419348111e+02 1.401887052564067631e+02 8.339900902921246484e+01 9.967317861867027773e+01 -8.070157567813258481e+01 -1.850177661740507631e+02 -1.359064760290294771e+01 -2.376172319027290314e+01 -7.260689322498163278e+01 1.545652656379798318e+00 7.476050585395346104e+01 -5.414873218795154486e+01 2.514442274827941048e+01 8.097668963153488164e+01 7.168630019670480635e+01 1.130181070411277915e+02 -1.526040454529786530e+02 4.055278612644445246e+01 8.520929215548665070e+01 9.691913752556166628e+01 6.044027887857884451e+01 -1.055960593150951041e+02 1.400708580009855666e+02 1.303402753821612237e+02 9.800426801937398125e+01 1.038373335935279016e+02 -8.616000207332695027e+01 -1.522466661803946408e+01 -1.319940071830784412e+01 7.883810261067375791e+01 6.644186597038297748e+01 5.719583405354824635e+01 9.983031603382900698e+01 1.190993759087976969e+02 1.266289624293306133e+02 -6.644944362277800565e+01 8.241561536658261389e+01 6.675056591891416247e+01 -1.203345171359238748e+02 1.345985636573072100e+02 -1.028285452143360246e+01 -2.854707809383018713e+01 2.038194447468327155e+02 9.047705678243924865e+01 1.269473083614671225e+02 -1.476748444294833860e+02 -1.614636436642624346e+02 -1.574398403646891609e+02 -1.250968556736845301e+02 -4.534339124046328351e+01 1.125133316511803514e+02 -1.727376912004105236e+02 3.335286649540037729e+01 1.479300080050936401e+02 -6.080818237483232025e+01 -9.365801053223104589e+01 -3.598101563364458144e+01 1.393806016877659602e+02 2.331688420158535564e+02 -6.831698996741040730e+01 2.032094002687508905e+01 -2.844251969871344699e+01 7.028464126065280482e+01 6.187861680062214731e+01 -2.188952986117184594e+02 -9.102436442813693418e+01 1.412546806896788780e+02 1.435801210196035242e+02 9.710210591973235239e+01 -5.113036907044293855e+01 -7.790216605985092713e+01 -4.668884038230406475e+01 -1.813490749594079432e+02 7.315451784854332118e+01 -2.640569364295161847e+01 1.710328778916817214e+02 -2.869085235078084040e+01 -3.233354062488992327e+02 1.489741917606622224e+02 5.179155770527892599e+01 -1.213352493774873579e+02 -2.273937038418410950e+01 3.633264996392733792e+01 -2.135895801724699083e+02 -1.175820833696356971e+02 -1.126987522039231635e+02 -5.810372789078697053e+01 6.464521052723989669e+01 -1.695598408281177001e+02 1.111017591605155559e+02 -5.588836965240808752e+01 2.978028262207367938e+00 -1.373087894413950494e+02 -1.065608631169477860e+02 1.810230402669814112e+02 8.920354440123576012e+01 -4.348254209772303369e+01 3.830204118031399219e+01 -2.890262590235718676e+01 4.444861686349975827e+01 -1.077255848828587119e+02 1.017162901005742270e+02 5.204139716367363633e+01 -1.224812763557713566e+02 1.202715443440619225e+02 -5.064815945313199563e+01 1.029387171223100097e+02 -5.091693083759324878e+01 9.108694053808976321e+01 -1.580888352104077228e+02 1.470192067997301137e+02 2.553806726821728290e+01 1.036996568768593647e+02 1.343984832355903336e+02 -1.511424675283105046e+02 -8.853406158471199205e+01 -1.088824080205348253e+02 6.895883392567863268e+01 -1.766496847597233568e+02 1.561284217209776273e+02 1.468671600575403318e+02 5.464820308290339312e+01 -8.754680925314414708e+01 5.882926050626980441e+01 -1.106268524615875180e+02 -1.132415616321984331e+01 3.610527869159681558e+01 -1.895335133610297476e+02 -8.419587603343927640e+01 -1.396442380821696538e+01 1.054777500895210380e+02 -5.179244755453373017e+01 1.121257812539334537e+02 -6.641387432600876650e+01 -2.175982972456227174e+02 -1.105441560268886008e+02 -3.521738741659601146e+01 -6.214812597297299135e+01 3.108932214617210477e+01 5.300140434871961048e+01 6.570954718013460649e+00 2.605881342399697331e+01 -1.210790516820941036e+02 5.555041020894330472e+01 3.369050795677924981e+01 -7.459202476427887518e+01 9.543732317985222480e+00 5.812011131779398454e+01 -9.858182798592441998e+01 -5.688001088580507059e+01 -2.491454104727209184e+01 1.008732083541594591e+02 -1.769764796646171945e+01 4.330964974647722343e+00 -2.356286122015779654e+02 -9.824921097329703912e+01 1.022402349984951258e+02 -9.229921984107576804e+01 3.240250879319233235e+01 3.212330145109836366e+01 3.925643400807683037e+01 6.832714413210902649e+01 -1.834740629876343974e+02 1.488384041524084580e+02 8.417586378564462279e+01 -7.747742370136092127e+00 -8.356114382442363819e+01 1.157836111406058706e+02 6.420949649692160222e+01 -2.079184989780178228e+02 -5.212084260724345341e+01 -8.445638481566959399e+01 -5.365302826014648474e+01 -6.409496001744592775e+01 -1.024990835543741809e+02 -6.245515377216920427e+01 1.980228717147932684e+02 -1.766909297597274815e+02 6.775233048066429831e+01 2.869137550228640876e+01 -7.774879294729706203e+01 1.072474761790868492e+01 -4.075203180307175188e+01 3.534291089804568742e+00 -9.942232760063433261e+01 -2.043403206518550235e+02 1.902537120243052016e+01 4.337868169183946065e+01 -1.324499228666506490e+01 -9.389962851498372842e+00 -4.115852917028196600e+01 -1.965323234804358492e+02 -3.173026550607296414e+01 -6.764344777800401687e+01 1.448355607815774881e+01 -1.614497797093314091e+01 9.365011083678801640e+01 -6.521895841461245880e+01 -1.073203958827351414e+02 -3.703412435142158188e+01 -9.362396282932435199e+00 4.715582303392669417e+01 -2.293770007430899227e+01 -7.623149281902841778e+01 -1.641844817066108675e+01 2.079032204160096597e+01 4.916411202296604444e+01 -1.180314279481087709e+02 -1.439158046407659413e+02 2.384063490198273314e+02 -2.259187485991925826e+02 -7.864822179774478172e+01 -4.799818806882350941e+01 1.447976576061348908e+02 6.551701095547541343e+01 2.368659913555356979e+02 2.533600041652742050e+02 -6.450606263662530182e+01 1.340699147655132037e+02 -5.785410459631655300e+01 -4.223941507680311958e+01 -1.042358275442776119e+02 -8.266977328266840175e+01 -7.206131512065297784e+01 -9.211203803685418734e+01 -2.523828276944749973e+02 -2.804873143180537340e+02 1.394835289867163794e+02 -2.745433833012612013e+01 5.514465407943377784e+01 1.354530801715855830e+02
