# 
#                 ----------------------------------------------------
#                 Data from a 3D direct N-body simulation. 
# 
#                 rows are i-particle; 
#                 coumns are :mass, tag, x ,y, z, vx, vy, vz, ax, ay, az
# 
#                 NTHU, Computational Physics Lab
# 
#                 ----------------------------------------------------
#                 Time = 4.599999999999946
1.000000000000000000e+00 2.000000000000000000e+00 3.000000000000000000e+00 4.000000000000000000e+00 5.000000000000000000e+00 6.000000000000000000e+00 7.000000000000000000e+00 8.000000000000000000e+00 9.000000000000000000e+00 1.000000000000000000e+01 1.100000000000000000e+01 1.200000000000000000e+01 1.300000000000000000e+01 1.400000000000000000e+01 1.500000000000000000e+01 1.600000000000000000e+01 1.700000000000000000e+01 1.800000000000000000e+01 1.900000000000000000e+01 2.000000000000000000e+01 2.100000000000000000e+01 2.200000000000000000e+01 2.300000000000000000e+01 2.400000000000000000e+01 2.500000000000000000e+01 2.600000000000000000e+01 2.700000000000000000e+01 2.800000000000000000e+01 2.900000000000000000e+01 3.000000000000000000e+01 3.100000000000000000e+01 3.200000000000000000e+01 3.300000000000000000e+01 3.400000000000000000e+01 3.500000000000000000e+01 3.600000000000000000e+01 3.700000000000000000e+01 3.800000000000000000e+01 3.900000000000000000e+01 4.000000000000000000e+01 4.100000000000000000e+01 4.200000000000000000e+01 4.300000000000000000e+01 4.400000000000000000e+01 4.500000000000000000e+01 4.600000000000000000e+01 4.700000000000000000e+01 4.800000000000000000e+01 4.900000000000000000e+01 5.000000000000000000e+01 5.100000000000000000e+01 5.200000000000000000e+01 5.300000000000000000e+01 5.400000000000000000e+01 5.500000000000000000e+01 5.600000000000000000e+01 5.700000000000000000e+01 5.800000000000000000e+01 5.900000000000000000e+01 6.000000000000000000e+01 6.100000000000000000e+01 6.200000000000000000e+01 6.300000000000000000e+01 6.400000000000000000e+01 6.500000000000000000e+01 6.600000000000000000e+01 6.700000000000000000e+01 6.800000000000000000e+01 6.900000000000000000e+01 7.000000000000000000e+01 7.100000000000000000e+01 7.200000000000000000e+01 7.300000000000000000e+01 7.400000000000000000e+01 7.500000000000000000e+01 7.600000000000000000e+01 7.700000000000000000e+01 7.800000000000000000e+01 7.900000000000000000e+01 8.000000000000000000e+01 8.100000000000000000e+01 8.200000000000000000e+01 8.300000000000000000e+01 8.400000000000000000e+01 8.500000000000000000e+01 8.600000000000000000e+01 8.700000000000000000e+01 8.800000000000000000e+01 8.900000000000000000e+01 9.000000000000000000e+01 9.100000000000000000e+01 9.200000000000000000e+01 9.300000000000000000e+01 9.400000000000000000e+01 9.500000000000000000e+01 9.600000000000000000e+01 9.700000000000000000e+01 9.800000000000000000e+01 9.900000000000000000e+01 1.000000000000000000e+02 1.010000000000000000e+02 1.020000000000000000e+02 1.030000000000000000e+02 1.040000000000000000e+02 1.050000000000000000e+02 1.060000000000000000e+02 1.070000000000000000e+02 1.080000000000000000e+02 1.090000000000000000e+02 1.100000000000000000e+02 1.110000000000000000e+02 1.120000000000000000e+02 1.130000000000000000e+02 1.140000000000000000e+02 1.150000000000000000e+02 1.160000000000000000e+02 1.170000000000000000e+02 1.180000000000000000e+02 1.190000000000000000e+02 1.200000000000000000e+02 1.210000000000000000e+02 1.220000000000000000e+02 1.230000000000000000e+02 1.240000000000000000e+02 1.250000000000000000e+02 1.260000000000000000e+02 1.270000000000000000e+02 1.280000000000000000e+02 1.290000000000000000e+02 1.300000000000000000e+02 1.310000000000000000e+02 1.320000000000000000e+02 1.330000000000000000e+02 1.340000000000000000e+02 1.350000000000000000e+02 1.360000000000000000e+02 1.370000000000000000e+02 1.380000000000000000e+02 1.390000000000000000e+02 1.400000000000000000e+02 1.410000000000000000e+02 1.420000000000000000e+02 1.430000000000000000e+02 1.440000000000000000e+02 1.450000000000000000e+02 1.460000000000000000e+02 1.470000000000000000e+02 1.480000000000000000e+02 1.490000000000000000e+02 1.500000000000000000e+02 1.510000000000000000e+02 1.520000000000000000e+02 1.530000000000000000e+02 1.540000000000000000e+02 1.550000000000000000e+02 1.560000000000000000e+02 1.570000000000000000e+02 1.580000000000000000e+02 1.590000000000000000e+02 1.600000000000000000e+02 1.610000000000000000e+02 1.620000000000000000e+02 1.630000000000000000e+02 1.640000000000000000e+02 1.650000000000000000e+02 1.660000000000000000e+02 1.670000000000000000e+02 1.680000000000000000e+02 1.690000000000000000e+02 1.700000000000000000e+02 1.710000000000000000e+02 1.720000000000000000e+02 1.730000000000000000e+02 1.740000000000000000e+02 1.750000000000000000e+02 1.760000000000000000e+02 1.770000000000000000e+02 1.780000000000000000e+02 1.790000000000000000e+02 1.800000000000000000e+02 1.810000000000000000e+02 1.820000000000000000e+02 1.830000000000000000e+02 1.840000000000000000e+02 1.850000000000000000e+02 1.860000000000000000e+02 1.870000000000000000e+02 1.880000000000000000e+02 1.890000000000000000e+02 1.900000000000000000e+02 1.910000000000000000e+02 1.920000000000000000e+02 1.930000000000000000e+02 1.940000000000000000e+02 1.950000000000000000e+02 1.960000000000000000e+02 1.970000000000000000e+02 1.980000000000000000e+02 1.990000000000000000e+02 2.000000000000000000e+02 2.010000000000000000e+02 2.020000000000000000e+02 2.030000000000000000e+02 2.040000000000000000e+02 2.050000000000000000e+02 2.060000000000000000e+02 2.070000000000000000e+02 2.080000000000000000e+02 2.090000000000000000e+02 2.100000000000000000e+02 2.110000000000000000e+02 2.120000000000000000e+02 2.130000000000000000e+02 2.140000000000000000e+02 2.150000000000000000e+02 2.160000000000000000e+02 2.170000000000000000e+02 2.180000000000000000e+02 2.190000000000000000e+02 2.200000000000000000e+02 2.210000000000000000e+02 2.220000000000000000e+02 2.230000000000000000e+02 2.240000000000000000e+02 2.250000000000000000e+02 2.260000000000000000e+02 2.270000000000000000e+02 2.280000000000000000e+02 2.290000000000000000e+02 2.300000000000000000e+02 2.310000000000000000e+02 2.320000000000000000e+02 2.330000000000000000e+02 2.340000000000000000e+02 2.350000000000000000e+02 2.360000000000000000e+02 2.370000000000000000e+02 2.380000000000000000e+02 2.390000000000000000e+02 2.400000000000000000e+02 2.410000000000000000e+02 2.420000000000000000e+02 2.430000000000000000e+02 2.440000000000000000e+02 2.450000000000000000e+02 2.460000000000000000e+02 2.470000000000000000e+02 2.480000000000000000e+02 2.490000000000000000e+02 2.500000000000000000e+02 2.510000000000000000e+02 2.520000000000000000e+02 2.530000000000000000e+02 2.540000000000000000e+02 2.550000000000000000e+02 2.560000000000000000e+02 2.570000000000000000e+02 2.580000000000000000e+02 2.590000000000000000e+02 2.600000000000000000e+02 2.610000000000000000e+02 2.620000000000000000e+02 2.630000000000000000e+02 2.640000000000000000e+02 2.650000000000000000e+02 2.660000000000000000e+02 2.670000000000000000e+02 2.680000000000000000e+02 2.690000000000000000e+02 2.700000000000000000e+02 2.710000000000000000e+02 2.720000000000000000e+02 2.730000000000000000e+02 2.740000000000000000e+02 2.750000000000000000e+02 2.760000000000000000e+02 2.770000000000000000e+02 2.780000000000000000e+02 2.790000000000000000e+02 2.800000000000000000e+02 2.810000000000000000e+02 2.820000000000000000e+02 2.830000000000000000e+02 2.840000000000000000e+02 2.850000000000000000e+02 2.860000000000000000e+02 2.870000000000000000e+02 2.880000000000000000e+02 2.890000000000000000e+02 2.900000000000000000e+02 2.910000000000000000e+02 2.920000000000000000e+02 2.930000000000000000e+02 2.940000000000000000e+02 2.950000000000000000e+02 2.960000000000000000e+02 2.970000000000000000e+02 2.980000000000000000e+02 2.990000000000000000e+02 3.000000000000000000e+02 3.010000000000000000e+02 3.020000000000000000e+02 3.030000000000000000e+02 3.040000000000000000e+02 3.050000000000000000e+02 3.060000000000000000e+02 3.070000000000000000e+02 3.080000000000000000e+02 3.090000000000000000e+02 3.100000000000000000e+02 3.110000000000000000e+02 3.120000000000000000e+02 3.130000000000000000e+02 3.140000000000000000e+02 3.150000000000000000e+02 3.160000000000000000e+02 3.170000000000000000e+02 3.180000000000000000e+02 3.190000000000000000e+02 3.200000000000000000e+02 3.210000000000000000e+02 3.220000000000000000e+02 3.230000000000000000e+02 3.240000000000000000e+02 3.250000000000000000e+02 3.260000000000000000e+02 3.270000000000000000e+02 3.280000000000000000e+02 3.290000000000000000e+02 3.300000000000000000e+02 3.310000000000000000e+02 3.320000000000000000e+02 3.330000000000000000e+02 3.340000000000000000e+02 3.350000000000000000e+02 3.360000000000000000e+02 3.370000000000000000e+02 3.380000000000000000e+02 3.390000000000000000e+02 3.400000000000000000e+02 3.410000000000000000e+02 3.420000000000000000e+02 3.430000000000000000e+02 3.440000000000000000e+02 3.450000000000000000e+02 3.460000000000000000e+02 3.470000000000000000e+02 3.480000000000000000e+02 3.490000000000000000e+02 3.500000000000000000e+02 3.510000000000000000e+02 3.520000000000000000e+02 3.530000000000000000e+02 3.540000000000000000e+02 3.550000000000000000e+02 3.560000000000000000e+02 3.570000000000000000e+02 3.580000000000000000e+02 3.590000000000000000e+02 3.600000000000000000e+02 3.610000000000000000e+02 3.620000000000000000e+02 3.630000000000000000e+02 3.640000000000000000e+02 3.650000000000000000e+02 3.660000000000000000e+02 3.670000000000000000e+02 3.680000000000000000e+02 3.690000000000000000e+02 3.700000000000000000e+02 3.710000000000000000e+02 3.720000000000000000e+02 3.730000000000000000e+02 3.740000000000000000e+02 3.750000000000000000e+02 3.760000000000000000e+02 3.770000000000000000e+02 3.780000000000000000e+02 3.790000000000000000e+02 3.800000000000000000e+02 3.810000000000000000e+02 3.820000000000000000e+02 3.830000000000000000e+02 3.840000000000000000e+02 3.850000000000000000e+02 3.860000000000000000e+02 3.870000000000000000e+02 3.880000000000000000e+02 3.890000000000000000e+02 3.900000000000000000e+02 3.910000000000000000e+02 3.920000000000000000e+02 3.930000000000000000e+02 3.940000000000000000e+02 3.950000000000000000e+02 3.960000000000000000e+02 3.970000000000000000e+02 3.980000000000000000e+02 3.990000000000000000e+02 4.000000000000000000e+02 4.010000000000000000e+02 4.020000000000000000e+02 4.030000000000000000e+02 4.040000000000000000e+02 4.050000000000000000e+02 4.060000000000000000e+02 4.070000000000000000e+02 4.080000000000000000e+02 4.090000000000000000e+02 4.100000000000000000e+02 4.110000000000000000e+02 4.120000000000000000e+02 4.130000000000000000e+02 4.140000000000000000e+02 4.150000000000000000e+02 4.160000000000000000e+02 4.170000000000000000e+02 4.180000000000000000e+02 4.190000000000000000e+02 4.200000000000000000e+02 4.210000000000000000e+02 4.220000000000000000e+02 4.230000000000000000e+02 4.240000000000000000e+02 4.250000000000000000e+02 4.260000000000000000e+02 4.270000000000000000e+02 4.280000000000000000e+02 4.290000000000000000e+02 4.300000000000000000e+02 4.310000000000000000e+02 4.320000000000000000e+02 4.330000000000000000e+02 4.340000000000000000e+02 4.350000000000000000e+02 4.360000000000000000e+02 4.370000000000000000e+02 4.380000000000000000e+02 4.390000000000000000e+02 4.400000000000000000e+02 4.410000000000000000e+02 4.420000000000000000e+02 4.430000000000000000e+02 4.440000000000000000e+02 4.450000000000000000e+02 4.460000000000000000e+02 4.470000000000000000e+02 4.480000000000000000e+02 4.490000000000000000e+02 4.500000000000000000e+02 4.510000000000000000e+02 4.520000000000000000e+02 4.530000000000000000e+02 4.540000000000000000e+02 4.550000000000000000e+02 4.560000000000000000e+02 4.570000000000000000e+02 4.580000000000000000e+02 4.590000000000000000e+02 4.600000000000000000e+02 4.610000000000000000e+02 4.620000000000000000e+02 4.630000000000000000e+02 4.640000000000000000e+02 4.650000000000000000e+02 4.660000000000000000e+02 4.670000000000000000e+02 4.680000000000000000e+02 4.690000000000000000e+02 4.700000000000000000e+02 4.710000000000000000e+02 4.720000000000000000e+02 4.730000000000000000e+02 4.740000000000000000e+02 4.750000000000000000e+02 4.760000000000000000e+02 4.770000000000000000e+02 4.780000000000000000e+02 4.790000000000000000e+02 4.800000000000000000e+02 4.810000000000000000e+02 4.820000000000000000e+02 4.830000000000000000e+02 4.840000000000000000e+02 4.850000000000000000e+02 4.860000000000000000e+02 4.870000000000000000e+02 4.880000000000000000e+02 4.890000000000000000e+02 4.900000000000000000e+02 4.910000000000000000e+02 4.920000000000000000e+02 4.930000000000000000e+02 4.940000000000000000e+02 4.950000000000000000e+02 4.960000000000000000e+02 4.970000000000000000e+02 4.980000000000000000e+02 4.990000000000000000e+02 5.000000000000000000e+02 5.010000000000000000e+02 5.020000000000000000e+02 5.030000000000000000e+02 5.040000000000000000e+02 5.050000000000000000e+02 5.060000000000000000e+02 5.070000000000000000e+02 5.080000000000000000e+02 5.090000000000000000e+02 5.100000000000000000e+02 5.110000000000000000e+02 5.120000000000000000e+02 5.130000000000000000e+02 5.140000000000000000e+02 5.150000000000000000e+02 5.160000000000000000e+02 5.170000000000000000e+02 5.180000000000000000e+02 5.190000000000000000e+02 5.200000000000000000e+02 5.210000000000000000e+02 5.220000000000000000e+02 5.230000000000000000e+02 5.240000000000000000e+02 5.250000000000000000e+02 5.260000000000000000e+02 5.270000000000000000e+02 5.280000000000000000e+02 5.290000000000000000e+02 5.300000000000000000e+02 5.310000000000000000e+02 5.320000000000000000e+02 5.330000000000000000e+02 5.340000000000000000e+02 5.350000000000000000e+02 5.360000000000000000e+02 5.370000000000000000e+02 5.380000000000000000e+02 5.390000000000000000e+02 5.400000000000000000e+02 5.410000000000000000e+02 5.420000000000000000e+02 5.430000000000000000e+02 5.440000000000000000e+02 5.450000000000000000e+02 5.460000000000000000e+02 5.470000000000000000e+02 5.480000000000000000e+02 5.490000000000000000e+02 5.500000000000000000e+02 5.510000000000000000e+02 5.520000000000000000e+02 5.530000000000000000e+02 5.540000000000000000e+02 5.550000000000000000e+02 5.560000000000000000e+02 5.570000000000000000e+02 5.580000000000000000e+02 5.590000000000000000e+02 5.600000000000000000e+02 5.610000000000000000e+02 5.620000000000000000e+02 5.630000000000000000e+02 5.640000000000000000e+02 5.650000000000000000e+02 5.660000000000000000e+02 5.670000000000000000e+02 5.680000000000000000e+02 5.690000000000000000e+02 5.700000000000000000e+02 5.710000000000000000e+02 5.720000000000000000e+02 5.730000000000000000e+02 5.740000000000000000e+02 5.750000000000000000e+02 5.760000000000000000e+02 5.770000000000000000e+02 5.780000000000000000e+02 5.790000000000000000e+02 5.800000000000000000e+02 5.810000000000000000e+02 5.820000000000000000e+02 5.830000000000000000e+02 5.840000000000000000e+02 5.850000000000000000e+02 5.860000000000000000e+02 5.870000000000000000e+02 5.880000000000000000e+02 5.890000000000000000e+02 5.900000000000000000e+02 5.910000000000000000e+02 5.920000000000000000e+02 5.930000000000000000e+02 5.940000000000000000e+02 5.950000000000000000e+02 5.960000000000000000e+02 5.970000000000000000e+02 5.980000000000000000e+02 5.990000000000000000e+02 6.000000000000000000e+02 6.010000000000000000e+02 6.020000000000000000e+02 6.030000000000000000e+02 6.040000000000000000e+02 6.050000000000000000e+02 6.060000000000000000e+02 6.070000000000000000e+02 6.080000000000000000e+02 6.090000000000000000e+02 6.100000000000000000e+02 6.110000000000000000e+02 6.120000000000000000e+02 6.130000000000000000e+02 6.140000000000000000e+02 6.150000000000000000e+02 6.160000000000000000e+02 6.170000000000000000e+02 6.180000000000000000e+02 6.190000000000000000e+02 6.200000000000000000e+02 6.210000000000000000e+02 6.220000000000000000e+02 6.230000000000000000e+02 6.240000000000000000e+02 6.250000000000000000e+02 6.260000000000000000e+02 6.270000000000000000e+02 6.280000000000000000e+02 6.290000000000000000e+02 6.300000000000000000e+02 6.310000000000000000e+02 6.320000000000000000e+02 6.330000000000000000e+02 6.340000000000000000e+02 6.350000000000000000e+02 6.360000000000000000e+02 6.370000000000000000e+02 6.380000000000000000e+02 6.390000000000000000e+02 6.400000000000000000e+02 6.410000000000000000e+02 6.420000000000000000e+02 6.430000000000000000e+02 6.440000000000000000e+02 6.450000000000000000e+02 6.460000000000000000e+02 6.470000000000000000e+02 6.480000000000000000e+02 6.490000000000000000e+02 6.500000000000000000e+02 6.510000000000000000e+02 6.520000000000000000e+02 6.530000000000000000e+02 6.540000000000000000e+02 6.550000000000000000e+02 6.560000000000000000e+02 6.570000000000000000e+02 6.580000000000000000e+02 6.590000000000000000e+02 6.600000000000000000e+02 6.610000000000000000e+02 6.620000000000000000e+02 6.630000000000000000e+02 6.640000000000000000e+02 6.650000000000000000e+02 6.660000000000000000e+02 6.670000000000000000e+02 6.680000000000000000e+02 6.690000000000000000e+02 6.700000000000000000e+02 6.710000000000000000e+02 6.720000000000000000e+02 6.730000000000000000e+02 6.740000000000000000e+02 6.750000000000000000e+02 6.760000000000000000e+02 6.770000000000000000e+02 6.780000000000000000e+02 6.790000000000000000e+02 6.800000000000000000e+02 6.810000000000000000e+02 6.820000000000000000e+02 6.830000000000000000e+02 6.840000000000000000e+02 6.850000000000000000e+02 6.860000000000000000e+02 6.870000000000000000e+02 6.880000000000000000e+02 6.890000000000000000e+02 6.900000000000000000e+02 6.910000000000000000e+02 6.920000000000000000e+02 6.930000000000000000e+02 6.940000000000000000e+02 6.950000000000000000e+02 6.960000000000000000e+02 6.970000000000000000e+02 6.980000000000000000e+02 6.990000000000000000e+02 7.000000000000000000e+02 7.010000000000000000e+02 7.020000000000000000e+02 7.030000000000000000e+02 7.040000000000000000e+02 7.050000000000000000e+02 7.060000000000000000e+02 7.070000000000000000e+02 7.080000000000000000e+02 7.090000000000000000e+02 7.100000000000000000e+02 7.110000000000000000e+02 7.120000000000000000e+02 7.130000000000000000e+02 7.140000000000000000e+02 7.150000000000000000e+02 7.160000000000000000e+02 7.170000000000000000e+02 7.180000000000000000e+02 7.190000000000000000e+02 7.200000000000000000e+02 7.210000000000000000e+02 7.220000000000000000e+02 7.230000000000000000e+02 7.240000000000000000e+02 7.250000000000000000e+02 7.260000000000000000e+02 7.270000000000000000e+02 7.280000000000000000e+02 7.290000000000000000e+02 7.300000000000000000e+02 7.310000000000000000e+02 7.320000000000000000e+02 7.330000000000000000e+02 7.340000000000000000e+02 7.350000000000000000e+02 7.360000000000000000e+02 7.370000000000000000e+02 7.380000000000000000e+02 7.390000000000000000e+02 7.400000000000000000e+02 7.410000000000000000e+02 7.420000000000000000e+02 7.430000000000000000e+02 7.440000000000000000e+02 7.450000000000000000e+02 7.460000000000000000e+02 7.470000000000000000e+02 7.480000000000000000e+02 7.490000000000000000e+02 7.500000000000000000e+02 7.510000000000000000e+02 7.520000000000000000e+02 7.530000000000000000e+02 7.540000000000000000e+02 7.550000000000000000e+02 7.560000000000000000e+02 7.570000000000000000e+02 7.580000000000000000e+02 7.590000000000000000e+02 7.600000000000000000e+02 7.610000000000000000e+02 7.620000000000000000e+02 7.630000000000000000e+02 7.640000000000000000e+02 7.650000000000000000e+02 7.660000000000000000e+02 7.670000000000000000e+02 7.680000000000000000e+02 7.690000000000000000e+02 7.700000000000000000e+02 7.710000000000000000e+02 7.720000000000000000e+02 7.730000000000000000e+02 7.740000000000000000e+02 7.750000000000000000e+02 7.760000000000000000e+02 7.770000000000000000e+02 7.780000000000000000e+02 7.790000000000000000e+02 7.800000000000000000e+02 7.810000000000000000e+02 7.820000000000000000e+02 7.830000000000000000e+02 7.840000000000000000e+02 7.850000000000000000e+02 7.860000000000000000e+02 7.870000000000000000e+02 7.880000000000000000e+02 7.890000000000000000e+02 7.900000000000000000e+02 7.910000000000000000e+02 7.920000000000000000e+02 7.930000000000000000e+02 7.940000000000000000e+02 7.950000000000000000e+02 7.960000000000000000e+02 7.970000000000000000e+02 7.980000000000000000e+02 7.990000000000000000e+02 8.000000000000000000e+02 8.010000000000000000e+02 8.020000000000000000e+02 8.030000000000000000e+02 8.040000000000000000e+02 8.050000000000000000e+02 8.060000000000000000e+02 8.070000000000000000e+02 8.080000000000000000e+02 8.090000000000000000e+02 8.100000000000000000e+02 8.110000000000000000e+02 8.120000000000000000e+02 8.130000000000000000e+02 8.140000000000000000e+02 8.150000000000000000e+02 8.160000000000000000e+02 8.170000000000000000e+02 8.180000000000000000e+02 8.190000000000000000e+02 8.200000000000000000e+02 8.210000000000000000e+02 8.220000000000000000e+02 8.230000000000000000e+02 8.240000000000000000e+02 8.250000000000000000e+02 8.260000000000000000e+02 8.270000000000000000e+02 8.280000000000000000e+02 8.290000000000000000e+02 8.300000000000000000e+02 8.310000000000000000e+02 8.320000000000000000e+02 8.330000000000000000e+02 8.340000000000000000e+02 8.350000000000000000e+02 8.360000000000000000e+02 8.370000000000000000e+02 8.380000000000000000e+02 8.390000000000000000e+02 8.400000000000000000e+02 8.410000000000000000e+02 8.420000000000000000e+02 8.430000000000000000e+02 8.440000000000000000e+02 8.450000000000000000e+02 8.460000000000000000e+02 8.470000000000000000e+02 8.480000000000000000e+02 8.490000000000000000e+02 8.500000000000000000e+02 8.510000000000000000e+02 8.520000000000000000e+02 8.530000000000000000e+02 8.540000000000000000e+02 8.550000000000000000e+02 8.560000000000000000e+02 8.570000000000000000e+02 8.580000000000000000e+02 8.590000000000000000e+02 8.600000000000000000e+02 8.610000000000000000e+02 8.620000000000000000e+02 8.630000000000000000e+02 8.640000000000000000e+02 8.650000000000000000e+02 8.660000000000000000e+02 8.670000000000000000e+02 8.680000000000000000e+02 8.690000000000000000e+02 8.700000000000000000e+02 8.710000000000000000e+02 8.720000000000000000e+02 8.730000000000000000e+02 8.740000000000000000e+02 8.750000000000000000e+02 8.760000000000000000e+02 8.770000000000000000e+02 8.780000000000000000e+02 8.790000000000000000e+02 8.800000000000000000e+02 8.810000000000000000e+02 8.820000000000000000e+02 8.830000000000000000e+02 8.840000000000000000e+02 8.850000000000000000e+02 8.860000000000000000e+02 8.870000000000000000e+02 8.880000000000000000e+02 8.890000000000000000e+02 8.900000000000000000e+02 8.910000000000000000e+02 8.920000000000000000e+02 8.930000000000000000e+02 8.940000000000000000e+02 8.950000000000000000e+02 8.960000000000000000e+02 8.970000000000000000e+02 8.980000000000000000e+02 8.990000000000000000e+02 9.000000000000000000e+02 9.010000000000000000e+02 9.020000000000000000e+02 9.030000000000000000e+02 9.040000000000000000e+02 9.050000000000000000e+02 9.060000000000000000e+02 9.070000000000000000e+02 9.080000000000000000e+02 9.090000000000000000e+02 9.100000000000000000e+02 9.110000000000000000e+02 9.120000000000000000e+02 9.130000000000000000e+02 9.140000000000000000e+02 9.150000000000000000e+02 9.160000000000000000e+02 9.170000000000000000e+02 9.180000000000000000e+02 9.190000000000000000e+02 9.200000000000000000e+02 9.210000000000000000e+02 9.220000000000000000e+02 9.230000000000000000e+02 9.240000000000000000e+02 9.250000000000000000e+02 9.260000000000000000e+02 9.270000000000000000e+02 9.280000000000000000e+02 9.290000000000000000e+02 9.300000000000000000e+02 9.310000000000000000e+02 9.320000000000000000e+02 9.330000000000000000e+02 9.340000000000000000e+02 9.350000000000000000e+02 9.360000000000000000e+02 9.370000000000000000e+02 9.380000000000000000e+02 9.390000000000000000e+02 9.400000000000000000e+02 9.410000000000000000e+02 9.420000000000000000e+02 9.430000000000000000e+02 9.440000000000000000e+02 9.450000000000000000e+02 9.460000000000000000e+02 9.470000000000000000e+02 9.480000000000000000e+02 9.490000000000000000e+02 9.500000000000000000e+02 9.510000000000000000e+02 9.520000000000000000e+02 9.530000000000000000e+02 9.540000000000000000e+02 9.550000000000000000e+02 9.560000000000000000e+02 9.570000000000000000e+02 9.580000000000000000e+02 9.590000000000000000e+02 9.600000000000000000e+02 9.610000000000000000e+02 9.620000000000000000e+02 9.630000000000000000e+02 9.640000000000000000e+02 9.650000000000000000e+02 9.660000000000000000e+02 9.670000000000000000e+02 9.680000000000000000e+02 9.690000000000000000e+02 9.700000000000000000e+02 9.710000000000000000e+02 9.720000000000000000e+02 9.730000000000000000e+02 9.740000000000000000e+02 9.750000000000000000e+02 9.760000000000000000e+02 9.770000000000000000e+02 9.780000000000000000e+02 9.790000000000000000e+02 9.800000000000000000e+02 9.810000000000000000e+02 9.820000000000000000e+02 9.830000000000000000e+02 9.840000000000000000e+02 9.850000000000000000e+02 9.860000000000000000e+02 9.870000000000000000e+02 9.880000000000000000e+02 9.890000000000000000e+02 9.900000000000000000e+02 9.910000000000000000e+02 9.920000000000000000e+02 9.930000000000000000e+02 9.940000000000000000e+02 9.950000000000000000e+02 9.960000000000000000e+02 9.970000000000000000e+02 9.980000000000000000e+02 9.990000000000000000e+02 1.000000000000000000e+03
1.000000000000000021e-02 1.000000000000000021e-02 1.000000000000000021e-02 1.000000000000000021e-02 1.000000000000000021e-02 1.000000000000000021e-02 1.000000000000000021e-02 1.000000000000000021e-02 1.000000000000000021e-02 1.000000000000000021e-02 1.000000000000000021e-02 1.000000000000000021e-02 1.000000000000000021e-02 1.000000000000000021e-02 1.000000000000000021e-02 1.000000000000000021e-02 1.000000000000000021e-02 1.000000000000000021e-02 1.000000000000000021e-02 1.000000000000000021e-02 1.000000000000000021e-02 1.000000000000000021e-02 1.000000000000000021e-02 1.000000000000000021e-02 1.000000000000000021e-02 1.000000000000000021e-02 1.000000000000000021e-02 1.000000000000000021e-02 1.000000000000000021e-02 1.000000000000000021e-02 1.000000000000000021e-02 1.000000000000000021e-02 1.000000000000000021e-02 1.000000000000000021e-02 1.000000000000000021e-02 1.000000000000000021e-02 1.000000000000000021e-02 1.000000000000000021e-02 1.000000000000000021e-02 1.000000000000000021e-02 1.000000000000000021e-02 1.000000000000000021e-02 1.000000000000000021e-02 1.000000000000000021e-02 1.000000000000000021e-02 1.000000000000000021e-02 1.000000000000000021e-02 1.000000000000000021e-02 1.000000000000000021e-02 1.000000000000000021e-02 1.000000000000000021e-02 1.000000000000000021e-02 1.000000000000000021e-02 1.000000000000000021e-02 1.000000000000000021e-02 1.000000000000000021e-02 1.000000000000000021e-02 1.000000000000000021e-02 1.000000000000000021e-02 1.000000000000000021e-02 1.000000000000000021e-02 1.000000000000000021e-02 1.000000000000000021e-02 1.000000000000000021e-02 1.000000000000000021e-02 1.000000000000000021e-02 1.000000000000000021e-02 1.000000000000000021e-02 1.000000000000000021e-02 1.000000000000000021e-02 1.000000000000000021e-02 1.000000000000000021e-02 1.000000000000000021e-02 1.000000000000000021e-02 1.000000000000000021e-02 1.000000000000000021e-02 1.000000000000000021e-02 1.000000000000000021e-02 1.000000000000000021e-02 1.000000000000000021e-02 1.000000000000000021e-02 1.000000000000000021e-02 1.000000000000000021e-02 1.000000000000000021e-02 1.000000000000000021e-02 1.000000000000000021e-02 1.000000000000000021e-02 1.000000000000000021e-02 1.000000000000000021e-02 1.000000000000000021e-02 1.000000000000000021e-02 1.000000000000000021e-02 1.000000000000000021e-02 1.000000000000000021e-02 1.000000000000000021e-02 1.000000000000000021e-02 1.000000000000000021e-02 1.000000000000000021e-02 1.000000000000000021e-02 1.000000000000000021e-02 1.000000000000000021e-02 1.000000000000000021e-02 1.000000000000000021e-02 1.000000000000000021e-02 1.000000000000000021e-02 1.000000000000000021e-02 1.000000000000000021e-02 1.000000000000000021e-02 1.000000000000000021e-02 1.000000000000000021e-02 1.000000000000000021e-02 1.000000000000000021e-02 1.000000000000000021e-02 1.000000000000000021e-02 1.000000000000000021e-02 1.000000000000000021e-02 1.000000000000000021e-02 1.000000000000000021e-02 1.000000000000000021e-02 1.000000000000000021e-02 1.000000000000000021e-02 1.000000000000000021e-02 1.000000000000000021e-02 1.000000000000000021e-02 1.000000000000000021e-02 1.000000000000000021e-02 1.000000000000000021e-02 1.000000000000000021e-02 1.000000000000000021e-02 1.000000000000000021e-02 1.000000000000000021e-02 1.000000000000000021e-02 1.000000000000000021e-02 1.000000000000000021e-02 1.000000000000000021e-02 1.000000000000000021e-02 1.000000000000000021e-02 1.000000000000000021e-02 1.000000000000000021e-02 1.000000000000000021e-02 1.000000000000000021e-02 1.000000000000000021e-02 1.000000000000000021e-02 1.000000000000000021e-02 1.000000000000000021e-02 1.000000000000000021e-02 1.000000000000000021e-02 1.000000000000000021e-02 1.000000000000000021e-02 1.000000000000000021e-02 1.000000000000000021e-02 1.000000000000000021e-02 1.000000000000000021e-02 1.000000000000000021e-02 1.000000000000000021e-02 1.000000000000000021e-02 1.000000000000000021e-02 1.000000000000000021e-02 1.000000000000000021e-02 1.000000000000000021e-02 1.000000000000000021e-02 1.000000000000000021e-02 1.000000000000000021e-02 1.000000000000000021e-02 1.000000000000000021e-02 1.000000000000000021e-02 1.000000000000000021e-02 1.000000000000000021e-02 1.000000000000000021e-02 1.000000000000000021e-02 1.000000000000000021e-02 1.000000000000000021e-02 1.000000000000000021e-02 1.000000000000000021e-02 1.000000000000000021e-02 1.000000000000000021e-02 1.000000000000000021e-02 1.000000000000000021e-02 1.000000000000000021e-02 1.000000000000000021e-02 1.000000000000000021e-02 1.000000000000000021e-02 1.000000000000000021e-02 1.000000000000000021e-02 1.000000000000000021e-02 1.000000000000000021e-02 1.000000000000000021e-02 1.000000000000000021e-02 1.000000000000000021e-02 1.000000000000000021e-02 1.000000000000000021e-02 1.000000000000000021e-02 1.000000000000000021e-02 1.000000000000000021e-02 1.000000000000000021e-02 1.000000000000000021e-02 1.000000000000000021e-02 1.000000000000000021e-02 1.000000000000000021e-02 1.000000000000000021e-02 1.000000000000000021e-02 1.000000000000000021e-02 1.000000000000000021e-02 1.000000000000000021e-02 1.000000000000000021e-02 1.000000000000000021e-02 1.000000000000000021e-02 1.000000000000000021e-02 1.000000000000000021e-02 1.000000000000000021e-02 1.000000000000000021e-02 1.000000000000000021e-02 1.000000000000000021e-02 1.000000000000000021e-02 1.000000000000000021e-02 1.000000000000000021e-02 1.000000000000000021e-02 1.000000000000000021e-02 1.000000000000000021e-02 1.000000000000000021e-02 1.000000000000000021e-02 1.000000000000000021e-02 1.000000000000000021e-02 1.000000000000000021e-02 1.000000000000000021e-02 1.000000000000000021e-02 1.000000000000000021e-02 1.000000000000000021e-02 1.000000000000000021e-02 1.000000000000000021e-02 1.000000000000000021e-02 1.000000000000000021e-02 1.000000000000000021e-02 1.000000000000000021e-02 1.000000000000000021e-02 1.000000000000000021e-02 1.000000000000000021e-02 1.000000000000000021e-02 1.000000000000000021e-02 1.000000000000000021e-02 1.000000000000000021e-02 1.000000000000000021e-02 1.000000000000000021e-02 1.000000000000000021e-02 1.000000000000000021e-02 1.000000000000000021e-02 1.000000000000000021e-02 1.000000000000000021e-02 1.000000000000000021e-02 1.000000000000000021e-02 1.000000000000000021e-02 1.000000000000000021e-02 1.000000000000000021e-02 1.000000000000000021e-02 1.000000000000000021e-02 1.000000000000000021e-02 1.000000000000000021e-02 1.000000000000000021e-02 1.000000000000000021e-02 1.000000000000000021e-02 1.000000000000000021e-02 1.000000000000000021e-02 1.000000000000000021e-02 1.000000000000000021e-02 1.000000000000000021e-02 1.000000000000000021e-02 1.000000000000000021e-02 1.000000000000000021e-02 1.000000000000000021e-02 1.000000000000000021e-02 1.000000000000000021e-02 1.000000000000000021e-02 1.000000000000000021e-02 1.000000000000000021e-02 1.000000000000000021e-02 1.000000000000000021e-02 1.000000000000000021e-02 1.000000000000000021e-02 1.000000000000000021e-02 1.000000000000000021e-02 1.000000000000000021e-02 1.000000000000000021e-02 1.000000000000000021e-02 1.000000000000000021e-02 1.000000000000000021e-02 1.000000000000000021e-02 1.000000000000000021e-02 1.000000000000000021e-02 1.000000000000000021e-02 1.000000000000000021e-02 1.000000000000000021e-02 1.000000000000000021e-02 1.000000000000000021e-02 1.000000000000000021e-02 1.000000000000000021e-02 1.000000000000000021e-02 1.000000000000000021e-02 1.000000000000000021e-02 1.000000000000000021e-02 1.000000000000000021e-02 1.000000000000000021e-02 1.000000000000000021e-02 1.000000000000000021e-02 1.000000000000000021e-02 1.000000000000000021e-02 1.000000000000000021e-02 1.000000000000000021e-02 1.000000000000000021e-02 1.000000000000000021e-02 1.000000000000000021e-02 1.000000000000000021e-02 1.000000000000000021e-02 1.000000000000000021e-02 1.000000000000000021e-02 1.000000000000000021e-02 1.000000000000000021e-02 1.000000000000000021e-02 1.000000000000000021e-02 1.000000000000000021e-02 1.000000000000000021e-02 1.000000000000000021e-02 1.000000000000000021e-02 1.000000000000000021e-02 1.000000000000000021e-02 1.000000000000000021e-02 1.000000000000000021e-02 1.000000000000000021e-02 1.000000000000000021e-02 1.000000000000000021e-02 1.000000000000000021e-02 1.000000000000000021e-02 1.000000000000000021e-02 1.000000000000000021e-02 1.000000000000000021e-02 1.000000000000000021e-02 1.000000000000000021e-02 1.000000000000000021e-02 1.000000000000000021e-02 1.000000000000000021e-02 1.000000000000000021e-02 1.000000000000000021e-02 1.000000000000000021e-02 1.000000000000000021e-02 1.000000000000000021e-02 1.000000000000000021e-02 1.000000000000000021e-02 1.000000000000000021e-02 1.000000000000000021e-02 1.000000000000000021e-02 1.000000000000000021e-02 1.000000000000000021e-02 1.000000000000000021e-02 1.000000000000000021e-02 1.000000000000000021e-02 1.000000000000000021e-02 1.000000000000000021e-02 1.000000000000000021e-02 1.000000000000000021e-02 1.000000000000000021e-02 1.000000000000000021e-02 1.000000000000000021e-02 1.000000000000000021e-02 1.000000000000000021e-02 1.000000000000000021e-02 1.000000000000000021e-02 1.000000000000000021e-02 1.000000000000000021e-02 1.000000000000000021e-02 1.000000000000000021e-02 1.000000000000000021e-02 1.000000000000000021e-02 1.000000000000000021e-02 1.000000000000000021e-02 1.000000000000000021e-02 1.000000000000000021e-02 1.000000000000000021e-02 1.000000000000000021e-02 1.000000000000000021e-02 1.000000000000000021e-02 1.000000000000000021e-02 1.000000000000000021e-02 1.000000000000000021e-02 1.000000000000000021e-02 1.000000000000000021e-02 1.000000000000000021e-02 1.000000000000000021e-02 1.000000000000000021e-02 1.000000000000000021e-02 1.000000000000000021e-02 1.000000000000000021e-02 1.000000000000000021e-02 1.000000000000000021e-02 1.000000000000000021e-02 1.000000000000000021e-02 1.000000000000000021e-02 1.000000000000000021e-02 1.000000000000000021e-02 1.000000000000000021e-02 1.000000000000000021e-02 1.000000000000000021e-02 1.000000000000000021e-02 1.000000000000000021e-02 1.000000000000000021e-02 1.000000000000000021e-02 1.000000000000000021e-02 1.000000000000000021e-02 1.000000000000000021e-02 1.000000000000000021e-02 1.000000000000000021e-02 1.000000000000000021e-02 1.000000000000000021e-02 1.000000000000000021e-02 1.000000000000000021e-02 1.000000000000000021e-02 1.000000000000000021e-02 1.000000000000000021e-02 1.000000000000000021e-02 1.000000000000000021e-02 1.000000000000000021e-02 1.000000000000000021e-02 1.000000000000000021e-02 1.000000000000000021e-02 1.000000000000000021e-02 1.000000000000000021e-02 1.000000000000000021e-02 1.000000000000000021e-02 1.000000000000000021e-02 1.000000000000000021e-02 1.000000000000000021e-02 1.000000000000000021e-02 1.000000000000000021e-02 1.000000000000000021e-02 1.000000000000000021e-02 1.000000000000000021e-02 1.000000000000000021e-02 1.000000000000000021e-02 1.000000000000000021e-02 1.000000000000000021e-02 1.000000000000000021e-02 1.000000000000000021e-02 1.000000000000000021e-02 1.000000000000000021e-02 1.000000000000000021e-02 1.000000000000000021e-02 1.000000000000000021e-02 1.000000000000000021e-02 1.000000000000000021e-02 1.000000000000000021e-02 1.000000000000000021e-02 1.000000000000000021e-02 1.000000000000000021e-02 1.000000000000000021e-02 1.000000000000000021e-02 1.000000000000000021e-02 1.000000000000000021e-02 1.000000000000000021e-02 1.000000000000000021e-02 1.000000000000000021e-02 1.000000000000000021e-02 1.000000000000000021e-02 1.000000000000000021e-02 1.000000000000000021e-02 1.000000000000000021e-02 1.000000000000000021e-02 1.000000000000000021e-02 1.000000000000000021e-02 1.000000000000000021e-02 1.000000000000000021e-02 1.000000000000000021e-02 1.000000000000000021e-02 1.000000000000000021e-02 1.000000000000000021e-02 1.000000000000000021e-02 1.000000000000000021e-02 1.000000000000000021e-02 1.000000000000000021e-02 1.000000000000000021e-02 1.000000000000000021e-02 1.000000000000000021e-02 1.000000000000000021e-02 1.000000000000000021e-02 1.000000000000000021e-02 1.000000000000000021e-02 1.000000000000000021e-02 1.000000000000000021e-02 1.000000000000000021e-02 1.000000000000000021e-02 1.000000000000000021e-02 1.000000000000000021e-02 1.000000000000000021e-02 1.000000000000000021e-02 1.000000000000000021e-02 1.000000000000000021e-02 1.000000000000000021e-02 1.000000000000000021e-02 1.000000000000000021e-02 1.000000000000000021e-02 1.000000000000000021e-02 1.000000000000000021e-02 1.000000000000000021e-02 1.000000000000000021e-02 1.000000000000000021e-02 1.000000000000000021e-02 1.000000000000000021e-02 1.000000000000000021e-02 1.000000000000000021e-02 1.000000000000000021e-02 1.000000000000000021e-02 1.000000000000000021e-02 1.000000000000000021e-02 1.000000000000000021e-02 1.000000000000000021e-02 1.000000000000000021e-02 1.000000000000000021e-02 1.000000000000000021e-02 1.000000000000000021e-02 1.000000000000000021e-02 1.000000000000000021e-02 1.000000000000000021e-02 1.000000000000000021e-02 1.000000000000000021e-02 1.000000000000000021e-02 1.000000000000000021e-02 1.000000000000000021e-02 1.000000000000000021e-02 1.000000000000000021e-02 1.000000000000000021e-02 1.000000000000000021e-02 1.000000000000000021e-02 1.000000000000000021e-02 1.000000000000000021e-02 1.000000000000000021e-02 1.000000000000000021e-02 1.000000000000000021e-02 1.000000000000000021e-02 1.000000000000000021e-02 1.000000000000000021e-02 1.000000000000000021e-02 1.000000000000000021e-02 1.000000000000000021e-02 1.000000000000000021e-02 1.000000000000000021e-02 1.000000000000000021e-02 1.000000000000000021e-02 1.000000000000000021e-02 1.000000000000000021e-02 1.000000000000000021e-02 1.000000000000000021e-02 1.000000000000000021e-02 1.000000000000000021e-02 1.000000000000000021e-02 1.000000000000000021e-02 1.000000000000000021e-02 1.000000000000000021e-02 1.000000000000000021e-02 1.000000000000000021e-02 1.000000000000000021e-02 1.000000000000000021e-02 1.000000000000000021e-02 1.000000000000000021e-02 1.000000000000000021e-02 1.000000000000000021e-02 1.000000000000000021e-02 1.000000000000000021e-02 1.000000000000000021e-02 1.000000000000000021e-02 1.000000000000000021e-02 1.000000000000000021e-02 1.000000000000000021e-02 1.000000000000000021e-02 1.000000000000000021e-02 1.000000000000000021e-02 1.000000000000000021e-02 1.000000000000000021e-02 1.000000000000000021e-02 1.000000000000000021e-02 1.000000000000000021e-02 1.000000000000000021e-02 1.000000000000000021e-02 1.000000000000000021e-02 1.000000000000000021e-02 1.000000000000000021e-02 1.000000000000000021e-02 1.000000000000000021e-02 1.000000000000000021e-02 1.000000000000000021e-02 1.000000000000000021e-02 1.000000000000000021e-02 1.000000000000000021e-02 1.000000000000000021e-02 1.000000000000000021e-02 1.000000000000000021e-02 1.000000000000000021e-02 1.000000000000000021e-02 1.000000000000000021e-02 1.000000000000000021e-02 1.000000000000000021e-02 1.000000000000000021e-02 1.000000000000000021e-02 1.000000000000000021e-02 1.000000000000000021e-02 1.000000000000000021e-02 1.000000000000000021e-02 1.000000000000000021e-02 1.000000000000000021e-02 1.000000000000000021e-02 1.000000000000000021e-02 1.000000000000000021e-02 1.000000000000000021e-02 1.000000000000000021e-02 1.000000000000000021e-02 1.000000000000000021e-02 1.000000000000000021e-02 1.000000000000000021e-02 1.000000000000000021e-02 1.000000000000000021e-02 1.000000000000000021e-02 1.000000000000000021e-02 1.000000000000000021e-02 1.000000000000000021e-02 1.000000000000000021e-02 1.000000000000000021e-02 1.000000000000000021e-02 1.000000000000000021e-02 1.000000000000000021e-02 1.000000000000000021e-02 1.000000000000000021e-02 1.000000000000000021e-02 1.000000000000000021e-02 1.000000000000000021e-02 1.000000000000000021e-02 1.000000000000000021e-02 1.000000000000000021e-02 1.000000000000000021e-02 1.000000000000000021e-02 1.000000000000000021e-02 1.000000000000000021e-02 1.000000000000000021e-02 1.000000000000000021e-02 1.000000000000000021e-02 1.000000000000000021e-02 1.000000000000000021e-02 1.000000000000000021e-02 1.000000000000000021e-02 1.000000000000000021e-02 1.000000000000000021e-02 1.000000000000000021e-02 1.000000000000000021e-02 1.000000000000000021e-02 1.000000000000000021e-02 1.000000000000000021e-02 1.000000000000000021e-02 1.000000000000000021e-02 1.000000000000000021e-02 1.000000000000000021e-02 1.000000000000000021e-02 1.000000000000000021e-02 1.000000000000000021e-02 1.000000000000000021e-02 1.000000000000000021e-02 1.000000000000000021e-02 1.000000000000000021e-02 1.000000000000000021e-02 1.000000000000000021e-02 1.000000000000000021e-02 1.000000000000000021e-02 1.000000000000000021e-02 1.000000000000000021e-02 1.000000000000000021e-02 1.000000000000000021e-02 1.000000000000000021e-02 1.000000000000000021e-02 1.000000000000000021e-02 1.000000000000000021e-02 1.000000000000000021e-02 1.000000000000000021e-02 1.000000000000000021e-02 1.000000000000000021e-02 1.000000000000000021e-02 1.000000000000000021e-02 1.000000000000000021e-02 1.000000000000000021e-02 1.000000000000000021e-02 1.000000000000000021e-02 1.000000000000000021e-02 1.000000000000000021e-02 1.000000000000000021e-02 1.000000000000000021e-02 1.000000000000000021e-02 1.000000000000000021e-02 1.000000000000000021e-02 1.000000000000000021e-02 1.000000000000000021e-02 1.000000000000000021e-02 1.000000000000000021e-02 1.000000000000000021e-02 1.000000000000000021e-02 1.000000000000000021e-02 1.000000000000000021e-02 1.000000000000000021e-02 1.000000000000000021e-02 1.000000000000000021e-02 1.000000000000000021e-02 1.000000000000000021e-02 1.000000000000000021e-02 1.000000000000000021e-02 1.000000000000000021e-02 1.000000000000000021e-02 1.000000000000000021e-02 1.000000000000000021e-02 1.000000000000000021e-02 1.000000000000000021e-02 1.000000000000000021e-02 1.000000000000000021e-02 1.000000000000000021e-02 1.000000000000000021e-02 1.000000000000000021e-02 1.000000000000000021e-02 1.000000000000000021e-02 1.000000000000000021e-02 1.000000000000000021e-02 1.000000000000000021e-02 1.000000000000000021e-02 1.000000000000000021e-02 1.000000000000000021e-02 1.000000000000000021e-02 1.000000000000000021e-02 1.000000000000000021e-02 1.000000000000000021e-02 1.000000000000000021e-02 1.000000000000000021e-02 1.000000000000000021e-02 1.000000000000000021e-02 1.000000000000000021e-02 1.000000000000000021e-02 1.000000000000000021e-02 1.000000000000000021e-02 1.000000000000000021e-02 1.000000000000000021e-02 1.000000000000000021e-02 1.000000000000000021e-02 1.000000000000000021e-02 1.000000000000000021e-02 1.000000000000000021e-02 1.000000000000000021e-02 1.000000000000000021e-02 1.000000000000000021e-02 1.000000000000000021e-02 1.000000000000000021e-02 1.000000000000000021e-02 1.000000000000000021e-02 1.000000000000000021e-02 1.000000000000000021e-02 1.000000000000000021e-02 1.000000000000000021e-02 1.000000000000000021e-02 1.000000000000000021e-02 1.000000000000000021e-02 1.000000000000000021e-02 1.000000000000000021e-02 1.000000000000000021e-02 1.000000000000000021e-02 1.000000000000000021e-02 1.000000000000000021e-02 1.000000000000000021e-02 1.000000000000000021e-02 1.000000000000000021e-02 1.000000000000000021e-02 1.000000000000000021e-02 1.000000000000000021e-02 1.000000000000000021e-02 1.000000000000000021e-02 1.000000000000000021e-02 1.000000000000000021e-02 1.000000000000000021e-02 1.000000000000000021e-02 1.000000000000000021e-02 1.000000000000000021e-02 1.000000000000000021e-02 1.000000000000000021e-02 1.000000000000000021e-02 1.000000000000000021e-02 1.000000000000000021e-02 1.000000000000000021e-02 1.000000000000000021e-02 1.000000000000000021e-02 1.000000000000000021e-02 1.000000000000000021e-02 1.000000000000000021e-02 1.000000000000000021e-02 1.000000000000000021e-02 1.000000000000000021e-02 1.000000000000000021e-02 1.000000000000000021e-02 1.000000000000000021e-02 1.000000000000000021e-02 1.000000000000000021e-02 1.000000000000000021e-02 1.000000000000000021e-02 1.000000000000000021e-02 1.000000000000000021e-02 1.000000000000000021e-02 1.000000000000000021e-02 1.000000000000000021e-02 1.000000000000000021e-02 1.000000000000000021e-02 1.000000000000000021e-02 1.000000000000000021e-02 1.000000000000000021e-02 1.000000000000000021e-02 1.000000000000000021e-02 1.000000000000000021e-02 1.000000000000000021e-02 1.000000000000000021e-02 1.000000000000000021e-02 1.000000000000000021e-02 1.000000000000000021e-02 1.000000000000000021e-02 1.000000000000000021e-02 1.000000000000000021e-02 1.000000000000000021e-02 1.000000000000000021e-02 1.000000000000000021e-02 1.000000000000000021e-02 1.000000000000000021e-02 1.000000000000000021e-02 1.000000000000000021e-02 1.000000000000000021e-02 1.000000000000000021e-02 1.000000000000000021e-02 1.000000000000000021e-02 1.000000000000000021e-02 1.000000000000000021e-02 1.000000000000000021e-02 1.000000000000000021e-02 1.000000000000000021e-02 1.000000000000000021e-02 1.000000000000000021e-02 1.000000000000000021e-02 1.000000000000000021e-02 1.000000000000000021e-02 1.000000000000000021e-02 1.000000000000000021e-02 1.000000000000000021e-02 1.000000000000000021e-02 1.000000000000000021e-02 1.000000000000000021e-02 1.000000000000000021e-02 1.000000000000000021e-02 1.000000000000000021e-02 1.000000000000000021e-02 1.000000000000000021e-02 1.000000000000000021e-02 1.000000000000000021e-02 1.000000000000000021e-02 1.000000000000000021e-02 1.000000000000000021e-02 1.000000000000000021e-02 1.000000000000000021e-02 1.000000000000000021e-02 1.000000000000000021e-02 1.000000000000000021e-02 1.000000000000000021e-02 1.000000000000000021e-02 1.000000000000000021e-02 1.000000000000000021e-02 1.000000000000000021e-02 1.000000000000000021e-02 1.000000000000000021e-02 1.000000000000000021e-02 1.000000000000000021e-02 1.000000000000000021e-02 1.000000000000000021e-02 1.000000000000000021e-02 1.000000000000000021e-02 1.000000000000000021e-02 1.000000000000000021e-02 1.000000000000000021e-02 1.000000000000000021e-02 1.000000000000000021e-02 1.000000000000000021e-02 1.000000000000000021e-02 1.000000000000000021e-02 1.000000000000000021e-02 1.000000000000000021e-02 1.000000000000000021e-02 1.000000000000000021e-02 1.000000000000000021e-02 1.000000000000000021e-02 1.000000000000000021e-02 1.000000000000000021e-02 1.000000000000000021e-02 1.000000000000000021e-02 1.000000000000000021e-02 1.000000000000000021e-02 1.000000000000000021e-02 1.000000000000000021e-02 1.000000000000000021e-02 1.000000000000000021e-02 1.000000000000000021e-02 1.000000000000000021e-02 1.000000000000000021e-02 1.000000000000000021e-02 1.000000000000000021e-02 1.000000000000000021e-02 1.000000000000000021e-02 1.000000000000000021e-02 1.000000000000000021e-02 1.000000000000000021e-02 1.000000000000000021e-02 1.000000000000000021e-02 1.000000000000000021e-02 1.000000000000000021e-02 1.000000000000000021e-02 1.000000000000000021e-02 1.000000000000000021e-02 1.000000000000000021e-02 1.000000000000000021e-02 1.000000000000000021e-02 1.000000000000000021e-02 1.000000000000000021e-02 1.000000000000000021e-02 1.000000000000000021e-02 1.000000000000000021e-02 1.000000000000000021e-02 1.000000000000000021e-02 1.000000000000000021e-02 1.000000000000000021e-02 1.000000000000000021e-02 1.000000000000000021e-02 1.000000000000000021e-02 1.000000000000000021e-02 1.000000000000000021e-02 1.000000000000000021e-02 1.000000000000000021e-02 1.000000000000000021e-02 1.000000000000000021e-02 1.000000000000000021e-02 1.000000000000000021e-02 1.000000000000000021e-02 1.000000000000000021e-02 1.000000000000000021e-02 1.000000000000000021e-02 1.000000000000000021e-02 1.000000000000000021e-02 1.000000000000000021e-02 1.000000000000000021e-02 1.000000000000000021e-02 1.000000000000000021e-02 1.000000000000000021e-02 1.000000000000000021e-02 1.000000000000000021e-02 1.000000000000000021e-02 1.000000000000000021e-02 1.000000000000000021e-02 1.000000000000000021e-02 1.000000000000000021e-02 1.000000000000000021e-02 1.000000000000000021e-02 1.000000000000000021e-02 1.000000000000000021e-02 1.000000000000000021e-02 1.000000000000000021e-02 1.000000000000000021e-02 1.000000000000000021e-02 1.000000000000000021e-02 1.000000000000000021e-02 1.000000000000000021e-02 1.000000000000000021e-02 1.000000000000000021e-02 1.000000000000000021e-02 1.000000000000000021e-02 1.000000000000000021e-02 1.000000000000000021e-02 1.000000000000000021e-02 1.000000000000000021e-02 1.000000000000000021e-02 1.000000000000000021e-02 1.000000000000000021e-02 1.000000000000000021e-02 1.000000000000000021e-02 1.000000000000000021e-02 1.000000000000000021e-02 1.000000000000000021e-02 1.000000000000000021e-02 1.000000000000000021e-02 1.000000000000000021e-02 1.000000000000000021e-02 1.000000000000000021e-02 1.000000000000000021e-02 1.000000000000000021e-02 1.000000000000000021e-02 1.000000000000000021e-02 1.000000000000000021e-02 1.000000000000000021e-02 1.000000000000000021e-02 1.000000000000000021e-02 1.000000000000000021e-02 1.000000000000000021e-02 1.000000000000000021e-02
-1.098410980941912101e+02 1.670157312594868131e+02 3.871237414603186977e+01 -8.697740886623138934e+00 -8.652152264492001166e+01 -1.318332665257418590e+01 -2.047288855958204294e+02 6.868150119597231651e-01 -8.340764092198199364e+01 -1.387914582293676879e+01 -1.953636886914045689e+01 6.433458255777232182e+00 -1.754760606965730441e+00 1.652142277082099611e+02 8.332591769341541976e+01 -3.820498499282126659e+01 -5.200826341671947262e+01 7.800302635716109023e+01 3.232408433191773156e+01 -2.498847355918035262e+01 -7.763366233214948409e+01 -7.266680352428086564e+01 -1.358745842237103396e+01 2.849037505346071697e+01 -1.919316093353024826e+02 -9.721154023740575667e+01 -2.569235254219169562e+01 1.985378355802864974e+02 6.968026114298311313e+01 7.556694858566540063e+01 7.907034166252449836e+01 1.164397802797498827e+00 -7.806646011921756667e+01 2.042999960004137279e+02 -2.411311657753768714e+02 5.795716004521552378e+01 -1.182871752172968201e+02 -3.415758653577627513e+01 3.974584219142550445e+00 1.247817851515598591e+02 -1.210197582823556957e+02 -1.342778750705874025e+01 7.616663277611539229e+01 1.709617002813343731e+02 7.025552944575093761e+01 -6.735379180789361442e+01 4.057051635864620920e+01 -2.795831604675452908e+01 -6.505817654698952879e+01 1.542036726878578463e+02 -6.945743652295681159e+01 -5.130939071870542278e+01 -1.372363467640611248e+02 5.698097912028526224e+00 -4.975936324700261792e+01 3.808551938668858838e+01 -8.738334224646514770e+01 -4.929485714569166532e+01 -9.987141073595306295e+01 -1.530970204923844165e+02 1.914262923014367601e+01 4.469398662534265299e+01 -1.212656062986046521e+02 1.265914153867753633e+01 -7.807860939205049533e+01 4.837996688590727956e+01 1.641353987237693275e+02 -1.420934484107334868e+02 -4.264792361776545704e+01 7.099611573998594771e+00 2.890431149728918125e+00 4.174813997307694535e+01 8.271690539604681192e+01 8.273092346791703910e-01 -8.685681542283418821e+00 -6.896349394235160446e+01 7.707564575079628355e+01 -3.225074631358089761e+01 2.590629710632790861e+01 1.024563886744143417e+02 8.688340374936630894e+01 -4.212091131836284319e+01 5.691155291617418754e+01 1.452161942560365731e+02 1.144675811990359904e+02 -3.948703789603530634e+00 1.715795069433443416e+02 -1.098489758877709903e+02 4.120636075846734414e+00 -4.130902014121496535e+01 2.037210433202318143e+02 -2.090490446918082412e+01 2.847974972174195152e+00 -7.563120341388338375e+01 -7.036743309094598331e+00 -6.287182395151940284e+01 6.676261778458002993e+01 -9.313758424821791948e+01 6.757615261924560457e+01 -4.704398153726692300e+01 -4.900687038733812528e+01 -9.028977691836360009e+01 5.227905206161960194e+01 -5.387727671668038454e+01 -1.470913966070929746e+02 -7.826828514468282094e+01 -1.030402535144424974e+02 -1.548709622215545778e+02 1.338949249978411444e+02 -2.705847093754282184e+01 3.155840790575670951e+01 8.832309151509841172e+01 -1.024943808196099013e+02 5.610319708908742342e+01 -4.266902492161805327e+01 -6.833373166638691032e+01 -8.876311405396202758e+01 2.001905728180077233e+02 -5.588955941084427081e+01 -4.876686287542697329e+01 -4.648088029311473690e+01 7.919333599993032635e+01 -4.079609744104831748e+01 1.359057202107293563e+02 -4.915751433662355652e+01 5.429207224402505716e+01 4.474856930201034366e+00 -7.989274653074794230e+01 6.776666054212230961e+01 2.732463455004298112e+02 -9.067384732886306153e+01 4.677135012363333288e+01 -7.512364346716235275e+01 4.456873920221583774e+01 1.292518594447681437e+02 -5.064734354456255261e+01 1.439075198056269400e+01 -2.654059437184108816e+01 -1.004488493779247449e+02 -1.707618240825689071e+01 4.231948009173761349e+00 -7.699058598300530853e+00 -1.472634005432885118e+01 1.164857635026649945e+02 1.284784547649884416e+02 1.837623362502657756e+02 -2.999454719525016912e+02 3.765427813575664828e+01 -1.553894338445132206e+01 -6.145084096408695729e+01 1.777728644275895249e+02 7.508665040212729025e+01 -2.566608901236835827e+00 -1.143081979037995382e+02 -1.073401243233144164e+01 9.868818597546292892e+01 -1.324970497575428681e+02 -1.662682078921453410e+02 1.058786132517110090e+01 4.183597664536922878e+01 -6.018891144000438231e+01 4.146179842047109787e+01 -1.056148299168927736e+02 -1.492513216389101274e+02 2.081122226418185051e+01 4.792310156544802169e+01 4.752095469292465957e+00 -8.234249134705369499e+01 -9.234574530159633809e+01 -8.318519219496339190e+01 -8.640642640810354180e+01 1.248708064438239873e+01 5.609450630773598334e+01 1.150271691161987206e+02 7.842218809199368934e+01 8.839815029324573459e+01 1.061479327288316483e+02 -7.387214404892569064e+01 -8.151024266508450467e+01 6.967924145180806761e+01 6.771147501615925535e+01 5.853994298283576825e+01 -9.277623735549665795e+00 -9.004360815752650637e+01 5.339023801214376164e+01 -1.770871420731130002e+02 6.645117159918699201e+01 -4.405277609448173592e+01 -9.542762735630994086e+01 7.345092573816923220e+01 -1.698101563291430338e+01 -7.635334270298365311e+01 -5.689415721044054663e+01 -9.077004171021870960e+00 2.404494759922669118e+02 7.619900937943542374e+01 5.435685020527277800e+01 -1.029798664711587577e+02 1.470238207026874591e+02 1.051886197207506868e+00 -8.964656797249233477e+01 1.546002080600432862e+02 -1.529622028414848387e+02 1.565961080960837393e+01 -3.229118080844628480e+01 -2.205854312642951243e+02 -1.338596864115349945e+02 -8.754848043932122437e+01 -2.945857489773080218e+01 -1.196589449700051233e+02 5.785906266700360590e+01 6.523421974292843117e+01 -2.769320173331282575e+01 -1.001286030057011232e+02 1.135136309406112645e+02 1.186266345144919114e+02 4.638662421023559546e+01 1.755826629652637649e+01 2.624434163714151964e+02 4.383825418581500344e+01 -1.199801477922430308e+02 -4.526487475389300386e+01 -1.695780324334542115e+02 3.201439256428285063e+01 1.539941534429968897e+02 -1.490091718092764381e+02 1.323543578293056555e+02 -9.140021183440826746e+01 -1.901477122667575514e+01 -7.911428017904942323e-01 5.313632459186587909e+01 -1.164272792076583229e+01 -2.292906925446977695e+01 -1.894844827214312133e+01 -1.274059690542564311e+02 4.665166336788620072e+01 -3.050836462330186905e+01 -1.301406247641287273e+01 -1.077790530553986592e+01 2.272133392643020784e+02 1.752069302114244351e+02 2.339301250419739517e+02 1.325415397218955036e+02 -8.706388673684291746e+01 7.559679736968035968e+01 2.125667133066772152e+01 4.782210266969224222e+01 -3.991950872950685181e+01 2.568962250348470207e+02 -2.344776484975604802e+01 -1.375384356052702230e+02 -1.503492470012798243e+01 -4.610894499371003263e+01 -7.785047008248444911e+01 4.341545248520700540e+01 -1.178310434078095703e+01 1.830165916647615347e+02 9.292682353382153337e+01 4.112982873846780763e+01 9.860616965017308644e+01 9.516166147693689936e+01 -2.312968969226615101e+01 1.405066405829821861e+02 2.668272190574440828e+01 9.016343562883717766e+01 4.797785204870312725e+01 6.972333944966734975e+00 -1.164980278038087249e+02 -1.166006157571329140e+02 -9.061446984054305176e+01 -1.566799442698774847e+01 8.725570433832919548e+01 -3.083744080147529587e+01 9.953067388759984624e+01 4.410480595622091471e+01 -7.319859527159387369e+01 -3.014776317338083089e+01 -5.897240381657974950e+01 1.768183368719882864e+01 -4.661060380992579155e+01 -1.127772142706222098e+02 1.223135259376246040e+02 1.221380546954711406e+02 -7.948366630842045311e+01 5.453286871253349766e+00 -4.561947433904239801e+01 -3.279404412366598365e+01 -1.141594170036712264e+01 -3.143956000440940457e+01 4.477061455589976902e+01 -1.414729506319795576e+02 -5.319155950625499685e+01 -1.528301248260942771e+02 1.752068552576411093e+02 -2.032609986589306672e+01 5.927784581633904537e+01 1.198638001838140177e+01 1.452413214148714360e+02 4.487825285327772917e+01 3.591566357492429518e+01 1.552309908645442249e+02 -4.953300009498815371e+01 -9.814539852216601901e+01 2.734363226880729414e+01 -1.588368977354944320e+02 -5.367923850366315719e+01 1.028372537503013717e+02 -1.282495372414138615e+02 -3.653821154542844596e+01 9.172886769279863017e+01 -9.490756999491671309e+01 -8.989360027698843680e+01 -8.302138436416510103e+01 -6.409196680305538507e+01 2.501974138741641127e+02 1.990739782200436707e+02 1.034322965287039580e+02 -1.026343269386984360e+02 7.515824051674682948e+01 -6.645480955002133783e+01 -3.147921651531639498e+01 1.667730202246556814e+01 -3.236579313112307688e+01 -9.408132136055193939e+01 -2.786838462489324542e+00 1.481797649966760133e+01 1.091486806342184224e+02 -1.288888887169258055e+02 4.206504215634712551e+01 6.394404294293653379e+01 3.461584960274142020e+01 -9.084257123584025351e+01 -1.488752064137611626e+02 1.936001437241314989e+02 -1.784399313904340190e+01 2.523794718008087301e+01 1.568517384085069182e+02 2.670887008878382574e+01 2.777812149525913554e+01 -4.460688381797588420e+01 8.872128042120726832e+01 -1.364994815073600876e+02 -3.083366643023210685e+01 -6.143061284453835036e+00 -5.344731093215418838e+01 6.268713227794373566e+00 2.128605510746287521e+01 -3.581161237009460052e+01 1.367398390440586375e+01 2.138228691178859151e+02 -2.740903469272614856e+01 -2.800290526606638863e+01 -1.016867886092453972e+02 -1.642204057743717360e+00 -8.075691239901863128e+01 6.385870278119183396e+00 1.120869798937632567e+02 -5.202328229391008563e+01 6.044017153258451458e+00 -5.430654939472986342e+01 3.319744135840696497e+00 8.718405783376975648e+01 -1.158264585614125508e+02 -9.680600783556737099e+01 -1.025467479523244236e+02 7.134210701722901149e+01 8.652956864405160786e+01 -9.222143668943900252e+01 6.260729146898295028e+01 2.581958147227096489e+01 3.867154865640863903e+01 -1.773944428545892293e+01 9.130921189931186177e+01 7.966972777498681069e+01 -7.722073917037513979e+01 1.180988228182603628e+01 8.083698989788339873e+01 7.280645052344591761e+01 -1.988813402952919418e+01 2.495514711007779951e+01 -1.325109953580417539e+02 4.849986248324948690e+01 -3.275545649300430995e+01 -3.265078197814555239e+01 1.730686643753054739e+02 4.739334019498654982e+01 1.201221350004873187e+02 1.908317128507681559e+02 -1.375856582298652597e+02 1.489802617496007713e+02 -6.338357497691687570e+01 -1.350442155905439847e+02 8.225744772956817030e+01 -1.339634658882471854e+02 -2.869024541232785808e+01 5.636471593309894956e+01 8.055107797851986717e+00 -1.680284931715648042e+02 8.419150323505945721e+01 2.521147764326037688e+01 6.903944951707732969e+01 3.626823182395169454e+01 9.462398773944176611e+00 -6.706493949951317290e+01 1.156299653572667410e+02 5.444925741161199539e+01 -6.207200709832116559e+01 -1.011640992564763906e+02 3.889444793009776191e+01 2.568641596777010960e+01 8.233309301092656085e+01 1.836303863900200781e+02 -2.460457902691390686e+01 -1.100668855100796009e+02 -8.463340792696571668e+01 -5.127639486038619765e+01 -4.431091945711533953e+01 -1.466027404735211235e+02 -2.249739544792668511e+01 1.294022484025028348e+02 7.447048069369725454e+01 -1.222629929770561574e+02 -1.497618715389085082e+02 -6.803099788893058530e+01 -7.626622865434678999e+01 1.466599850358003891e+02 -1.703090529179160626e+02 8.647620931169913661e+01 -4.603020952239446295e+00 -4.299198330647735133e+01 1.328209941594535159e+01 9.106924906503009254e+01 4.952321214664934956e+01 1.380715070564340863e+02 -1.589809965000698071e+02 -8.089042168163915392e+01 2.533504109462648302e+01 4.188882703384965112e+01 2.059184405568874183e+02 1.453107915550486666e+02 6.547171415937381767e+01 7.202963502852703925e+01 -3.408454677459992155e+01 1.516510802955189376e+02 -1.791646118801451166e+02 -6.334684613259290131e+01 -5.362533488846091956e+01 -5.173709494595748026e+01 -1.031561712480935427e+02 -1.497501147758401352e+01 -6.855982571652046431e+01 7.109083691020823892e+01 -9.140438615647019205e+00 -5.800990894332355907e+01 -6.218680309224720304e+01 1.799812545643968633e+02 5.895258919564141564e+01 -1.370682995222529676e+01 2.086369015974218541e+02 -1.082131574118010349e+02 -3.528787559101568405e+01 6.687962151946597089e+01 -1.339318072270268001e-01 1.494237478593785795e+01 -1.249385447596207968e+02 1.759599290136608261e+02 -4.890211539305863653e+01 -2.688211020691637643e+01 -1.095380086856297481e+02 1.256495896483489219e+02 9.570431498140810334e+01 -7.738020606390975331e+01 -3.753355670213641559e+01 3.888179621746785841e+01 -1.510974270801554269e+02 -1.728941369956539520e-01 -7.454985644776513709e+01 7.676961746760837535e+00 -1.078712121168715328e+02 -1.581778535067047926e+02 -7.051982920971538249e+01 1.478224268940769832e+02 5.642360492338080746e+01 -8.940047050807258699e+01 8.893485387780766871e+01 3.413075986338946421e+01 8.808370449365617105e+01 -4.199675217921156190e+01 -8.383389737097078864e+01 1.705104460769910588e+02 4.151507636032594206e+01 2.885673949349818557e+01 -7.275567479194724285e+01 -4.216887034684914681e+01 9.500972517581631749e+00 -7.142141482912470529e+00 -1.722117765746646398e+02 -3.448591107673280476e+01 6.416907320128909475e+01 1.111666242322108928e+02 1.551088418482640634e+02 -1.322498429358733496e+01 8.924890652543520275e+01 1.570565624161652636e+02 6.313708188333007598e+01 1.470620100615724652e+02 1.599032219690774426e+01 1.306777616290346202e+02 -8.352811235619175534e+01 5.307659528050389497e+01 2.916609597041885493e+01 7.544517884802378660e+01 -1.056080737102555389e+02 1.968851386503723973e+02 -1.279597849828078040e+02 8.776246037297383396e+01 -1.067155352589688704e+02 4.585259310147029055e+01 1.371118783262362051e+01 9.007335636406421031e+01 -7.313938266773112673e+01 -7.496452171438588152e+01 -1.106685114568141159e+01 8.841921399747359089e+01 -2.936100341913857292e+01 -1.617495769833318775e+01 -1.947424467467342879e+01 4.697452028086194886e+00 9.729999009919296782e+01 -6.200529045823989804e+01 -2.684733866232609234e+00 -1.919113835755700279e+02 1.206728701154301149e+02 -1.234726482585841012e+02 -7.304071331164391268e+01 -2.326619246136429098e+01 -1.067178690995327059e+02 -5.255030369152107284e+01 -5.791327551366828175e+01 -1.945835874957865741e+01 1.346883436371997504e+02 5.344108082458461695e+01 9.926975428657220846e+01 -1.345325524883716923e+02 -1.369808710559288727e+02 -2.833195029607160222e+02 1.009959446244273238e+02 1.030480491035991548e+02 4.181644953066799530e+01 -4.196190162232380061e+01 -3.676240018448180535e+01 -1.815498078800821702e+02 1.444318800474464695e+02 -1.061818103859894080e+02 1.057360746297978551e+02 -1.573827523959232337e+02 -1.415160113936157416e+01 -5.474432216818162544e+01 -1.178977149822530777e+02 -4.557694231338710722e+01 -1.237816415630678968e+01 -9.161735899480677858e+01 -1.023076019104253760e+02 -1.221861364580949960e+01 7.038853236309691397e+01 -1.232161105156272498e+02 -1.548131925516453578e+01 -7.292483766647700349e+01 -1.299408806234645226e+02 6.555233116884752853e+00 9.407439098623210327e+01 1.636952389533444432e+02 -1.885370999272252845e+01 -4.554665175043133729e+01 -1.228082589320278117e+02 -1.618388514011559778e+02 1.026731912605788608e+02 -7.196313195931028872e+01 7.816155368010171856e+01 9.301185318336335328e+00 2.892217532656945522e+01 7.307294338827691149e+01 -8.386770400531516145e+01 8.182217249660772040e+01 1.140930132334128615e+02 1.558593167097264995e+02 -1.153615688451452144e+02 1.028965446788162694e+02 -4.729309984450010518e+01 -8.988205178750217783e+01 2.124233623165621907e+02 4.873516774685065656e+01 8.263034650713355234e+01 2.103195565118229737e+01 -6.260237960347376429e+01 -3.458531731326673508e+01 -2.082732031749876853e+02 1.045774935733250857e+02 8.067803514422701028e+01 -7.494043117541551169e+01 -7.239897359115893494e+01 1.437381940375907448e+02 1.000537430022816920e+02 5.060594476615623449e+01 7.531224590301134469e+01 -7.792015719667567453e+00 1.021610521385638748e+02 -1.025270373574023495e+02 1.845123504148714915e+02 -3.908844389230408467e+01 -1.207811939220679989e+02 -3.731320295476394477e+01 7.102672468189685162e+01 1.458655649689263498e+02 1.275463902298838725e+01 1.720890428389600402e+02 5.167407982183475212e+01 3.329158844493956337e+01 -1.102022626661411095e+02 4.434878495733860149e+01 -1.237649924779193071e+02 4.723108882593199098e+01 3.822166282316552355e+01 -1.221336624193700828e+02 -8.419098587797873279e+01 3.945177447655487413e+01 8.638683315832324183e+00 -2.298977842709803809e+01 4.145473955165468993e+01 -2.118802664928146484e+01 -6.246279599445293940e+01 -2.593500724256668732e+01 -2.221284095692320193e+01 -3.942743898312165385e+01 1.858392393881048932e+01 -7.971269359624152173e+01 1.177617312804961216e+02 -7.355935896839065435e+01 -4.199950204581686108e+00 6.492376877233014909e+01 3.846923556003400968e+00 1.579682152286450858e+01 1.580562847815764727e+01 -1.159555594629458994e+02 -4.368302238306018381e+00 6.439883997317542708e+01 -2.291183610712574250e+02 -8.402320881070890835e+01 -1.115784965429573248e+02 4.335622895195374582e+01 9.525220522004026691e+01 -9.083663148537009135e+01 -1.661977860559431690e+02 -1.833037046088554405e+02 1.976158055742311959e+01 -1.434528758288685140e+02 -6.258778515216607552e+00 1.460408561228884707e+02 -7.013113885278835724e+00 3.672425076909910047e+01 -9.775395040666698776e+01 7.888365023485954453e+01 -1.170577438789519960e+02 -1.522381118435300884e+01 -2.989612330564286324e+01 5.680958847821550251e+01 -8.736504269825925206e+00 1.041992375823998600e+02 -1.203315995790947994e+02 -4.935652072292280934e+01 8.533110962011799927e+01 6.515598995287506057e+01 -8.107752806855486938e+01 -5.356549428163393856e+01 -4.859572783299268650e+01 -2.847632547863884156e+02 1.903945554049722659e+02 7.483799766766817640e+01 -2.319121862014910107e+01 -2.916844582451828671e+01 4.082268330982864057e+01 -8.267557988898531107e+01 9.778006836829035819e+01 5.940113016031982340e+01 8.049768932850493286e+01 -8.257452430282774003e+01 -2.604654672451499309e+01 3.271836410643345516e+01 1.706006067979759422e+01 -4.203801381925372738e+01 1.549847677545955946e+02 -1.696142002256081582e+01 3.473183510027578080e+01 -2.254763515446699387e+02 -8.305363205177371810e+01 -7.174690904044435058e+01 2.257972527004278973e+01 1.070719369640439993e+02 -2.272304157996516949e+02 -1.834078570515771389e+02 2.173375246236939518e+02 -1.036114216022146550e+01 9.418359856405969310e+01 6.145385898637011479e+01 -5.427307091025647878e+01 -1.284424716319005313e+02 -9.330213134681542897e+01 -4.927289910385789540e+01 -3.669176171377685591e+01 -3.839347486751415772e+01 1.583495699531406053e+01 3.645345825201982848e+01 1.635808664189803210e+02 1.208184809861996882e+02 6.828468085059442139e+00 -4.312649135973159353e+00 -1.556623572148324683e+02 1.173109078317834246e+02 1.561928470148378381e+02 -1.014181599080551166e+02 7.228390144542109397e+01 1.696097278555241061e+00 5.384397684166710008e+01 1.229521153256232679e+02 6.955585876940281764e+01 -1.314227320612039875e+02 1.581591615270847306e+01 -2.881476188744829869e+01 1.092676898188721246e+01 -2.268217813965226526e+01 4.446796115838062491e+01 -2.555921299050212383e+02 1.777258209455467011e+02 7.147442534941430559e+00 1.564139224115828597e+02 -1.034156269900340419e+01 1.041981205288473262e+02 7.031033030012051199e+01 -4.121876376589155200e+01 2.938243009522765448e+01 -7.150343719387883823e+01 -8.739900663924628077e+01 -7.078337775320976277e+01 -3.149054220420034511e+01 4.438529026046656867e+01 1.082547822026504463e+02 2.798946126181707683e+01 6.107494060486959597e+01 -1.030456096899461329e+02 -1.348227225235685296e+02 -1.325735697337953134e+01 4.561544594568657374e+01 -4.471840292045757081e+01 9.300717608116653423e+01 5.462100345118692957e+01 -2.719194960401629757e+01 2.945806314349441024e+01 6.038600172227611296e+01 -7.093676575211000568e+01 -1.315667180007970671e+02 1.397939186153474509e+02 7.689350631193230257e+00 4.935042473537488661e+01 -1.469767280215518213e+02 -5.258416599408536030e+01 -4.410861355903821779e-01 -6.477366824187328120e+01 4.201664824249171204e+00 5.545562063876149494e+01 1.837019501010454690e+02 3.855926321012177027e+01 -1.080229265813900774e+01 7.119703749842517482e+01 -4.483074735934259536e+01 -1.074477449140080694e+02 -1.362683425869364839e+02 9.238855791739668533e+00 2.477042057348638693e+01 2.349591937368715833e+01 -5.612333477928046221e+01 1.192300083291420663e+02 -7.977816935945905641e+01 1.266713306443415519e+02 8.618136467568665182e+01 -6.422036950434484481e+01 -8.367314208175189094e+01 8.316619877458603582e+01 2.019738565366307981e+01 -5.187344113193115192e+01 -5.319767626726101639e+01 1.351022917477197325e+02 5.665050383778792309e+01 7.898101016683156672e+01 2.584769140347367866e+01 -4.158706860316089404e+01 1.062375963888909638e+02 -5.396537324713771255e+01 5.477392039304737059e-01 7.572660814052454725e+01 9.852941845913571228e+01 2.528153744088224641e+02 -1.733605954922206820e+02 1.592846096570537782e+02 -6.688808583889245085e+01 -1.507764281520541161e+01 -2.484665571844282894e+01 -2.053135375663557127e+01 -5.461878874150293939e+01 9.210521212073504671e+01 1.823850160407023964e+02 -1.177391969735628550e+02 3.066658667876888700e+01 -1.258477238467324639e+02 6.962742857298272270e+01 -4.413513680883728796e+01 -8.040230564194561680e+01 -5.351024419497093021e+01 4.090354020310638106e+01 1.924884995636163865e+01 -8.125322752022222517e+01 -1.401905678643352360e+02 2.064584577716678737e+01 1.567355876846804676e+02 1.421068320418790165e+01 1.815558390169144616e+02 7.424172788673827128e+00 1.340042977207639865e+02 -3.444184464113964594e+01 9.036069237400870691e+01 -7.116207036687447385e+01 -1.124934439399646635e+02 4.926603796468751284e+01 -5.782376070469096163e+01 -7.829653408845607032e+01 7.268175623014501241e+01 6.442802533063223258e+00 -9.407119530628089876e+01 -1.502634069121938865e+02 1.476557782169022062e+02 -8.904134581120111136e+01 -2.353669465137246952e+00 1.199653095812305281e+02 5.797565925013131505e+01 -9.815072718765055981e+01 1.063338076834757828e+01 2.819952330334529051e+02 5.331392320291198672e+01 -1.577723821742767143e+02 -4.774458744474064531e+01 -6.155350343205979158e+01 9.632554781081497097e+00 1.076774060617122046e+02 -1.036138343330346459e+02 2.160799672466659871e+01 1.306912345374030053e+02 1.880756903138459180e+01 -2.116574923254021030e+02 4.841413455703980162e+01 7.563891656348138781e+01 -1.361353622733424551e+01 3.286565019504668328e+01 1.548199491979689313e-01 2.257879672214955846e+01 2.779907653527759592e+01 1.160980041375328682e+02 9.826460286612066852e+01 1.562339639260318158e+01 1.493806973770009563e+02 -6.417603182907053849e+01 2.472561824851023857e+02 6.519641098028296256e+01 1.420731035382746086e+02 -2.202592301490233240e+01 9.030744318460608611e+01 -4.911752465168377313e+01 -1.467735192386029723e+02 2.624911796481577042e+01 9.529823334036849758e+01 -8.783679101667948430e+01 -1.050389483421164414e+02 -6.672993921551204721e+01 3.671037813332037558e+01 -1.145452129107420234e+02 7.493427343181757294e+01 2.814056171369097115e+01 -9.790240017300111219e+01 1.904974120947205734e+02 -1.179757254816932388e+01 -1.020672958366746030e+02 -1.343687391799730868e+01 -2.049757085703018689e+01 -1.406540512627530575e+02 -4.015091046350759285e+01 6.169675644904980771e+01 1.321907261492690679e+02 2.912036801932143959e+01 2.683810783753797935e+01 4.492789576243525573e+01 -3.584885227113567652e+01 -1.460595325867240888e+02 1.592129257146329557e+01 3.107272924896440358e+01 1.335274910294297968e+02 -9.946921041516697315e+00 -7.637643200171063995e+01 7.343841012325475504e+01 9.902992687858838128e-01 3.197926089454266574e+01 1.397021965106911239e+02 -1.780870779975641653e+02 -9.315758456047340985e+01 1.251391723216033824e+02 -2.103174507921793008e+02 -1.792877159391890984e+02 8.872122917553559773e+01 1.501260321465334187e+02 6.180777416582360217e+01 -4.350011436493272932e+00 1.518380571711018092e+02 -2.139930224898016320e+02 1.044635718527085686e+02 4.131426805376253952e+01 1.238828537603561131e+02 -1.838528395339249926e+02 1.038570447841096751e+02 -2.754686854669079921e+01 -1.303358187189501791e+02 -5.190490552870611118e+00 -9.007671429440689792e+01 -1.586042165498083456e+01 -4.206058187761542833e+00 -1.200974880538704070e+02 -1.202197555049971101e+02 -6.099862055222939716e+01 -1.256770847570138869e+02 1.959381745573559783e+02 -1.570220344401087118e+02 -4.891350792480481857e+01 1.682037648603934485e+02 3.307589957542906234e+01 -2.885515721267842082e+02 -1.239125374696210855e+02 3.462037877360818783e+01 5.328081600124515660e+01 8.357687322737035629e+00 -1.507264066833210734e+02 3.478971914018516287e+01 7.297675282570424748e+00 -7.246068824370026107e+01 1.976279033719050915e+02 1.974928517669222288e+02 4.230145938734428235e+00 -2.032974163602305282e+02 1.228181072227049242e+02 2.998782126996801622e+01 3.686625740655822714e+00 7.468200892516398426e+01 -2.022617078362266909e+02 -1.345578182662130473e+02 1.374845360278888791e+02 1.068908883072595586e+02 5.158745886881097675e+01 1.396031801696608738e+02 -1.737801172443432449e+02 -1.993464314973128282e+01 -1.271372064427267361e+02 4.252781785302740758e+01 -1.012563510131251832e+02 8.486849787508720055e+01 -3.304558356900571425e+01 1.207222785716474966e+01 1.729704361858304651e+02 2.780291395126748810e+01 -2.569382371782486416e+02 -1.231939703675106017e+02 -8.125087869721735956e+01 1.541281881526607265e+02 1.222185456469261489e+01 -5.249538458687782594e+01 2.958957964521729522e+01 6.092942033717827854e+01 -3.856957202687345898e+01 1.048065660716667367e+02 -9.820534897364005644e+01 4.797434349247186702e+01 1.091124581747081947e+02 -3.458851884437091684e+01 -9.565452677259054326e+01 -1.105818920278649955e+02 1.167453879031133681e+02 -4.842077824195438751e+01 1.916028557352964867e+02 5.576480981493497069e+01 1.081569732317047539e+02 1.798145022401334643e+02 8.343219265669370444e+00 -1.211644656087301257e+02 -1.615732378816763912e+02 -1.113033275901766359e+02 4.142094013178514444e+01
-1.295576221211279844e+01 -4.599180673293451704e+00 9.860133936649484099e+01 -2.180788824971090207e+02 1.479862643450100279e+02 6.046818167851609616e+01 1.448649520365558487e+02 -1.229834514049725840e+02 -2.641647202766902680e+00 -2.291605610869094534e+01 -2.089856489724321023e+02 3.115578099518258526e+01 -1.744463047876682893e+01 1.164508210980237664e+02 -1.190984081885575563e+02 5.875785396587802722e+01 1.192907248843916364e+02 -4.375010281978582327e+01 -4.724515138330197317e+01 -2.571951865028455231e+01 5.876235436596658701e+01 6.006608316558252625e+01 3.087365505380978803e+01 -2.213741218077715587e+02 -4.911709252162389561e+01 8.714082224080124206e+01 9.434162148866770181e+00 -9.870322773527357541e+00 -6.333740371853266282e+01 -1.473928247829997851e+01 6.982088960277800993e+01 -1.384293155389984236e+02 -5.896259271272477065e+01 8.549664797499636038e+00 1.975914467172087541e+02 2.018753500688079612e+02 -3.057062613497094361e+01 5.320278031109757677e+01 -2.539189077480968892e-01 -1.329465523205887791e+02 9.136626357240486129e+01 1.020787652594840154e+02 1.033023707950138572e+02 1.112168565053055502e+01 5.891413138880350431e+01 4.580882832721499653e+01 3.701250646433235403e+01 2.793693005681311092e+01 1.049828537995975353e+02 8.540058170375385771e+01 6.243555745545525326e+01 1.551548130026898775e+02 2.358456229176703403e+02 1.861805532603421796e+02 -5.629275948780709626e+01 4.689879882611087680e+01 -6.118605314156756947e+01 5.368870080162660940e+01 -1.829408084377815840e+02 5.378371087764369207e+01 -1.949146732584979986e+02 -1.606061637426431332e+02 1.232633727807994362e+01 -8.809382720760241980e+00 1.613795854302226473e+02 -1.979682306552289788e+02 7.166076900117211324e+01 2.187952400447850607e+02 -7.012493620358498880e+00 -1.854167911524644978e+02 3.384706355503548991e+01 1.877350184426384772e+02 -5.817633810925909899e+01 -2.537552411315263612e+02 -9.765069032296237594e+01 8.453940575838533533e+00 -2.190782469961516767e+02 3.052940379223162637e+01 -1.708878551421094301e+02 -1.767235171644833827e+02 -5.442875570650989658e+01 1.452057614699900228e+02 6.617718749776024367e+01 1.010987959935786051e+01 -8.446101157216456556e+01 -4.059006495544355886e+01 6.073577297499647187e+01 -2.211993768283062707e+02 5.156015007707506470e+01 -7.145126764947715969e+01 -7.446682304528954432e+01 -1.685241016026614318e+02 6.201244707759452979e+01 8.839206458096211350e+01 -1.547466433672909716e+02 1.647322203186354557e+02 -3.802994479751605894e+01 -1.613238302067578900e+01 8.354443964771655828e+01 1.490765441686950226e+02 2.071507607408080887e+01 1.444397668800939982e+02 -1.763576411545416178e+01 -8.651247019784696590e+01 -1.870519300732658152e+01 9.640648565511965273e+01 4.410652207873158659e+01 9.594616976574512535e+01 9.257527147654612065e+01 -8.148165942130928840e+01 -1.666537946315955310e+02 1.206936201540456040e+02 5.320872601782652822e+01 1.589652593660030533e+01 2.999098525232632895e+01 -6.663042176633041436e+01 9.420518955828241303e+01 8.814794895718372914e+01 -1.344598880554572595e+01 -6.990443632727595968e+01 3.014905286530153816e+01 6.162632570370375262e+00 -6.035047991425165037e+01 1.663947956743463408e+02 -3.226432869798278347e+01 1.193441359628572656e+02 -6.880341596750227495e+01 3.767930708770955306e+01 -3.542412017839934180e+01 8.783741582362786460e+01 2.304875859114322978e+01 1.134784427686789314e+02 -1.139143584040484143e+02 7.300466022184245674e+01 1.212562011614847393e+02 -4.390116557218425442e+01 7.487707977595332132e+00 -1.250625239467455430e+01 1.147325672819118410e+02 3.544103565185507954e+00 1.656816770003072747e+02 -1.389449702357366334e+02 1.146343877383911405e+02 -8.972506182535832409e+01 9.413919402143793036e+01 -1.347136654846049737e+02 2.901195658298219371e+01 2.433081254665648530e+01 1.765172370407549041e+00 3.570451020374074602e+01 4.519427955257748408e+01 -1.219495822915781424e+01 1.067724343831013201e+01 1.063086448462062776e+02 1.251598896027160208e+02 -8.527852827186140416e+01 -5.330989446798862730e+01 4.657561442671769214e+01 1.502034965577569547e+00 -1.347730056213130752e+02 -5.423846529012352136e+01 -3.486788441370067204e+01 4.813068406860572424e+01 -6.450729212637509136e+01 2.256131969463698894e+01 1.578925396474076308e+02 -7.823968638918164231e+01 7.958932209124246526e+01 8.280719669144899342e+01 1.108850763918243842e+01 1.216162696846802191e+02 6.196435174237749521e+01 1.656135578414776148e+02 -3.409342584072309990e+01 1.108605848411201436e+02 5.477804523449878360e+01 -1.584624300486622950e+01 2.013475014813496387e+02 -1.369264684094279119e+02 4.824044198453671584e+01 -1.851269393733267066e+02 -8.309068176849510223e+01 4.051489960039275218e+01 -7.130629215513030772e+01 -1.538908502908467995e+02 1.968918739665984958e+02 -8.474248596690659951e+01 -4.692428690301113647e+01 -4.572789381098111505e+01 1.203108571917590410e+02 1.924891481333883121e+02 6.399546906931424672e+01 1.445509059213313492e+02 2.169309582602280955e+02 -1.591154289807615640e+00 1.610216016000217394e+02 7.007546733298664776e+01 1.882210692667903231e+02 -1.243602515476574268e+02 -1.171497317101770363e+01 6.276521636201700893e+00 1.877820704745657565e+02 -8.983951245006973352e+01 -5.981263521461275445e+01 -5.233918671010270174e+01 -1.324745605170459726e+02 4.615518939116433295e+00 -9.978535338475730043e+01 1.523953329325939023e+02 2.328844015251825539e+01 1.186227017620493207e+01 7.148634218233488014e+01 -4.866763836818044808e+00 1.156544704287811669e+02 -1.570650336015303026e+02 4.490324518341289206e+01 -1.688815878913114261e+02 1.160944171723971152e+02 9.498008505683840497e+01 -6.653516271203872634e+01 4.625584403674410794e+01 2.354443000799068670e+02 -3.012160474948589339e+01 4.118274303815502435e+01 -3.230718086161602542e+01 5.728516893921006670e+01 6.354426907285571957e+01 -6.208451131787883881e+00 1.007486687100798406e+02 1.003229662411730487e+02 -1.916572638861391340e+02 -1.514860854873695644e+02 -1.184583892405284331e+02 -9.330062935447298145e+00 -1.480552824678833588e+02 1.142197433113907721e+02 1.090675388042633642e+02 5.831050206437070926e+01 1.103428364980318754e+01 1.558530492408284545e+02 8.298615571274021363e+01 6.672004544468485676e+01 -1.004305052565733689e+02 1.506121072635191354e+02 -3.550658568277476945e+00 1.080638841430196067e+02 8.715828370249017354e+00 3.631067319487507916e+01 -7.479694234330111158e+01 -8.966419795829092720e+01 7.073020342040686614e+01 -3.805630833296446358e+00 1.444548186233125193e+02 -1.241181081300272204e+01 -2.814635322567763165e+00 4.529308991437063980e+01 2.235370687444662252e+01 1.396610801212439128e+02 1.448466089163775905e+01 3.539851817638920295e+01 -1.527333205237090397e+02 6.499035523898585609e+01 1.319276280269469623e+02 -1.739615923786803720e+01 -2.249910985570381285e+02 8.326854434001606364e+01 1.342249622233665889e+02 2.005146383951004196e+01 1.861482635494870124e+02 -4.153464216274055154e+00 4.220299591081057144e+01 -4.290004789245291761e+01 -1.363259361931555702e+02 5.506008713617011807e+01 -4.665670828965775740e+01 -7.960130822513433202e+01 4.048853943701153213e+01 -1.814546107804341375e+02 7.037660049720338407e+01 1.613930865643288826e+02 -9.934169477828176298e+01 1.697426395682026339e+02 -9.577762483808950833e+01 -5.858186811325940546e+00 -1.033142636399312764e+01 7.514107284839919032e+01 -4.568942439662794897e+01 -1.056561440405936025e+02 -8.679951406778020839e+01 1.428379954949113255e+02 5.790284427827851488e+01 -1.290746072094238457e+02 4.336138146590502451e+00 4.251385974490798247e+01 8.082034879429487262e+01 -3.947558167980876931e+01 5.868639859229948286e+01 -6.749308614161840580e+01 -1.588385732977271800e+02 -3.387988451974099036e+01 1.379024226328070029e+02 -1.109150325505005128e+02 -6.260184204303753219e+00 -1.592968322603864237e+02 -4.709699391794752721e+00 -1.426436484757439018e+02 3.219066448412100101e+01 5.884669701646802054e+01 -4.919617204919274656e+01 -8.051843998539024483e+01 5.509523066166761573e+00 7.270301611448329027e+01 -6.621842783187599935e+01 1.315871637598560255e+02 1.030987467238395112e+02 -1.246720941269069840e+02 -1.029913473167474933e+02 1.319004575649229309e+02 6.963229067986672760e+01 1.466239541316500663e+02 9.769587317635087231e+01 7.919274971663658391e+01 -5.880810784833812477e+01 -7.975812725198328224e+01 -7.516248893139888310e+01 1.994281877006861521e+02 2.981190229238337253e+01 -2.428481831092408783e+01 -6.677732679164459739e+01 -4.869352522227744373e+01 -1.278601982851096182e+02 -1.605387824887992565e+01 -1.703503878888560052e+02 1.213883536506719878e+02 4.465306927288695960e+01 -1.118617308619130029e+02 -4.698374358663433270e+01 1.162405295490828792e+02 -9.410519608691450344e+01 9.982147999648316272e+01 -1.149967955068604084e+02 -1.142819263374355288e+01 -9.270056030961629290e+01 8.709475105338205481e+01 -4.122646434046213670e+01 9.986563808853718527e+00 2.847796569390826704e+01 -1.229048414536792819e+02 1.212995979218248088e+01 4.692525530589917793e+01 -2.170726392181119735e+01 -6.670284304275310205e+01 1.965365539971019189e+02 8.388129224791386207e+01 4.570890090505334058e+01 -3.047615596424837392e+01 7.782144132561617766e+01 1.625938825201730538e+02 -8.949133609540713508e+01 2.031982550930108005e+02 -1.291165845836328856e+02 -1.784008257237746875e+02 1.472560311457404509e+02 -2.269430921165129291e+02 -9.359578603112961304e-01 -2.375726352379531932e+02 -1.483036991191542882e+02 6.961056655317031527e+01 -1.412369673217655475e+02 5.661856540511003999e+01 1.066285835400524320e+02 -1.555251166839545363e+02 -2.920325813469201748e+01 7.314420867578914454e+01 1.298890597352480540e+02 -1.805118246143042597e+02 8.485278296977840284e+01 -9.501620707847155245e+01 -9.562287198955161216e+00 -1.344813748111871199e+01 -7.717577986675865986e+01 -8.757916950662973932e+01 1.759118783730353073e+02 -2.104631818299034762e+01 1.303981824729832928e+00 1.263346859740610455e+02 -8.412837769755471129e+01 -3.340374587073472412e+01 -1.044911084981801395e+02 -4.739160699464254378e+01 5.008601684421432054e+00 5.763677908929023630e+01 -1.312168545035644058e+02 2.305160878317873312e+02 -5.239893711658988451e+01 1.192854638451229761e+02 -4.750252521396401306e+01 1.165610131389402824e+02 1.354278355314108637e+02 4.669529957748810745e+01 1.188669360826903727e+02 -4.209336418675609082e+01 1.363163402387116605e+02 -1.524141613031538043e+02 -6.370496606583837007e+01 -6.134843966507573754e+01 2.490324272123595861e+01 -1.581341786993624510e+02 7.068713653607947833e+01 -3.005255178055932674e+01 -8.053193890614744532e+01 8.730619363769834251e+01 -1.472568561458030842e+02 -8.890359602030973463e+01 -5.129694503874158329e+01 3.223525909126342270e+01 1.265128994047029067e+02 1.138757098641108882e+02 6.734997034827615892e+01 -1.536704861309803327e+00 1.704495902453125211e+02 1.194131927000817939e+02 -9.206687550332831904e+01 -7.614070401822324641e+01 5.383804331604875415e+01 9.706146294427670185e+00 9.548452889757319895e+01 1.624736981659817729e+02 6.879459623339565155e+01 2.380304215924821065e+01 -9.960268417515320039e+01 1.673926933661219607e+02 -1.107583603147768372e+02 -1.610287247359271703e+02 6.403365090627313805e+01 1.086177933801031941e+02 1.913594063761626529e+01 -1.352440025412011551e+02 2.894543097454654301e+01 4.130685281354708138e+01 -3.380768361895505891e-01 1.274939346597839034e+02 9.513450131562788670e+01 1.665879615424555737e+01 7.626940495753029836e+01 -1.041310532461126002e+02 -6.177868239009272955e+00 9.571781677545637024e+01 2.889716977269236509e+01 -6.328792259370632678e+01 1.927314353786655090e+02 2.248867777183710928e+02 -1.220964006588531703e+02 -2.687532834253747893e+01 -2.044702884401042695e+02 -7.021480202034993567e+01 1.523030722245704567e+02 3.286825803370266197e+00 -6.904103490372460783e+01 1.592725221476295019e+02 -6.077315834725477828e+01 -1.561744511337582253e+02 1.327791200389929998e+02 -6.533292529575790297e+01 3.353865477433496523e+01 8.393471687578102092e+01 1.340353763031027690e+01 -2.315805978210145213e+02 4.112737318177249080e+01 -5.987411731724029629e+00 8.757709822438117442e+01 -2.290299925976060180e+01 9.827669757653838190e+01 1.650974581023545795e+01 -8.232450470289758471e+01 -1.990557642505791947e+01 -1.702947692888599533e+02 1.117380444968788851e+02 2.456553254499572603e+01 -4.044396107622846870e+01 -5.033961921154043750e+01 -6.112624988893198719e+01 3.995773184897524288e+01 1.561508664951161052e+02 1.289430499156970029e+02 4.183347399552688728e+01 -1.922655192506264257e+02 -3.769667845591009581e+01 4.257949219731563772e+01 1.140064563394783050e+02 8.473130313192393714e+01 1.500501029262693642e+01 -1.807558369956639979e+02 1.279547741060932822e+02 -2.174101711440170845e+02 -1.999801035289006848e+02 -1.782118169133555696e+00 -7.168044015284543491e+01 -2.342702625418146312e+01 8.465352419861568478e+01 5.433507999215319018e+01 -1.080435468551337266e+02 -1.471713453725178624e+02 1.417186356033392691e+01 1.201843327250819300e+02 2.009439635205560037e+01 -5.510239162929995871e+01 -5.017943093925756415e+01 -1.139741258442392180e+01 1.568023652095432112e+02 2.173377340619020259e+01 -1.718194851683215063e+02 1.269379040184784060e+02 -6.610147694430440879e+01 -4.129311208003174194e+00 1.523323680873910746e+02 -5.172431195623457256e+01 -1.937888811635910713e+01 -1.086667936534735048e+02 -5.938335493685960031e+00 -2.359343001349724389e+01 1.302679969951670387e+02 1.187799786299778333e+02 6.685292397938523834e+01 6.473281760522770867e+01 -1.850709387043491461e+01 1.337273257937956998e+02 -1.115479155113707463e+02 -4.211250787512200944e+00 -9.007020932594571150e+01 1.554098599965742267e+02 7.214854861912887429e+01 5.111900361334019749e+01 8.171344843781525924e+00 -5.271992417244990037e+01 3.400965932432004735e+01 6.661012380800330313e+00 3.597649427053275950e+00 2.384397527262456506e+01 5.912545186014633458e+01 1.684038747625255326e+02 -3.842711037763807269e+01 -5.141173084091035150e+01 6.606085985692600104e+01 1.144032364140078215e+02 -1.267323487056320097e+01 9.093783630217563996e+01 1.029335895858042846e+02 2.084660997165143215e+02 -8.559068769190919568e+01 -1.213275915440926838e+02 -2.832694294073484897e+01 6.147029217934755962e+01 -1.003551876601197712e+01 1.062194572274681121e+02 3.682883230762914906e+01 -1.608045705286124871e+02 4.454983573376610195e+01 -8.844884806509466557e+01 -1.337599096837728325e+02 1.329689200691356348e+02 -7.516860274287327570e+01 5.848510532760685265e+01 1.098867633350193955e+02 -9.784857179308788488e+01 2.321614231307409426e+01 -7.128800517464721054e+01 3.979742936787175722e+01 -1.132467902313812402e+02 6.084516554300197555e+01 5.401297089772653948e+01 3.842752146136788838e+00 8.300832506149490087e+01 -1.510040813543298270e+02 7.541870910540502848e+01 -2.892332879591512196e+01 -1.656335798698458746e+02 9.264781223236894903e+01 2.405883410516026188e+01 -1.922917638576194577e+02 2.306618728163350625e+02 -5.252753351901369161e-01 1.031041631960141842e+02 -1.182328360050227047e+02 -1.903918436505880720e+02 -9.148853638970987845e+01 2.442640444257742516e+00 1.400816759985783619e+02 3.903796895121121047e+00 -9.370034199926874408e+01 4.938701732758273266e+01 1.343567410216909082e+02 6.369917865492171671e+01 -5.071670030178028554e+01 -5.798483102949722934e+01 8.284822569578112450e+01 3.012893202876469800e+01 -1.917365524369074308e+02 -2.032511463356879844e+01 1.657143019399308059e+02 9.687220406467690736e+01 -5.620809824656291198e+01 -1.096114067180614740e+02 -4.183799329341375994e+01 -4.713832249226204141e+01 -1.122050282708375022e+02 -1.809456108839479782e+01 -4.476477427287615285e+01 -1.113897958496880136e+02 -1.293217926489010097e+02 -2.641746942131338827e+01 -1.232076624021080136e+02 -1.311918451519321422e+02 -3.758002770805887138e+01 -5.425234178919943417e+01 -1.088409436747841141e+02 1.890801781804637756e+02 1.069102047159492486e+01 -2.857300857170336528e+01 -1.727052294958535938e+01 7.990602428793766876e+01 1.589007610944627835e+01 2.544157824301664306e+01 -2.159615021249452838e+01 -4.699066955232257925e+01 2.124333226955645415e+01 -1.476615154482458365e+02 -1.616939407085760649e+02 -9.182558076454647278e+01 -1.938468585135946967e+02 -9.102460937280136477e+01 8.713138505143584212e+01 6.235189544995288458e+01 -2.646498578091169662e+01 6.172365948079408327e+01 -1.590331379289944493e+02 -4.149677459521492295e+01 -1.179641567726855982e+02 -6.779935798166670224e+01 2.142867278885192093e+02 -2.085149462678409975e+02 2.084927896240750442e+02 2.537166635976105766e+01 -5.734732564269751265e+01 9.367564347996962226e+01 1.260330852104326027e+02 -5.270441288006221470e+01 -2.069540542541241734e+02 -1.514422270670909256e+02 1.038852702535706953e+02 8.507742630860936117e+01 -1.377079028631627011e+02 3.244817153710928181e+01 -4.030188736209308331e+01 -7.861919910982255999e+01 -2.887328530394865211e+01 -5.568367111840087347e+01 -8.779061138018457200e+01 -3.458591098331145730e+01 4.572271153144919609e+00 -3.319802311277024387e+01 -3.884375023477431577e-01 -1.456367148850627125e+01 9.340621156872551012e+01 1.291010663036809660e+02 1.337113520290452939e+01 1.706073252764842607e+01 -6.412079454196567951e+01 -1.991327974834174483e+02 3.438395473785027434e+01 -9.316983708313316015e+01 2.624241702797805686e+01 -8.281164743955429230e+00 1.055136170158452069e+00 7.346158376853520622e+01 1.238064437054773066e+02 -7.158538567643633144e+01 3.859768413401769749e+01 -1.959120371999701717e+02 9.830625404772371567e+00 7.076939559690786474e+00 -1.244876304127326563e+02 -3.425011894805162882e+01 -4.502645643312484225e+01 4.842951119916198977e+00 -1.038587128472739636e+02 2.747960141303906667e+01 -9.918527953844292711e+01 5.697031261206454644e+01 6.892857528982099780e+01 3.747022259766850993e+01 -2.947343240991124702e+01 1.091529404725366987e+02 6.204145108126647301e+01 8.125223167723856932e+01 -6.804621542317805449e+01 2.059204961320797267e+01 1.298693108053541891e+02 -5.938743821833489278e+01 -7.022358232275576206e+00 3.248068566276042191e+01 -1.303824008594347674e+02 9.930732628299777787e+01 9.093701968773760314e+01 -1.026873376873011381e+02 -8.359303021248415178e+01 -5.636321725403499272e+01 -4.627668736958257512e+01 -1.626365068077325589e+02 -1.379295151530487544e+02 -1.344361621604403751e+02 1.072144420967483001e+02 6.066202589745852691e+01 1.618434632237587323e+02 7.305366542101630500e+00 -8.694940973605174861e+01 1.901137051425328650e+01 1.402660162803790911e+01 -6.443235756757627541e+01 7.508901084845284402e+01 1.197057069435746968e+02 1.011560857463646990e+01 1.453617696664103676e+02 2.280994382246647945e+01 1.124660914737147124e+02 1.528875091592256297e+01 -2.105842513703056795e+02 2.213054659149078418e+02 -4.958928099257162359e+01 -1.510747532049864503e+02 -6.807540539512910982e+01 -4.345440159746230080e+01 4.173203395438703467e+01 2.580509058045707249e+01 4.611657099099808477e+01 -7.466962943216354631e+01 1.232878499539265675e+02 -8.688210010155528096e+01 -7.060576614829884967e+00 1.433923842906156096e+02 1.103093116202999653e+02 5.836826064325733654e+01 -1.780514498202217339e+02 2.557258295082091593e+01 1.411334289993347113e+02 2.354632284133309383e+01 9.802561231435460343e+01 1.068617384217479724e+02 -2.122213831350396447e+02 7.718255595441617345e+01 -5.793125121114398723e+01 -2.255337381247728104e+02 8.868890468029222518e+01 2.460521131604538070e+01 -1.216571526595391930e+02 -5.830276453396567859e+01 1.379975207652281313e+02 1.464982438049813993e+02 -7.520714144603546458e+01 -1.265959844644700922e+02 -8.256012766244073475e+01 -1.639509764920612156e+02 1.932484488966532155e+01 3.743368678682040951e+01 -1.673020766257660696e+01 -1.219397093103600582e+01 -8.808478901955247409e+01 -8.685407133738596031e+01 -2.421741807031869342e+01 1.311564488618735425e+02 1.332771044466207115e+02 7.930143203511212846e+01 9.483912403655743617e+01 -7.666372830471136979e+01 -1.760555896713464676e+02 -1.287428817466708786e+01 -2.252976766636921369e+01 -6.910056118940427439e+01 1.451428729622479263e+00 7.107243795255349994e+01 -5.147661646339639674e+01 2.399808595767741792e+01 7.702383690939777239e+01 6.818835795869462402e+01 1.075189496047222946e+02 -1.450997471578165801e+02 3.855574116784899275e+01 8.103689233759220656e+01 9.216986388613032943e+01 5.744671030950156165e+01 -1.004165459609802724e+02 1.331891142968392785e+02 1.239882990156787628e+02 9.322436988563494253e+01 9.875950877790714344e+01 -8.191705088496627241e+01 -1.446028592338111096e+01 -1.258382537229160292e+01 7.494472952211695826e+01 6.319548639205438434e+01 5.446099848553382827e+01 9.490804695807899805e+01 1.133080948571276565e+02 1.205274896961632010e+02 -6.310192678461788773e+01 7.840123294272386545e+01 6.345700590604824498e+01 -1.144470108812460438e+02 1.280127791115875482e+02 -9.758660670683802607e+00 -2.716524643858322108e+01 1.939098621295820806e+02 8.610993972498317817e+01 1.207949938478892875e+02 -1.405106023822193890e+02 -1.536265418951275876e+02 -1.496825718600840105e+02 -1.189762731390212593e+02 -4.313665796550251486e+01 1.069671396394613367e+02 -1.643608226080814347e+02 3.169459838856881362e+01 1.407225348590628187e+02 -5.786958508971372339e+01 -8.908625467710355395e+01 -3.426124440969059748e+01 1.325583942028157196e+02 2.217977982356089797e+02 -6.507077404512887142e+01 1.934647338782297510e+01 -2.703213237522256662e+01 6.687976557805127698e+01 5.883839297637740628e+01 -2.082719164548616959e+02 -8.661676166301083413e+01 1.344216583834209473e+02 1.366010150495660298e+02 9.238536888521201718e+01 -4.869541038306655167e+01 -7.409195976823750129e+01 -4.437711794967789558e+01 -1.726145810676197243e+02 6.956674022321769257e+01 -2.509244413028720899e+01 1.627139579985037017e+02 -2.732191358367964185e+01 -3.077176389886002426e+02 1.417219158637093983e+02 4.917338521654122019e+01 -1.154091943717273665e+02 -2.168467520529106451e+01 3.454843007652127085e+01 -2.032356062105094168e+02 -1.118351560700566125e+02 -1.072883917725611411e+02 -5.521814762761089668e+01 6.146701113888096302e+01 -1.613581306394195565e+02 1.056414766157691503e+02 -5.317840047908131851e+01 2.857226796550615511e+00 -1.306296399102050430e+02 -1.014732092859949830e+02 1.721974410119870527e+02 8.486873007354435572e+01 -4.136173350288761696e+01 3.639606642652847768e+01 -2.747655945812537936e+01 4.238231206181979616e+01 -1.024861604814264808e+02 9.687182204977031574e+01 4.947731578509462480e+01 -1.164976475763684789e+02 1.143991200223975540e+02 -4.813681038921475164e+01 9.790286300115958795e+01 -4.841425194107726071e+01 8.661408695104461231e+01 -1.503498721319122353e+02 1.398826376452229852e+02 2.427655633430891768e+01 9.867032611799312747e+01 1.278585317661829777e+02 -1.437832466315071258e+02 -8.422528382292840377e+01 -1.035789096966448000e+02 6.557577084995827477e+01 -1.680377862183421485e+02 1.485967745675407627e+02 1.396389124953898602e+02 5.196350396074986122e+01 -8.327487488168259233e+01 5.597328963613669828e+01 -1.052789830537593332e+02 -1.073235708279929312e+01 3.431535074355569037e+01 -1.802732658401068875e+02 -8.004310730336878521e+01 -1.328056320954659242e+01 1.002863115307613242e+02 -4.927721320549240147e+01 1.067087978188199315e+02 -6.314010585449563706e+01 -2.069180773126157646e+02 -1.051300685051122485e+02 -3.343024690251180431e+01 -5.908816382295825065e+01 2.954581373496289132e+01 5.047428727894435951e+01 6.228235268646118428e+00 2.489641719234928630e+01 -1.152439766564423422e+02 5.290695495017192940e+01 3.205853218627986223e+01 -7.090389159347832049e+01 9.110592746092187610e+00 5.537479180801705780e+01 -9.375987676192168863e+01 -5.414077220376243815e+01 -2.374520843193528918e+01 9.592299036555075986e+01 -1.684006151314495625e+01 4.123786599598406433e+00 -2.242600781359827806e+02 -9.343912797386920488e+01 9.728661055119923162e+01 -8.771551666087492549e+01 3.081816064616814188e+01 3.054746958641307231e+01 3.729444335237598551e+01 6.499464335930521486e+01 -1.745441110419112931e+02 1.416207271830062666e+02 8.018284304205839419e+01 -7.405227099501110466e+00 -7.949112360763803053e+01 1.100759000366088003e+02 6.109120327251653038e+01 -1.978585811017565277e+02 -4.956654055421637395e+01 -8.038470838408946406e+01 -5.098911694512214154e+01 -6.092787122663000332e+01 -9.744183010676530898e+01 -5.939723124345984928e+01 1.884464583622481655e+02 -1.680355576909103092e+02 6.442998797976889591e+01 2.730204614616170034e+01 -7.398748193196864520e+01 1.022520440843985945e+01 -3.880080768156403792e+01 3.378907446550832194e+00 -9.461803775738275135e+01 -1.944393568753788770e+02 1.810388097397289897e+01 4.124238391282540306e+01 -1.259527505019801019e+01 -8.849657411203258661e+00 -3.915386415997136993e+01 -1.869326904088002550e+02 -3.016029146225870861e+01 -6.433695429098095531e+01 1.373381141207958756e+01 -1.536960200514711872e+01 8.915855695659034552e+01 -6.205388489456778700e+01 -1.020785014786252987e+02 -3.516441828874233977e+01 -8.856223164313172802e+00 4.476713907368977630e+01 -2.178692667571662511e+01 -7.263892211227928897e+01 -1.563264039006221395e+01 1.974507365761921562e+01 4.677081629654509953e+01 -1.122469915345120768e+02 -1.368954650781683142e+02 2.268244801432942381e+02 -2.149529207105564410e+02 -7.478229844468584986e+01 -4.562683315769493930e+01 1.377312738292279164e+02 6.231931446537014807e+01 2.254364977968166670e+02 2.410584958877474264e+02 -6.140829598689482083e+01 1.275059359005238520e+02 -5.515170040420833431e+01 -4.020243006006173658e+01 -9.911880362056059823e+01 -7.864085582000357988e+01 -6.851145870610392308e+01 -8.767409396266693022e+01 -2.401231662746764641e+02 -2.667954136544738049e+02 1.326691361668707145e+02 -2.613851277891874147e+01 5.247070037415462451e+01 1.289340076774780357e+02
