# 
#                 ----------------------------------------------------
#                 Data from a 3D direct N-body simulation. 
# 
#                 rows are i-particle; 
#                 coumns are :mass, tag, x ,y, z, vx, vy, vz, ax, ay, az
# 
#                 NTHU, Computational Physics Lab
# 
#                 ----------------------------------------------------
#                 Time = 7.599999999999882
1.000000000000000000e+00 2.000000000000000000e+00 3.000000000000000000e+00 4.000000000000000000e+00 5.000000000000000000e+00 6.000000000000000000e+00 7.000000000000000000e+00 8.000000000000000000e+00 9.000000000000000000e+00 1.000000000000000000e+01 1.100000000000000000e+01 1.200000000000000000e+01 1.300000000000000000e+01 1.400000000000000000e+01 1.500000000000000000e+01 1.600000000000000000e+01 1.700000000000000000e+01 1.800000000000000000e+01 1.900000000000000000e+01 2.000000000000000000e+01 2.100000000000000000e+01 2.200000000000000000e+01 2.300000000000000000e+01 2.400000000000000000e+01 2.500000000000000000e+01 2.600000000000000000e+01 2.700000000000000000e+01 2.800000000000000000e+01 2.900000000000000000e+01 3.000000000000000000e+01 3.100000000000000000e+01 3.200000000000000000e+01 3.300000000000000000e+01 3.400000000000000000e+01 3.500000000000000000e+01 3.600000000000000000e+01 3.700000000000000000e+01 3.800000000000000000e+01 3.900000000000000000e+01 4.000000000000000000e+01 4.100000000000000000e+01 4.200000000000000000e+01 4.300000000000000000e+01 4.400000000000000000e+01 4.500000000000000000e+01 4.600000000000000000e+01 4.700000000000000000e+01 4.800000000000000000e+01 4.900000000000000000e+01 5.000000000000000000e+01 5.100000000000000000e+01 5.200000000000000000e+01 5.300000000000000000e+01 5.400000000000000000e+01 5.500000000000000000e+01 5.600000000000000000e+01 5.700000000000000000e+01 5.800000000000000000e+01 5.900000000000000000e+01 6.000000000000000000e+01 6.100000000000000000e+01 6.200000000000000000e+01 6.300000000000000000e+01 6.400000000000000000e+01 6.500000000000000000e+01 6.600000000000000000e+01 6.700000000000000000e+01 6.800000000000000000e+01 6.900000000000000000e+01 7.000000000000000000e+01 7.100000000000000000e+01 7.200000000000000000e+01 7.300000000000000000e+01 7.400000000000000000e+01 7.500000000000000000e+01 7.600000000000000000e+01 7.700000000000000000e+01 7.800000000000000000e+01 7.900000000000000000e+01 8.000000000000000000e+01 8.100000000000000000e+01 8.200000000000000000e+01 8.300000000000000000e+01 8.400000000000000000e+01 8.500000000000000000e+01 8.600000000000000000e+01 8.700000000000000000e+01 8.800000000000000000e+01 8.900000000000000000e+01 9.000000000000000000e+01 9.100000000000000000e+01 9.200000000000000000e+01 9.300000000000000000e+01 9.400000000000000000e+01 9.500000000000000000e+01 9.600000000000000000e+01 9.700000000000000000e+01 9.800000000000000000e+01 9.900000000000000000e+01 1.000000000000000000e+02 1.010000000000000000e+02 1.020000000000000000e+02 1.030000000000000000e+02 1.040000000000000000e+02 1.050000000000000000e+02 1.060000000000000000e+02 1.070000000000000000e+02 1.080000000000000000e+02 1.090000000000000000e+02 1.100000000000000000e+02 1.110000000000000000e+02 1.120000000000000000e+02 1.130000000000000000e+02 1.140000000000000000e+02 1.150000000000000000e+02 1.160000000000000000e+02 1.170000000000000000e+02 1.180000000000000000e+02 1.190000000000000000e+02 1.200000000000000000e+02 1.210000000000000000e+02 1.220000000000000000e+02 1.230000000000000000e+02 1.240000000000000000e+02 1.250000000000000000e+02 1.260000000000000000e+02 1.270000000000000000e+02 1.280000000000000000e+02 1.290000000000000000e+02 1.300000000000000000e+02 1.310000000000000000e+02 1.320000000000000000e+02 1.330000000000000000e+02 1.340000000000000000e+02 1.350000000000000000e+02 1.360000000000000000e+02 1.370000000000000000e+02 1.380000000000000000e+02 1.390000000000000000e+02 1.400000000000000000e+02 1.410000000000000000e+02 1.420000000000000000e+02 1.430000000000000000e+02 1.440000000000000000e+02 1.450000000000000000e+02 1.460000000000000000e+02 1.470000000000000000e+02 1.480000000000000000e+02 1.490000000000000000e+02 1.500000000000000000e+02 1.510000000000000000e+02 1.520000000000000000e+02 1.530000000000000000e+02 1.540000000000000000e+02 1.550000000000000000e+02 1.560000000000000000e+02 1.570000000000000000e+02 1.580000000000000000e+02 1.590000000000000000e+02 1.600000000000000000e+02 1.610000000000000000e+02 1.620000000000000000e+02 1.630000000000000000e+02 1.640000000000000000e+02 1.650000000000000000e+02 1.660000000000000000e+02 1.670000000000000000e+02 1.680000000000000000e+02 1.690000000000000000e+02 1.700000000000000000e+02 1.710000000000000000e+02 1.720000000000000000e+02 1.730000000000000000e+02 1.740000000000000000e+02 1.750000000000000000e+02 1.760000000000000000e+02 1.770000000000000000e+02 1.780000000000000000e+02 1.790000000000000000e+02 1.800000000000000000e+02 1.810000000000000000e+02 1.820000000000000000e+02 1.830000000000000000e+02 1.840000000000000000e+02 1.850000000000000000e+02 1.860000000000000000e+02 1.870000000000000000e+02 1.880000000000000000e+02 1.890000000000000000e+02 1.900000000000000000e+02 1.910000000000000000e+02 1.920000000000000000e+02 1.930000000000000000e+02 1.940000000000000000e+02 1.950000000000000000e+02 1.960000000000000000e+02 1.970000000000000000e+02 1.980000000000000000e+02 1.990000000000000000e+02 2.000000000000000000e+02 2.010000000000000000e+02 2.020000000000000000e+02 2.030000000000000000e+02 2.040000000000000000e+02 2.050000000000000000e+02 2.060000000000000000e+02 2.070000000000000000e+02 2.080000000000000000e+02 2.090000000000000000e+02 2.100000000000000000e+02 2.110000000000000000e+02 2.120000000000000000e+02 2.130000000000000000e+02 2.140000000000000000e+02 2.150000000000000000e+02 2.160000000000000000e+02 2.170000000000000000e+02 2.180000000000000000e+02 2.190000000000000000e+02 2.200000000000000000e+02 2.210000000000000000e+02 2.220000000000000000e+02 2.230000000000000000e+02 2.240000000000000000e+02 2.250000000000000000e+02 2.260000000000000000e+02 2.270000000000000000e+02 2.280000000000000000e+02 2.290000000000000000e+02 2.300000000000000000e+02 2.310000000000000000e+02 2.320000000000000000e+02 2.330000000000000000e+02 2.340000000000000000e+02 2.350000000000000000e+02 2.360000000000000000e+02 2.370000000000000000e+02 2.380000000000000000e+02 2.390000000000000000e+02 2.400000000000000000e+02 2.410000000000000000e+02 2.420000000000000000e+02 2.430000000000000000e+02 2.440000000000000000e+02 2.450000000000000000e+02 2.460000000000000000e+02 2.470000000000000000e+02 2.480000000000000000e+02 2.490000000000000000e+02 2.500000000000000000e+02 2.510000000000000000e+02 2.520000000000000000e+02 2.530000000000000000e+02 2.540000000000000000e+02 2.550000000000000000e+02 2.560000000000000000e+02 2.570000000000000000e+02 2.580000000000000000e+02 2.590000000000000000e+02 2.600000000000000000e+02 2.610000000000000000e+02 2.620000000000000000e+02 2.630000000000000000e+02 2.640000000000000000e+02 2.650000000000000000e+02 2.660000000000000000e+02 2.670000000000000000e+02 2.680000000000000000e+02 2.690000000000000000e+02 2.700000000000000000e+02 2.710000000000000000e+02 2.720000000000000000e+02 2.730000000000000000e+02 2.740000000000000000e+02 2.750000000000000000e+02 2.760000000000000000e+02 2.770000000000000000e+02 2.780000000000000000e+02 2.790000000000000000e+02 2.800000000000000000e+02 2.810000000000000000e+02 2.820000000000000000e+02 2.830000000000000000e+02 2.840000000000000000e+02 2.850000000000000000e+02 2.860000000000000000e+02 2.870000000000000000e+02 2.880000000000000000e+02 2.890000000000000000e+02 2.900000000000000000e+02 2.910000000000000000e+02 2.920000000000000000e+02 2.930000000000000000e+02 2.940000000000000000e+02 2.950000000000000000e+02 2.960000000000000000e+02 2.970000000000000000e+02 2.980000000000000000e+02 2.990000000000000000e+02 3.000000000000000000e+02 3.010000000000000000e+02 3.020000000000000000e+02 3.030000000000000000e+02 3.040000000000000000e+02 3.050000000000000000e+02 3.060000000000000000e+02 3.070000000000000000e+02 3.080000000000000000e+02 3.090000000000000000e+02 3.100000000000000000e+02 3.110000000000000000e+02 3.120000000000000000e+02 3.130000000000000000e+02 3.140000000000000000e+02 3.150000000000000000e+02 3.160000000000000000e+02 3.170000000000000000e+02 3.180000000000000000e+02 3.190000000000000000e+02 3.200000000000000000e+02 3.210000000000000000e+02 3.220000000000000000e+02 3.230000000000000000e+02 3.240000000000000000e+02 3.250000000000000000e+02 3.260000000000000000e+02 3.270000000000000000e+02 3.280000000000000000e+02 3.290000000000000000e+02 3.300000000000000000e+02 3.310000000000000000e+02 3.320000000000000000e+02 3.330000000000000000e+02 3.340000000000000000e+02 3.350000000000000000e+02 3.360000000000000000e+02 3.370000000000000000e+02 3.380000000000000000e+02 3.390000000000000000e+02 3.400000000000000000e+02 3.410000000000000000e+02 3.420000000000000000e+02 3.430000000000000000e+02 3.440000000000000000e+02 3.450000000000000000e+02 3.460000000000000000e+02 3.470000000000000000e+02 3.480000000000000000e+02 3.490000000000000000e+02 3.500000000000000000e+02 3.510000000000000000e+02 3.520000000000000000e+02 3.530000000000000000e+02 3.540000000000000000e+02 3.550000000000000000e+02 3.560000000000000000e+02 3.570000000000000000e+02 3.580000000000000000e+02 3.590000000000000000e+02 3.600000000000000000e+02 3.610000000000000000e+02 3.620000000000000000e+02 3.630000000000000000e+02 3.640000000000000000e+02 3.650000000000000000e+02 3.660000000000000000e+02 3.670000000000000000e+02 3.680000000000000000e+02 3.690000000000000000e+02 3.700000000000000000e+02 3.710000000000000000e+02 3.720000000000000000e+02 3.730000000000000000e+02 3.740000000000000000e+02 3.750000000000000000e+02 3.760000000000000000e+02 3.770000000000000000e+02 3.780000000000000000e+02 3.790000000000000000e+02 3.800000000000000000e+02 3.810000000000000000e+02 3.820000000000000000e+02 3.830000000000000000e+02 3.840000000000000000e+02 3.850000000000000000e+02 3.860000000000000000e+02 3.870000000000000000e+02 3.880000000000000000e+02 3.890000000000000000e+02 3.900000000000000000e+02 3.910000000000000000e+02 3.920000000000000000e+02 3.930000000000000000e+02 3.940000000000000000e+02 3.950000000000000000e+02 3.960000000000000000e+02 3.970000000000000000e+02 3.980000000000000000e+02 3.990000000000000000e+02 4.000000000000000000e+02 4.010000000000000000e+02 4.020000000000000000e+02 4.030000000000000000e+02 4.040000000000000000e+02 4.050000000000000000e+02 4.060000000000000000e+02 4.070000000000000000e+02 4.080000000000000000e+02 4.090000000000000000e+02 4.100000000000000000e+02 4.110000000000000000e+02 4.120000000000000000e+02 4.130000000000000000e+02 4.140000000000000000e+02 4.150000000000000000e+02 4.160000000000000000e+02 4.170000000000000000e+02 4.180000000000000000e+02 4.190000000000000000e+02 4.200000000000000000e+02 4.210000000000000000e+02 4.220000000000000000e+02 4.230000000000000000e+02 4.240000000000000000e+02 4.250000000000000000e+02 4.260000000000000000e+02 4.270000000000000000e+02 4.280000000000000000e+02 4.290000000000000000e+02 4.300000000000000000e+02 4.310000000000000000e+02 4.320000000000000000e+02 4.330000000000000000e+02 4.340000000000000000e+02 4.350000000000000000e+02 4.360000000000000000e+02 4.370000000000000000e+02 4.380000000000000000e+02 4.390000000000000000e+02 4.400000000000000000e+02 4.410000000000000000e+02 4.420000000000000000e+02 4.430000000000000000e+02 4.440000000000000000e+02 4.450000000000000000e+02 4.460000000000000000e+02 4.470000000000000000e+02 4.480000000000000000e+02 4.490000000000000000e+02 4.500000000000000000e+02 4.510000000000000000e+02 4.520000000000000000e+02 4.530000000000000000e+02 4.540000000000000000e+02 4.550000000000000000e+02 4.560000000000000000e+02 4.570000000000000000e+02 4.580000000000000000e+02 4.590000000000000000e+02 4.600000000000000000e+02 4.610000000000000000e+02 4.620000000000000000e+02 4.630000000000000000e+02 4.640000000000000000e+02 4.650000000000000000e+02 4.660000000000000000e+02 4.670000000000000000e+02 4.680000000000000000e+02 4.690000000000000000e+02 4.700000000000000000e+02 4.710000000000000000e+02 4.720000000000000000e+02 4.730000000000000000e+02 4.740000000000000000e+02 4.750000000000000000e+02 4.760000000000000000e+02 4.770000000000000000e+02 4.780000000000000000e+02 4.790000000000000000e+02 4.800000000000000000e+02 4.810000000000000000e+02 4.820000000000000000e+02 4.830000000000000000e+02 4.840000000000000000e+02 4.850000000000000000e+02 4.860000000000000000e+02 4.870000000000000000e+02 4.880000000000000000e+02 4.890000000000000000e+02 4.900000000000000000e+02 4.910000000000000000e+02 4.920000000000000000e+02 4.930000000000000000e+02 4.940000000000000000e+02 4.950000000000000000e+02 4.960000000000000000e+02 4.970000000000000000e+02 4.980000000000000000e+02 4.990000000000000000e+02 5.000000000000000000e+02 5.010000000000000000e+02 5.020000000000000000e+02 5.030000000000000000e+02 5.040000000000000000e+02 5.050000000000000000e+02 5.060000000000000000e+02 5.070000000000000000e+02 5.080000000000000000e+02 5.090000000000000000e+02 5.100000000000000000e+02 5.110000000000000000e+02 5.120000000000000000e+02 5.130000000000000000e+02 5.140000000000000000e+02 5.150000000000000000e+02 5.160000000000000000e+02 5.170000000000000000e+02 5.180000000000000000e+02 5.190000000000000000e+02 5.200000000000000000e+02 5.210000000000000000e+02 5.220000000000000000e+02 5.230000000000000000e+02 5.240000000000000000e+02 5.250000000000000000e+02 5.260000000000000000e+02 5.270000000000000000e+02 5.280000000000000000e+02 5.290000000000000000e+02 5.300000000000000000e+02 5.310000000000000000e+02 5.320000000000000000e+02 5.330000000000000000e+02 5.340000000000000000e+02 5.350000000000000000e+02 5.360000000000000000e+02 5.370000000000000000e+02 5.380000000000000000e+02 5.390000000000000000e+02 5.400000000000000000e+02 5.410000000000000000e+02 5.420000000000000000e+02 5.430000000000000000e+02 5.440000000000000000e+02 5.450000000000000000e+02 5.460000000000000000e+02 5.470000000000000000e+02 5.480000000000000000e+02 5.490000000000000000e+02 5.500000000000000000e+02 5.510000000000000000e+02 5.520000000000000000e+02 5.530000000000000000e+02 5.540000000000000000e+02 5.550000000000000000e+02 5.560000000000000000e+02 5.570000000000000000e+02 5.580000000000000000e+02 5.590000000000000000e+02 5.600000000000000000e+02 5.610000000000000000e+02 5.620000000000000000e+02 5.630000000000000000e+02 5.640000000000000000e+02 5.650000000000000000e+02 5.660000000000000000e+02 5.670000000000000000e+02 5.680000000000000000e+02 5.690000000000000000e+02 5.700000000000000000e+02 5.710000000000000000e+02 5.720000000000000000e+02 5.730000000000000000e+02 5.740000000000000000e+02 5.750000000000000000e+02 5.760000000000000000e+02 5.770000000000000000e+02 5.780000000000000000e+02 5.790000000000000000e+02 5.800000000000000000e+02 5.810000000000000000e+02 5.820000000000000000e+02 5.830000000000000000e+02 5.840000000000000000e+02 5.850000000000000000e+02 5.860000000000000000e+02 5.870000000000000000e+02 5.880000000000000000e+02 5.890000000000000000e+02 5.900000000000000000e+02 5.910000000000000000e+02 5.920000000000000000e+02 5.930000000000000000e+02 5.940000000000000000e+02 5.950000000000000000e+02 5.960000000000000000e+02 5.970000000000000000e+02 5.980000000000000000e+02 5.990000000000000000e+02 6.000000000000000000e+02 6.010000000000000000e+02 6.020000000000000000e+02 6.030000000000000000e+02 6.040000000000000000e+02 6.050000000000000000e+02 6.060000000000000000e+02 6.070000000000000000e+02 6.080000000000000000e+02 6.090000000000000000e+02 6.100000000000000000e+02 6.110000000000000000e+02 6.120000000000000000e+02 6.130000000000000000e+02 6.140000000000000000e+02 6.150000000000000000e+02 6.160000000000000000e+02 6.170000000000000000e+02 6.180000000000000000e+02 6.190000000000000000e+02 6.200000000000000000e+02 6.210000000000000000e+02 6.220000000000000000e+02 6.230000000000000000e+02 6.240000000000000000e+02 6.250000000000000000e+02 6.260000000000000000e+02 6.270000000000000000e+02 6.280000000000000000e+02 6.290000000000000000e+02 6.300000000000000000e+02 6.310000000000000000e+02 6.320000000000000000e+02 6.330000000000000000e+02 6.340000000000000000e+02 6.350000000000000000e+02 6.360000000000000000e+02 6.370000000000000000e+02 6.380000000000000000e+02 6.390000000000000000e+02 6.400000000000000000e+02 6.410000000000000000e+02 6.420000000000000000e+02 6.430000000000000000e+02 6.440000000000000000e+02 6.450000000000000000e+02 6.460000000000000000e+02 6.470000000000000000e+02 6.480000000000000000e+02 6.490000000000000000e+02 6.500000000000000000e+02 6.510000000000000000e+02 6.520000000000000000e+02 6.530000000000000000e+02 6.540000000000000000e+02 6.550000000000000000e+02 6.560000000000000000e+02 6.570000000000000000e+02 6.580000000000000000e+02 6.590000000000000000e+02 6.600000000000000000e+02 6.610000000000000000e+02 6.620000000000000000e+02 6.630000000000000000e+02 6.640000000000000000e+02 6.650000000000000000e+02 6.660000000000000000e+02 6.670000000000000000e+02 6.680000000000000000e+02 6.690000000000000000e+02 6.700000000000000000e+02 6.710000000000000000e+02 6.720000000000000000e+02 6.730000000000000000e+02 6.740000000000000000e+02 6.750000000000000000e+02 6.760000000000000000e+02 6.770000000000000000e+02 6.780000000000000000e+02 6.790000000000000000e+02 6.800000000000000000e+02 6.810000000000000000e+02 6.820000000000000000e+02 6.830000000000000000e+02 6.840000000000000000e+02 6.850000000000000000e+02 6.860000000000000000e+02 6.870000000000000000e+02 6.880000000000000000e+02 6.890000000000000000e+02 6.900000000000000000e+02 6.910000000000000000e+02 6.920000000000000000e+02 6.930000000000000000e+02 6.940000000000000000e+02 6.950000000000000000e+02 6.960000000000000000e+02 6.970000000000000000e+02 6.980000000000000000e+02 6.990000000000000000e+02 7.000000000000000000e+02 7.010000000000000000e+02 7.020000000000000000e+02 7.030000000000000000e+02 7.040000000000000000e+02 7.050000000000000000e+02 7.060000000000000000e+02 7.070000000000000000e+02 7.080000000000000000e+02 7.090000000000000000e+02 7.100000000000000000e+02 7.110000000000000000e+02 7.120000000000000000e+02 7.130000000000000000e+02 7.140000000000000000e+02 7.150000000000000000e+02 7.160000000000000000e+02 7.170000000000000000e+02 7.180000000000000000e+02 7.190000000000000000e+02 7.200000000000000000e+02 7.210000000000000000e+02 7.220000000000000000e+02 7.230000000000000000e+02 7.240000000000000000e+02 7.250000000000000000e+02 7.260000000000000000e+02 7.270000000000000000e+02 7.280000000000000000e+02 7.290000000000000000e+02 7.300000000000000000e+02 7.310000000000000000e+02 7.320000000000000000e+02 7.330000000000000000e+02 7.340000000000000000e+02 7.350000000000000000e+02 7.360000000000000000e+02 7.370000000000000000e+02 7.380000000000000000e+02 7.390000000000000000e+02 7.400000000000000000e+02 7.410000000000000000e+02 7.420000000000000000e+02 7.430000000000000000e+02 7.440000000000000000e+02 7.450000000000000000e+02 7.460000000000000000e+02 7.470000000000000000e+02 7.480000000000000000e+02 7.490000000000000000e+02 7.500000000000000000e+02 7.510000000000000000e+02 7.520000000000000000e+02 7.530000000000000000e+02 7.540000000000000000e+02 7.550000000000000000e+02 7.560000000000000000e+02 7.570000000000000000e+02 7.580000000000000000e+02 7.590000000000000000e+02 7.600000000000000000e+02 7.610000000000000000e+02 7.620000000000000000e+02 7.630000000000000000e+02 7.640000000000000000e+02 7.650000000000000000e+02 7.660000000000000000e+02 7.670000000000000000e+02 7.680000000000000000e+02 7.690000000000000000e+02 7.700000000000000000e+02 7.710000000000000000e+02 7.720000000000000000e+02 7.730000000000000000e+02 7.740000000000000000e+02 7.750000000000000000e+02 7.760000000000000000e+02 7.770000000000000000e+02 7.780000000000000000e+02 7.790000000000000000e+02 7.800000000000000000e+02 7.810000000000000000e+02 7.820000000000000000e+02 7.830000000000000000e+02 7.840000000000000000e+02 7.850000000000000000e+02 7.860000000000000000e+02 7.870000000000000000e+02 7.880000000000000000e+02 7.890000000000000000e+02 7.900000000000000000e+02 7.910000000000000000e+02 7.920000000000000000e+02 7.930000000000000000e+02 7.940000000000000000e+02 7.950000000000000000e+02 7.960000000000000000e+02 7.970000000000000000e+02 7.980000000000000000e+02 7.990000000000000000e+02 8.000000000000000000e+02 8.010000000000000000e+02 8.020000000000000000e+02 8.030000000000000000e+02 8.040000000000000000e+02 8.050000000000000000e+02 8.060000000000000000e+02 8.070000000000000000e+02 8.080000000000000000e+02 8.090000000000000000e+02 8.100000000000000000e+02 8.110000000000000000e+02 8.120000000000000000e+02 8.130000000000000000e+02 8.140000000000000000e+02 8.150000000000000000e+02 8.160000000000000000e+02 8.170000000000000000e+02 8.180000000000000000e+02 8.190000000000000000e+02 8.200000000000000000e+02 8.210000000000000000e+02 8.220000000000000000e+02 8.230000000000000000e+02 8.240000000000000000e+02 8.250000000000000000e+02 8.260000000000000000e+02 8.270000000000000000e+02 8.280000000000000000e+02 8.290000000000000000e+02 8.300000000000000000e+02 8.310000000000000000e+02 8.320000000000000000e+02 8.330000000000000000e+02 8.340000000000000000e+02 8.350000000000000000e+02 8.360000000000000000e+02 8.370000000000000000e+02 8.380000000000000000e+02 8.390000000000000000e+02 8.400000000000000000e+02 8.410000000000000000e+02 8.420000000000000000e+02 8.430000000000000000e+02 8.440000000000000000e+02 8.450000000000000000e+02 8.460000000000000000e+02 8.470000000000000000e+02 8.480000000000000000e+02 8.490000000000000000e+02 8.500000000000000000e+02 8.510000000000000000e+02 8.520000000000000000e+02 8.530000000000000000e+02 8.540000000000000000e+02 8.550000000000000000e+02 8.560000000000000000e+02 8.570000000000000000e+02 8.580000000000000000e+02 8.590000000000000000e+02 8.600000000000000000e+02 8.610000000000000000e+02 8.620000000000000000e+02 8.630000000000000000e+02 8.640000000000000000e+02 8.650000000000000000e+02 8.660000000000000000e+02 8.670000000000000000e+02 8.680000000000000000e+02 8.690000000000000000e+02 8.700000000000000000e+02 8.710000000000000000e+02 8.720000000000000000e+02 8.730000000000000000e+02 8.740000000000000000e+02 8.750000000000000000e+02 8.760000000000000000e+02 8.770000000000000000e+02 8.780000000000000000e+02 8.790000000000000000e+02 8.800000000000000000e+02 8.810000000000000000e+02 8.820000000000000000e+02 8.830000000000000000e+02 8.840000000000000000e+02 8.850000000000000000e+02 8.860000000000000000e+02 8.870000000000000000e+02 8.880000000000000000e+02 8.890000000000000000e+02 8.900000000000000000e+02 8.910000000000000000e+02 8.920000000000000000e+02 8.930000000000000000e+02 8.940000000000000000e+02 8.950000000000000000e+02 8.960000000000000000e+02 8.970000000000000000e+02 8.980000000000000000e+02 8.990000000000000000e+02 9.000000000000000000e+02 9.010000000000000000e+02 9.020000000000000000e+02 9.030000000000000000e+02 9.040000000000000000e+02 9.050000000000000000e+02 9.060000000000000000e+02 9.070000000000000000e+02 9.080000000000000000e+02 9.090000000000000000e+02 9.100000000000000000e+02 9.110000000000000000e+02 9.120000000000000000e+02 9.130000000000000000e+02 9.140000000000000000e+02 9.150000000000000000e+02 9.160000000000000000e+02 9.170000000000000000e+02 9.180000000000000000e+02 9.190000000000000000e+02 9.200000000000000000e+02 9.210000000000000000e+02 9.220000000000000000e+02 9.230000000000000000e+02 9.240000000000000000e+02 9.250000000000000000e+02 9.260000000000000000e+02 9.270000000000000000e+02 9.280000000000000000e+02 9.290000000000000000e+02 9.300000000000000000e+02 9.310000000000000000e+02 9.320000000000000000e+02 9.330000000000000000e+02 9.340000000000000000e+02 9.350000000000000000e+02 9.360000000000000000e+02 9.370000000000000000e+02 9.380000000000000000e+02 9.390000000000000000e+02 9.400000000000000000e+02 9.410000000000000000e+02 9.420000000000000000e+02 9.430000000000000000e+02 9.440000000000000000e+02 9.450000000000000000e+02 9.460000000000000000e+02 9.470000000000000000e+02 9.480000000000000000e+02 9.490000000000000000e+02 9.500000000000000000e+02 9.510000000000000000e+02 9.520000000000000000e+02 9.530000000000000000e+02 9.540000000000000000e+02 9.550000000000000000e+02 9.560000000000000000e+02 9.570000000000000000e+02 9.580000000000000000e+02 9.590000000000000000e+02 9.600000000000000000e+02 9.610000000000000000e+02 9.620000000000000000e+02 9.630000000000000000e+02 9.640000000000000000e+02 9.650000000000000000e+02 9.660000000000000000e+02 9.670000000000000000e+02 9.680000000000000000e+02 9.690000000000000000e+02 9.700000000000000000e+02 9.710000000000000000e+02 9.720000000000000000e+02 9.730000000000000000e+02 9.740000000000000000e+02 9.750000000000000000e+02 9.760000000000000000e+02 9.770000000000000000e+02 9.780000000000000000e+02 9.790000000000000000e+02 9.800000000000000000e+02 9.810000000000000000e+02 9.820000000000000000e+02 9.830000000000000000e+02 9.840000000000000000e+02 9.850000000000000000e+02 9.860000000000000000e+02 9.870000000000000000e+02 9.880000000000000000e+02 9.890000000000000000e+02 9.900000000000000000e+02 9.910000000000000000e+02 9.920000000000000000e+02 9.930000000000000000e+02 9.940000000000000000e+02 9.950000000000000000e+02 9.960000000000000000e+02 9.970000000000000000e+02 9.980000000000000000e+02 9.990000000000000000e+02 1.000000000000000000e+03
1.000000000000000021e-02 1.000000000000000021e-02 1.000000000000000021e-02 1.000000000000000021e-02 1.000000000000000021e-02 1.000000000000000021e-02 1.000000000000000021e-02 1.000000000000000021e-02 1.000000000000000021e-02 1.000000000000000021e-02 1.000000000000000021e-02 1.000000000000000021e-02 1.000000000000000021e-02 1.000000000000000021e-02 1.000000000000000021e-02 1.000000000000000021e-02 1.000000000000000021e-02 1.000000000000000021e-02 1.000000000000000021e-02 1.000000000000000021e-02 1.000000000000000021e-02 1.000000000000000021e-02 1.000000000000000021e-02 1.000000000000000021e-02 1.000000000000000021e-02 1.000000000000000021e-02 1.000000000000000021e-02 1.000000000000000021e-02 1.000000000000000021e-02 1.000000000000000021e-02 1.000000000000000021e-02 1.000000000000000021e-02 1.000000000000000021e-02 1.000000000000000021e-02 1.000000000000000021e-02 1.000000000000000021e-02 1.000000000000000021e-02 1.000000000000000021e-02 1.000000000000000021e-02 1.000000000000000021e-02 1.000000000000000021e-02 1.000000000000000021e-02 1.000000000000000021e-02 1.000000000000000021e-02 1.000000000000000021e-02 1.000000000000000021e-02 1.000000000000000021e-02 1.000000000000000021e-02 1.000000000000000021e-02 1.000000000000000021e-02 1.000000000000000021e-02 1.000000000000000021e-02 1.000000000000000021e-02 1.000000000000000021e-02 1.000000000000000021e-02 1.000000000000000021e-02 1.000000000000000021e-02 1.000000000000000021e-02 1.000000000000000021e-02 1.000000000000000021e-02 1.000000000000000021e-02 1.000000000000000021e-02 1.000000000000000021e-02 1.000000000000000021e-02 1.000000000000000021e-02 1.000000000000000021e-02 1.000000000000000021e-02 1.000000000000000021e-02 1.000000000000000021e-02 1.000000000000000021e-02 1.000000000000000021e-02 1.000000000000000021e-02 1.000000000000000021e-02 1.000000000000000021e-02 1.000000000000000021e-02 1.000000000000000021e-02 1.000000000000000021e-02 1.000000000000000021e-02 1.000000000000000021e-02 1.000000000000000021e-02 1.000000000000000021e-02 1.000000000000000021e-02 1.000000000000000021e-02 1.000000000000000021e-02 1.000000000000000021e-02 1.000000000000000021e-02 1.000000000000000021e-02 1.000000000000000021e-02 1.000000000000000021e-02 1.000000000000000021e-02 1.000000000000000021e-02 1.000000000000000021e-02 1.000000000000000021e-02 1.000000000000000021e-02 1.000000000000000021e-02 1.000000000000000021e-02 1.000000000000000021e-02 1.000000000000000021e-02 1.000000000000000021e-02 1.000000000000000021e-02 1.000000000000000021e-02 1.000000000000000021e-02 1.000000000000000021e-02 1.000000000000000021e-02 1.000000000000000021e-02 1.000000000000000021e-02 1.000000000000000021e-02 1.000000000000000021e-02 1.000000000000000021e-02 1.000000000000000021e-02 1.000000000000000021e-02 1.000000000000000021e-02 1.000000000000000021e-02 1.000000000000000021e-02 1.000000000000000021e-02 1.000000000000000021e-02 1.000000000000000021e-02 1.000000000000000021e-02 1.000000000000000021e-02 1.000000000000000021e-02 1.000000000000000021e-02 1.000000000000000021e-02 1.000000000000000021e-02 1.000000000000000021e-02 1.000000000000000021e-02 1.000000000000000021e-02 1.000000000000000021e-02 1.000000000000000021e-02 1.000000000000000021e-02 1.000000000000000021e-02 1.000000000000000021e-02 1.000000000000000021e-02 1.000000000000000021e-02 1.000000000000000021e-02 1.000000000000000021e-02 1.000000000000000021e-02 1.000000000000000021e-02 1.000000000000000021e-02 1.000000000000000021e-02 1.000000000000000021e-02 1.000000000000000021e-02 1.000000000000000021e-02 1.000000000000000021e-02 1.000000000000000021e-02 1.000000000000000021e-02 1.000000000000000021e-02 1.000000000000000021e-02 1.000000000000000021e-02 1.000000000000000021e-02 1.000000000000000021e-02 1.000000000000000021e-02 1.000000000000000021e-02 1.000000000000000021e-02 1.000000000000000021e-02 1.000000000000000021e-02 1.000000000000000021e-02 1.000000000000000021e-02 1.000000000000000021e-02 1.000000000000000021e-02 1.000000000000000021e-02 1.000000000000000021e-02 1.000000000000000021e-02 1.000000000000000021e-02 1.000000000000000021e-02 1.000000000000000021e-02 1.000000000000000021e-02 1.000000000000000021e-02 1.000000000000000021e-02 1.000000000000000021e-02 1.000000000000000021e-02 1.000000000000000021e-02 1.000000000000000021e-02 1.000000000000000021e-02 1.000000000000000021e-02 1.000000000000000021e-02 1.000000000000000021e-02 1.000000000000000021e-02 1.000000000000000021e-02 1.000000000000000021e-02 1.000000000000000021e-02 1.000000000000000021e-02 1.000000000000000021e-02 1.000000000000000021e-02 1.000000000000000021e-02 1.000000000000000021e-02 1.000000000000000021e-02 1.000000000000000021e-02 1.000000000000000021e-02 1.000000000000000021e-02 1.000000000000000021e-02 1.000000000000000021e-02 1.000000000000000021e-02 1.000000000000000021e-02 1.000000000000000021e-02 1.000000000000000021e-02 1.000000000000000021e-02 1.000000000000000021e-02 1.000000000000000021e-02 1.000000000000000021e-02 1.000000000000000021e-02 1.000000000000000021e-02 1.000000000000000021e-02 1.000000000000000021e-02 1.000000000000000021e-02 1.000000000000000021e-02 1.000000000000000021e-02 1.000000000000000021e-02 1.000000000000000021e-02 1.000000000000000021e-02 1.000000000000000021e-02 1.000000000000000021e-02 1.000000000000000021e-02 1.000000000000000021e-02 1.000000000000000021e-02 1.000000000000000021e-02 1.000000000000000021e-02 1.000000000000000021e-02 1.000000000000000021e-02 1.000000000000000021e-02 1.000000000000000021e-02 1.000000000000000021e-02 1.000000000000000021e-02 1.000000000000000021e-02 1.000000000000000021e-02 1.000000000000000021e-02 1.000000000000000021e-02 1.000000000000000021e-02 1.000000000000000021e-02 1.000000000000000021e-02 1.000000000000000021e-02 1.000000000000000021e-02 1.000000000000000021e-02 1.000000000000000021e-02 1.000000000000000021e-02 1.000000000000000021e-02 1.000000000000000021e-02 1.000000000000000021e-02 1.000000000000000021e-02 1.000000000000000021e-02 1.000000000000000021e-02 1.000000000000000021e-02 1.000000000000000021e-02 1.000000000000000021e-02 1.000000000000000021e-02 1.000000000000000021e-02 1.000000000000000021e-02 1.000000000000000021e-02 1.000000000000000021e-02 1.000000000000000021e-02 1.000000000000000021e-02 1.000000000000000021e-02 1.000000000000000021e-02 1.000000000000000021e-02 1.000000000000000021e-02 1.000000000000000021e-02 1.000000000000000021e-02 1.000000000000000021e-02 1.000000000000000021e-02 1.000000000000000021e-02 1.000000000000000021e-02 1.000000000000000021e-02 1.000000000000000021e-02 1.000000000000000021e-02 1.000000000000000021e-02 1.000000000000000021e-02 1.000000000000000021e-02 1.000000000000000021e-02 1.000000000000000021e-02 1.000000000000000021e-02 1.000000000000000021e-02 1.000000000000000021e-02 1.000000000000000021e-02 1.000000000000000021e-02 1.000000000000000021e-02 1.000000000000000021e-02 1.000000000000000021e-02 1.000000000000000021e-02 1.000000000000000021e-02 1.000000000000000021e-02 1.000000000000000021e-02 1.000000000000000021e-02 1.000000000000000021e-02 1.000000000000000021e-02 1.000000000000000021e-02 1.000000000000000021e-02 1.000000000000000021e-02 1.000000000000000021e-02 1.000000000000000021e-02 1.000000000000000021e-02 1.000000000000000021e-02 1.000000000000000021e-02 1.000000000000000021e-02 1.000000000000000021e-02 1.000000000000000021e-02 1.000000000000000021e-02 1.000000000000000021e-02 1.000000000000000021e-02 1.000000000000000021e-02 1.000000000000000021e-02 1.000000000000000021e-02 1.000000000000000021e-02 1.000000000000000021e-02 1.000000000000000021e-02 1.000000000000000021e-02 1.000000000000000021e-02 1.000000000000000021e-02 1.000000000000000021e-02 1.000000000000000021e-02 1.000000000000000021e-02 1.000000000000000021e-02 1.000000000000000021e-02 1.000000000000000021e-02 1.000000000000000021e-02 1.000000000000000021e-02 1.000000000000000021e-02 1.000000000000000021e-02 1.000000000000000021e-02 1.000000000000000021e-02 1.000000000000000021e-02 1.000000000000000021e-02 1.000000000000000021e-02 1.000000000000000021e-02 1.000000000000000021e-02 1.000000000000000021e-02 1.000000000000000021e-02 1.000000000000000021e-02 1.000000000000000021e-02 1.000000000000000021e-02 1.000000000000000021e-02 1.000000000000000021e-02 1.000000000000000021e-02 1.000000000000000021e-02 1.000000000000000021e-02 1.000000000000000021e-02 1.000000000000000021e-02 1.000000000000000021e-02 1.000000000000000021e-02 1.000000000000000021e-02 1.000000000000000021e-02 1.000000000000000021e-02 1.000000000000000021e-02 1.000000000000000021e-02 1.000000000000000021e-02 1.000000000000000021e-02 1.000000000000000021e-02 1.000000000000000021e-02 1.000000000000000021e-02 1.000000000000000021e-02 1.000000000000000021e-02 1.000000000000000021e-02 1.000000000000000021e-02 1.000000000000000021e-02 1.000000000000000021e-02 1.000000000000000021e-02 1.000000000000000021e-02 1.000000000000000021e-02 1.000000000000000021e-02 1.000000000000000021e-02 1.000000000000000021e-02 1.000000000000000021e-02 1.000000000000000021e-02 1.000000000000000021e-02 1.000000000000000021e-02 1.000000000000000021e-02 1.000000000000000021e-02 1.000000000000000021e-02 1.000000000000000021e-02 1.000000000000000021e-02 1.000000000000000021e-02 1.000000000000000021e-02 1.000000000000000021e-02 1.000000000000000021e-02 1.000000000000000021e-02 1.000000000000000021e-02 1.000000000000000021e-02 1.000000000000000021e-02 1.000000000000000021e-02 1.000000000000000021e-02 1.000000000000000021e-02 1.000000000000000021e-02 1.000000000000000021e-02 1.000000000000000021e-02 1.000000000000000021e-02 1.000000000000000021e-02 1.000000000000000021e-02 1.000000000000000021e-02 1.000000000000000021e-02 1.000000000000000021e-02 1.000000000000000021e-02 1.000000000000000021e-02 1.000000000000000021e-02 1.000000000000000021e-02 1.000000000000000021e-02 1.000000000000000021e-02 1.000000000000000021e-02 1.000000000000000021e-02 1.000000000000000021e-02 1.000000000000000021e-02 1.000000000000000021e-02 1.000000000000000021e-02 1.000000000000000021e-02 1.000000000000000021e-02 1.000000000000000021e-02 1.000000000000000021e-02 1.000000000000000021e-02 1.000000000000000021e-02 1.000000000000000021e-02 1.000000000000000021e-02 1.000000000000000021e-02 1.000000000000000021e-02 1.000000000000000021e-02 1.000000000000000021e-02 1.000000000000000021e-02 1.000000000000000021e-02 1.000000000000000021e-02 1.000000000000000021e-02 1.000000000000000021e-02 1.000000000000000021e-02 1.000000000000000021e-02 1.000000000000000021e-02 1.000000000000000021e-02 1.000000000000000021e-02 1.000000000000000021e-02 1.000000000000000021e-02 1.000000000000000021e-02 1.000000000000000021e-02 1.000000000000000021e-02 1.000000000000000021e-02 1.000000000000000021e-02 1.000000000000000021e-02 1.000000000000000021e-02 1.000000000000000021e-02 1.000000000000000021e-02 1.000000000000000021e-02 1.000000000000000021e-02 1.000000000000000021e-02 1.000000000000000021e-02 1.000000000000000021e-02 1.000000000000000021e-02 1.000000000000000021e-02 1.000000000000000021e-02 1.000000000000000021e-02 1.000000000000000021e-02 1.000000000000000021e-02 1.000000000000000021e-02 1.000000000000000021e-02 1.000000000000000021e-02 1.000000000000000021e-02 1.000000000000000021e-02 1.000000000000000021e-02 1.000000000000000021e-02 1.000000000000000021e-02 1.000000000000000021e-02 1.000000000000000021e-02 1.000000000000000021e-02 1.000000000000000021e-02 1.000000000000000021e-02 1.000000000000000021e-02 1.000000000000000021e-02 1.000000000000000021e-02 1.000000000000000021e-02 1.000000000000000021e-02 1.000000000000000021e-02 1.000000000000000021e-02 1.000000000000000021e-02 1.000000000000000021e-02 1.000000000000000021e-02 1.000000000000000021e-02 1.000000000000000021e-02 1.000000000000000021e-02 1.000000000000000021e-02 1.000000000000000021e-02 1.000000000000000021e-02 1.000000000000000021e-02 1.000000000000000021e-02 1.000000000000000021e-02 1.000000000000000021e-02 1.000000000000000021e-02 1.000000000000000021e-02 1.000000000000000021e-02 1.000000000000000021e-02 1.000000000000000021e-02 1.000000000000000021e-02 1.000000000000000021e-02 1.000000000000000021e-02 1.000000000000000021e-02 1.000000000000000021e-02 1.000000000000000021e-02 1.000000000000000021e-02 1.000000000000000021e-02 1.000000000000000021e-02 1.000000000000000021e-02 1.000000000000000021e-02 1.000000000000000021e-02 1.000000000000000021e-02 1.000000000000000021e-02 1.000000000000000021e-02 1.000000000000000021e-02 1.000000000000000021e-02 1.000000000000000021e-02 1.000000000000000021e-02 1.000000000000000021e-02 1.000000000000000021e-02 1.000000000000000021e-02 1.000000000000000021e-02 1.000000000000000021e-02 1.000000000000000021e-02 1.000000000000000021e-02 1.000000000000000021e-02 1.000000000000000021e-02 1.000000000000000021e-02 1.000000000000000021e-02 1.000000000000000021e-02 1.000000000000000021e-02 1.000000000000000021e-02 1.000000000000000021e-02 1.000000000000000021e-02 1.000000000000000021e-02 1.000000000000000021e-02 1.000000000000000021e-02 1.000000000000000021e-02 1.000000000000000021e-02 1.000000000000000021e-02 1.000000000000000021e-02 1.000000000000000021e-02 1.000000000000000021e-02 1.000000000000000021e-02 1.000000000000000021e-02 1.000000000000000021e-02 1.000000000000000021e-02 1.000000000000000021e-02 1.000000000000000021e-02 1.000000000000000021e-02 1.000000000000000021e-02 1.000000000000000021e-02 1.000000000000000021e-02 1.000000000000000021e-02 1.000000000000000021e-02 1.000000000000000021e-02 1.000000000000000021e-02 1.000000000000000021e-02 1.000000000000000021e-02 1.000000000000000021e-02 1.000000000000000021e-02 1.000000000000000021e-02 1.000000000000000021e-02 1.000000000000000021e-02 1.000000000000000021e-02 1.000000000000000021e-02 1.000000000000000021e-02 1.000000000000000021e-02 1.000000000000000021e-02 1.000000000000000021e-02 1.000000000000000021e-02 1.000000000000000021e-02 1.000000000000000021e-02 1.000000000000000021e-02 1.000000000000000021e-02 1.000000000000000021e-02 1.000000000000000021e-02 1.000000000000000021e-02 1.000000000000000021e-02 1.000000000000000021e-02 1.000000000000000021e-02 1.000000000000000021e-02 1.000000000000000021e-02 1.000000000000000021e-02 1.000000000000000021e-02 1.000000000000000021e-02 1.000000000000000021e-02 1.000000000000000021e-02 1.000000000000000021e-02 1.000000000000000021e-02 1.000000000000000021e-02 1.000000000000000021e-02 1.000000000000000021e-02 1.000000000000000021e-02 1.000000000000000021e-02 1.000000000000000021e-02 1.000000000000000021e-02 1.000000000000000021e-02 1.000000000000000021e-02 1.000000000000000021e-02 1.000000000000000021e-02 1.000000000000000021e-02 1.000000000000000021e-02 1.000000000000000021e-02 1.000000000000000021e-02 1.000000000000000021e-02 1.000000000000000021e-02 1.000000000000000021e-02 1.000000000000000021e-02 1.000000000000000021e-02 1.000000000000000021e-02 1.000000000000000021e-02 1.000000000000000021e-02 1.000000000000000021e-02 1.000000000000000021e-02 1.000000000000000021e-02 1.000000000000000021e-02 1.000000000000000021e-02 1.000000000000000021e-02 1.000000000000000021e-02 1.000000000000000021e-02 1.000000000000000021e-02 1.000000000000000021e-02 1.000000000000000021e-02 1.000000000000000021e-02 1.000000000000000021e-02 1.000000000000000021e-02 1.000000000000000021e-02 1.000000000000000021e-02 1.000000000000000021e-02 1.000000000000000021e-02 1.000000000000000021e-02 1.000000000000000021e-02 1.000000000000000021e-02 1.000000000000000021e-02 1.000000000000000021e-02 1.000000000000000021e-02 1.000000000000000021e-02 1.000000000000000021e-02 1.000000000000000021e-02 1.000000000000000021e-02 1.000000000000000021e-02 1.000000000000000021e-02 1.000000000000000021e-02 1.000000000000000021e-02 1.000000000000000021e-02 1.000000000000000021e-02 1.000000000000000021e-02 1.000000000000000021e-02 1.000000000000000021e-02 1.000000000000000021e-02 1.000000000000000021e-02 1.000000000000000021e-02 1.000000000000000021e-02 1.000000000000000021e-02 1.000000000000000021e-02 1.000000000000000021e-02 1.000000000000000021e-02 1.000000000000000021e-02 1.000000000000000021e-02 1.000000000000000021e-02 1.000000000000000021e-02 1.000000000000000021e-02 1.000000000000000021e-02 1.000000000000000021e-02 1.000000000000000021e-02 1.000000000000000021e-02 1.000000000000000021e-02 1.000000000000000021e-02 1.000000000000000021e-02 1.000000000000000021e-02 1.000000000000000021e-02 1.000000000000000021e-02 1.000000000000000021e-02 1.000000000000000021e-02 1.000000000000000021e-02 1.000000000000000021e-02 1.000000000000000021e-02 1.000000000000000021e-02 1.000000000000000021e-02 1.000000000000000021e-02 1.000000000000000021e-02 1.000000000000000021e-02 1.000000000000000021e-02 1.000000000000000021e-02 1.000000000000000021e-02 1.000000000000000021e-02 1.000000000000000021e-02 1.000000000000000021e-02 1.000000000000000021e-02 1.000000000000000021e-02 1.000000000000000021e-02 1.000000000000000021e-02 1.000000000000000021e-02 1.000000000000000021e-02 1.000000000000000021e-02 1.000000000000000021e-02 1.000000000000000021e-02 1.000000000000000021e-02 1.000000000000000021e-02 1.000000000000000021e-02 1.000000000000000021e-02 1.000000000000000021e-02 1.000000000000000021e-02 1.000000000000000021e-02 1.000000000000000021e-02 1.000000000000000021e-02 1.000000000000000021e-02 1.000000000000000021e-02 1.000000000000000021e-02 1.000000000000000021e-02 1.000000000000000021e-02 1.000000000000000021e-02 1.000000000000000021e-02 1.000000000000000021e-02 1.000000000000000021e-02 1.000000000000000021e-02 1.000000000000000021e-02 1.000000000000000021e-02 1.000000000000000021e-02 1.000000000000000021e-02 1.000000000000000021e-02 1.000000000000000021e-02 1.000000000000000021e-02 1.000000000000000021e-02 1.000000000000000021e-02 1.000000000000000021e-02 1.000000000000000021e-02 1.000000000000000021e-02 1.000000000000000021e-02 1.000000000000000021e-02 1.000000000000000021e-02 1.000000000000000021e-02 1.000000000000000021e-02 1.000000000000000021e-02 1.000000000000000021e-02 1.000000000000000021e-02 1.000000000000000021e-02 1.000000000000000021e-02 1.000000000000000021e-02 1.000000000000000021e-02 1.000000000000000021e-02 1.000000000000000021e-02 1.000000000000000021e-02 1.000000000000000021e-02 1.000000000000000021e-02 1.000000000000000021e-02 1.000000000000000021e-02 1.000000000000000021e-02 1.000000000000000021e-02 1.000000000000000021e-02 1.000000000000000021e-02 1.000000000000000021e-02 1.000000000000000021e-02 1.000000000000000021e-02 1.000000000000000021e-02 1.000000000000000021e-02 1.000000000000000021e-02 1.000000000000000021e-02 1.000000000000000021e-02 1.000000000000000021e-02 1.000000000000000021e-02 1.000000000000000021e-02 1.000000000000000021e-02 1.000000000000000021e-02 1.000000000000000021e-02 1.000000000000000021e-02 1.000000000000000021e-02 1.000000000000000021e-02 1.000000000000000021e-02 1.000000000000000021e-02 1.000000000000000021e-02 1.000000000000000021e-02 1.000000000000000021e-02 1.000000000000000021e-02 1.000000000000000021e-02 1.000000000000000021e-02 1.000000000000000021e-02 1.000000000000000021e-02 1.000000000000000021e-02 1.000000000000000021e-02 1.000000000000000021e-02 1.000000000000000021e-02 1.000000000000000021e-02 1.000000000000000021e-02 1.000000000000000021e-02 1.000000000000000021e-02 1.000000000000000021e-02 1.000000000000000021e-02 1.000000000000000021e-02 1.000000000000000021e-02 1.000000000000000021e-02 1.000000000000000021e-02 1.000000000000000021e-02 1.000000000000000021e-02 1.000000000000000021e-02 1.000000000000000021e-02 1.000000000000000021e-02 1.000000000000000021e-02 1.000000000000000021e-02 1.000000000000000021e-02 1.000000000000000021e-02 1.000000000000000021e-02 1.000000000000000021e-02 1.000000000000000021e-02 1.000000000000000021e-02 1.000000000000000021e-02 1.000000000000000021e-02 1.000000000000000021e-02 1.000000000000000021e-02 1.000000000000000021e-02 1.000000000000000021e-02 1.000000000000000021e-02 1.000000000000000021e-02 1.000000000000000021e-02 1.000000000000000021e-02 1.000000000000000021e-02 1.000000000000000021e-02 1.000000000000000021e-02 1.000000000000000021e-02 1.000000000000000021e-02 1.000000000000000021e-02 1.000000000000000021e-02 1.000000000000000021e-02 1.000000000000000021e-02 1.000000000000000021e-02 1.000000000000000021e-02 1.000000000000000021e-02 1.000000000000000021e-02 1.000000000000000021e-02 1.000000000000000021e-02 1.000000000000000021e-02 1.000000000000000021e-02 1.000000000000000021e-02 1.000000000000000021e-02 1.000000000000000021e-02 1.000000000000000021e-02 1.000000000000000021e-02 1.000000000000000021e-02 1.000000000000000021e-02 1.000000000000000021e-02 1.000000000000000021e-02 1.000000000000000021e-02 1.000000000000000021e-02 1.000000000000000021e-02 1.000000000000000021e-02 1.000000000000000021e-02 1.000000000000000021e-02 1.000000000000000021e-02 1.000000000000000021e-02 1.000000000000000021e-02 1.000000000000000021e-02 1.000000000000000021e-02 1.000000000000000021e-02 1.000000000000000021e-02 1.000000000000000021e-02 1.000000000000000021e-02 1.000000000000000021e-02 1.000000000000000021e-02 1.000000000000000021e-02 1.000000000000000021e-02 1.000000000000000021e-02 1.000000000000000021e-02 1.000000000000000021e-02 1.000000000000000021e-02 1.000000000000000021e-02 1.000000000000000021e-02 1.000000000000000021e-02 1.000000000000000021e-02 1.000000000000000021e-02 1.000000000000000021e-02 1.000000000000000021e-02 1.000000000000000021e-02 1.000000000000000021e-02 1.000000000000000021e-02 1.000000000000000021e-02 1.000000000000000021e-02 1.000000000000000021e-02 1.000000000000000021e-02 1.000000000000000021e-02 1.000000000000000021e-02 1.000000000000000021e-02 1.000000000000000021e-02 1.000000000000000021e-02 1.000000000000000021e-02 1.000000000000000021e-02 1.000000000000000021e-02 1.000000000000000021e-02 1.000000000000000021e-02 1.000000000000000021e-02 1.000000000000000021e-02 1.000000000000000021e-02 1.000000000000000021e-02 1.000000000000000021e-02 1.000000000000000021e-02 1.000000000000000021e-02 1.000000000000000021e-02 1.000000000000000021e-02 1.000000000000000021e-02 1.000000000000000021e-02 1.000000000000000021e-02 1.000000000000000021e-02 1.000000000000000021e-02 1.000000000000000021e-02 1.000000000000000021e-02 1.000000000000000021e-02 1.000000000000000021e-02 1.000000000000000021e-02 1.000000000000000021e-02 1.000000000000000021e-02 1.000000000000000021e-02 1.000000000000000021e-02 1.000000000000000021e-02 1.000000000000000021e-02 1.000000000000000021e-02 1.000000000000000021e-02 1.000000000000000021e-02 1.000000000000000021e-02 1.000000000000000021e-02 1.000000000000000021e-02 1.000000000000000021e-02 1.000000000000000021e-02 1.000000000000000021e-02 1.000000000000000021e-02 1.000000000000000021e-02 1.000000000000000021e-02 1.000000000000000021e-02 1.000000000000000021e-02 1.000000000000000021e-02 1.000000000000000021e-02 1.000000000000000021e-02 1.000000000000000021e-02 1.000000000000000021e-02 1.000000000000000021e-02 1.000000000000000021e-02 1.000000000000000021e-02 1.000000000000000021e-02 1.000000000000000021e-02 1.000000000000000021e-02 1.000000000000000021e-02 1.000000000000000021e-02 1.000000000000000021e-02 1.000000000000000021e-02 1.000000000000000021e-02 1.000000000000000021e-02 1.000000000000000021e-02 1.000000000000000021e-02 1.000000000000000021e-02 1.000000000000000021e-02 1.000000000000000021e-02 1.000000000000000021e-02 1.000000000000000021e-02 1.000000000000000021e-02 1.000000000000000021e-02 1.000000000000000021e-02 1.000000000000000021e-02 1.000000000000000021e-02 1.000000000000000021e-02 1.000000000000000021e-02 1.000000000000000021e-02 1.000000000000000021e-02 1.000000000000000021e-02 1.000000000000000021e-02 1.000000000000000021e-02 1.000000000000000021e-02 1.000000000000000021e-02 1.000000000000000021e-02 1.000000000000000021e-02 1.000000000000000021e-02 1.000000000000000021e-02 1.000000000000000021e-02 1.000000000000000021e-02 1.000000000000000021e-02 1.000000000000000021e-02 1.000000000000000021e-02 1.000000000000000021e-02 1.000000000000000021e-02 1.000000000000000021e-02 1.000000000000000021e-02 1.000000000000000021e-02 1.000000000000000021e-02 1.000000000000000021e-02 1.000000000000000021e-02 1.000000000000000021e-02 1.000000000000000021e-02 1.000000000000000021e-02 1.000000000000000021e-02 1.000000000000000021e-02 1.000000000000000021e-02 1.000000000000000021e-02 1.000000000000000021e-02 1.000000000000000021e-02 1.000000000000000021e-02 1.000000000000000021e-02 1.000000000000000021e-02 1.000000000000000021e-02 1.000000000000000021e-02 1.000000000000000021e-02 1.000000000000000021e-02 1.000000000000000021e-02 1.000000000000000021e-02 1.000000000000000021e-02 1.000000000000000021e-02 1.000000000000000021e-02 1.000000000000000021e-02 1.000000000000000021e-02 1.000000000000000021e-02 1.000000000000000021e-02 1.000000000000000021e-02 1.000000000000000021e-02 1.000000000000000021e-02 1.000000000000000021e-02 1.000000000000000021e-02 1.000000000000000021e-02 1.000000000000000021e-02 1.000000000000000021e-02 1.000000000000000021e-02
-1.138066569773129117e+02 1.729185013898191983e+02 4.013974879419436093e+01 -9.025619504075773847e+00 -8.962586537072697013e+01 -1.365847742821825683e+01 -2.120031450626642595e+02 6.900387524795968952e-01 -8.642195149967501777e+01 -1.426051712925382198e+01 -2.021620349504489056e+01 6.630599876748196841e+00 -1.815927044395803769e+00 1.711230480333101127e+02 8.629517216957400194e+01 -3.952879817274470042e+01 -5.381363735036970297e+01 8.079156807091938219e+01 3.346898104483614134e+01 -2.586611180458725912e+01 -8.042675645828494169e+01 -7.528965149737319962e+01 -1.408863564829237092e+01 2.950850121870400145e+01 -1.988031897588923584e+02 -1.007102172370596520e+02 -2.660363738762968566e+01 2.056570688348392082e+02 7.217145975835833838e+01 7.822644812510333168e+01 8.188555768068957263e+01 1.211080276312320514e+00 -8.075954203398417519e+01 2.115242890171456054e+02 -2.496786105351356468e+02 5.996696699278822251e+01 -1.225706745032132545e+02 -3.536525029662488606e+01 4.111172183378034362e+00 1.292327181085607890e+02 -1.253605412871746978e+02 -1.393729323637254325e+01 7.891694463766364720e+01 1.770463093411094349e+02 7.279478296558691852e+01 -6.980822217394621987e+01 4.207629547095666567e+01 -2.893747414955507935e+01 -6.738227452905505288e+01 1.597197649534386699e+02 -7.201849789605122965e+01 -5.316784817008879571e+01 -1.420683957262507420e+02 5.828616290870816563e+00 -5.155923232328849792e+01 3.943057776450623209e+01 -9.049769782358595194e+01 -5.106932941716998897e+01 -1.034357714147366067e+02 -1.585472956703005991e+02 1.986802437973114976e+01 4.623758143348800331e+01 -1.255839991930814250e+02 1.312031709116807932e+01 -8.090420134471607128e+01 5.010080053146818813e+01 1.699344402280818542e+02 -1.471457595358849062e+02 -4.419096706791155071e+01 7.324580633459398804e+00 2.981850157636134480e+00 4.322593255938021883e+01 8.567028714100653985e+01 9.411109256973376747e-01 -8.957166144900174487e+00 -7.144727278397979831e+01 7.984528477240556299e+01 -3.345494086231201436e+01 2.681447800853334584e+01 1.060996758586498601e+02 9.001837501351639048e+01 -4.360569777162654503e+01 5.899466571490057021e+01 1.504100856089607703e+02 1.185427020621308429e+02 -4.120734795275574847e+00 1.777337153828664498e+02 -1.137562851542524811e+02 4.303151926709840147e+00 -4.278314917386369842e+01 2.110192296070353848e+02 -2.165098793529305254e+01 2.928926855610524349e+00 -7.833120736618954538e+01 -7.272080075067195004e+00 -6.515055139490070246e+01 6.912871937720319693e+01 -9.645161279314926617e+01 6.992154664924227347e+01 -4.869846529259780965e+01 -5.077618242518531133e+01 -9.350496962025449932e+01 5.418122029630788461e+01 -5.584163264541916050e+01 -1.523523377235072189e+02 -8.108619880313847261e+01 -1.067345787512120268e+02 -1.604089728618316428e+02 1.386990539407046015e+02 -2.807936219396991007e+01 3.267028992019601930e+01 9.148133216567288173e+01 -1.061955198223143384e+02 5.813377603592101650e+01 -4.420048335389247285e+01 -7.069598474885249573e+01 -9.188150122757465965e+01 2.074200017419716175e+02 -5.789396271354264911e+01 -5.047832863731440511e+01 -4.819223173919906600e+01 8.203344166791018210e+01 -4.223858798756582900e+01 1.407965304955176293e+02 -5.085562464260512172e+01 5.618731377440173702e+01 4.633751947205390742e+00 -8.281024850468109832e+01 7.022972706233272788e+01 2.829964168482632090e+02 -9.386735479754315747e+01 4.846789549865309965e+01 -7.776424469218731872e+01 4.615231940631376517e+01 1.338532151481150549e+02 -5.240416183592204646e+01 1.487468566294871763e+01 -2.746354178461219320e+01 -1.040096236923502886e+02 -1.762374191310846783e+01 4.349121536182411596e+00 -7.985828639920876881e+00 -1.526670527815195655e+01 1.206823019824318948e+02 1.330107931108410639e+02 1.902812565558684241e+02 -3.105710442350568314e+02 3.900621857872058484e+01 -1.606797140181296868e+01 -6.365105168188451046e+01 1.840864005655356834e+02 7.782449476657025400e+01 -2.619074222617158387e+00 -1.184047676834920111e+02 -1.114315695770133807e+01 1.021960370661309980e+02 -1.372529767506391636e+02 -1.722137487073720195e+02 1.096320869808989862e+01 4.334546423521383929e+01 -6.231406941422268631e+01 4.293450819097309079e+01 -1.093879456943077031e+02 -1.545971262811036979e+02 2.158039879453180276e+01 4.963682792409589695e+01 4.900469857053033174e+00 -8.533445617047033238e+01 -9.565356137543399484e+01 -8.620465536569790288e+01 -8.948834098140842741e+01 1.289889575234304964e+01 5.811941219569870043e+01 1.191254657203161997e+02 8.124350782909925783e+01 9.154328899510817052e+01 1.099006226284648875e+02 -7.652604649393418867e+01 -8.443758787501458585e+01 7.216911552481441561e+01 7.004581068164783630e+01 6.063466151943397620e+01 -9.619927688920974163e+00 -9.326613142637253873e+01 5.528608007484787379e+01 -1.833071127805256708e+02 6.879886497195982997e+01 -4.565820853637846710e+01 -9.885380098066009680e+01 7.606758870019997687e+01 -1.755609822440615631e+01 -7.911266685236444118e+01 -5.895712004115024740e+01 -9.376299334986569534e+00 2.489926329056764018e+02 7.882362464088845400e+01 5.628440737618780787e+01 -1.066874302645434653e+02 1.522471209270077566e+02 1.063409441242867848e+00 -9.286597949540968955e+01 1.600766099744214443e+02 -1.584217182150870826e+02 1.621360747925193024e+01 -3.347325265094326596e+01 -2.284217537729659568e+02 -1.386974465493672142e+02 -9.069303653582350933e+01 -3.041935294130389522e+01 -1.239705966520262876e+02 5.994954909800139120e+01 6.755029698057086307e+01 -2.865042418040028949e+01 -1.036501763633087734e+02 1.175725795953703710e+02 1.229126001977082723e+02 4.805024870674454718e+01 1.814502188758695311e+01 2.717626477206617892e+02 4.542314187918796620e+01 -1.241804801504853941e+02 -4.684807546069099971e+01 -1.756654421900592240e+02 3.315460027324560599e+01 1.595301074760608913e+02 -1.544201420855889921e+02 1.370812098490479514e+02 -9.466383730526014517e+01 -1.966173582706452549e+01 -7.667732114582409553e-01 5.501268866553716208e+01 -1.208606856977645272e+01 -2.371479123746953377e+01 -1.970940947351077099e+01 -1.318729540699413292e+02 4.834187084981184768e+01 -3.161940668312520231e+01 -1.353254151156375862e+01 -1.115353816787551011e+01 2.353017031997246136e+02 1.813946369078123269e+02 2.422616258535479403e+02 1.372631540084931601e+02 -9.016380877922415493e+01 7.832741597473207662e+01 2.198342881317857334e+01 4.959119212039150426e+01 -4.139994845400618573e+01 2.660697746695823867e+02 -2.426323660603636867e+01 -1.424354591668127057e+02 -1.558609183855127078e+01 -4.773673982442073793e+01 -8.065205143936441345e+01 4.497026124450136564e+01 -1.220473256617381352e+01 1.895496673190097852e+02 9.631232901426903936e+01 4.260899295131653730e+01 1.021732001130358185e+02 9.844587038554919900e+01 -2.395861190227649828e+01 1.455297425850122011e+02 2.759505258902428793e+01 9.334860564855839016e+01 4.965684556970317942e+01 7.231806704507717676e+00 -1.206738901186201929e+02 -1.207261372022634731e+02 -9.382281683459589772e+01 -1.623673632574201520e+01 9.035415977457357428e+01 -3.197001406369803078e+01 1.030861225093610329e+02 4.566059041670102658e+01 -7.581002320713160714e+01 -3.124544483425146879e+01 -6.108666164872308002e+01 1.830653311559682805e+01 -4.830977620872935319e+01 -1.168006213401466624e+02 1.267019713625736159e+02 1.264818786803809445e+02 -8.228953396930251074e+01 5.697350703343803779e+00 -4.722849736958526989e+01 -3.401064731926889095e+01 -1.182395395566979879e+01 -3.253847256957235601e+01 4.632244683387518336e+01 -1.464672849366024536e+02 -5.506350581600568006e+01 -1.583088498463506255e+02 1.814602915813208881e+02 -2.109962065794089980e+01 6.143119327348288294e+01 1.243619103283430150e+01 1.504391106749970675e+02 4.652137876938314776e+01 3.723421692017436158e+01 1.607468200774824538e+02 -5.130540967044571943e+01 -1.016134095704084501e+02 2.827095981678314374e+01 -1.645085241652950572e+02 -5.558622218996429609e+01 1.064754296199226644e+02 -1.329651308504576548e+02 -3.785139313557067453e+01 9.501844281573191608e+01 -9.834970847377424263e+01 -9.315406078973806814e+01 -8.601235234580504141e+01 -6.643398797710224812e+01 2.591053585472784562e+02 2.061923936074163919e+02 1.071686851453299880e+02 -1.063152267891627218e+02 7.787464825658648238e+01 -6.876661196493981265e+01 -3.245100518382380272e+01 1.726026180148581091e+01 -3.345251273481744647e+01 -9.746777907002157804e+01 -2.812929787153714667e+00 1.538835077505142657e+01 1.130166797160263030e+02 -1.334804204662565326e+02 4.349046864292231618e+01 6.621104664313293142e+01 3.588752038339568884e+01 -9.407369153440411935e+01 -1.541461425437759090e+02 2.005543732256285239e+02 -1.849251699900208479e+01 2.614075382763230238e+01 1.623843530835136733e+02 2.766811261428574653e+01 2.878238683015814914e+01 -4.618112972956858897e+01 9.186609784488581454e+01 -1.413806246414206669e+02 -3.194522647559627515e+01 -6.359136075706404156e+00 -5.537792108108110511e+01 6.393843119986438062e+00 2.209248843013834218e+01 -3.709023872174085312e+01 1.416262536629738200e+01 2.214498276325961683e+02 -2.837454994249630857e+01 -2.896795236287732678e+01 -1.053180495102770635e+02 -1.716970942818170309e+00 -8.365875305173969423e+01 6.641603346222284543e+00 1.160746357263514170e+02 -5.389259347848371817e+01 6.267878574455507668e+00 -5.626597097227450206e+01 3.455964623812056047e+00 9.031986454133426889e+01 -1.199784259589807931e+02 -1.002410431888810933e+02 -1.061895774148648570e+02 7.393522329390287950e+01 8.963049085285321382e+01 -9.558547416847693512e+01 6.481092981904245676e+01 2.672155026362019115e+01 4.005532382549244375e+01 -1.838745331022728635e+01 9.455792378556272126e+01 8.255502768825800786e+01 -8.001248408699100878e+01 1.228545247564771437e+01 8.375720307607024040e+01 7.543567204477075450e+01 -2.057445215533829241e+01 2.586989298528529702e+01 -1.372513460422379410e+02 5.021359555342843350e+01 -3.391642532080738448e+01 -3.378641775435308858e+01 1.792704620306458878e+02 4.911240776618883785e+01 1.244443619192385455e+02 1.976425529138748232e+02 -1.425333959363196925e+02 1.542873029228809685e+02 -6.559567173056152001e+01 -1.398662417263538771e+02 8.521066195513880359e+01 -1.387910879116365663e+02 -2.970739625330632450e+01 5.840463800765044766e+01 8.379770680733910737e+00 -1.739817530843544660e+02 8.716468284095222430e+01 2.609249877228881687e+01 7.152240187524866144e+01 3.753680568568825038e+01 9.810313941835133278e+00 -6.947061431875756909e+01 1.198029145956118668e+02 5.639211979692503007e+01 -6.430430346289884369e+01 -1.047834509893318966e+02 4.032541147290528727e+01 2.655029905405316626e+01 8.526160513029500976e+01 1.901442132868163242e+02 -2.550640505327239538e+01 -1.139925128382085546e+02 -8.772055816651261750e+01 -5.311728264492859353e+01 -4.595019322214291435e+01 -1.518689570395063697e+02 -2.327794797563690565e+01 1.340000731921890349e+02 7.715429960681770183e+01 -1.266455662866774929e+02 -1.550388539429700359e+02 -7.049353107642845373e+01 -7.905230709714999193e+01 1.518424255830452694e+02 -1.763928546746759594e+02 8.953444252069398601e+01 -4.769012174668069370e+00 -4.451398166362486819e+01 1.377598005065098796e+01 9.436355644328837400e+01 5.133975637384754975e+01 1.430149363474991731e+02 -1.646603920568387878e+02 -8.378705477530108681e+01 2.620417576940963400e+01 4.339658989339816486e+01 2.133236235910776202e+02 1.504938581429395583e+02 6.778725098801490390e+01 7.460871134256284165e+01 -3.544455614152432332e+01 1.571126468902564852e+02 -1.855262453520313670e+02 -6.558343331064371284e+01 -5.555070634596732049e+01 -5.359031061453001854e+01 -1.068806753358491761e+02 -1.549733925168242266e+01 -7.102660721108094322e+01 7.365794188263515707e+01 -9.487287856267041519e+00 -6.013331866656027103e+01 -6.448998042251925256e+01 1.864300625860723244e+02 6.101382240058072881e+01 -1.416320999145699311e+01 2.160914359863748189e+02 -1.120560735016004799e+02 -3.656222642383308141e+01 6.926492273655293275e+01 -1.311719358360656507e-01 1.543974808005711985e+01 -1.293448668575172462e+02 1.822457181517471554e+02 -5.069647463568641399e+01 -2.788977121792498082e+01 -1.134677049267733366e+02 1.301476514957174970e+02 9.917731292688193889e+01 -8.016848527474651576e+01 -3.881735411452847728e+01 4.024836586749135137e+01 -1.565269607472652638e+02 -1.330545668254803915e-01 -7.721778761409132130e+01 7.972625174053117547e+00 -1.117612090860215659e+02 -1.638429817507006021e+02 -7.303356866959266824e+01 1.530948339687637656e+02 5.848316159964692673e+01 -9.257453835830318667e+01 9.214386758496583241e+01 3.538426586412127506e+01 9.118615004079518371e+01 -4.349451743570121209e+01 -8.685759702927076376e+01 1.765895859617781980e+02 4.302890484150546513e+01 2.989863421819379496e+01 -7.538143317232233187e+01 -4.367325866208566509e+01 9.881055811670458766e+00 -7.383235883048667958e+00 -1.783525715825859379e+02 -3.570113521620611863e+01 6.647571913122477838e+01 1.151740238093779567e+02 1.606200817200742108e+02 -1.367946375369530188e+01 9.243208208730339948e+01 1.626348875567354924e+02 6.540688707616850195e+01 1.524044678788543479e+02 1.655796011821336577e+01 1.353324171640381621e+02 -8.650706428896931754e+01 5.500141167271496556e+01 3.024333418613976576e+01 7.815454999122408708e+01 -1.093740000895022604e+02 2.038741987883879290e+02 -1.326165455109425011e+02 9.087034218292032506e+01 -1.105896332858127380e+02 4.746478540289010795e+01 1.419194036146646987e+01 9.331717370002378686e+01 -7.578575856452361847e+01 -7.765229046975481708e+01 -1.149231579968987305e+01 9.158948689873230364e+01 -3.040767389360787121e+01 -1.676843082704762367e+01 -2.017477992239876627e+01 4.867973000467491929e+00 1.008092044397645424e+02 -6.426295834453424050e+01 -2.791614631646756717e+00 -1.987845128204199341e+02 1.249253577135767443e+02 -1.278840627026453944e+02 -7.567121508555298703e+01 -2.411957937538745966e+01 -1.105186036591632188e+02 -5.444615859780839173e+01 -5.996806933136323181e+01 -2.013220479545821107e+01 1.395493251033640831e+02 5.535578920197686159e+01 1.028480943484738788e+02 -1.393548187097138680e+02 -1.419052969460262261e+02 -2.933568097963333798e+02 1.045785195708973561e+02 1.067880698289532688e+02 4.327522767088701272e+01 -4.341905569188210734e+01 -3.812657498453830129e+01 -1.880293797313089499e+02 1.496616240566525278e+02 -1.100068551127553889e+02 1.095314854647960487e+02 -1.630694313657739087e+02 -1.464878540686954445e+01 -5.670991817015158176e+01 -1.221211638226078406e+02 -4.720586299568991961e+01 -1.277451274879503806e+01 -9.488877119014981076e+01 -1.060170311781441796e+02 -1.265100211111622208e+01 7.293490482793110630e+01 -1.276662081533438595e+02 -1.605661505431509894e+01 -7.555454728720289381e+01 -1.346196975949278283e+02 6.858754224914372699e+00 9.753100489393574435e+01 1.695523729217585469e+02 -1.954651011919181869e+01 -4.719312521538392247e+01 -1.271892728812466089e+02 -1.675952316008770993e+02 1.063230504611802587e+02 -7.455289160670268700e+01 8.099313736001519715e+01 9.640517850977154524e+00 2.999350197421695796e+01 7.570121156344141866e+01 -8.683891866907701740e+01 8.473290060282330671e+01 1.181661397826814692e+02 1.613617987098766662e+02 -1.195459040713309804e+02 1.065583075112566149e+02 -4.896079665791132385e+01 -9.308653278112473117e+01 2.199706661871583435e+02 5.051582311165008576e+01 8.557754651709431926e+01 2.184957270778235028e+01 -6.475437428706277387e+01 -3.582264507555159838e+01 -2.156925087344584426e+02 1.082998761693362439e+02 8.357982553285090432e+01 -7.761946305150809167e+01 -7.502210792872074308e+01 1.488788429192551632e+02 1.036275402358543403e+02 5.240659261312411843e+01 7.802076821095637627e+01 -8.114663773574225303e+00 1.058178873793213768e+02 -1.061457201105318688e+02 1.911566444283940314e+02 -4.048469851461201330e+01 -1.250791950447597713e+02 -3.860685078838368156e+01 7.356974109400245254e+01 1.510916639085116913e+02 1.327505792515027672e+01 1.782410721135261724e+02 5.354155045088522513e+01 3.446258505470270705e+01 -1.141575187429040312e+02 4.596532983585007770e+01 -1.282382799923560697e+02 4.889744025435277308e+01 3.964659374940254111e+01 -1.264679973521235326e+02 -8.719904842485587437e+01 4.084056011012275178e+01 8.948711068737475571e+00 -2.383786667430979378e+01 4.290916524248815733e+01 -2.194244033944022476e+01 -6.470124026803243567e+01 -2.678289317986683216e+01 -2.304231026329612320e+01 -4.084831611846792043e+01 1.926361144934487868e+01 -8.253058619562585818e+01 1.219877315765192805e+02 -7.624154767505196162e+01 -4.422247334884492176e+00 6.715783315961461142e+01 4.006802639127997168e+00 1.634296861678701163e+01 1.635886758335079705e+01 -1.201306855514829834e+02 -4.535671180579145201e+00 6.671330706614999428e+01 -2.373378245566176190e+02 -8.699909763354186509e+01 -1.156073906345352498e+02 4.490046907086032490e+01 9.867610406021221081e+01 -9.407517112302062401e+01 -1.721602148188306955e+02 -1.898304922520991340e+02 2.048691988877218506e+01 -1.486172965112959332e+02 -6.474654366132998717e+00 1.512744907450074834e+02 -7.298689485350654316e+00 3.806215047984437660e+01 -1.013121926874986372e+02 8.170995421656265023e+01 -1.212753488778020170e+02 -1.574637650925046195e+01 -3.100039570289865765e+01 5.882819184511722455e+01 -9.088870570925642767e+00 1.079474172143539903e+02 -1.246154937723769933e+02 -5.112122008275752449e+01 8.828495956726295901e+01 6.748558511918419356e+01 -8.401415402125032017e+01 -5.546259236236139856e+01 -5.030635690063308374e+01 -2.949038847305430409e+02 1.971887800101384869e+02 7.755273102704364874e+01 -2.405033210121175458e+01 -3.020381551388219421e+01 4.228234490456101469e+01 -8.568916303810581780e+01 1.013168933853957299e+02 6.149634264532521399e+01 8.346854852712762352e+01 -8.553787052819961900e+01 -2.704471643798964209e+01 3.392492629697626683e+01 1.767305560107328688e+01 -4.351297375415073532e+01 1.604787653602709270e+02 -1.758136007744664653e+01 3.594881924459460976e+01 -2.334897909487735035e+02 -8.605339745499054516e+01 -7.433602113578602655e+01 2.337757211468252905e+01 1.109076929176676600e+02 -2.352700501431320390e+02 -1.899490710488623790e+02 2.251384673198449775e+02 -1.073596404610733579e+01 9.757763872471473121e+01 6.371975067292516570e+01 -5.624039767916458032e+01 -1.330376936180389293e+02 -9.663935933237087283e+01 -5.104813743364783107e+01 -3.802884996795558692e+01 -3.976060975253784591e+01 1.643671790472712146e+01 3.769782627678207376e+01 1.693805911637241763e+02 1.250869102007666100e+02 7.017825704574783607e+00 -4.445470862089591080e+00 -1.612714713427124877e+02 1.214997355004997530e+02 1.617972603626807881e+02 -1.049988572285012225e+02 7.487598494539574290e+01 1.821654201663353678e+00 5.572572312459664801e+01 1.273988404016617153e+02 7.204005001051990575e+01 -1.360917370960699770e+02 1.640840951218390487e+01 -2.984146463616821165e+01 1.131116590405960132e+01 -2.355223901017784272e+01 4.607514059815200369e+01 -2.646232676151271335e+02 1.841116756169193707e+02 7.447438736402954618e+00 1.620237837374298522e+02 -1.074769849317586079e+01 1.079575702520010765e+02 7.283178700324835120e+01 -4.272928215547334929e+01 3.038942446314696255e+01 -7.402616825163892145e+01 -9.049575954196130567e+01 -7.334645769435422835e+01 -3.260867078898061777e+01 4.598908598678179516e+01 1.121487515660127343e+02 2.902089762785827887e+01 6.319825624109817852e+01 -1.067211067503606898e+02 -1.396500467986224407e+02 -1.373281088785396697e+01 4.727154675921393334e+01 -4.638617615983549314e+01 9.628571236455033500e+01 5.654845736282243962e+01 -2.817709362430926490e+01 3.052099831229116234e+01 6.252397391701742180e+01 -7.349752322060794540e+01 -1.362808250012933513e+02 1.448275348577247428e+02 7.967924476323796412e+00 5.112441475131470980e+01 -1.522172185395036479e+02 -5.446205709293222696e+01 -4.821985731479744852e-01 -6.701497894996468574e+01 4.362891797255608495e+00 5.742152823953829710e+01 1.902519855446352892e+02 3.992992562552797153e+01 -1.119369009466290699e+01 7.369003596523927513e+01 -4.644775639144550183e+01 -1.112871272852462710e+02 -1.411529409013616885e+02 9.579537691446450509e+00 2.565643648570064528e+01 2.429932079554559010e+01 -5.812323322824184402e+01 1.235027481865526937e+02 -8.264109357747267381e+01 1.312010907333444720e+02 8.926850151124973820e+01 -6.651856967373987573e+01 -8.659599705201677011e+01 8.611636926749920917e+01 2.097118070484459196e+01 -5.369200481137063719e+01 -5.510617416617833442e+01 1.398505321353562749e+02 5.863908738367886997e+01 8.175629419053905167e+01 2.676703144484231700e+01 -4.309991854238849385e+01 1.100668354649241110e+02 -5.588070095737528931e+01 5.376331038345253388e-01 7.845383040831643484e+01 1.020227319696987394e+02 2.617496456451750646e+02 -1.794753262174551480e+02 1.649703900421711182e+02 -6.931333015628669614e+01 -1.560601774837159894e+01 -2.566889289969103771e+01 -2.126445530852393162e+01 -5.661696536959975390e+01 9.532702686665957970e+01 1.889189701444284424e+02 -1.219628574018365583e+02 3.175947033814568599e+01 -1.303375552894558211e+02 7.210819304330917134e+01 -4.573829255577689423e+01 -8.322866985113930127e+01 -5.539141224003391528e+01 4.233974053377630042e+01 1.995682752513745228e+01 -8.418294497582581926e+01 -1.452149516525779802e+02 2.139236111245108773e+01 1.623377487808828903e+02 1.471687479067807303e+01 1.880459342808136114e+02 7.698217247951027353e+00 1.387812741159879693e+02 -3.568324205289685835e+01 9.355085310985155900e+01 -7.371189429482912203e+01 -1.165179318808285416e+02 5.102673072664774878e+01 -5.990853320992835762e+01 -8.107960643161133873e+01 7.532521074205385503e+01 6.645478375010125838e+00 -9.746394265693452041e+01 -1.556050850402627930e+02 1.529091795640471219e+02 -9.222519037428375555e+01 -2.411339060369773524e+00 1.242355030102340834e+02 6.007235607367105956e+01 -1.016406358988834882e+02 1.098314197388081759e+01 2.920635547064439379e+02 5.524441459332053483e+01 -1.634331998726685811e+02 -4.943693688353040017e+01 -6.378824938978831938e+01 9.992794295841020968e+00 1.115222414110105262e+02 -1.072896943588601602e+02 2.235381825348409990e+01 1.353809019388079946e+02 1.948478041084359447e+01 -2.192038330192631577e+02 5.019343254995219183e+01 7.833387520617242217e+01 -1.408183191537681545e+01 3.405452188777208278e+01 1.271203219925661765e-01 2.332982136441739129e+01 2.879179052437705622e+01 1.202155076431172773e+02 1.017350450417267353e+02 1.610519768129580953e+01 1.547107451322364113e+02 -6.646307540688421511e+01 2.560575618213523512e+02 6.750307014419067286e+01 1.470905699554515991e+02 -2.281987115020606538e+01 9.350611836341768424e+01 -5.095771629631902044e+01 -1.519948305179426598e+02 2.721150334148596528e+01 9.877372103424328031e+01 -9.100744584726406572e+01 -1.087757472931517810e+02 -6.910435581138780492e+01 3.799299024928066615e+01 -1.186688104702190429e+02 7.763268496196444346e+01 2.917509841565527751e+01 -1.013927397001050252e+02 1.973175086038894506e+02 -1.222078302931122806e+01 -1.056804661969963064e+02 -1.388437990896307461e+01 -2.122756698393729025e+01 -1.456837575476218944e+02 -4.159985409529429745e+01 6.388674507095290522e+01 1.368823701205450618e+02 3.013442959515449715e+01 2.781840399290274846e+01 4.653257057904687599e+01 -3.716659398088726363e+01 -1.512430815250085629e+02 1.645130407070128342e+01 3.221902048822501285e+01 1.382645303161777690e+02 -1.034820939547349994e+01 -7.911784849158152610e+01 7.606774961839634841e+01 1.046113015588086892e+00 3.322885840112056854e+01 1.447512210153381034e+02 -1.845050654318078216e+02 -9.647313019522400168e+01 1.295994274326623952e+02 -2.178289208226267419e+02 -1.856905475618697494e+02 9.185137863828883553e+01 1.554851990691351489e+02 6.397796208496723835e+01 -4.479636563615545519e+00 1.573036964144452554e+02 -2.215879516774286913e+02 1.081932701951021727e+02 4.279270225298770924e+01 1.283094357402994206e+02 -1.904169203423435022e+02 1.076347337199423322e+02 -2.857962861505491858e+01 -1.349974376776377767e+02 -5.379900456123769104e+00 -9.330897092810401716e+01 -1.650769812373388490e+01 -4.299836275085968218e+00 -1.243820208854323113e+02 -1.245108834213259001e+02 -6.318636259934573474e+01 -1.301838476270953890e+02 2.029504437700192341e+02 -1.625446156331165639e+02 -5.064697239738159595e+01 1.742029289046053862e+02 3.425047393880477387e+01 -2.988401506345392704e+02 -1.282891513603800888e+02 3.587697384194952832e+01 5.516660379575183271e+01 8.711343085794480245e+00 -1.561417005832460632e+02 3.603343414401077638e+01 7.523250370520362829e+00 -7.504474629376558426e+01 2.046553630355737994e+02 2.045675220875136233e+02 4.365204297950267431e+00 -2.105314461401317203e+02 1.272136007234829265e+02 3.107862261549495031e+01 3.765454107724382382e+00 7.738897339099705164e+01 -2.094583066743360860e+02 -1.393786380180491165e+02 1.424178377196759300e+02 1.106936556571520214e+02 5.345633499123071886e+01 1.446316293607454497e+02 -1.799807582218564619e+02 -2.061694302975727666e+01 -1.317045112224029708e+02 4.397566945679596273e+01 -1.048598116728297072e+02 8.787260646807568776e+01 -3.418414521572395870e+01 1.250010169563396900e+01 1.791283186322732490e+02 2.874530440563706435e+01 -2.661014466918539938e+02 -1.275573424561452214e+02 -8.416111681557561042e+01 1.596221419845025764e+02 1.265282497237933335e+01 -5.430098019282312549e+01 3.070033540215807477e+01 6.313366127297589969e+01 -3.997780496547477469e+01 1.085476742065592930e+02 -1.016981359170315500e+02 4.968485339157997061e+01 1.129984180236665026e+02 -3.575307608815374749e+01 -9.906374143866995041e+01 -1.144832546903653991e+02 1.209054468538803491e+02 -5.012468986588717001e+01 1.984357964084139780e+02 5.775267594771848678e+01 1.120253648002724560e+02 1.861393534081072119e+02 8.645985166506948261e+00 -1.254521268471318933e+02 -1.673725201686588946e+02 -1.152963226636660465e+02 4.286441791707284210e+01
-1.344581081284121815e+01 -4.734967361057581314e+00 1.021411928351940333e+02 -2.258378767783156604e+02 1.532618653736901706e+02 6.265667492742455380e+01 1.500234855039355182e+02 -1.273585972145192642e+02 -2.752095318734513185e+00 -2.374843343228436865e+01 -2.164285403084043367e+02 3.229525643325705886e+01 -1.807430646657248019e+01 1.205901061160620316e+02 -1.233017213300268935e+02 6.084933099222069330e+01 1.235738014515426357e+02 -4.529906488812193288e+01 -4.899812196048756618e+01 -2.669874939007671699e+01 6.083272730427415098e+01 6.225493124312954052e+01 3.195639904805601716e+01 -2.293014456141130495e+02 -5.092807757531876689e+01 9.019964076351949700e+01 9.761443180741744996e+00 -1.019740775746885930e+01 -6.561283314718886572e+01 -1.522722402906641115e+01 7.231521907019593698e+01 -1.433788785881346826e+02 -6.102482763755813266e+01 8.877202823342623006e+00 2.045863589979649362e+02 2.090692717566309966e+02 -3.159910890037434683e+01 5.510580250629558208e+01 -2.775149293411601215e-01 -1.377168055300461162e+02 9.464674524806335398e+01 1.057498887270816681e+02 1.070048054960459893e+02 1.153536560243512810e+01 6.103778473740494803e+01 4.745446690637505327e+01 3.834513888530451453e+01 2.890269869229726041e+01 1.087478190554891455e+02 8.847169863802281498e+01 6.469491804410658631e+01 1.606875481477216567e+02 2.441604061508699033e+02 1.928244331756775125e+02 -5.829647189699698373e+01 4.857465262355706415e+01 -6.340177577040385160e+01 5.563775931519541018e+01 -1.894375801338510996e+02 5.570992315929497352e+01 -2.019162802522224638e+02 -1.663426413732991875e+02 1.275796377719264818e+01 -9.100231947774107155e+00 1.671722351982751036e+02 -2.050045814699681443e+02 7.423487048643360708e+01 2.265801419912455117e+02 -7.209083004825783902e+00 -1.919643539512101711e+02 3.510689636694458926e+01 1.944811642975328994e+02 -6.024628548887265111e+01 -2.627488625601042145e+02 -1.011384979151652459e+02 8.693703859170383907e+00 -2.269063857901593622e+02 3.156062206126190617e+01 -1.769960715497768149e+02 -1.830680242109107780e+02 -5.631022316924022419e+01 1.504413826201279676e+02 6.859286764909188605e+01 1.045917579581782419e+01 -8.743648162249783695e+01 -4.204767813048675862e+01 6.292632865647884444e+01 -2.290542626485442668e+02 5.340998960021715902e+01 -7.407044333488505572e+01 -7.709390817865988765e+01 -1.745501277059085226e+02 6.427965916253172907e+01 9.160418545814309255e+01 -1.603016426275701747e+02 1.705992847444722713e+02 -3.941283295667583531e+01 -1.670587228531355350e+01 8.646327525887789989e+01 1.543793641997684176e+02 2.140427204226629598e+01 1.495908496169330704e+02 -1.823033790024059897e+01 -8.960777101587908078e+01 -1.938546620374902218e+01 9.987202332409935934e+01 4.567552416464928911e+01 9.935798711748510925e+01 9.588667349219838343e+01 -8.434199953196979038e+01 -1.725820456157076990e+02 1.249960026671677724e+02 5.511461583408360809e+01 1.639898334233471289e+01 3.106591034590612921e+01 -6.900284434566383140e+01 9.756848351732622859e+01 9.126067224327776728e+01 -1.387663311074423333e+01 -7.237800011544621270e+01 3.128098304940489172e+01 6.371735246203305891e+00 -6.254512711781601553e+01 1.722864878121751246e+02 -3.355261478734428238e+01 1.236031443833180958e+02 -7.127606011564172661e+01 3.902063989759657403e+01 -3.672855023997804125e+01 9.094784441901958871e+01 2.388484088729862975e+01 1.175211970335369216e+02 -1.179476269062278817e+02 7.560787623342437769e+01 1.256093801763501006e+02 -4.549316868117228552e+01 7.699505304506509162e+00 -1.285833638911290855e+01 1.187926935207408832e+02 3.578468194764559129e+00 1.716609501207574908e+02 -1.439120669857153985e+02 1.187683371548757805e+02 -9.299586265088933601e+01 9.746347440805003259e+01 -1.395300142146068652e+02 3.006199512861793366e+01 2.518803124451009268e+01 1.862173560343359346e+00 3.698195015763652549e+01 4.672971466349058289e+01 -1.267513068480873351e+01 1.097871239377608532e+01 1.101116277530790626e+02 1.296658091237268309e+02 -8.829836435662929262e+01 -5.526505998652832830e+01 4.828187599833437815e+01 1.578035336645577935e+00 -1.395720003146207091e+02 -5.613526329637020496e+01 -3.616274331697313471e+01 4.988113492804066595e+01 -6.685745449021102615e+01 2.338921240943422220e+01 1.635421451087807725e+02 -8.106430930325311124e+01 8.239767950141916231e+01 8.580327344349355201e+01 1.144103698945166592e+01 1.259613880297794140e+02 6.418566469501922711e+01 1.715480290435334894e+02 -3.525462119823708917e+01 1.148542635435672281e+02 5.672017292788987675e+01 -1.642794966663729639e+01 2.085385691733998215e+02 -1.418436501149081721e+02 4.994876778331303058e+01 -1.917233429104861955e+02 -8.606665145052151900e+01 4.193843822777972719e+01 -7.383724805410038527e+01 -1.594079479520721065e+02 2.038902179825699932e+02 -8.776122449486649657e+01 -4.859055523807010246e+01 -4.736105682220987489e+01 1.245906870709602998e+02 1.993544865493768441e+02 6.628136777836442661e+01 1.497015645872878338e+02 2.246355399514703493e+02 -1.674195338919928666e+00 1.667908839686114959e+02 7.257773243058346679e+01 1.949264047484679736e+02 -1.287611510574695330e+02 -1.216597559446435639e+01 6.480694187266915485e+00 1.944926115973536298e+02 -9.308493579948139995e+01 -6.189025770015209105e+01 -5.422179478096737881e+01 -1.371301677286380709e+02 4.771578724256743342e+00 -1.033537636157504238e+02 1.577593949169865652e+02 2.414278760199407969e+01 1.230539892945993508e+01 7.403809466431813746e+01 -5.064999873187186807e+00 1.197249161381848239e+02 -1.626281560914165425e+02 4.647998054697426085e+01 -1.749571420660920467e+02 1.202312542339005716e+02 9.829022767052646259e+01 -6.893716394542266812e+01 4.786756576752048176e+01 2.438266135168558719e+02 -3.117479521652339969e+01 4.265956282213952733e+01 -3.344990243426936871e+01 5.931799104592882088e+01 6.583393239073583914e+01 -6.415983270961669760e+00 1.043715906155129147e+02 1.039578640616832246e+02 -1.984967681923513965e+02 -1.568934503381902914e+02 -1.226508030807625573e+02 -9.688376577974402437e+00 -1.533653103473588715e+02 1.182879343392168039e+02 1.129843884640980178e+02 6.035711121668078505e+01 1.142335996433251388e+01 1.614256508956355844e+02 8.594835077225148723e+01 6.908216919898021047e+01 -1.040560232821656399e+02 1.559032276577092659e+02 -3.649767564822076427e+00 1.118852717545749158e+02 9.020205897013845231e+00 3.760858366933171482e+01 -7.749064345504258711e+01 -9.288234138686081565e+01 7.324844665017573675e+01 -3.910673221621415063e+00 1.496693702970482320e+02 -1.287325998482723932e+01 -2.928279161957322518e+00 4.690904488973308872e+01 2.316912886319310516e+01 1.446466709653586236e+02 1.494499878063520448e+01 3.664751917024511840e+01 -1.582132143027815800e+02 6.734283094447692974e+01 1.366589185770889117e+02 -1.809561123375185687e+01 -2.330451051781490150e+02 8.625329229056751501e+01 1.389989020231565178e+02 2.071012148166651201e+01 1.927464545889990291e+02 -4.199653123413400024e+00 4.373292828930647147e+01 -4.439338480087744188e+01 -1.412326904475021649e+02 5.699068756618179066e+01 -4.830817518138141509e+01 -8.250377336201528067e+01 4.192121589481740074e+01 -1.879581100229460731e+02 7.295765184919490309e+01 1.670913181436481239e+02 -1.028956780644075621e+02 1.757541690118145254e+02 -9.925419024636649112e+01 -6.088261703477017228e+00 -1.067448693156022621e+01 7.778264290957103810e+01 -4.727614334133165386e+01 -1.094601105780469936e+02 -8.984612498177739326e+01 1.479137172171701309e+02 5.995966080415256272e+01 -1.335936588716601534e+02 4.512085034507202330e+00 4.405704954149573638e+01 8.371587687873015682e+01 -4.088956882009576077e+01 6.081815816607238645e+01 -6.990120023691906681e+01 -1.645566774895585809e+02 -3.509966262091453615e+01 1.428481004326175707e+02 -1.148372602797853119e+02 -6.514783166940802950e+00 -1.650491322910581289e+02 -4.815538428316455288e+00 -1.477355175902280564e+02 3.329755935857149751e+01 6.088041563536766887e+01 -5.096041687971224121e+01 -8.342403176298647338e+01 5.696235975352428760e+00 7.529259571856393052e+01 -6.858699821395765639e+01 1.363227769086398951e+02 1.067338959396745395e+02 -1.291357717398271348e+02 -1.066653439133941532e+02 1.366249486877201207e+02 7.215885499644980428e+01 1.518606654510539897e+02 1.013713387833867046e+02 8.206481671576209180e+01 -6.090283424670735712e+01 -8.264968559426134220e+01 -7.788182266953934629e+01 2.065949624949726626e+02 3.081900510083882949e+01 -2.513870186464400192e+01 -6.921997742064027648e+01 -5.052083530372655673e+01 -1.324245934418746913e+02 -1.666319513505992234e+01 -1.764306368847177282e+02 1.257460487332862442e+02 4.629075167138819324e+01 -1.158968950639405193e+02 -4.864849206034229212e+01 1.204185360646809499e+02 -9.753452927864370281e+01 1.033858339466506351e+02 -1.190928471762002232e+02 -1.182587499397125264e+01 -9.601930886471693327e+01 9.018119555109738883e+01 -4.271214143222122317e+01 1.040351267900873999e+01 2.947312898532923953e+01 -1.273230142346550764e+02 1.256848084157302914e+01 4.856804468403008457e+01 -2.253822365676581185e+01 -6.909431878956247886e+01 2.034970772139480175e+02 8.687171311321971245e+01 4.737583355241419270e+01 -3.157694037734375669e+01 8.063898189221053769e+01 1.684030208643908395e+02 -9.274552932244354508e+01 2.104439746477316362e+02 -1.337302744525748039e+02 -1.848105625643471512e+02 1.525906902119313600e+02 -2.350454331192380266e+02 -1.012809671718039484e+00 -2.460624942037677840e+02 -1.536485713491940430e+02 7.208401992912813228e+01 -1.463285544290730229e+02 5.865947851903911214e+01 1.103810610591038284e+02 -1.611363438898116840e+02 -3.029058370112127818e+01 7.574476471972741365e+01 1.345532436624977208e+02 -1.869305488389106245e+02 8.785174685656636484e+01 -9.839819975027752719e+01 -9.928769747880796359e+00 -1.396169594516299739e+01 -7.995462789211335064e+01 -9.073787798291665752e+01 1.821962904957357523e+02 -2.176417490933405929e+01 1.332243960179826603e+00 1.308304509932172550e+02 -8.707888148711127485e+01 -3.459194740557206416e+01 -1.081815601451178281e+02 -4.909952197596691548e+01 5.219097976726096100e+00 5.972331640458433810e+01 -1.359050919199773659e+02 2.387417229312969766e+02 -5.429270876555056446e+01 1.236058570788761415e+02 -4.920737130689582983e+01 1.207676984237517814e+02 1.402080051992276992e+02 4.842543022627147309e+01 1.231642390756751553e+02 -4.360057195406020014e+01 1.411984980216373060e+02 -1.578224281737633987e+02 -6.597948167683202314e+01 -6.354546020459898159e+01 2.575055602029014779e+01 -1.638063812062110287e+02 7.323042006790164749e+01 -3.112217921372079843e+01 -8.341479057726949975e+01 9.045772448132748877e+01 -1.525192123935556481e+02 -9.206460800313215032e+01 -5.308285436306116623e+01 3.339920904567944859e+01 1.310570438286491139e+02 1.179920555280842649e+02 6.979867291369487248e+01 -1.638972703021363442e+00 1.764940761831338421e+02 1.236827140929879221e+02 -9.530910357275607225e+01 -7.890973356503366176e+01 5.600996922013991508e+01 1.009290850360001990e+01 9.889638423239952658e+01 1.682016537069068534e+02 7.123513305255079331e+01 2.459673108820661014e+01 -1.031249035002263525e+02 1.734009247622153111e+02 -1.147257261221067210e+02 -1.667823081439745749e+02 6.630522944052830780e+01 1.124680998369276068e+02 1.979525673751746595e+01 -1.400598856589132311e+02 3.000371710945065473e+01 4.280179586002545022e+01 -3.042070262604752440e-01 1.320198522559647074e+02 9.835633730416087417e+01 1.724535952416148632e+01 7.898908005905981611e+01 -1.079200028084069203e+02 -6.341968208764156678e+00 9.910993286205111019e+01 2.991598201947897095e+01 -6.555108158624685188e+01 1.995643057547225396e+02 2.328855414768614764e+02 -1.265057430976177670e+02 -2.780624588230434924e+01 -2.118119736086408977e+02 -7.272065885793246309e+01 1.577963033208571915e+02 3.446204948961688608e+00 -7.150222411232590503e+01 1.649986441133122241e+02 -6.297631835251605281e+01 -1.617381977379260434e+02 1.375117565443515275e+02 -6.770419040870710603e+01 3.467600607027263493e+01 8.696384347926573355e+01 1.386800579111452691e+01 -2.398262122002438730e+02 4.255992801100043721e+01 -6.157530450824547863e+00 9.066611130565338783e+01 -2.371537956830931293e+01 1.018483455828097846e+02 1.706714573438188864e+01 -8.533903357818557822e+01 -2.060509951212780066e+01 -1.763502068755209393e+02 1.157429180633766919e+02 2.542843237531033296e+01 -4.190323564024097891e+01 -5.215144206096530155e+01 -6.325932176903737769e+01 4.135537018913228735e+01 1.617141540522548837e+02 1.335559134854727859e+02 4.335617728284125150e+01 -1.991222826804888655e+02 -3.903976068271990130e+01 4.408633154648322972e+01 1.181023614087009292e+02 8.780152490143231603e+01 1.556106647546344490e+01 -1.872391345932327340e+02 1.325794478391835014e+02 -2.251989025758172147e+02 -2.071308938941626536e+02 -1.867583957721462351e+00 -7.425371989593928390e+01 -2.421953626401311865e+01 8.769584255799782113e+01 5.628346127038978608e+01 -1.119365248777911859e+02 -1.524112219304055316e+02 1.469442626433042243e+01 1.244893272659635244e+02 2.085282647475801809e+01 -5.707586505298802138e+01 -5.193154938249487174e+01 -1.187844812800664407e+01 1.624132470750029995e+02 2.252487334539704378e+01 -1.778935394711316462e+02 1.314019692187305566e+02 -6.841861242695560463e+01 -4.279791725855518258e+00 1.577731603809322110e+02 -5.360434098439144890e+01 -2.005695239219681270e+01 -1.125466527144261448e+02 -6.160771928751586302e+00 -2.445036340590838009e+01 1.349644270087168252e+02 1.230590218190555731e+02 6.924200183098277250e+01 6.700628076827783275e+01 -1.917578126715187281e+01 1.385681334396471982e+02 -1.155091019369873209e+02 -4.372441427611049924e+00 -9.329214541120026638e+01 1.610296135106636370e+02 7.474455777565951564e+01 5.298074334991603962e+01 8.494344829738567526e+00 -5.457667274695347004e+01 3.522975919225643793e+01 6.929383229499888941e+00 3.663728085258404654e+00 2.471820541400458637e+01 6.124307159387878841e+01 1.744233548734826513e+02 -3.976209547562232416e+01 -5.327061769523706403e+01 6.841439982701638201e+01 1.185069936460915869e+02 -1.311857195571914403e+01 9.415345666283248249e+01 1.065388441553881904e+02 2.158699722596506660e+02 -8.866044137221200572e+01 -1.256906578486057811e+02 -2.932830719285652066e+01 6.363603719839680650e+01 -1.039190892664926125e+01 1.100207883249376266e+02 3.812566592383336683e+01 -1.665553861092920442e+02 4.614954164698673367e+01 -9.161024835912705555e+01 -1.385460562931182551e+02 1.377141570944573630e+02 -7.782007260318819419e+01 6.053082438742125504e+01 1.138589739847172240e+02 -1.013909528688986370e+02 2.401188801765958303e+01 -7.384400977996975257e+01 4.118780361881648844e+01 -1.172231800947990479e+02 6.298018743575693890e+01 5.591728172945706632e+01 4.035947298205168288e+00 8.601342519280454724e+01 -1.564495778606297165e+02 7.812331290041679210e+01 -2.988539878335404865e+01 -1.715409015134056574e+02 9.591273059449743243e+01 2.488374374196632033e+01 -1.992055723108635163e+02 2.388443862507511994e+02 -5.354076033248088562e-01 1.067959705522202398e+02 -1.224596778937123389e+02 -1.971931755187370356e+02 -9.475048501489183650e+01 2.501994751074568590e+00 1.451181055024617308e+02 4.090582964260491394e+00 -9.703329381862040748e+01 5.120909750231787427e+01 1.391560860011478837e+02 6.599833680551574844e+01 -5.255531585021195440e+01 -6.004610588667366500e+01 8.581122911917660190e+01 3.124221592565199401e+01 -1.985359989231272380e+02 -2.105447989781355389e+01 1.716459494488495352e+02 1.003741408106207729e+02 -5.819310512117007050e+01 -1.135254596829506681e+02 -4.334343629523132080e+01 -4.882009191984479912e+01 -1.162156459897976220e+02 -1.879211734469445361e+01 -4.636892228189343257e+01 -1.153615824007383992e+02 -1.338890903911964756e+02 -2.732645905903264705e+01 -1.275854304725665855e+02 -1.358126225114762633e+02 -3.892109422728034929e+01 -5.621747911519462093e+01 -1.126894478084350624e+02 1.958605324435056616e+02 1.108469780157321338e+01 -2.960670080584000985e+01 -1.790307967712216808e+01 8.277037464089933394e+01 1.644768788088624234e+01 2.635518165042495298e+01 -2.242435270892285359e+01 -4.861456052464923516e+01 2.201735420225783812e+01 -1.529365458886685758e+02 -1.675128050567992091e+02 -9.518143216454816979e+01 -2.008034213470745328e+02 -9.431028721613466814e+01 9.030756977959063647e+01 6.458129179619218974e+01 -2.743073141697516348e+01 6.394325320752164288e+01 -1.647077631052283664e+02 -4.291666682078364659e+01 -1.221776530008980899e+02 -7.024122066214665949e+01 2.219147774542110199e+02 -2.160011863379892816e+02 2.159840851801292843e+02 2.632050983329952132e+01 -5.944028944291315497e+01 9.709276136195968832e+01 1.305645755319191608e+02 -5.460243177033387241e+01 -2.143403845503482898e+02 -1.568850596694840931e+02 1.075968040021339505e+02 8.813750882877357640e+01 -1.426767162544414020e+02 3.364180714142454320e+01 -4.172056298251577999e+01 -8.144025015598893447e+01 -2.990623410496746004e+01 -5.770144920307235736e+01 -9.096808533141576447e+01 -3.579797846318236765e+01 4.684358442300154302e+00 -3.444394490548201304e+01 -4.322285570196110482e-01 -1.513456614399205336e+01 9.680704088306926280e+01 1.336979700689474271e+02 1.386263350747785772e+01 1.765737297658031579e+01 -6.638109111311679555e+01 -2.062315421248790130e+02 3.562527528242518571e+01 -9.653832868521392641e+01 2.716923988544596824e+01 -8.643044285654900349e+00 1.046690984511873257e+00 7.598648798753944789e+01 1.282345328733513838e+02 -7.412563395475135053e+01 3.998264623729848211e+01 -2.028696601304415594e+02 1.016309848835935981e+01 7.402758332710146050e+00 -1.289364038165568047e+02 -3.549837395879518454e+01 -4.664050536555032522e+01 5.026656705870056641e+00 -1.075972675370795315e+02 2.847187322031143708e+01 -1.027555537739047367e+02 5.908414171364294987e+01 7.137184340623248602e+01 3.879392308153247626e+01 -3.053457837085748849e+01 1.130346248214953278e+02 6.423263779829446207e+01 8.415062159332934755e+01 -7.046289207992407455e+01 2.137852314782505658e+01 1.345337851467658368e+02 -6.148673205240446293e+01 -7.267419814842297932e+00 3.365026261214843117e+01 -1.350170792238012609e+02 1.028772054033037904e+02 9.418703115602475862e+01 -1.063090090043195346e+02 -8.658680767798777822e+01 -5.835785492546259690e+01 -4.784868625258327057e+01 -1.684990416215152891e+02 -1.428826047483312038e+02 -1.392160311985304588e+02 1.110381559274383250e+02 6.278748014090783158e+01 1.675924763778888007e+02 7.553704933405322564e+00 -9.010966851515775033e+01 1.965976104878955510e+01 1.453260514759202771e+01 -6.667057485205309320e+01 7.776350509413302348e+01 1.239757338004848322e+02 1.051194747440127664e+01 1.506030257875509619e+02 2.364696169083956789e+01 1.164929583007399714e+02 1.586360085323673275e+01 -2.180876765354898623e+02 2.291955989196155485e+02 -5.135924047806887671e+01 -1.565231939040709790e+02 -7.050509671731029471e+01 -4.507411168946780577e+01 4.316238577731640191e+01 2.670862187521489162e+01 4.772049925072067822e+01 -7.735281151761500951e+01 1.276508412711298348e+02 -8.995867334058267772e+01 -7.308111919710944981e+00 1.485338766459016426e+02 1.142762287938600565e+02 6.040772120949660007e+01 -1.843853826193974612e+02 2.648482381165430510e+01 1.461946210072552503e+02 2.439793639184630791e+01 1.015233754941111926e+02 1.106905513705610105e+02 -2.197192688839863592e+02 7.993936173717602856e+01 -6.000303595573183202e+01 -2.335624602646059316e+02 9.185271449249725606e+01 2.549878130298244017e+01 -1.260185905470388121e+02 -6.039872046237312020e+01 1.429871455811767760e+02 1.517140056568143223e+02 -7.785194087305974620e+01 -1.311132780829952367e+02 -8.552547305796392152e+01 -1.698352706200868738e+02 2.000384516305218696e+01 3.874010664490249667e+01 -1.727423076677335700e+01 -1.262006132764767230e+01 -9.118545160973026498e+01 -9.000815696970519753e+01 -2.506338300431168875e+01 1.358316374081484810e+02 1.380991076239343442e+02 8.216015394809338090e+01 9.821165335145873598e+01 -7.948078493662090693e+01 -1.823082145373853393e+02 -1.337407763321558640e+01 -2.338926222460084503e+01 -7.154675504986113310e+01 1.517199967061238386e+00 7.364545014087033792e+01 -5.334083583091225478e+01 2.479786292965826178e+01 7.978161552123046363e+01 7.062874666282743874e+01 1.113554607139238186e+02 -1.503351695619797113e+02 3.994900948597337731e+01 8.394789020045504913e+01 9.548322986711831106e+01 5.953522595605826950e+01 -1.040301055467354416e+02 1.379902489483278600e+02 1.284198018460180037e+02 9.655913569117277007e+01 1.023021157176271032e+02 -8.487719426909355036e+01 -1.499358212845435467e+01 -1.301329822612055764e+01 7.766098275719255639e+01 6.546036465465418530e+01 5.636900734864677531e+01 9.834216416477545408e+01 1.173484670406150059e+02 1.247842649104294566e+02 -6.543734223436720754e+01 8.120190913782214182e+01 6.575485682854240110e+01 -1.185544476441972961e+02 1.326074251493303677e+02 -1.012436544536247673e+01 -2.812930215059385830e+01 2.008234578041985969e+02 8.915667764251364247e+01 1.250872730276396538e+02 -1.455088248959130226e+02 -1.590942162676418832e+02 -1.550945383614194100e+02 -1.232463801048162964e+02 -4.467628771101001917e+01 1.108365146262459291e+02 -1.702050955036413882e+02 3.285151274505811614e+01 1.457509475444764178e+02 -5.991971347625647581e+01 -9.227582207393378155e+01 -3.546108947776986042e+01 1.373180047704745164e+02 2.297310224797374190e+02 -6.733555928223377407e+01 2.002631390067031347e+01 -2.801610138326775967e+01 6.925522522072002118e+01 6.095946283075134886e+01 -2.156835148291349924e+02 -8.969179910808998102e+01 1.391887986197844782e+02 1.414700905258462456e+02 9.567606783793715408e+01 -5.039419296241991475e+01 -7.675021114950214951e+01 -4.598991560482317453e+01 -1.787083638692651562e+02 7.206981539291005845e+01 -2.600865136461857929e+01 1.685177910873308917e+02 -2.827698490172805634e+01 -3.186137084047135772e+02 1.467815973049859792e+02 5.099997366711492219e+01 -1.195435972679766508e+02 -2.242041879734675192e+01 3.579319686242497767e+01 -2.104592389439678470e+02 -1.158445885469557055e+02 -1.110630127276433825e+02 -5.723128634950852955e+01 6.368432559720874764e+01 -1.670801978888710551e+02 1.094508939902226956e+02 -5.506904408175847720e+01 2.941522432447046143e+00 -1.352894497834869867e+02 -1.050226379354447346e+02 1.783547323870088235e+02 8.789298041892891433e+01 -4.284131466189679571e+01 3.772581989940672997e+01 -2.847147979529536244e+01 4.382389628132703763e+01 -1.061415543286764063e+02 1.002517376886853242e+02 5.126587151837023271e+01 -1.206722377280959506e+02 1.184961255511375384e+02 -4.988889406558714512e+01 1.014161761196980365e+02 -5.016017593142165509e+01 8.973465530803406409e+01 -1.557490937881864284e+02 1.448615614312261926e+02 2.515666422144527914e+01 1.021791144041853130e+02 1.324211778748730808e+02 -1.489175180313242493e+02 -8.723137179382071338e+01 -1.072789844651959896e+02 6.793601177012695302e+01 -1.740460058721331222e+02 1.538513995807606705e+02 1.446817814823209289e+02 5.383645128483008335e+01 -8.625524958975032064e+01 5.796578024274948859e+01 -1.090099697948846540e+02 -1.114523998758562762e+01 3.556412970947468466e+01 -1.867338546050003174e+02 -8.294031419493306601e+01 -1.375764733488392721e+01 1.039081883342886812e+02 -5.103201091384016053e+01 1.104880266319670170e+02 -6.542410531718644506e+01 -2.143693287324122991e+02 -1.089073052157058186e+02 -3.467707163596429609e+01 -6.122300408893589463e+01 3.062260846773543577e+01 5.223771510747543800e+01 6.467341096379048970e+00 2.570738868226715113e+01 -1.193148835737720361e+02 5.475122033891040729e+01 3.319711312267966008e+01 -7.347693906882399517e+01 9.412765831812565764e+00 5.729007965547498316e+01 -9.712401860827131372e+01 -5.605185017984871365e+01 -2.456100218576214900e+01 9.937658552649742205e+01 -1.743837300312048555e+01 4.268328061902750825e+00 -2.321915745277458711e+02 -9.679493342958539870e+01 1.007425471532504986e+02 -9.091343320212584445e+01 3.192349159614045817e+01 3.164685959814087823e+01 3.866325732917935909e+01 6.731960578571973031e+01 -1.807742607350062656e+02 1.466562333097268152e+02 8.296861260130080495e+01 -7.644189978606461544e+00 -8.233065261846873284e+01 1.140579950939580129e+02 6.326671818428122407e+01 -2.048770793982992302e+02 -5.134858719134489746e+01 -8.322539719544570858e+01 -5.284760246276756135e+01 -6.313743077867808751e+01 -1.009700953142019557e+02 -6.153066421863854174e+01 1.951276304192076907e+02 -1.740741259223093493e+02 6.674786813985448930e+01 2.827134190941395886e+01 -7.661161915738220785e+01 1.057372340463631488e+01 -4.016211747187236369e+01 3.487309824161505922e+00 -9.796981346201383190e+01 -2.013469175046997179e+02 1.874680501986926728e+01 4.273281405566039126e+01 -1.304857507338733491e+01 -9.226613452431019269e+00 -4.055246366723124396e+01 -1.936300432641134535e+02 -3.125560012489587081e+01 -6.664377570437790155e+01 1.425688633786797155e+01 -1.591056882629838221e+01 9.229214456514155529e+01 -6.426207242166411504e+01 -1.057356035512349166e+02 -3.646884408601294325e+01 -9.209361626784749788e+00 4.643362241433114690e+01 -2.258977460041487006e+01 -7.514535693420125995e+01 -1.618087745603399341e+01 2.047430839534584379e+01 4.844053393650982287e+01 -1.162826057347752027e+02 -1.417933078048268953e+02 2.349048008445353730e+02 -2.226034204397131191e+02 -7.747942401301396842e+01 -4.728123961623486338e+01 1.426612411401682721e+02 6.455023787270982893e+01 2.334105041175048996e+02 2.496408907344886359e+02 -6.356951123967301953e+01 1.320854029942349541e+02 -5.703706596935895590e+01 -4.162355810239719744e+01 -1.026887634119745769e+02 -8.145170308017739558e+01 -7.098807269970602363e+01 -9.077032517529546851e+01 -2.486763918343896762e+02 -2.763478401021592958e+02 1.374233775109270539e+02 -2.705651945545882953e+01 5.433622247471078737e+01 1.334821291095434503e+02
