# 
#                 ----------------------------------------------------
#                 Data from a 3D direct N-body simulation. 
# 
#                 rows are i-particle; 
#                 coumns are :mass, tag, x ,y, z, vx, vy, vz, ax, ay, az
# 
#                 NTHU, Computational Physics Lab
# 
#                 ----------------------------------------------------
#                 Time = 2.0000000000000013
1.000000000000000000e+00 2.000000000000000000e+00 3.000000000000000000e+00 4.000000000000000000e+00 5.000000000000000000e+00 6.000000000000000000e+00 7.000000000000000000e+00 8.000000000000000000e+00 9.000000000000000000e+00 1.000000000000000000e+01 1.100000000000000000e+01 1.200000000000000000e+01 1.300000000000000000e+01 1.400000000000000000e+01 1.500000000000000000e+01 1.600000000000000000e+01 1.700000000000000000e+01 1.800000000000000000e+01 1.900000000000000000e+01 2.000000000000000000e+01 2.100000000000000000e+01 2.200000000000000000e+01 2.300000000000000000e+01 2.400000000000000000e+01 2.500000000000000000e+01 2.600000000000000000e+01 2.700000000000000000e+01 2.800000000000000000e+01 2.900000000000000000e+01 3.000000000000000000e+01 3.100000000000000000e+01 3.200000000000000000e+01 3.300000000000000000e+01 3.400000000000000000e+01 3.500000000000000000e+01 3.600000000000000000e+01 3.700000000000000000e+01 3.800000000000000000e+01 3.900000000000000000e+01 4.000000000000000000e+01 4.100000000000000000e+01 4.200000000000000000e+01 4.300000000000000000e+01 4.400000000000000000e+01 4.500000000000000000e+01 4.600000000000000000e+01 4.700000000000000000e+01 4.800000000000000000e+01 4.900000000000000000e+01 5.000000000000000000e+01 5.100000000000000000e+01 5.200000000000000000e+01 5.300000000000000000e+01 5.400000000000000000e+01 5.500000000000000000e+01 5.600000000000000000e+01 5.700000000000000000e+01 5.800000000000000000e+01 5.900000000000000000e+01 6.000000000000000000e+01 6.100000000000000000e+01 6.200000000000000000e+01 6.300000000000000000e+01 6.400000000000000000e+01 6.500000000000000000e+01 6.600000000000000000e+01 6.700000000000000000e+01 6.800000000000000000e+01 6.900000000000000000e+01 7.000000000000000000e+01 7.100000000000000000e+01 7.200000000000000000e+01 7.300000000000000000e+01 7.400000000000000000e+01 7.500000000000000000e+01 7.600000000000000000e+01 7.700000000000000000e+01 7.800000000000000000e+01 7.900000000000000000e+01 8.000000000000000000e+01 8.100000000000000000e+01 8.200000000000000000e+01 8.300000000000000000e+01 8.400000000000000000e+01 8.500000000000000000e+01 8.600000000000000000e+01 8.700000000000000000e+01 8.800000000000000000e+01 8.900000000000000000e+01 9.000000000000000000e+01 9.100000000000000000e+01 9.200000000000000000e+01 9.300000000000000000e+01 9.400000000000000000e+01 9.500000000000000000e+01 9.600000000000000000e+01 9.700000000000000000e+01 9.800000000000000000e+01 9.900000000000000000e+01 1.000000000000000000e+02 1.010000000000000000e+02 1.020000000000000000e+02 1.030000000000000000e+02 1.040000000000000000e+02 1.050000000000000000e+02 1.060000000000000000e+02 1.070000000000000000e+02 1.080000000000000000e+02 1.090000000000000000e+02 1.100000000000000000e+02 1.110000000000000000e+02 1.120000000000000000e+02 1.130000000000000000e+02 1.140000000000000000e+02 1.150000000000000000e+02 1.160000000000000000e+02 1.170000000000000000e+02 1.180000000000000000e+02 1.190000000000000000e+02 1.200000000000000000e+02 1.210000000000000000e+02 1.220000000000000000e+02 1.230000000000000000e+02 1.240000000000000000e+02 1.250000000000000000e+02 1.260000000000000000e+02 1.270000000000000000e+02 1.280000000000000000e+02 1.290000000000000000e+02 1.300000000000000000e+02 1.310000000000000000e+02 1.320000000000000000e+02 1.330000000000000000e+02 1.340000000000000000e+02 1.350000000000000000e+02 1.360000000000000000e+02 1.370000000000000000e+02 1.380000000000000000e+02 1.390000000000000000e+02 1.400000000000000000e+02 1.410000000000000000e+02 1.420000000000000000e+02 1.430000000000000000e+02 1.440000000000000000e+02 1.450000000000000000e+02 1.460000000000000000e+02 1.470000000000000000e+02 1.480000000000000000e+02 1.490000000000000000e+02 1.500000000000000000e+02 1.510000000000000000e+02 1.520000000000000000e+02 1.530000000000000000e+02 1.540000000000000000e+02 1.550000000000000000e+02 1.560000000000000000e+02 1.570000000000000000e+02 1.580000000000000000e+02 1.590000000000000000e+02 1.600000000000000000e+02 1.610000000000000000e+02 1.620000000000000000e+02 1.630000000000000000e+02 1.640000000000000000e+02 1.650000000000000000e+02 1.660000000000000000e+02 1.670000000000000000e+02 1.680000000000000000e+02 1.690000000000000000e+02 1.700000000000000000e+02 1.710000000000000000e+02 1.720000000000000000e+02 1.730000000000000000e+02 1.740000000000000000e+02 1.750000000000000000e+02 1.760000000000000000e+02 1.770000000000000000e+02 1.780000000000000000e+02 1.790000000000000000e+02 1.800000000000000000e+02 1.810000000000000000e+02 1.820000000000000000e+02 1.830000000000000000e+02 1.840000000000000000e+02 1.850000000000000000e+02 1.860000000000000000e+02 1.870000000000000000e+02 1.880000000000000000e+02 1.890000000000000000e+02 1.900000000000000000e+02 1.910000000000000000e+02 1.920000000000000000e+02 1.930000000000000000e+02 1.940000000000000000e+02 1.950000000000000000e+02 1.960000000000000000e+02 1.970000000000000000e+02 1.980000000000000000e+02 1.990000000000000000e+02 2.000000000000000000e+02 2.010000000000000000e+02 2.020000000000000000e+02 2.030000000000000000e+02 2.040000000000000000e+02 2.050000000000000000e+02 2.060000000000000000e+02 2.070000000000000000e+02 2.080000000000000000e+02 2.090000000000000000e+02 2.100000000000000000e+02 2.110000000000000000e+02 2.120000000000000000e+02 2.130000000000000000e+02 2.140000000000000000e+02 2.150000000000000000e+02 2.160000000000000000e+02 2.170000000000000000e+02 2.180000000000000000e+02 2.190000000000000000e+02 2.200000000000000000e+02 2.210000000000000000e+02 2.220000000000000000e+02 2.230000000000000000e+02 2.240000000000000000e+02 2.250000000000000000e+02 2.260000000000000000e+02 2.270000000000000000e+02 2.280000000000000000e+02 2.290000000000000000e+02 2.300000000000000000e+02 2.310000000000000000e+02 2.320000000000000000e+02 2.330000000000000000e+02 2.340000000000000000e+02 2.350000000000000000e+02 2.360000000000000000e+02 2.370000000000000000e+02 2.380000000000000000e+02 2.390000000000000000e+02 2.400000000000000000e+02 2.410000000000000000e+02 2.420000000000000000e+02 2.430000000000000000e+02 2.440000000000000000e+02 2.450000000000000000e+02 2.460000000000000000e+02 2.470000000000000000e+02 2.480000000000000000e+02 2.490000000000000000e+02 2.500000000000000000e+02 2.510000000000000000e+02 2.520000000000000000e+02 2.530000000000000000e+02 2.540000000000000000e+02 2.550000000000000000e+02 2.560000000000000000e+02 2.570000000000000000e+02 2.580000000000000000e+02 2.590000000000000000e+02 2.600000000000000000e+02 2.610000000000000000e+02 2.620000000000000000e+02 2.630000000000000000e+02 2.640000000000000000e+02 2.650000000000000000e+02 2.660000000000000000e+02 2.670000000000000000e+02 2.680000000000000000e+02 2.690000000000000000e+02 2.700000000000000000e+02 2.710000000000000000e+02 2.720000000000000000e+02 2.730000000000000000e+02 2.740000000000000000e+02 2.750000000000000000e+02 2.760000000000000000e+02 2.770000000000000000e+02 2.780000000000000000e+02 2.790000000000000000e+02 2.800000000000000000e+02 2.810000000000000000e+02 2.820000000000000000e+02 2.830000000000000000e+02 2.840000000000000000e+02 2.850000000000000000e+02 2.860000000000000000e+02 2.870000000000000000e+02 2.880000000000000000e+02 2.890000000000000000e+02 2.900000000000000000e+02 2.910000000000000000e+02 2.920000000000000000e+02 2.930000000000000000e+02 2.940000000000000000e+02 2.950000000000000000e+02 2.960000000000000000e+02 2.970000000000000000e+02 2.980000000000000000e+02 2.990000000000000000e+02 3.000000000000000000e+02 3.010000000000000000e+02 3.020000000000000000e+02 3.030000000000000000e+02 3.040000000000000000e+02 3.050000000000000000e+02 3.060000000000000000e+02 3.070000000000000000e+02 3.080000000000000000e+02 3.090000000000000000e+02 3.100000000000000000e+02 3.110000000000000000e+02 3.120000000000000000e+02 3.130000000000000000e+02 3.140000000000000000e+02 3.150000000000000000e+02 3.160000000000000000e+02 3.170000000000000000e+02 3.180000000000000000e+02 3.190000000000000000e+02 3.200000000000000000e+02 3.210000000000000000e+02 3.220000000000000000e+02 3.230000000000000000e+02 3.240000000000000000e+02 3.250000000000000000e+02 3.260000000000000000e+02 3.270000000000000000e+02 3.280000000000000000e+02 3.290000000000000000e+02 3.300000000000000000e+02 3.310000000000000000e+02 3.320000000000000000e+02 3.330000000000000000e+02 3.340000000000000000e+02 3.350000000000000000e+02 3.360000000000000000e+02 3.370000000000000000e+02 3.380000000000000000e+02 3.390000000000000000e+02 3.400000000000000000e+02 3.410000000000000000e+02 3.420000000000000000e+02 3.430000000000000000e+02 3.440000000000000000e+02 3.450000000000000000e+02 3.460000000000000000e+02 3.470000000000000000e+02 3.480000000000000000e+02 3.490000000000000000e+02 3.500000000000000000e+02 3.510000000000000000e+02 3.520000000000000000e+02 3.530000000000000000e+02 3.540000000000000000e+02 3.550000000000000000e+02 3.560000000000000000e+02 3.570000000000000000e+02 3.580000000000000000e+02 3.590000000000000000e+02 3.600000000000000000e+02 3.610000000000000000e+02 3.620000000000000000e+02 3.630000000000000000e+02 3.640000000000000000e+02 3.650000000000000000e+02 3.660000000000000000e+02 3.670000000000000000e+02 3.680000000000000000e+02 3.690000000000000000e+02 3.700000000000000000e+02 3.710000000000000000e+02 3.720000000000000000e+02 3.730000000000000000e+02 3.740000000000000000e+02 3.750000000000000000e+02 3.760000000000000000e+02 3.770000000000000000e+02 3.780000000000000000e+02 3.790000000000000000e+02 3.800000000000000000e+02 3.810000000000000000e+02 3.820000000000000000e+02 3.830000000000000000e+02 3.840000000000000000e+02 3.850000000000000000e+02 3.860000000000000000e+02 3.870000000000000000e+02 3.880000000000000000e+02 3.890000000000000000e+02 3.900000000000000000e+02 3.910000000000000000e+02 3.920000000000000000e+02 3.930000000000000000e+02 3.940000000000000000e+02 3.950000000000000000e+02 3.960000000000000000e+02 3.970000000000000000e+02 3.980000000000000000e+02 3.990000000000000000e+02 4.000000000000000000e+02 4.010000000000000000e+02 4.020000000000000000e+02 4.030000000000000000e+02 4.040000000000000000e+02 4.050000000000000000e+02 4.060000000000000000e+02 4.070000000000000000e+02 4.080000000000000000e+02 4.090000000000000000e+02 4.100000000000000000e+02 4.110000000000000000e+02 4.120000000000000000e+02 4.130000000000000000e+02 4.140000000000000000e+02 4.150000000000000000e+02 4.160000000000000000e+02 4.170000000000000000e+02 4.180000000000000000e+02 4.190000000000000000e+02 4.200000000000000000e+02 4.210000000000000000e+02 4.220000000000000000e+02 4.230000000000000000e+02 4.240000000000000000e+02 4.250000000000000000e+02 4.260000000000000000e+02 4.270000000000000000e+02 4.280000000000000000e+02 4.290000000000000000e+02 4.300000000000000000e+02 4.310000000000000000e+02 4.320000000000000000e+02 4.330000000000000000e+02 4.340000000000000000e+02 4.350000000000000000e+02 4.360000000000000000e+02 4.370000000000000000e+02 4.380000000000000000e+02 4.390000000000000000e+02 4.400000000000000000e+02 4.410000000000000000e+02 4.420000000000000000e+02 4.430000000000000000e+02 4.440000000000000000e+02 4.450000000000000000e+02 4.460000000000000000e+02 4.470000000000000000e+02 4.480000000000000000e+02 4.490000000000000000e+02 4.500000000000000000e+02 4.510000000000000000e+02 4.520000000000000000e+02 4.530000000000000000e+02 4.540000000000000000e+02 4.550000000000000000e+02 4.560000000000000000e+02 4.570000000000000000e+02 4.580000000000000000e+02 4.590000000000000000e+02 4.600000000000000000e+02 4.610000000000000000e+02 4.620000000000000000e+02 4.630000000000000000e+02 4.640000000000000000e+02 4.650000000000000000e+02 4.660000000000000000e+02 4.670000000000000000e+02 4.680000000000000000e+02 4.690000000000000000e+02 4.700000000000000000e+02 4.710000000000000000e+02 4.720000000000000000e+02 4.730000000000000000e+02 4.740000000000000000e+02 4.750000000000000000e+02 4.760000000000000000e+02 4.770000000000000000e+02 4.780000000000000000e+02 4.790000000000000000e+02 4.800000000000000000e+02 4.810000000000000000e+02 4.820000000000000000e+02 4.830000000000000000e+02 4.840000000000000000e+02 4.850000000000000000e+02 4.860000000000000000e+02 4.870000000000000000e+02 4.880000000000000000e+02 4.890000000000000000e+02 4.900000000000000000e+02 4.910000000000000000e+02 4.920000000000000000e+02 4.930000000000000000e+02 4.940000000000000000e+02 4.950000000000000000e+02 4.960000000000000000e+02 4.970000000000000000e+02 4.980000000000000000e+02 4.990000000000000000e+02 5.000000000000000000e+02 5.010000000000000000e+02 5.020000000000000000e+02 5.030000000000000000e+02 5.040000000000000000e+02 5.050000000000000000e+02 5.060000000000000000e+02 5.070000000000000000e+02 5.080000000000000000e+02 5.090000000000000000e+02 5.100000000000000000e+02 5.110000000000000000e+02 5.120000000000000000e+02 5.130000000000000000e+02 5.140000000000000000e+02 5.150000000000000000e+02 5.160000000000000000e+02 5.170000000000000000e+02 5.180000000000000000e+02 5.190000000000000000e+02 5.200000000000000000e+02 5.210000000000000000e+02 5.220000000000000000e+02 5.230000000000000000e+02 5.240000000000000000e+02 5.250000000000000000e+02 5.260000000000000000e+02 5.270000000000000000e+02 5.280000000000000000e+02 5.290000000000000000e+02 5.300000000000000000e+02 5.310000000000000000e+02 5.320000000000000000e+02 5.330000000000000000e+02 5.340000000000000000e+02 5.350000000000000000e+02 5.360000000000000000e+02 5.370000000000000000e+02 5.380000000000000000e+02 5.390000000000000000e+02 5.400000000000000000e+02 5.410000000000000000e+02 5.420000000000000000e+02 5.430000000000000000e+02 5.440000000000000000e+02 5.450000000000000000e+02 5.460000000000000000e+02 5.470000000000000000e+02 5.480000000000000000e+02 5.490000000000000000e+02 5.500000000000000000e+02 5.510000000000000000e+02 5.520000000000000000e+02 5.530000000000000000e+02 5.540000000000000000e+02 5.550000000000000000e+02 5.560000000000000000e+02 5.570000000000000000e+02 5.580000000000000000e+02 5.590000000000000000e+02 5.600000000000000000e+02 5.610000000000000000e+02 5.620000000000000000e+02 5.630000000000000000e+02 5.640000000000000000e+02 5.650000000000000000e+02 5.660000000000000000e+02 5.670000000000000000e+02 5.680000000000000000e+02 5.690000000000000000e+02 5.700000000000000000e+02 5.710000000000000000e+02 5.720000000000000000e+02 5.730000000000000000e+02 5.740000000000000000e+02 5.750000000000000000e+02 5.760000000000000000e+02 5.770000000000000000e+02 5.780000000000000000e+02 5.790000000000000000e+02 5.800000000000000000e+02 5.810000000000000000e+02 5.820000000000000000e+02 5.830000000000000000e+02 5.840000000000000000e+02 5.850000000000000000e+02 5.860000000000000000e+02 5.870000000000000000e+02 5.880000000000000000e+02 5.890000000000000000e+02 5.900000000000000000e+02 5.910000000000000000e+02 5.920000000000000000e+02 5.930000000000000000e+02 5.940000000000000000e+02 5.950000000000000000e+02 5.960000000000000000e+02 5.970000000000000000e+02 5.980000000000000000e+02 5.990000000000000000e+02 6.000000000000000000e+02 6.010000000000000000e+02 6.020000000000000000e+02 6.030000000000000000e+02 6.040000000000000000e+02 6.050000000000000000e+02 6.060000000000000000e+02 6.070000000000000000e+02 6.080000000000000000e+02 6.090000000000000000e+02 6.100000000000000000e+02 6.110000000000000000e+02 6.120000000000000000e+02 6.130000000000000000e+02 6.140000000000000000e+02 6.150000000000000000e+02 6.160000000000000000e+02 6.170000000000000000e+02 6.180000000000000000e+02 6.190000000000000000e+02 6.200000000000000000e+02 6.210000000000000000e+02 6.220000000000000000e+02 6.230000000000000000e+02 6.240000000000000000e+02 6.250000000000000000e+02 6.260000000000000000e+02 6.270000000000000000e+02 6.280000000000000000e+02 6.290000000000000000e+02 6.300000000000000000e+02 6.310000000000000000e+02 6.320000000000000000e+02 6.330000000000000000e+02 6.340000000000000000e+02 6.350000000000000000e+02 6.360000000000000000e+02 6.370000000000000000e+02 6.380000000000000000e+02 6.390000000000000000e+02 6.400000000000000000e+02 6.410000000000000000e+02 6.420000000000000000e+02 6.430000000000000000e+02 6.440000000000000000e+02 6.450000000000000000e+02 6.460000000000000000e+02 6.470000000000000000e+02 6.480000000000000000e+02 6.490000000000000000e+02 6.500000000000000000e+02 6.510000000000000000e+02 6.520000000000000000e+02 6.530000000000000000e+02 6.540000000000000000e+02 6.550000000000000000e+02 6.560000000000000000e+02 6.570000000000000000e+02 6.580000000000000000e+02 6.590000000000000000e+02 6.600000000000000000e+02 6.610000000000000000e+02 6.620000000000000000e+02 6.630000000000000000e+02 6.640000000000000000e+02 6.650000000000000000e+02 6.660000000000000000e+02 6.670000000000000000e+02 6.680000000000000000e+02 6.690000000000000000e+02 6.700000000000000000e+02 6.710000000000000000e+02 6.720000000000000000e+02 6.730000000000000000e+02 6.740000000000000000e+02 6.750000000000000000e+02 6.760000000000000000e+02 6.770000000000000000e+02 6.780000000000000000e+02 6.790000000000000000e+02 6.800000000000000000e+02 6.810000000000000000e+02 6.820000000000000000e+02 6.830000000000000000e+02 6.840000000000000000e+02 6.850000000000000000e+02 6.860000000000000000e+02 6.870000000000000000e+02 6.880000000000000000e+02 6.890000000000000000e+02 6.900000000000000000e+02 6.910000000000000000e+02 6.920000000000000000e+02 6.930000000000000000e+02 6.940000000000000000e+02 6.950000000000000000e+02 6.960000000000000000e+02 6.970000000000000000e+02 6.980000000000000000e+02 6.990000000000000000e+02 7.000000000000000000e+02 7.010000000000000000e+02 7.020000000000000000e+02 7.030000000000000000e+02 7.040000000000000000e+02 7.050000000000000000e+02 7.060000000000000000e+02 7.070000000000000000e+02 7.080000000000000000e+02 7.090000000000000000e+02 7.100000000000000000e+02 7.110000000000000000e+02 7.120000000000000000e+02 7.130000000000000000e+02 7.140000000000000000e+02 7.150000000000000000e+02 7.160000000000000000e+02 7.170000000000000000e+02 7.180000000000000000e+02 7.190000000000000000e+02 7.200000000000000000e+02 7.210000000000000000e+02 7.220000000000000000e+02 7.230000000000000000e+02 7.240000000000000000e+02 7.250000000000000000e+02 7.260000000000000000e+02 7.270000000000000000e+02 7.280000000000000000e+02 7.290000000000000000e+02 7.300000000000000000e+02 7.310000000000000000e+02 7.320000000000000000e+02 7.330000000000000000e+02 7.340000000000000000e+02 7.350000000000000000e+02 7.360000000000000000e+02 7.370000000000000000e+02 7.380000000000000000e+02 7.390000000000000000e+02 7.400000000000000000e+02 7.410000000000000000e+02 7.420000000000000000e+02 7.430000000000000000e+02 7.440000000000000000e+02 7.450000000000000000e+02 7.460000000000000000e+02 7.470000000000000000e+02 7.480000000000000000e+02 7.490000000000000000e+02 7.500000000000000000e+02 7.510000000000000000e+02 7.520000000000000000e+02 7.530000000000000000e+02 7.540000000000000000e+02 7.550000000000000000e+02 7.560000000000000000e+02 7.570000000000000000e+02 7.580000000000000000e+02 7.590000000000000000e+02 7.600000000000000000e+02 7.610000000000000000e+02 7.620000000000000000e+02 7.630000000000000000e+02 7.640000000000000000e+02 7.650000000000000000e+02 7.660000000000000000e+02 7.670000000000000000e+02 7.680000000000000000e+02 7.690000000000000000e+02 7.700000000000000000e+02 7.710000000000000000e+02 7.720000000000000000e+02 7.730000000000000000e+02 7.740000000000000000e+02 7.750000000000000000e+02 7.760000000000000000e+02 7.770000000000000000e+02 7.780000000000000000e+02 7.790000000000000000e+02 7.800000000000000000e+02 7.810000000000000000e+02 7.820000000000000000e+02 7.830000000000000000e+02 7.840000000000000000e+02 7.850000000000000000e+02 7.860000000000000000e+02 7.870000000000000000e+02 7.880000000000000000e+02 7.890000000000000000e+02 7.900000000000000000e+02 7.910000000000000000e+02 7.920000000000000000e+02 7.930000000000000000e+02 7.940000000000000000e+02 7.950000000000000000e+02 7.960000000000000000e+02 7.970000000000000000e+02 7.980000000000000000e+02 7.990000000000000000e+02 8.000000000000000000e+02 8.010000000000000000e+02 8.020000000000000000e+02 8.030000000000000000e+02 8.040000000000000000e+02 8.050000000000000000e+02 8.060000000000000000e+02 8.070000000000000000e+02 8.080000000000000000e+02 8.090000000000000000e+02 8.100000000000000000e+02 8.110000000000000000e+02 8.120000000000000000e+02 8.130000000000000000e+02 8.140000000000000000e+02 8.150000000000000000e+02 8.160000000000000000e+02 8.170000000000000000e+02 8.180000000000000000e+02 8.190000000000000000e+02 8.200000000000000000e+02 8.210000000000000000e+02 8.220000000000000000e+02 8.230000000000000000e+02 8.240000000000000000e+02 8.250000000000000000e+02 8.260000000000000000e+02 8.270000000000000000e+02 8.280000000000000000e+02 8.290000000000000000e+02 8.300000000000000000e+02 8.310000000000000000e+02 8.320000000000000000e+02 8.330000000000000000e+02 8.340000000000000000e+02 8.350000000000000000e+02 8.360000000000000000e+02 8.370000000000000000e+02 8.380000000000000000e+02 8.390000000000000000e+02 8.400000000000000000e+02 8.410000000000000000e+02 8.420000000000000000e+02 8.430000000000000000e+02 8.440000000000000000e+02 8.450000000000000000e+02 8.460000000000000000e+02 8.470000000000000000e+02 8.480000000000000000e+02 8.490000000000000000e+02 8.500000000000000000e+02 8.510000000000000000e+02 8.520000000000000000e+02 8.530000000000000000e+02 8.540000000000000000e+02 8.550000000000000000e+02 8.560000000000000000e+02 8.570000000000000000e+02 8.580000000000000000e+02 8.590000000000000000e+02 8.600000000000000000e+02 8.610000000000000000e+02 8.620000000000000000e+02 8.630000000000000000e+02 8.640000000000000000e+02 8.650000000000000000e+02 8.660000000000000000e+02 8.670000000000000000e+02 8.680000000000000000e+02 8.690000000000000000e+02 8.700000000000000000e+02 8.710000000000000000e+02 8.720000000000000000e+02 8.730000000000000000e+02 8.740000000000000000e+02 8.750000000000000000e+02 8.760000000000000000e+02 8.770000000000000000e+02 8.780000000000000000e+02 8.790000000000000000e+02 8.800000000000000000e+02 8.810000000000000000e+02 8.820000000000000000e+02 8.830000000000000000e+02 8.840000000000000000e+02 8.850000000000000000e+02 8.860000000000000000e+02 8.870000000000000000e+02 8.880000000000000000e+02 8.890000000000000000e+02 8.900000000000000000e+02 8.910000000000000000e+02 8.920000000000000000e+02 8.930000000000000000e+02 8.940000000000000000e+02 8.950000000000000000e+02 8.960000000000000000e+02 8.970000000000000000e+02 8.980000000000000000e+02 8.990000000000000000e+02 9.000000000000000000e+02 9.010000000000000000e+02 9.020000000000000000e+02 9.030000000000000000e+02 9.040000000000000000e+02 9.050000000000000000e+02 9.060000000000000000e+02 9.070000000000000000e+02 9.080000000000000000e+02 9.090000000000000000e+02 9.100000000000000000e+02 9.110000000000000000e+02 9.120000000000000000e+02 9.130000000000000000e+02 9.140000000000000000e+02 9.150000000000000000e+02 9.160000000000000000e+02 9.170000000000000000e+02 9.180000000000000000e+02 9.190000000000000000e+02 9.200000000000000000e+02 9.210000000000000000e+02 9.220000000000000000e+02 9.230000000000000000e+02 9.240000000000000000e+02 9.250000000000000000e+02 9.260000000000000000e+02 9.270000000000000000e+02 9.280000000000000000e+02 9.290000000000000000e+02 9.300000000000000000e+02 9.310000000000000000e+02 9.320000000000000000e+02 9.330000000000000000e+02 9.340000000000000000e+02 9.350000000000000000e+02 9.360000000000000000e+02 9.370000000000000000e+02 9.380000000000000000e+02 9.390000000000000000e+02 9.400000000000000000e+02 9.410000000000000000e+02 9.420000000000000000e+02 9.430000000000000000e+02 9.440000000000000000e+02 9.450000000000000000e+02 9.460000000000000000e+02 9.470000000000000000e+02 9.480000000000000000e+02 9.490000000000000000e+02 9.500000000000000000e+02 9.510000000000000000e+02 9.520000000000000000e+02 9.530000000000000000e+02 9.540000000000000000e+02 9.550000000000000000e+02 9.560000000000000000e+02 9.570000000000000000e+02 9.580000000000000000e+02 9.590000000000000000e+02 9.600000000000000000e+02 9.610000000000000000e+02 9.620000000000000000e+02 9.630000000000000000e+02 9.640000000000000000e+02 9.650000000000000000e+02 9.660000000000000000e+02 9.670000000000000000e+02 9.680000000000000000e+02 9.690000000000000000e+02 9.700000000000000000e+02 9.710000000000000000e+02 9.720000000000000000e+02 9.730000000000000000e+02 9.740000000000000000e+02 9.750000000000000000e+02 9.760000000000000000e+02 9.770000000000000000e+02 9.780000000000000000e+02 9.790000000000000000e+02 9.800000000000000000e+02 9.810000000000000000e+02 9.820000000000000000e+02 9.830000000000000000e+02 9.840000000000000000e+02 9.850000000000000000e+02 9.860000000000000000e+02 9.870000000000000000e+02 9.880000000000000000e+02 9.890000000000000000e+02 9.900000000000000000e+02 9.910000000000000000e+02 9.920000000000000000e+02 9.930000000000000000e+02 9.940000000000000000e+02 9.950000000000000000e+02 9.960000000000000000e+02 9.970000000000000000e+02 9.980000000000000000e+02 9.990000000000000000e+02 1.000000000000000000e+03
1.000000000000000021e-02 1.000000000000000021e-02 1.000000000000000021e-02 1.000000000000000021e-02 1.000000000000000021e-02 1.000000000000000021e-02 1.000000000000000021e-02 1.000000000000000021e-02 1.000000000000000021e-02 1.000000000000000021e-02 1.000000000000000021e-02 1.000000000000000021e-02 1.000000000000000021e-02 1.000000000000000021e-02 1.000000000000000021e-02 1.000000000000000021e-02 1.000000000000000021e-02 1.000000000000000021e-02 1.000000000000000021e-02 1.000000000000000021e-02 1.000000000000000021e-02 1.000000000000000021e-02 1.000000000000000021e-02 1.000000000000000021e-02 1.000000000000000021e-02 1.000000000000000021e-02 1.000000000000000021e-02 1.000000000000000021e-02 1.000000000000000021e-02 1.000000000000000021e-02 1.000000000000000021e-02 1.000000000000000021e-02 1.000000000000000021e-02 1.000000000000000021e-02 1.000000000000000021e-02 1.000000000000000021e-02 1.000000000000000021e-02 1.000000000000000021e-02 1.000000000000000021e-02 1.000000000000000021e-02 1.000000000000000021e-02 1.000000000000000021e-02 1.000000000000000021e-02 1.000000000000000021e-02 1.000000000000000021e-02 1.000000000000000021e-02 1.000000000000000021e-02 1.000000000000000021e-02 1.000000000000000021e-02 1.000000000000000021e-02 1.000000000000000021e-02 1.000000000000000021e-02 1.000000000000000021e-02 1.000000000000000021e-02 1.000000000000000021e-02 1.000000000000000021e-02 1.000000000000000021e-02 1.000000000000000021e-02 1.000000000000000021e-02 1.000000000000000021e-02 1.000000000000000021e-02 1.000000000000000021e-02 1.000000000000000021e-02 1.000000000000000021e-02 1.000000000000000021e-02 1.000000000000000021e-02 1.000000000000000021e-02 1.000000000000000021e-02 1.000000000000000021e-02 1.000000000000000021e-02 1.000000000000000021e-02 1.000000000000000021e-02 1.000000000000000021e-02 1.000000000000000021e-02 1.000000000000000021e-02 1.000000000000000021e-02 1.000000000000000021e-02 1.000000000000000021e-02 1.000000000000000021e-02 1.000000000000000021e-02 1.000000000000000021e-02 1.000000000000000021e-02 1.000000000000000021e-02 1.000000000000000021e-02 1.000000000000000021e-02 1.000000000000000021e-02 1.000000000000000021e-02 1.000000000000000021e-02 1.000000000000000021e-02 1.000000000000000021e-02 1.000000000000000021e-02 1.000000000000000021e-02 1.000000000000000021e-02 1.000000000000000021e-02 1.000000000000000021e-02 1.000000000000000021e-02 1.000000000000000021e-02 1.000000000000000021e-02 1.000000000000000021e-02 1.000000000000000021e-02 1.000000000000000021e-02 1.000000000000000021e-02 1.000000000000000021e-02 1.000000000000000021e-02 1.000000000000000021e-02 1.000000000000000021e-02 1.000000000000000021e-02 1.000000000000000021e-02 1.000000000000000021e-02 1.000000000000000021e-02 1.000000000000000021e-02 1.000000000000000021e-02 1.000000000000000021e-02 1.000000000000000021e-02 1.000000000000000021e-02 1.000000000000000021e-02 1.000000000000000021e-02 1.000000000000000021e-02 1.000000000000000021e-02 1.000000000000000021e-02 1.000000000000000021e-02 1.000000000000000021e-02 1.000000000000000021e-02 1.000000000000000021e-02 1.000000000000000021e-02 1.000000000000000021e-02 1.000000000000000021e-02 1.000000000000000021e-02 1.000000000000000021e-02 1.000000000000000021e-02 1.000000000000000021e-02 1.000000000000000021e-02 1.000000000000000021e-02 1.000000000000000021e-02 1.000000000000000021e-02 1.000000000000000021e-02 1.000000000000000021e-02 1.000000000000000021e-02 1.000000000000000021e-02 1.000000000000000021e-02 1.000000000000000021e-02 1.000000000000000021e-02 1.000000000000000021e-02 1.000000000000000021e-02 1.000000000000000021e-02 1.000000000000000021e-02 1.000000000000000021e-02 1.000000000000000021e-02 1.000000000000000021e-02 1.000000000000000021e-02 1.000000000000000021e-02 1.000000000000000021e-02 1.000000000000000021e-02 1.000000000000000021e-02 1.000000000000000021e-02 1.000000000000000021e-02 1.000000000000000021e-02 1.000000000000000021e-02 1.000000000000000021e-02 1.000000000000000021e-02 1.000000000000000021e-02 1.000000000000000021e-02 1.000000000000000021e-02 1.000000000000000021e-02 1.000000000000000021e-02 1.000000000000000021e-02 1.000000000000000021e-02 1.000000000000000021e-02 1.000000000000000021e-02 1.000000000000000021e-02 1.000000000000000021e-02 1.000000000000000021e-02 1.000000000000000021e-02 1.000000000000000021e-02 1.000000000000000021e-02 1.000000000000000021e-02 1.000000000000000021e-02 1.000000000000000021e-02 1.000000000000000021e-02 1.000000000000000021e-02 1.000000000000000021e-02 1.000000000000000021e-02 1.000000000000000021e-02 1.000000000000000021e-02 1.000000000000000021e-02 1.000000000000000021e-02 1.000000000000000021e-02 1.000000000000000021e-02 1.000000000000000021e-02 1.000000000000000021e-02 1.000000000000000021e-02 1.000000000000000021e-02 1.000000000000000021e-02 1.000000000000000021e-02 1.000000000000000021e-02 1.000000000000000021e-02 1.000000000000000021e-02 1.000000000000000021e-02 1.000000000000000021e-02 1.000000000000000021e-02 1.000000000000000021e-02 1.000000000000000021e-02 1.000000000000000021e-02 1.000000000000000021e-02 1.000000000000000021e-02 1.000000000000000021e-02 1.000000000000000021e-02 1.000000000000000021e-02 1.000000000000000021e-02 1.000000000000000021e-02 1.000000000000000021e-02 1.000000000000000021e-02 1.000000000000000021e-02 1.000000000000000021e-02 1.000000000000000021e-02 1.000000000000000021e-02 1.000000000000000021e-02 1.000000000000000021e-02 1.000000000000000021e-02 1.000000000000000021e-02 1.000000000000000021e-02 1.000000000000000021e-02 1.000000000000000021e-02 1.000000000000000021e-02 1.000000000000000021e-02 1.000000000000000021e-02 1.000000000000000021e-02 1.000000000000000021e-02 1.000000000000000021e-02 1.000000000000000021e-02 1.000000000000000021e-02 1.000000000000000021e-02 1.000000000000000021e-02 1.000000000000000021e-02 1.000000000000000021e-02 1.000000000000000021e-02 1.000000000000000021e-02 1.000000000000000021e-02 1.000000000000000021e-02 1.000000000000000021e-02 1.000000000000000021e-02 1.000000000000000021e-02 1.000000000000000021e-02 1.000000000000000021e-02 1.000000000000000021e-02 1.000000000000000021e-02 1.000000000000000021e-02 1.000000000000000021e-02 1.000000000000000021e-02 1.000000000000000021e-02 1.000000000000000021e-02 1.000000000000000021e-02 1.000000000000000021e-02 1.000000000000000021e-02 1.000000000000000021e-02 1.000000000000000021e-02 1.000000000000000021e-02 1.000000000000000021e-02 1.000000000000000021e-02 1.000000000000000021e-02 1.000000000000000021e-02 1.000000000000000021e-02 1.000000000000000021e-02 1.000000000000000021e-02 1.000000000000000021e-02 1.000000000000000021e-02 1.000000000000000021e-02 1.000000000000000021e-02 1.000000000000000021e-02 1.000000000000000021e-02 1.000000000000000021e-02 1.000000000000000021e-02 1.000000000000000021e-02 1.000000000000000021e-02 1.000000000000000021e-02 1.000000000000000021e-02 1.000000000000000021e-02 1.000000000000000021e-02 1.000000000000000021e-02 1.000000000000000021e-02 1.000000000000000021e-02 1.000000000000000021e-02 1.000000000000000021e-02 1.000000000000000021e-02 1.000000000000000021e-02 1.000000000000000021e-02 1.000000000000000021e-02 1.000000000000000021e-02 1.000000000000000021e-02 1.000000000000000021e-02 1.000000000000000021e-02 1.000000000000000021e-02 1.000000000000000021e-02 1.000000000000000021e-02 1.000000000000000021e-02 1.000000000000000021e-02 1.000000000000000021e-02 1.000000000000000021e-02 1.000000000000000021e-02 1.000000000000000021e-02 1.000000000000000021e-02 1.000000000000000021e-02 1.000000000000000021e-02 1.000000000000000021e-02 1.000000000000000021e-02 1.000000000000000021e-02 1.000000000000000021e-02 1.000000000000000021e-02 1.000000000000000021e-02 1.000000000000000021e-02 1.000000000000000021e-02 1.000000000000000021e-02 1.000000000000000021e-02 1.000000000000000021e-02 1.000000000000000021e-02 1.000000000000000021e-02 1.000000000000000021e-02 1.000000000000000021e-02 1.000000000000000021e-02 1.000000000000000021e-02 1.000000000000000021e-02 1.000000000000000021e-02 1.000000000000000021e-02 1.000000000000000021e-02 1.000000000000000021e-02 1.000000000000000021e-02 1.000000000000000021e-02 1.000000000000000021e-02 1.000000000000000021e-02 1.000000000000000021e-02 1.000000000000000021e-02 1.000000000000000021e-02 1.000000000000000021e-02 1.000000000000000021e-02 1.000000000000000021e-02 1.000000000000000021e-02 1.000000000000000021e-02 1.000000000000000021e-02 1.000000000000000021e-02 1.000000000000000021e-02 1.000000000000000021e-02 1.000000000000000021e-02 1.000000000000000021e-02 1.000000000000000021e-02 1.000000000000000021e-02 1.000000000000000021e-02 1.000000000000000021e-02 1.000000000000000021e-02 1.000000000000000021e-02 1.000000000000000021e-02 1.000000000000000021e-02 1.000000000000000021e-02 1.000000000000000021e-02 1.000000000000000021e-02 1.000000000000000021e-02 1.000000000000000021e-02 1.000000000000000021e-02 1.000000000000000021e-02 1.000000000000000021e-02 1.000000000000000021e-02 1.000000000000000021e-02 1.000000000000000021e-02 1.000000000000000021e-02 1.000000000000000021e-02 1.000000000000000021e-02 1.000000000000000021e-02 1.000000000000000021e-02 1.000000000000000021e-02 1.000000000000000021e-02 1.000000000000000021e-02 1.000000000000000021e-02 1.000000000000000021e-02 1.000000000000000021e-02 1.000000000000000021e-02 1.000000000000000021e-02 1.000000000000000021e-02 1.000000000000000021e-02 1.000000000000000021e-02 1.000000000000000021e-02 1.000000000000000021e-02 1.000000000000000021e-02 1.000000000000000021e-02 1.000000000000000021e-02 1.000000000000000021e-02 1.000000000000000021e-02 1.000000000000000021e-02 1.000000000000000021e-02 1.000000000000000021e-02 1.000000000000000021e-02 1.000000000000000021e-02 1.000000000000000021e-02 1.000000000000000021e-02 1.000000000000000021e-02 1.000000000000000021e-02 1.000000000000000021e-02 1.000000000000000021e-02 1.000000000000000021e-02 1.000000000000000021e-02 1.000000000000000021e-02 1.000000000000000021e-02 1.000000000000000021e-02 1.000000000000000021e-02 1.000000000000000021e-02 1.000000000000000021e-02 1.000000000000000021e-02 1.000000000000000021e-02 1.000000000000000021e-02 1.000000000000000021e-02 1.000000000000000021e-02 1.000000000000000021e-02 1.000000000000000021e-02 1.000000000000000021e-02 1.000000000000000021e-02 1.000000000000000021e-02 1.000000000000000021e-02 1.000000000000000021e-02 1.000000000000000021e-02 1.000000000000000021e-02 1.000000000000000021e-02 1.000000000000000021e-02 1.000000000000000021e-02 1.000000000000000021e-02 1.000000000000000021e-02 1.000000000000000021e-02 1.000000000000000021e-02 1.000000000000000021e-02 1.000000000000000021e-02 1.000000000000000021e-02 1.000000000000000021e-02 1.000000000000000021e-02 1.000000000000000021e-02 1.000000000000000021e-02 1.000000000000000021e-02 1.000000000000000021e-02 1.000000000000000021e-02 1.000000000000000021e-02 1.000000000000000021e-02 1.000000000000000021e-02 1.000000000000000021e-02 1.000000000000000021e-02 1.000000000000000021e-02 1.000000000000000021e-02 1.000000000000000021e-02 1.000000000000000021e-02 1.000000000000000021e-02 1.000000000000000021e-02 1.000000000000000021e-02 1.000000000000000021e-02 1.000000000000000021e-02 1.000000000000000021e-02 1.000000000000000021e-02 1.000000000000000021e-02 1.000000000000000021e-02 1.000000000000000021e-02 1.000000000000000021e-02 1.000000000000000021e-02 1.000000000000000021e-02 1.000000000000000021e-02 1.000000000000000021e-02 1.000000000000000021e-02 1.000000000000000021e-02 1.000000000000000021e-02 1.000000000000000021e-02 1.000000000000000021e-02 1.000000000000000021e-02 1.000000000000000021e-02 1.000000000000000021e-02 1.000000000000000021e-02 1.000000000000000021e-02 1.000000000000000021e-02 1.000000000000000021e-02 1.000000000000000021e-02 1.000000000000000021e-02 1.000000000000000021e-02 1.000000000000000021e-02 1.000000000000000021e-02 1.000000000000000021e-02 1.000000000000000021e-02 1.000000000000000021e-02 1.000000000000000021e-02 1.000000000000000021e-02 1.000000000000000021e-02 1.000000000000000021e-02 1.000000000000000021e-02 1.000000000000000021e-02 1.000000000000000021e-02 1.000000000000000021e-02 1.000000000000000021e-02 1.000000000000000021e-02 1.000000000000000021e-02 1.000000000000000021e-02 1.000000000000000021e-02 1.000000000000000021e-02 1.000000000000000021e-02 1.000000000000000021e-02 1.000000000000000021e-02 1.000000000000000021e-02 1.000000000000000021e-02 1.000000000000000021e-02 1.000000000000000021e-02 1.000000000000000021e-02 1.000000000000000021e-02 1.000000000000000021e-02 1.000000000000000021e-02 1.000000000000000021e-02 1.000000000000000021e-02 1.000000000000000021e-02 1.000000000000000021e-02 1.000000000000000021e-02 1.000000000000000021e-02 1.000000000000000021e-02 1.000000000000000021e-02 1.000000000000000021e-02 1.000000000000000021e-02 1.000000000000000021e-02 1.000000000000000021e-02 1.000000000000000021e-02 1.000000000000000021e-02 1.000000000000000021e-02 1.000000000000000021e-02 1.000000000000000021e-02 1.000000000000000021e-02 1.000000000000000021e-02 1.000000000000000021e-02 1.000000000000000021e-02 1.000000000000000021e-02 1.000000000000000021e-02 1.000000000000000021e-02 1.000000000000000021e-02 1.000000000000000021e-02 1.000000000000000021e-02 1.000000000000000021e-02 1.000000000000000021e-02 1.000000000000000021e-02 1.000000000000000021e-02 1.000000000000000021e-02 1.000000000000000021e-02 1.000000000000000021e-02 1.000000000000000021e-02 1.000000000000000021e-02 1.000000000000000021e-02 1.000000000000000021e-02 1.000000000000000021e-02 1.000000000000000021e-02 1.000000000000000021e-02 1.000000000000000021e-02 1.000000000000000021e-02 1.000000000000000021e-02 1.000000000000000021e-02 1.000000000000000021e-02 1.000000000000000021e-02 1.000000000000000021e-02 1.000000000000000021e-02 1.000000000000000021e-02 1.000000000000000021e-02 1.000000000000000021e-02 1.000000000000000021e-02 1.000000000000000021e-02 1.000000000000000021e-02 1.000000000000000021e-02 1.000000000000000021e-02 1.000000000000000021e-02 1.000000000000000021e-02 1.000000000000000021e-02 1.000000000000000021e-02 1.000000000000000021e-02 1.000000000000000021e-02 1.000000000000000021e-02 1.000000000000000021e-02 1.000000000000000021e-02 1.000000000000000021e-02 1.000000000000000021e-02 1.000000000000000021e-02 1.000000000000000021e-02 1.000000000000000021e-02 1.000000000000000021e-02 1.000000000000000021e-02 1.000000000000000021e-02 1.000000000000000021e-02 1.000000000000000021e-02 1.000000000000000021e-02 1.000000000000000021e-02 1.000000000000000021e-02 1.000000000000000021e-02 1.000000000000000021e-02 1.000000000000000021e-02 1.000000000000000021e-02 1.000000000000000021e-02 1.000000000000000021e-02 1.000000000000000021e-02 1.000000000000000021e-02 1.000000000000000021e-02 1.000000000000000021e-02 1.000000000000000021e-02 1.000000000000000021e-02 1.000000000000000021e-02 1.000000000000000021e-02 1.000000000000000021e-02 1.000000000000000021e-02 1.000000000000000021e-02 1.000000000000000021e-02 1.000000000000000021e-02 1.000000000000000021e-02 1.000000000000000021e-02 1.000000000000000021e-02 1.000000000000000021e-02 1.000000000000000021e-02 1.000000000000000021e-02 1.000000000000000021e-02 1.000000000000000021e-02 1.000000000000000021e-02 1.000000000000000021e-02 1.000000000000000021e-02 1.000000000000000021e-02 1.000000000000000021e-02 1.000000000000000021e-02 1.000000000000000021e-02 1.000000000000000021e-02 1.000000000000000021e-02 1.000000000000000021e-02 1.000000000000000021e-02 1.000000000000000021e-02 1.000000000000000021e-02 1.000000000000000021e-02 1.000000000000000021e-02 1.000000000000000021e-02 1.000000000000000021e-02 1.000000000000000021e-02 1.000000000000000021e-02 1.000000000000000021e-02 1.000000000000000021e-02 1.000000000000000021e-02 1.000000000000000021e-02 1.000000000000000021e-02 1.000000000000000021e-02 1.000000000000000021e-02 1.000000000000000021e-02 1.000000000000000021e-02 1.000000000000000021e-02 1.000000000000000021e-02 1.000000000000000021e-02 1.000000000000000021e-02 1.000000000000000021e-02 1.000000000000000021e-02 1.000000000000000021e-02 1.000000000000000021e-02 1.000000000000000021e-02 1.000000000000000021e-02 1.000000000000000021e-02 1.000000000000000021e-02 1.000000000000000021e-02 1.000000000000000021e-02 1.000000000000000021e-02 1.000000000000000021e-02 1.000000000000000021e-02 1.000000000000000021e-02 1.000000000000000021e-02 1.000000000000000021e-02 1.000000000000000021e-02 1.000000000000000021e-02 1.000000000000000021e-02 1.000000000000000021e-02 1.000000000000000021e-02 1.000000000000000021e-02 1.000000000000000021e-02 1.000000000000000021e-02 1.000000000000000021e-02 1.000000000000000021e-02 1.000000000000000021e-02 1.000000000000000021e-02 1.000000000000000021e-02 1.000000000000000021e-02 1.000000000000000021e-02 1.000000000000000021e-02 1.000000000000000021e-02 1.000000000000000021e-02 1.000000000000000021e-02 1.000000000000000021e-02 1.000000000000000021e-02 1.000000000000000021e-02 1.000000000000000021e-02 1.000000000000000021e-02 1.000000000000000021e-02 1.000000000000000021e-02 1.000000000000000021e-02 1.000000000000000021e-02 1.000000000000000021e-02 1.000000000000000021e-02 1.000000000000000021e-02 1.000000000000000021e-02 1.000000000000000021e-02 1.000000000000000021e-02 1.000000000000000021e-02 1.000000000000000021e-02 1.000000000000000021e-02 1.000000000000000021e-02 1.000000000000000021e-02 1.000000000000000021e-02 1.000000000000000021e-02 1.000000000000000021e-02 1.000000000000000021e-02 1.000000000000000021e-02 1.000000000000000021e-02 1.000000000000000021e-02 1.000000000000000021e-02 1.000000000000000021e-02 1.000000000000000021e-02 1.000000000000000021e-02 1.000000000000000021e-02 1.000000000000000021e-02 1.000000000000000021e-02 1.000000000000000021e-02 1.000000000000000021e-02 1.000000000000000021e-02 1.000000000000000021e-02 1.000000000000000021e-02 1.000000000000000021e-02 1.000000000000000021e-02 1.000000000000000021e-02 1.000000000000000021e-02 1.000000000000000021e-02 1.000000000000000021e-02 1.000000000000000021e-02 1.000000000000000021e-02 1.000000000000000021e-02 1.000000000000000021e-02 1.000000000000000021e-02 1.000000000000000021e-02 1.000000000000000021e-02 1.000000000000000021e-02 1.000000000000000021e-02 1.000000000000000021e-02 1.000000000000000021e-02 1.000000000000000021e-02 1.000000000000000021e-02 1.000000000000000021e-02 1.000000000000000021e-02 1.000000000000000021e-02 1.000000000000000021e-02 1.000000000000000021e-02 1.000000000000000021e-02 1.000000000000000021e-02 1.000000000000000021e-02 1.000000000000000021e-02 1.000000000000000021e-02 1.000000000000000021e-02 1.000000000000000021e-02 1.000000000000000021e-02 1.000000000000000021e-02 1.000000000000000021e-02 1.000000000000000021e-02 1.000000000000000021e-02 1.000000000000000021e-02 1.000000000000000021e-02 1.000000000000000021e-02 1.000000000000000021e-02 1.000000000000000021e-02 1.000000000000000021e-02 1.000000000000000021e-02 1.000000000000000021e-02 1.000000000000000021e-02 1.000000000000000021e-02 1.000000000000000021e-02 1.000000000000000021e-02 1.000000000000000021e-02 1.000000000000000021e-02 1.000000000000000021e-02 1.000000000000000021e-02 1.000000000000000021e-02 1.000000000000000021e-02 1.000000000000000021e-02 1.000000000000000021e-02 1.000000000000000021e-02 1.000000000000000021e-02 1.000000000000000021e-02 1.000000000000000021e-02 1.000000000000000021e-02 1.000000000000000021e-02 1.000000000000000021e-02 1.000000000000000021e-02 1.000000000000000021e-02 1.000000000000000021e-02 1.000000000000000021e-02 1.000000000000000021e-02 1.000000000000000021e-02 1.000000000000000021e-02 1.000000000000000021e-02 1.000000000000000021e-02 1.000000000000000021e-02 1.000000000000000021e-02 1.000000000000000021e-02 1.000000000000000021e-02 1.000000000000000021e-02 1.000000000000000021e-02 1.000000000000000021e-02 1.000000000000000021e-02 1.000000000000000021e-02 1.000000000000000021e-02 1.000000000000000021e-02 1.000000000000000021e-02 1.000000000000000021e-02 1.000000000000000021e-02 1.000000000000000021e-02 1.000000000000000021e-02 1.000000000000000021e-02 1.000000000000000021e-02 1.000000000000000021e-02 1.000000000000000021e-02 1.000000000000000021e-02 1.000000000000000021e-02 1.000000000000000021e-02 1.000000000000000021e-02 1.000000000000000021e-02 1.000000000000000021e-02 1.000000000000000021e-02 1.000000000000000021e-02 1.000000000000000021e-02 1.000000000000000021e-02 1.000000000000000021e-02 1.000000000000000021e-02 1.000000000000000021e-02 1.000000000000000021e-02 1.000000000000000021e-02 1.000000000000000021e-02 1.000000000000000021e-02 1.000000000000000021e-02 1.000000000000000021e-02 1.000000000000000021e-02 1.000000000000000021e-02 1.000000000000000021e-02 1.000000000000000021e-02 1.000000000000000021e-02 1.000000000000000021e-02 1.000000000000000021e-02 1.000000000000000021e-02 1.000000000000000021e-02 1.000000000000000021e-02 1.000000000000000021e-02 1.000000000000000021e-02 1.000000000000000021e-02 1.000000000000000021e-02 1.000000000000000021e-02 1.000000000000000021e-02 1.000000000000000021e-02 1.000000000000000021e-02 1.000000000000000021e-02 1.000000000000000021e-02 1.000000000000000021e-02 1.000000000000000021e-02 1.000000000000000021e-02 1.000000000000000021e-02 1.000000000000000021e-02 1.000000000000000021e-02 1.000000000000000021e-02 1.000000000000000021e-02 1.000000000000000021e-02 1.000000000000000021e-02 1.000000000000000021e-02 1.000000000000000021e-02 1.000000000000000021e-02 1.000000000000000021e-02 1.000000000000000021e-02 1.000000000000000021e-02 1.000000000000000021e-02 1.000000000000000021e-02 1.000000000000000021e-02 1.000000000000000021e-02 1.000000000000000021e-02 1.000000000000000021e-02 1.000000000000000021e-02 1.000000000000000021e-02 1.000000000000000021e-02 1.000000000000000021e-02 1.000000000000000021e-02 1.000000000000000021e-02 1.000000000000000021e-02 1.000000000000000021e-02 1.000000000000000021e-02 1.000000000000000021e-02 1.000000000000000021e-02 1.000000000000000021e-02 1.000000000000000021e-02 1.000000000000000021e-02 1.000000000000000021e-02 1.000000000000000021e-02 1.000000000000000021e-02 1.000000000000000021e-02 1.000000000000000021e-02 1.000000000000000021e-02 1.000000000000000021e-02 1.000000000000000021e-02 1.000000000000000021e-02 1.000000000000000021e-02 1.000000000000000021e-02 1.000000000000000021e-02 1.000000000000000021e-02 1.000000000000000021e-02 1.000000000000000021e-02 1.000000000000000021e-02 1.000000000000000021e-02 1.000000000000000021e-02 1.000000000000000021e-02 1.000000000000000021e-02 1.000000000000000021e-02 1.000000000000000021e-02 1.000000000000000021e-02 1.000000000000000021e-02 1.000000000000000021e-02 1.000000000000000021e-02 1.000000000000000021e-02 1.000000000000000021e-02 1.000000000000000021e-02 1.000000000000000021e-02 1.000000000000000021e-02 1.000000000000000021e-02 1.000000000000000021e-02 1.000000000000000021e-02 1.000000000000000021e-02 1.000000000000000021e-02 1.000000000000000021e-02 1.000000000000000021e-02 1.000000000000000021e-02 1.000000000000000021e-02 1.000000000000000021e-02 1.000000000000000021e-02 1.000000000000000021e-02 1.000000000000000021e-02 1.000000000000000021e-02 1.000000000000000021e-02 1.000000000000000021e-02 1.000000000000000021e-02 1.000000000000000021e-02 1.000000000000000021e-02 1.000000000000000021e-02 1.000000000000000021e-02 1.000000000000000021e-02 1.000000000000000021e-02 1.000000000000000021e-02 1.000000000000000021e-02 1.000000000000000021e-02 1.000000000000000021e-02 1.000000000000000021e-02 1.000000000000000021e-02 1.000000000000000021e-02 1.000000000000000021e-02 1.000000000000000021e-02 1.000000000000000021e-02 1.000000000000000021e-02 1.000000000000000021e-02 1.000000000000000021e-02 1.000000000000000021e-02 1.000000000000000021e-02 1.000000000000000021e-02 1.000000000000000021e-02 1.000000000000000021e-02 1.000000000000000021e-02 1.000000000000000021e-02 1.000000000000000021e-02 1.000000000000000021e-02 1.000000000000000021e-02 1.000000000000000021e-02 1.000000000000000021e-02 1.000000000000000021e-02 1.000000000000000021e-02 1.000000000000000021e-02 1.000000000000000021e-02 1.000000000000000021e-02 1.000000000000000021e-02 1.000000000000000021e-02 1.000000000000000021e-02 1.000000000000000021e-02 1.000000000000000021e-02 1.000000000000000021e-02 1.000000000000000021e-02 1.000000000000000021e-02 1.000000000000000021e-02 1.000000000000000021e-02 1.000000000000000021e-02 1.000000000000000021e-02 1.000000000000000021e-02 1.000000000000000021e-02 1.000000000000000021e-02 1.000000000000000021e-02 1.000000000000000021e-02 1.000000000000000021e-02 1.000000000000000021e-02 1.000000000000000021e-02 1.000000000000000021e-02 1.000000000000000021e-02 1.000000000000000021e-02 1.000000000000000021e-02 1.000000000000000021e-02 1.000000000000000021e-02 1.000000000000000021e-02 1.000000000000000021e-02 1.000000000000000021e-02 1.000000000000000021e-02 1.000000000000000021e-02 1.000000000000000021e-02 1.000000000000000021e-02
-1.064045376575626989e+02 1.619002482894059369e+02 3.747542231182300299e+01 -8.413603062723842285e+00 -8.383128004693880087e+01 -1.277155771341615065e+01 -1.984247233488409279e+02 6.840525780068055228e-01 -8.079539062898126645e+01 -1.354864766085485783e+01 -1.894720725484846113e+01 6.262607095957669401e+00 -1.701680256050041029e+00 1.600934837820900327e+02 8.075273325708313621e+01 -3.705783279044433698e+01 -5.044367685337726215e+01 7.558651216908590698e+01 3.133196314831091200e+01 -2.422787618664871445e+01 -7.521315836749072048e+01 -7.039378909495084713e+01 -1.315305814877390489e+01 2.760801614964073636e+01 -1.859765036077116065e+02 -9.417967200784423198e+01 -2.490265895679370800e+01 1.923680805987559950e+02 6.752136997417495934e+01 7.326212126951755010e+01 7.663076543821091491e+01 1.123957268066907877e+00 -7.573273583923372598e+01 1.980391631789775602e+02 -2.337235138485294783e+02 5.621538114599291447e+01 -1.145750790561404528e+02 -3.311097175415694238e+01 3.856237233245834783e+00 1.209244959901288325e+02 -1.172579558250784117e+02 -1.298620301152827139e+01 7.378325074498376068e+01 1.656885851862803065e+02 6.805496688167349362e+01 -6.522665834687019526e+01 3.926579717088935695e+01 -2.710983759781590763e+01 -6.304410573569032294e+01 1.494232292029374776e+02 -6.723792902423282669e+01 -4.969864780620908107e+01 -1.330486394895419551e+02 5.585000082146060585e+00 -4.819967028997709235e+01 3.691986558869714230e+01 -8.468438262943236339e+01 -4.775697490105658716e+01 -9.678245559295645251e+01 -1.483738870540817345e+02 1.851392902208909064e+01 4.335630860406838138e+01 -1.175233051479759183e+02 1.225948528389860748e+01 -7.562990203920311671e+01 4.688866594425928014e+01 1.591097910875144521e+02 -1.377149271412990856e+02 -4.131095045735711579e+01 6.904745399646340154e+00 2.811288291569434605e+00 4.046745763480500102e+01 8.015745654555041710e+01 7.286731782452890993e-01 -8.450399739940307242e+00 -6.681090651307913220e+01 7.467536280444960539e+01 -3.120746025874987950e+01 2.511919881904337615e+01 9.929901283672006684e+01 8.416651050080399443e+01 -4.083421110732443537e+01 5.510625229740970354e+01 1.407150722695372735e+02 1.109359283731011629e+02 -3.799583121839234856e+00 1.662461404222585486e+02 -1.064627586787115092e+02 3.962535800723078427e+00 -4.003164154517008910e+01 1.973962073704339844e+02 -2.025832706582820109e+01 2.777830759979200259e+00 -7.329123135570159775e+01 -6.832792895606461414e+00 -6.089713961740405779e+01 6.471221002020506319e+01 -9.026567449076044625e+01 6.554353425419100176e+01 -4.561014609939854125e+01 -4.747362784368002764e+01 -8.750348173989473821e+01 5.063067551507135278e+01 -5.217503037350740414e+01 -1.425321888600552711e+02 -7.582618143307642811e+01 -9.983880260317837951e+01 -1.500715485218007643e+02 1.297315094512120481e+02 -2.617387551050767414e+01 3.059475275998442356e+01 8.558627751979828702e+01 -9.928712414428397892e+01 5.434353264879271705e+01 -4.134182121282537281e+01 -6.628657692793335343e+01 -8.606065992747542737e+01 1.939253463195549898e+02 -5.415254516686024289e+01 -4.728352606908772771e+01 -4.499780286103541727e+01 7.673206455104887880e+01 -3.954602156539134228e+01 1.316671811894419193e+02 -4.768602888082501323e+01 5.264965608110755824e+01 4.337148752136560148e+00 -7.736446139207585304e+01 6.563198274578502378e+01 2.647964839026004142e+02 -8.790638928735343427e+01 4.530125087517384941e+01 -7.283533211137194030e+01 4.319643298624468031e+01 1.252642090076706438e+02 -4.912491585395467553e+01 1.397143441250158702e+01 -2.574066870556372066e+01 -9.736297491583995622e+01 -1.660081712836018042e+01 4.130431351726429945e+00 -7.450530086653764705e+00 -1.425806594342678757e+01 1.128490323981772434e+02 1.245506651165464689e+02 1.781128338093252239e+02 -2.907368409725053198e+02 3.648260043024368571e+01 -1.508113414487005599e+01 -5.954424870184045915e+01 1.723007971920925172e+02 7.271410996713322561e+01 -2.521319727653019704e+00 -1.107580976305863061e+02 -1.037937749753225347e+01 9.564825155740788887e+01 -1.283755475531349646e+02 -1.611156021166613073e+02 1.026264210303349067e+01 4.052806992696802268e+01 -5.834723645855105900e+01 4.018555257010828541e+01 -1.023449452006798452e+02 -1.446186330649665024e+02 2.014469844115561514e+01 4.643803300971126191e+01 4.623576615784037003e+00 -7.974962231983464278e+01 -8.947926236564266844e+01 -8.056875264521499957e+01 -8.373562632340522782e+01 1.213020914619192148e+01 5.433967151405462204e+01 1.114755388763043698e+02 7.597721753604989203e+01 8.567265971596837915e+01 1.028958994338938737e+02 -7.157218652859887698e+01 -7.897338424438548543e+01 6.752162503389504877e+01 6.568847345801954418e+01 5.672474300286859261e+01 -8.980767341372004609e+00 -8.725095767039775296e+01 5.174729535292948412e+01 -1.716966536800008214e+02 6.441663151596723935e+01 -4.266139686519804286e+01 -9.245856500657731658e+01 7.118321308930264024e+01 -1.648268599463608908e+01 -7.396220643798481831e+01 -5.510640400924908988e+01 -8.817649554930500955e+00 2.330456847582890418e+02 7.392443434777260336e+01 5.268653524102521146e+01 -9.976685996764442166e+01 1.424971911356064425e+02 1.041984269523242856e+00 -8.685647939388020689e+01 1.498542174286419311e+02 -1.482309782488431154e+02 1.517945642774878934e+01 -3.126690650853220532e+01 -2.137941632179953046e+02 -1.296674120128982395e+02 -8.482349467188890912e+01 -2.862593558352059375e+01 -1.159223962432612183e+02 5.604776865220240722e+01 6.322713423786162679e+01 -2.686318273865461848e+01 -9.707669848712302496e+01 1.099960932581931701e+02 1.149123818923483782e+02 4.494490215537560118e+01 1.704960339146160564e+01 2.543668563682364265e+02 4.246492963646497998e+01 -1.163401431369028529e+02 -4.389279373768187043e+01 -1.643026792438102461e+02 3.102638699585950022e+01 1.491967107053164057e+02 -1.443200172744328427e+02 1.282580718869346867e+02 -8.857205895915816996e+01 -1.845413699027005805e+01 -8.121117530364365678e-01 5.151024738165091321e+01 -1.125865325232553715e+01 -2.224810978569493614e+01 -1.828917276229624633e+01 -1.235347833233338974e+02 4.518703755345271844e+01 -2.954550439557320374e+01 -1.256477163232226069e+01 -1.045203141081453069e+01 2.202036417070975176e+02 1.698443902111507384e+02 2.267097775826560451e+02 1.284498124976642544e+02 -8.437748723492050829e+01 7.323058146984938332e+01 2.062680716447938067e+01 4.628898719656007898e+01 -3.863661149336915912e+01 2.489460612612484738e+02 -2.274104427359151259e+01 -1.332947725821221354e+02 -1.455726375341532552e+01 -4.469822563278669492e+01 -7.542287736604957615e+01 4.206816532267055919e+01 -1.141762855557360901e+01 1.773550297224068686e+02 8.999295808038962718e+01 3.984820988131616559e+01 9.551498436150336602e+01 9.231550586594205754e+01 -2.241131938304692994e+01 1.361536709546880672e+02 2.589219674974696872e+01 8.740305582825472186e+01 4.652291637234120714e+01 6.747640646926416963e+00 -1.128794736709038915e+02 -1.130253829961010581e+02 -8.783396670794343208e+01 -1.517534063296929681e+01 8.457063266041791394e+01 -2.985601678916121315e+01 9.644962859775220920e+01 4.275657689339936240e+01 -7.093568698022443186e+01 -2.919654150160285155e+01 -5.714008995690352322e+01 1.714070165406460333e+01 -4.513809275775091123e+01 -1.092905118232313839e+02 1.185104557956688183e+02 1.183736867257388354e+02 -7.705215367716806441e+01 5.241848420160424737e+00 -4.422526511540331029e+01 -3.173971683972080271e+01 -1.106242298135276236e+01 -3.048713093092884208e+01 4.342580887456690419e+01 -1.371450632981398314e+02 -5.156924221043669831e+01 -1.480822673504846136e+02 1.697882123954418887e+02 -1.965579132009334629e+01 5.741211655943438785e+01 1.159665031272561997e+01 1.407369129737143396e+02 4.345446108485085546e+01 3.477320263272034850e+01 1.504507419858904314e+02 -4.799696100997887527e+01 -9.514031668095152838e+01 2.653992697661620781e+01 -1.539216862396112617e+02 -5.202662161572003185e+01 9.968452584044202069e+01 -1.241631443846164871e+02 -3.540028928791806351e+01 8.887812011269006973e+01 -9.192473537068870826e+01 -8.706817007711433121e+01 -8.042958186910615836e+01 -6.206248297985311524e+01 2.424774692804275844e+02 1.929049485909311841e+02 1.001943028016659696e+02 -9.944435954467752481e+01 7.280435233077812995e+01 -6.445132995334792270e+01 -3.063664118028150796e+01 1.617225176567817968e+01 -3.142406789519589694e+01 -9.114657810450871978e+01 -2.764137468430818423e+00 1.432372270183692287e+01 1.057967495320088460e+02 -1.249097474990196446e+02 4.082968079805846884e+01 6.197961045308141337e+01 3.351368711527887712e+01 -8.804249399848670521e+01 -1.443072207401556568e+02 1.875734557970241099e+02 -1.728189471181666548e+01 2.445565202718680098e+01 1.520569996036795430e+02 2.587785412059924894e+01 2.690784044756837190e+01 -4.324276842603575943e+01 8.599607791099464293e+01 -1.322696306383631679e+02 -2.987032583410160314e+01 -5.955798798792965698e+00 -5.177439442904591260e+01 6.160229522308414474e+00 2.058723579494857958e+01 -3.470346593644570277e+01 1.325055642921727106e+01 2.072130907995563689e+02 -2.657228078130477655e+01 -2.716653353745830302e+01 -9.853978572217195619e+01 -1.577351633923135932e+00 -7.824214449345616629e+01 6.164434645814453440e+00 1.086313936668858560e+02 -5.040324634872578713e+01 5.850086567917625047e+00 -5.260843417134338296e+01 3.201760485403398082e+00 8.446657977023625108e+01 -1.122284751665456639e+02 -9.382912688838975157e+01 -9.938974518519069079e+01 6.909481894546178182e+01 8.384233414471526658e+01 -8.930631513549586487e+01 6.069755738568740355e+01 2.503804123504852797e+01 3.747222396829231172e+01 -1.717786211560086329e+01 8.849405780037884028e+01 7.716943242528456892e+01 -7.480153267132337191e+01 1.139773006905363673e+01 7.830633940951291549e+01 7.052813966225727427e+01 -1.929324850864676932e+01 2.416214328606135808e+01 -1.284030698634474845e+02 4.701477778919590378e+01 -3.174937666200738917e+01 -3.166668890415527926e+01 1.676941152838894880e+02 4.590372555729876325e+01 1.163766886765221216e+02 1.849293198110324283e+02 -1.332979374666319075e+02 1.443814516635335679e+02 -6.146675366200496882e+01 -1.308654232886657951e+02 7.969824667213096347e+01 -1.297796632489260276e+02 -2.780856162536617404e+01 5.459679856201813664e+01 7.773847439484998567e+00 -1.628692958462661977e+02 8.161513878393920152e+01 2.444800253760105946e+01 6.688776739087084877e+01 3.516896745694405269e+01 9.160806257327262614e+00 -6.498028956654371768e+01 1.120137656364528738e+02 5.276577481881243159e+01 -6.013757907241781453e+01 -9.802761640247351238e+01 3.765446164693383224e+01 2.493779370726747757e+01 7.979536813301389486e+01 1.779853757529933205e+02 -2.382289819297390920e+01 -1.066650391415308263e+02 -8.195821571253489424e+01 -4.968115720091974907e+01 -4.289040489420993651e+01 -1.420391067537291576e+02 -2.182091443643346551e+01 1.254174133271110065e+02 7.214477765828323186e+01 -1.184650978765657641e+02 -1.451889478970775826e+02 -6.589710966710192963e+01 -7.385180949848003706e+01 1.421688468703805199e+02 -1.650367079652152427e+02 8.382590360351791503e+01 -4.459235045992108404e+00 -4.167309739856322892e+01 1.285424459724762869e+01 8.821439534681070427e+01 4.794905970669197615e+01 1.337874846491489222e+02 -1.540593709540149234e+02 -7.838022837126595732e+01 2.458192200359154711e+01 4.058220868214185373e+01 1.995010402189556658e+02 1.408190930405926622e+02 6.346523503901874363e+01 6.979466929835541578e+01 -3.290685582951758903e+01 1.469180974939189639e+02 -1.736516195276360293e+02 -6.140883901670030554e+01 -5.195695256473895540e+01 -5.013100546101733812e+01 -9.992896250382015921e+01 -1.452223458637588926e+01 -6.642211578869165578e+01 6.886611501631882959e+01 -8.839921065934918332e+00 -5.616997212787246951e+01 -6.019080642861447927e+01 1.743926414688523323e+02 5.716602895047891764e+01 -1.331118355753683247e+01 2.021768350607256082e+02 -1.048828762082070085e+02 -3.418361515305214482e+01 6.481254060269046136e+01 -1.364293516293775266e-01 1.451133266771631014e+01 -1.211202486827512246e+02 1.705127470473614437e+02 -4.734723127283974264e+01 -2.600885010704121569e+01 -1.061326134904001464e+02 1.217521525053563636e+02 9.269477726320987188e+01 -7.496388558652232348e+01 -3.642109114530791203e+01 3.769742525486589102e+01 -1.463922856533492904e+02 -2.072116877491185782e-01 -7.223782807320920085e+01 7.420728243964122228e+00 -1.044999849670060001e+02 -1.532685553712979072e+02 -6.834066733741630628e+01 1.432533666820939686e+02 5.463909296366703217e+01 -8.664992817048546669e+01 8.615385805060299163e+01 3.304465903898420009e+01 8.539511401924409029e+01 -4.069895664974823291e+01 -8.121374266202289505e+01 1.652421982848786968e+02 4.020316381126735905e+01 2.795385360850053047e+01 -7.048019894522823847e+01 -4.086517403474309873e+01 9.171628922603176193e+00 -6.933258645172928780e+00 -1.668902339340388323e+02 -3.343294441742854417e+01 6.217025861395121211e+01 1.076938940808436769e+02 1.503328425327481739e+02 -1.283114687537274357e+01 8.649042404693135211e+01 1.522226083144478537e+02 6.117010550402677893e+01 1.424322146277125967e+02 1.549839898481217126e+01 1.266440508291635609e+02 -8.094665048092443271e+01 5.140883472414919453e+01 2.823252763959148126e+01 7.309708156784640209e+01 -1.023444801158372286e+02 1.908282131223171234e+02 -1.239244438351346815e+02 8.506916698734745808e+01 -1.033583612141602401e+02 4.445572603756966146e+01 1.329458032568033055e+01 8.726232675824242335e+01 -7.084620941957300033e+01 -7.263522378183365902e+01 -1.069819614649233230e+01 8.567192565011048089e+01 -2.845401630758682998e+01 -1.566065404779251402e+01 -1.886709549770864314e+01 4.549549507220311817e+00 9.425905080302548811e+01 -6.004887653017279803e+01 -2.592142404683372536e+00 -1.859551512606099379e+02 1.169877704962758145e+02 -1.196497005183294533e+02 -7.076244910649182884e+01 -2.252673704340782024e+01 -1.034242110180246215e+02 -5.090745324200479871e+01 -5.613272569445516069e+01 -1.887445330533581966e+01 1.304759029459866611e+02 5.178185978510252596e+01 9.616880883175615224e+01 -1.303537159491719706e+02 -1.327134590575088282e+02 -2.746206648864833255e+02 9.789119669997523943e+01 9.980660488663171748e+01 4.055223916001418871e+01 -4.069923124556390803e+01 -3.558025392153913913e+01 -1.759344569775766161e+02 1.398998140309351470e+02 -1.028671660968701929e+02 1.024475528889666265e+02 -1.524548850203796633e+02 -1.372073611086150002e+01 -5.304098868767547970e+01 -1.142375883951546882e+02 -4.416534343278760133e+01 -1.203477047233932495e+01 -8.878249916279297338e+01 -9.909300939434149313e+01 -1.184388684916522827e+01 6.818192798599993409e+01 -1.193597975588554903e+02 -1.498279823272420153e+01 -7.064612959308163909e+01 -1.258862445074021110e+02 6.292289204301183325e+00 9.107883948917620387e+01 1.586195376705643980e+02 -1.825332390837078123e+01 -4.411983515483309759e+01 -1.190117286556494349e+02 -1.568503968914828306e+02 9.951021343026975785e+01 -6.971895487367993383e+01 7.570782136699395437e+01 9.007197896207864929e+00 2.799369820652864149e+01 7.079551645463905629e+01 -8.129288110762605868e+01 7.929983284487516926e+01 1.105632159117873385e+02 1.510908904086144560e+02 -1.117357903349638661e+02 9.972329766890271685e+01 -4.584795670519470434e+01 -8.710517743277296177e+01 2.058825306779713173e+02 4.719194921631105188e+01 8.007647722120094613e+01 2.032347466975064165e+01 -6.073744527746473665e+01 -3.351304692484292502e+01 -2.018434701075139799e+02 1.013515581040709606e+02 7.816349966066837851e+01 -7.261879947081298781e+01 -7.012593195749843744e+01 1.392831891054965752e+02 9.695677629752488258e+01 4.904567132664078599e+01 7.296514831683478519e+01 -7.512446402539654677e+00 9.899232393396320617e+01 -9.939125401155983752e+01 1.787543060559982564e+02 -3.787852982502042920e+01 -1.170564271588150547e+02 -3.619210374955126497e+01 6.882299438551908111e+01 1.413366170073116450e+02 1.230355572815084031e+01 1.667575533484533992e+02 5.005573189017817270e+01 3.227682586834487921e+01 -1.067746738762007794e+02 4.294802747293190492e+01 -1.198884167583448317e+02 4.578705219718084862e+01 3.698707975752689947e+01 -1.183775136880742167e+02 -8.158398387976212973e+01 3.824866330542883475e+01 8.370037982605914806e+00 -2.225482826481064436e+01 4.019448762751706283e+01 -2.053440320998229041e+01 -6.052297845472807580e+01 -2.519997100769534626e+01 -2.149407902273815196e+01 -3.819626549057790754e+01 1.799502285963867010e+01 -7.727073767713174846e+01 1.140996199285505384e+02 -7.123504330897027614e+01 -4.007294632678417123e+00 6.298768386123017393e+01 3.708330114404011280e+00 1.532348364584203715e+01 1.532611633808161677e+01 -1.123374585029940107e+02 -4.223274254851971499e+00 6.239296223570100608e+01 -2.219951491566588118e+02 -8.144430298460137863e+01 -1.080870651186759801e+02 4.201763725888309153e+01 9.228535141474533532e+01 -8.803025585606373227e+01 -1.610305825933147048e+02 -1.776475343908670368e+02 1.913305838308967211e+01 -1.389774592945054792e+02 -6.071650321591010702e+00 1.415053656105692141e+02 -6.765675397471233588e+00 3.556583973219063211e+01 -9.467066945385718668e+01 7.643447779328838010e+01 -1.134026604797730045e+02 -1.477095219463526732e+01 -2.893919342263567884e+01 5.506039015882221577e+01 -8.431149962579452151e+00 1.009511474500127974e+02 -1.166190930355468254e+02 -4.782724811540033016e+01 8.277131218333607876e+01 6.313725754029029247e+01 -7.853275674631733239e+01 -5.192147298392126942e+01 -4.711340912301449180e+01 -2.759748876717542316e+02 1.845065672420579403e+02 7.248589455132213288e+01 -2.244658656272714836e+01 -2.827115885108953819e+01 3.955686181507540766e+01 -8.006400881128945457e+01 9.471500833067409530e+01 5.758540497223766863e+01 7.792315308689832420e+01 -8.000661210968989678e+01 -2.518238966090224551e+01 3.167276149764150972e+01 1.652881040633924670e+01 -4.075987168931813187e+01 1.502237363544931270e+02 -1.642430452188726164e+01 3.367723538224780810e+01 -2.185316965410542309e+02 -8.045421802049496307e+01 -6.950332893405393975e+01 2.188825201308602075e+01 1.037478882045361104e+02 -2.202630434851638768e+02 -1.777390232704264008e+02 2.105769956320481526e+02 -1.003638562392299960e+01 9.124240008987686679e+01 5.949044703091622921e+01 -5.256839068061152886e+01 -1.244604463556303102e+02 -9.041025088563335999e+01 -4.773460380471674114e+01 -3.553300196835890290e+01 -3.720867268480888868e+01 1.531350891181247853e+01 3.537529481184737534e+01 1.585547758313984161e+02 1.171193227323962134e+02 6.663941782365887967e+00 -4.197630284066518946e+00 -1.508016418198108397e+02 1.136809652620402318e+02 1.513361981383031321e+02 -9.831508373205899431e+01 7.003754526602136821e+01 1.587555981630246249e+00 5.221330566892762448e+01 1.190986811412332855e+02 6.740291585260764862e+01 -1.273767252078081498e+02 1.530243252787166774e+01 -2.792497596031364182e+01 1.059282083667624264e+01 -2.192834183701800654e+01 4.307530587914438058e+01 -2.477653062852041899e+02 1.721918286747741718e+02 6.887284674418820529e+00 1.515524566828086961e+02 -9.989662407716995318e+00 1.009402398860989933e+02 6.812526007371378967e+01 -3.990989690984971361e+01 2.850981114815721540e+01 -6.931677818350249254e+01 -8.471547933941394604e+01 -6.856220874372104390e+01 -3.052084385523029297e+01 4.299522162613873633e+01 1.048800404200372896e+02 2.709573561383233908e+01 5.923485584832937434e+01 -9.986028798442602294e+01 -1.306392645915611013e+02 -1.284547507830364665e+01 4.418023852486700775e+01 -4.327308978112946392e+01 9.016593793818275060e+01 5.295071221682894702e+01 -2.633822678282040641e+01 2.853692266600577199e+01 5.853312742725434248e+01 -6.871762007475012979e+01 -1.274814377433587396e+02 1.354315617493903687e+02 7.447943422902139510e+00 4.781325041082365601e+01 -1.424353222449466330e+02 -5.095686957975100029e+01 -4.055365786699181019e-01 -6.283121836110831993e+01 4.062026225848583749e+00 5.375188961654100694e+01 1.780254900633122190e+02 3.737151987588085689e+01 -1.046311155907093138e+01 6.903655539325970381e+01 -4.342945454066499877e+01 -1.041204254161627603e+02 -1.320353898298565980e+02 8.943540441190698687e+00 2.400255924001844576e+01 2.279960810448129749e+01 -5.439025835759709793e+01 1.155272674287628547e+02 -7.729725933547484829e+01 1.227458737970246290e+02 8.350608644910863632e+01 -6.222924230669645596e+01 -8.114013247068389489e+01 8.060923164413884479e+01 1.952673561870741281e+01 -5.029741199582431932e+01 -5.154375527264556212e+01 1.309874515574900897e+02 5.492747989718173329e+01 7.657583665297586606e+01 2.505095278084969479e+01 -4.027615627781077023e+01 1.029192377414564419e+02 -5.230559967813181288e+01 5.563808958907664470e-01 7.336326858027079822e+01 9.550215956422417207e+01 2.450726218745434153e+02 -1.680614018913258292e+02 1.543572543312496350e+02 -6.478643217256941966e+01 -1.461984962507462527e+01 -2.413410232286996759e+01 -1.989615120761251177e+01 -5.288717409328169339e+01 8.931307513917766983e+01 1.767225324689654542e+02 -1.140789401154671197e+02 2.971944018174618662e+01 -1.219567245697376592e+02 6.747776344808777083e+01 -4.274595110075320292e+01 -7.795294188385658174e+01 -5.187984506468068702e+01 3.965896279045833239e+01 1.863521504208924995e+01 -7.871437808554573223e+01 -1.358363679356941418e+02 1.999903854510768753e+01 1.518805910695700732e+02 1.377182557644875338e+01 1.759313041856707116e+02 7.186761532125658825e+00 1.298645387406158420e+02 -3.336602502416309335e+01 8.759622870667998029e+01 -6.895238694881318509e+01 -1.090057544522129263e+02 4.774025260073355525e+01 -5.601700396885335209e+01 -7.588466596937146846e+01 7.039101035392985750e+01 6.267166700107865474e+00 -9.113093887587940856e+01 -1.456342928144724453e+02 1.431031341585895973e+02 -8.628225426133451492e+01 -2.303784885628108459e+00 1.162647150896783756e+02 5.615864685807738965e+01 -9.512641074704349364e+01 1.033032026988795415e+01 2.732695682664743799e+02 5.164086411199585314e+01 -1.528665332016240086e+02 -4.627812152067484419e+01 -5.961685103946484787e+01 9.320510770034445613e+00 1.043454965532942396e+02 -1.004282196207056472e+02 2.096171021579003479e+01 1.266271065617197706e+02 1.822088889817917945e+01 -2.051176247883522024e+02 4.687212920812901018e+01 7.330346527087189656e+01 -1.320764254144973648e+01 3.183543219802586322e+01 1.788834864427040483e-01 2.192778158399626420e+01 2.693875361452459671e+01 1.125298308013847048e+02 9.525717536695249521e+01 1.520590249795136906e+01 1.447616777978651896e+02 -6.219399213494724421e+01 2.396284749960813656e+02 6.319729241714061629e+01 1.377219271582258955e+02 -2.133787185510904294e+01 8.753553411827924435e+01 -4.752282542025119483e+01 -1.422485836286744529e+02 2.541516513394432764e+01 9.228633233304542216e+01 -8.508904786485840077e+01 -1.018004490890448039e+02 -6.467230912372760088e+01 3.559878483236137470e+01 -1.109719157321978855e+02 7.259582277305914033e+01 2.724415813186750412e+01 -9.487763144236593860e+01 1.845869441954984893e+02 -1.143079076047457043e+01 -9.893599363350035958e+01 -1.304911922215671005e+01 -1.986505943104949168e+01 -1.362950764388920106e+02 -3.889520295865872868e+01 5.979886693735149805e+01 1.281249154947707893e+02 2.824166238297559062e+01 2.598855642224419071e+01 4.353722771602352992e+01 -3.470703040508426795e+01 -1.415675196165080933e+02 1.546272401434907806e+01 3.007927788784881074e+01 1.294222582389247407e+02 -9.599134750205248423e+00 -7.400064265591065293e+01 7.115998812527149653e+01 9.419571306793355081e-01 3.089630573764395649e+01 1.353295336997614697e+02 -1.725251443950280077e+02 -9.028438536600256725e+01 1.212738339861050605e+02 -2.038077748668147251e+02 -1.737387986182096995e+02 8.600856688087692703e+01 1.454816671422146044e+02 5.992701661873298491e+01 -4.237714289164173920e+00 1.471014927511284895e+02 -2.074110997147356841e+02 1.012314390609211756e+02 4.003307126683735362e+01 1.200468157511796363e+02 -1.781641141206939380e+02 1.005832746711982679e+02 -2.665189373367515557e+01 -1.262961914759561068e+02 -5.026529168165291495e+00 -8.727572940874520668e+01 -1.529949372579652689e+01 -4.124809326941682563e+00 -1.163844038484498498e+02 -1.165010009514922871e+02 -5.910274747475397561e+01 -1.217714266187743704e+02 1.898610483375052809e+02 -1.522359692885228242e+02 -4.741133268753394248e+01 1.630046587781351093e+02 3.205800298311191909e+01 -2.796349806484109308e+02 -1.201197040340399838e+02 3.353152740556291889e+01 5.164660320208822242e+01 8.051322126941640178e+00 -1.460333054941060311e+02 3.371189658158548497e+01 7.102199565610075815e+00 -7.022135945657444722e+01 1.915377084246151469e+02 1.913617552770802490e+02 4.113080481954131784e+00 -1.970282865779078065e+02 1.190088639182890944e+02 2.904256085081709315e+01 3.618321599608683048e+00 7.233613241923073645e+01 -1.960248471249554996e+02 -1.303800291101428570e+02 1.332092961755808744e+02 1.035952583294949108e+02 4.996792786273841358e+01 1.352453899124349448e+02 -1.684065066177385290e+02 -1.934339707140638964e+01 -1.231791227997159410e+02 4.127285725683432105e+01 -9.813351934022654177e+01 8.226512021916070694e+01 -3.205880938862181040e+01 1.170147170495440392e+01 1.676338895234459869e+02 2.698620860075191530e+01 -2.489968515950457402e+02 -1.194125842850141197e+02 -7.872885834133248295e+01 1.493670136614279897e+02 1.184837034402279698e+01 -5.093058944460847215e+01 2.862697681993239485e+01 5.901918417190461952e+01 -3.734923426130622914e+01 1.015644776345993421e+02 -9.517850967856951172e+01 4.649194567808746825e+01 1.057447282479989354e+02 -3.357913088502444054e+01 -9.270003790421067436e+01 -1.072009504307112024e+02 1.131401585277672979e+02 -4.694415985810683623e+01 1.856812581845109662e+02 5.404217757773271558e+01 1.048045940823242006e+02 1.743330580682756761e+02 8.080826860464888739e+00 -1.174484826044200076e+02 -1.565474380312417395e+02 -1.078429428171958193e+02 4.016986677710465869e+01
-1.253111737774274914e+01 -4.481505963531616565e+00 9.553367777512035275e+01 -2.113546295305505964e+02 1.434143349210026486e+02 5.857167533267664794e+01 1.403943407810179735e+02 -1.191918692482881283e+02 -2.545951679389532707e+00 -2.219468031767453908e+01 -2.025354061278366942e+02 3.016833424888489645e+01 -1.689900215097130598e+01 1.128635800122517026e+02 -1.154557557964051426e+02 5.694542794253575835e+01 1.155789253302533979e+02 -4.240781043485428370e+01 -4.572608631958178904e+01 -2.487099172952271076e+01 5.696811279603319633e+01 5.816929119875939591e+01 2.993537834280971666e+01 -2.145039962374458185e+02 -4.754765242938052694e+01 8.449005628200968943e+01 9.150540152531000615e+00 -9.586876594603435109e+00 -6.136547108420791119e+01 -1.431626052813571803e+01 6.765926757712361450e+01 -1.341398717011378494e+02 -5.717535331469461113e+01 8.265800188122918613e+00 1.915292946749670762e+02 1.956408479714958446e+02 -2.967932077222295817e+01 5.155360560116194790e+01 -2.335454053656261242e-01 -1.288124834286088287e+02 8.852333644984507544e+01 9.889725360573861224e+01 1.000937442299986344e+02 1.076317224971514364e+01 5.707371328999550286e+01 4.438262856006018353e+01 3.585780425141515337e+01 2.710006139300024941e+01 1.017200712691358291e+02 8.273902344583549961e+01 6.047767397406622081e+01 1.503599301457460911e+02 2.286395961612045369e+02 1.804227675040194185e+02 -5.455633922940255331e+01 4.544646053310273714e+01 -5.926587123073017693e+01 5.199960612295269868e+01 -1.773105189142996210e+02 5.211439561865714154e+01 -1.888469295474420733e+02 -1.556348863475951987e+02 1.195229116794000923e+01 -8.557321732762263267e+00 1.563595636515487399e+02 -1.918704047869797193e+02 6.942996455174957759e+01 2.120485269530860251e+02 -6.842234813567457330e+00 -1.797422608091139296e+02 3.275539731020054290e+01 1.818887160254290905e+02 -5.638242766041143028e+01 -2.459608517439201307e+02 -9.462820556689472085e+01 8.246171888228269964e+00 -2.122940685309932576e+02 2.963580959652993840e+01 -1.655943863360446358e+02 -1.712251702826837629e+02 -5.279821798714169034e+01 1.406685625279808107e+02 6.408379008129746524e+01 9.807151262299193206e+00 -8.188234723624742628e+01 -3.932686806424796089e+01 5.883737302269700109e+01 -2.143920518708928000e+02 4.995676639746515946e+01 -6.918163282372127298e+01 -7.219010154439267524e+01 -1.633018871284627380e+02 6.004792739386219580e+01 8.560850768807807754e+01 -1.499325851194880386e+02 1.596478286382501608e+02 -3.683149141106107294e+01 -1.563539591946528340e+01 8.101485973465328527e+01 1.444810145756241297e+02 2.011766499554609666e+01 1.399757183848013540e+02 -1.712053455627735588e+01 -8.383001058421011464e+01 -1.811568698054895066e+01 9.340315710208157896e+01 4.274686323023932033e+01 9.298938271094934294e+01 8.970548398877228635e+01 -7.900277686573521407e+01 -1.615162296906587756e+02 1.169651376366289810e+02 5.155678841743814189e+01 1.546114123052645972e+01 2.905943119654251916e+01 -6.457452688900441728e+01 9.129053307737986245e+01 8.545036055333123670e+01 -1.307285060553935985e+01 -6.776089637502079199e+01 2.916818838680355697e+01 5.981402670067183180e+00 -5.844852777068424388e+01 1.612888892891687647e+02 -3.114778523547809996e+01 1.156532256790257094e+02 -6.666053897819985252e+01 3.651677167990096962e+01 -3.429384313123214412e+01 8.514177047459936887e+01 2.232422645493331004e+01 1.099752033583905586e+02 -1.104192104485673553e+02 7.074861245979506919e+01 1.174836629635753127e+02 -4.252158489517864837e+01 7.304071239776419588e+00 -1.220097749558943967e+01 1.112140016589534781e+02 3.513493212083953487e+00 1.604999646850594388e+02 -1.346404941018377599e+02 1.110519017936395301e+02 -8.689050441308678785e+01 9.125831471796007577e+01 -1.305396760487718382e+02 2.810193777201567400e+01 2.358778971672565561e+01 1.681914834458327679e+00 3.459745854274994059e+01 4.386295320169423917e+01 -1.177889107064917873e+01 1.041574968850170002e+01 1.030129325909866083e+02 1.212551142926020162e+02 -8.266143951300661286e+01 -5.161557190299734543e+01 4.509695391160789057e+01 1.436146926702106752e+00 -1.306142753176356450e+02 -5.259469512265058455e+01 -3.374579149662255872e+01 4.661379502227076443e+01 -6.247061165294831397e+01 2.184382507088959713e+01 1.529965430948195149e+02 -7.579182600475694187e+01 7.715556858106110383e+01 8.021084310862823941e+01 1.078303602689506135e+01 1.178507630829665658e+02 6.003914701249320984e+01 1.604705945409987464e+02 -3.308707731112973960e+01 1.073996568816238977e+02 5.309496518644095175e+01 -1.534218251216659645e+01 1.951155532970134630e+02 -1.326651750281520776e+02 4.675993319924018721e+01 -1.794102932059305715e+02 -8.051169988183639248e+01 3.928113363872589758e+01 -6.911297121205160465e+01 -1.491095328552006265e+02 1.908268320285634161e+02 -8.212639331471241633e+01 -4.548052684322014727e+01 -4.431263547935395763e+01 1.166019346213613943e+02 1.865395390621702347e+02 6.201447257174074679e+01 1.400874452804751797e+02 2.102540627603502799e+02 -1.519205278488561461e+00 1.560218138220010076e+02 6.790692857243064395e+01 1.824100571532490846e+02 -1.205463367303834161e+02 -1.132407215453994809e+01 6.099573175346884923e+00 1.819665189956299116e+02 -8.702704638248461322e+01 -5.801208433011593257e+01 -5.070758659372196320e+01 -1.284398320046063304e+02 4.480333503338556511e+00 -9.669298110710664673e+01 1.477467954304713942e+02 2.254800915673186523e+01 1.147832847415672752e+01 6.927495011255319923e+01 -4.695161053937705553e+00 1.121269773729785015e+02 -1.522438555472394057e+02 4.353678572940091129e+01 -1.636163230916179430e+02 1.125093903859135054e+02 9.211134592657792552e+01 -6.445360306793774896e+01 4.485907669770479345e+01 2.281799309009069532e+02 -2.920889285557533910e+01 3.990290802285898764e+01 -3.131673227620518318e+01 5.552354798012763837e+01 6.156004405686761061e+01 -6.028577974204736734e+00 9.760922861657519434e+01 9.717311275018565198e+01 -1.857299607795128793e+02 -1.468000090673158411e+02 -1.148252275545788308e+02 -9.019445591964357689e+00 -1.434535103169801857e+02 1.106941723703016152e+02 1.056731616692734974e+02 5.653693698568532255e+01 1.069704715273513429e+01 1.510236180302096898e+02 8.041887074795552337e+01 6.467293938476778692e+01 -9.728857381135152593e+01 1.460267729186660972e+02 -3.464888965930508213e+00 1.047522861277750650e+02 8.451930209209271183e+00 3.518607454789619737e+01 -7.246245922301154962e+01 -8.687543347089001600e+01 6.854783406609726626e+01 -3.714631933022662924e+00 1.399359140250822691e+02 -1.201194905819714265e+01 -2.716175579667853945e+00 4.389313577193588856e+01 2.164703417602704150e+01 1.353406390461247781e+02 1.408563911575784289e+01 3.431599105075301281e+01 -1.479844722595687472e+02 6.295165745388919731e+01 1.278274316172017961e+02 -1.679080517191429323e+01 -2.180112260988464925e+02 8.068214593735066842e+01 1.300880409875008468e+02 1.948066572629677040e+01 1.804300933509484821e+02 -4.113408304017812434e+00 4.087704730612885839e+01 -4.160591815501843627e+01 -1.320736347287164563e+02 5.338702261059220433e+01 -4.522564212534626904e+01 -7.708620953205608828e+01 3.924691848379931258e+01 -1.758183946833406424e+02 6.814013634141338116e+01 1.564550849143286086e+02 -9.626185118311143185e+01 1.645329439786813737e+02 -9.276507632449961704e+01 -5.658965722462776959e+00 -1.003411034134584590e+01 7.285183374865839312e+01 -4.431440462040512074e+01 -1.023598098322361807e+02 -8.415929407121438999e+01 1.384394445566502441e+02 5.612045946255469175e+01 -1.251581762021971969e+02 4.183617056292186831e+00 4.117716241964221524e+01 7.831106455359564222e+01 -3.825007817575029634e+01 5.683902583049059132e+01 -6.540618339523715008e+01 -1.538832741197296627e+02 -3.282290296877152258e+01 1.336163442150516119e+02 -1.075162140200502989e+02 -6.039297365882974944e+00 -1.543118989392257845e+02 -4.617970709223600423e+00 -1.382310456868945607e+02 3.123142890349249612e+01 5.708442709019275441e+01 -4.766739529432526012e+01 -7.800057805761348106e+01 5.347740852952163948e+00 7.045906738382528545e+01 -6.416596007709935634e+01 1.274832811103653682e+02 9.994839693133241099e+01 -1.208037230659001011e+02 -9.980755110135041264e+01 1.278061167459969596e+02 6.744291827077478274e+01 1.420857574237978440e+02 9.451131421542044109e+01 7.670399503360766857e+01 -5.699305891261661827e+01 -7.725233906393795280e+01 -7.280610540579002077e+01 1.932173781345665873e+02 2.893911471839565763e+01 -2.354480782218383439e+01 -6.466056956034566383e+01 -4.711011000665244808e+01 -1.239045845088641187e+02 -1.552592140671822918e+01 -1.650809771462525362e+02 1.176118376981186913e+02 4.323409154811726296e+01 -1.083648547034922274e+02 -4.554114309726502086e+01 1.126199228269005914e+02 -9.113337846983151280e+01 9.673270665709750915e+01 -1.114471408609398964e+02 -1.108363382593961255e+01 -8.982498230591190236e+01 8.442000268911812100e+01 -3.993916980537631645e+01 9.625198636587841250e+00 2.761527712703905379e+01 -1.190760069377971888e+02 1.174993328483843058e+01 4.550154556445758658e+01 -2.098733008745790585e+01 -6.463069221870848935e+01 1.905044549799753497e+02 8.129000400683585781e+01 4.426429947249884123e+01 -2.952233308542288626e+01 7.537972681283059728e+01 1.575594621839934462e+02 -8.667132139635937449e+01 1.969190949303402078e+02 -1.251185074426294364e+02 -1.728460116542121625e+02 1.426330284835079567e+02 -2.199213748026168673e+02 -8.696973297006919124e-01 -2.302149444329368180e+02 -1.436718855927413188e+02 6.746718644041828838e+01 -1.368244664517853550e+02 5.484995254089965044e+01 1.033766051442803899e+02 -1.506624340750266811e+02 -2.826103954366277904e+01 7.089055989615853548e+01 1.258470903766548190e+02 -1.749492880205027632e+02 8.225376015988443612e+01 -9.208545262944205945e+01 -9.244524649024500107e+00 -1.300260580771161756e+01 -7.476760623146506646e+01 -8.484201909495945415e+01 1.704658085743205049e+02 -2.042426601369104944e+01 1.279436252227291293e+00 1.224386121230709250e+02 -8.157132056072347837e+01 -3.237399152703523697e+01 -1.012930400133058129e+02 -4.591160666369938070e+01 4.826229853552303162e+00 5.582863450863295895e+01 -1.271540022139245281e+02 2.233874423524009671e+02 -5.075775441022084067e+01 1.155415108445283749e+02 -4.602519774002708175e+01 1.129153844756567224e+02 1.312852775031575447e+02 4.519611855644964038e+01 1.151429538605037237e+02 -4.078733339389768275e+01 1.320855078911147302e+02 -1.477273905574077162e+02 -6.173390056191701092e+01 -5.944452638821908863e+01 2.416900306955673372e+01 -1.532185952317552164e+02 6.848320996291772644e+01 -2.912543116009282684e+01 -7.803373662912889586e+01 8.457500515767569027e+01 -1.426963419028460578e+02 -8.616430930519253195e+01 -4.974934165728909363e+01 3.122661651847744579e+01 1.225750680181121623e+02 1.103084277933587032e+02 6.522799866740584207e+01 -1.448621002244256273e+00 1.652115401766866967e+02 1.157132586875830356e+02 -8.925712784793289245e+01 -7.374117592451581515e+01 5.195591950463975195e+01 9.370909692590911888e+00 9.252783837523959676e+01 1.575097349977276338e+02 6.667966694460456267e+01 2.311540976600319297e+01 -9.655040560004988492e+01 1.621860655473151382e+02 -1.073201870481853888e+02 -1.560425777206139628e+02 6.206511324820185393e+01 1.052810952428868632e+02 1.856464817367860931e+01 -1.310706467976894771e+02 2.802830396174370975e+01 4.001130980062679754e+01 -3.674331309532130052e-01 1.235718359257483030e+02 9.234206602744889381e+01 1.615045073380241902e+01 7.391249167023592292e+01 -1.008476108673090152e+02 -6.035646314399850887e+00 9.277834255322501633e+01 2.801395390188923429e+01 -6.132663850368303571e+01 1.868099707021393954e+02 2.179547826513723408e+02 -1.182752895618131674e+02 -2.606864018654425053e+01 -1.981079058135299249e+02 -6.804318058252073342e+01 1.475430317268133251e+02 3.148768431587640748e+00 -6.690815232042490379e+01 1.543102767773127368e+02 -5.886402764869427529e+01 -1.513530362417909600e+02 1.286777681506836757e+02 -6.327792628920528983e+01 3.255293212862193997e+01 8.130983209382162613e+01 1.300127511047539031e+01 -2.244347834914885027e+02 3.988589416839396762e+01 -5.839425419872644518e+00 8.490019541150986981e+01 -2.219896533448093834e+01 9.518165422269993314e+01 1.602670180893552754e+01 -7.971205528139256558e+01 -1.929934689654946922e+01 -1.650470929602813612e+02 1.082676133792470523e+02 2.381814262584411424e+01 -3.917939238551242198e+01 -4.876848184962553745e+01 -5.927774118794010150e+01 3.874663042856034423e+01 1.513297415771659189e+02 1.249456282939799081e+02 4.051406794856799110e+01 -1.863233560451701294e+02 -3.653280615569246947e+01 4.127368755929585831e+01 1.104568048175600694e+02 8.207067462079369591e+01 1.452320780434306435e+01 -1.751373346460428309e+02 1.239471721746124473e+02 -2.106603925071052572e+02 -1.937832099048661973e+02 -1.708114339959627692e+00 -6.945065653782118886e+01 -2.274027267537020336e+01 8.201708227764488868e+01 5.264672290294815582e+01 -1.046700154044387290e+02 -1.426304356343064796e+02 1.371892759338990508e+01 1.164537081481260543e+02 1.943718053828545678e+01 -5.339245241967034872e+01 -4.866102188892402580e+01 -1.098077921611300845e+01 1.519399091788521901e+02 2.104812345815915364e+01 -1.665553798328975290e+02 1.230692895775732723e+02 -6.409338643884139231e+01 -3.999019461936148989e+00 1.476174282290404847e+02 -5.009514488187441117e+01 -1.879136465419597712e+01 -1.053046424188935930e+02 -5.745533503771961037e+00 -2.285088296500152083e+01 1.261981908984726459e+02 1.150720299176932571e+02 6.478242961737575456e+01 6.276280709807727476e+01 -1.792770967249889935e+01 1.295323016521333557e+02 -1.081152315880339359e+02 -4.071584611391040553e+00 -8.727810643324146156e+01 1.505399402789813053e+02 6.989878259944171646e+01 4.950559077340845704e+01 7.891475710263263110e+00 -5.111188991833643769e+01 3.295236961613547777e+01 6.428299310255222387e+00 3.540296257846733408e+00 2.308637560602386785e+01 5.729026979101471539e+01 1.631873895046466316e+02 -3.727030875734801896e+01 -4.980087429693752910e+01 6.402132139478702300e+01 1.108469146412558075e+02 -1.228729432312332470e+01 8.815075179823222129e+01 9.980885624724000138e+01 2.020497808642763857e+02 -8.293045507032651642e+01 -1.175467304494864607e+02 -2.745914032926621928e+01 5.959346475344420213e+01 -9.726762080505684693e+00 1.029258478791051914e+02 3.570477552960913670e+01 -1.558208895903593145e+02 4.316356612331469478e+01 -8.570931392519136693e+01 -1.296121874182960028e+02 1.288567514715258255e+02 -7.287082123841304337e+01 5.671226981022137181e+01 1.064446101891227272e+02 -9.477894609593283803e+01 2.252645175639629471e+01 -6.907323074129348583e+01 3.859263055789635644e+01 -1.098008435943905141e+02 5.899498147778079016e+01 5.236282083322360137e+01 3.675259131692705683e+00 8.040429128031178152e+01 -1.462850922431007916e+02 7.307465681728839968e+01 -2.808963100073696140e+01 -1.605142249959475862e+02 8.981851839595161380e+01 2.334404482683043724e+01 -1.863001131252877087e+02 2.235706225328158325e+02 -5.163797435944023073e-01 9.990483388481254678e+01 -1.145697592082577074e+02 -1.844976947947302790e+02 -8.866177680776478098e+01 2.391252134285249298e+00 1.357171816422340669e+02 3.741701368260751615e+00 -9.081204583278977793e+01 4.780787113032972258e+01 1.301975593913181513e+02 6.170668932641271454e+01 -4.912334810271165253e+01 -5.619864193906626326e+01 8.028079435334466041e+01 2.916412712628520509e+01 -1.858439746663236747e+02 -1.969309489634474630e+01 1.605739134491040545e+02 9.383746729469081060e+01 -5.448778125797875305e+01 -1.062195843369356538e+02 -4.053341933425031129e+01 -4.568094644624367362e+01 -1.087294007949417960e+02 -1.749017003628556211e+01 -4.337460532898980858e+01 -1.079478258923973897e+02 -1.253634730892263178e+02 -2.562978150071043615e+01 -1.194138492585018838e+02 -1.271875095537819789e+02 -3.641781073929340806e+01 -5.254937388593177872e+01 -1.055057244192043413e+02 1.832043802552969680e+02 1.034971402012482322e+01 -2.767735634284328228e+01 -1.672245919871465958e+01 7.742380704160987648e+01 1.540731931928026555e+01 2.464990982835470490e+01 -2.087838052585491511e+01 -4.558354771439798014e+01 2.057280405551418312e+01 -1.430902394281162344e+02 -1.566514168253702906e+02 -8.891730644655602589e+01 -1.878184188251921114e+02 -8.817738930349347015e+01 8.437881038587876503e+01 6.042003545419991184e+01 -2.562827917374598030e+01 5.980024990167203214e+01 -1.541152165103731591e+02 -4.026621314261174689e+01 -1.143128232305066376e+02 -6.568343089353422215e+01 2.076761296360224947e+02 -2.020272800049915531e+02 2.020008011811297877e+02 2.454960181110021367e+01 -5.553366570152514470e+01 9.071444480830986379e+01 1.221062703044328401e+02 -5.105959203202601770e+01 -2.005529365876825239e+02 -1.467253968354559106e+02 1.006688951986916010e+02 8.242574856341137490e+01 -1.334019074479439553e+02 3.141376177306689144e+01 -3.907249972337658050e+01 -7.617463850961631522e+01 -2.797826948231686472e+01 -5.393509720119830320e+01 -8.503701829532889178e+01 -3.353548916001758329e+01 4.475560901744190190e+00 -3.211833708858213754e+01 -3.504450879579391609e-01 -1.406884723562001760e+01 9.045900406615771772e+01 1.251174724578343103e+02 1.294519977954710832e+01 1.654368686549029732e+01 -6.216206397043137599e+01 -1.929808177922179198e+02 3.330828075240994934e+01 -9.025080739527106743e+01 2.543924919213565161e+01 -7.967594508780525331e+00 1.062338209634099417e+00 7.127345636012776708e+01 1.199688302251841492e+02 -6.938395208890710819e+01 3.739751936668474031e+01 -1.898822860252902274e+02 9.542538674849122771e+00 6.793682956081946500e+00 -1.206322069223445368e+02 -3.316826474337052844e+01 -4.362780595364868219e+01 4.683704619368881161e+00 -1.006189559380377858e+02 2.661943298240175437e+01 -9.609146389885346196e+01 5.513849601748749762e+01 6.681125761794912421e+01 3.632345635347756740e+01 -2.855391661519219682e+01 1.057890925359077272e+02 6.014246963207035890e+01 7.874051510069698168e+01 -6.595187396635149923e+01 1.991047178970918807e+01 1.258269349143821927e+02 -5.756804876162232887e+01 -6.810015551082378771e+00 3.146713508869379439e+01 -1.263658873544825383e+02 9.621364348964398516e+01 8.812080872696337508e+01 -9.954858741704259728e+01 -8.099852956272265203e+01 -5.463479840954365585e+01 -4.491441782508101710e+01 -1.575559589205766997e+02 -1.336373980149574265e+02 -1.302939812494403213e+02 1.039006281369140510e+02 5.882004415809473841e+01 1.568611820987036367e+02 7.090354613278319285e+00 -8.421088324016690763e+01 1.844956342776988123e+01 1.358812050148419281e+01 -6.249274532691702433e+01 7.277134715877457438e+01 1.160052774393407162e+02 9.772034842406412736e+00 1.408197519751412301e+02 2.208455068238074759e+01 1.089763177451904141e+02 1.479057319561248285e+01 -2.040816275262283455e+02 2.144676888907275725e+02 -4.805555230682410439e+01 -1.463532087311837415e+02 -6.596989287796331780e+01 -4.205070421216213106e+01 4.049244754205518149e+01 2.502221160409107270e+01 4.472626339714157240e+01 -7.234432720753382284e+01 1.195069418592367043e+02 -8.421607259739631957e+01 -6.846073156237894253e+00 1.389367926240120141e+02 1.068715496258387248e+02 5.660089309816318348e+01 -1.725623085875494098e+02 2.478236184615416704e+01 1.367475025781615159e+02 2.280835471945882986e+01 9.499456205355684801e+01 1.035436386126255996e+02 -2.057235183707897761e+02 7.479342135382523793e+01 -5.613592546283032192e+01 -2.185758399038164441e+02 8.594717940746365059e+01 2.383086660666524992e+01 -1.178776930798989042e+02 -5.648640387720482181e+01 1.336736216186834270e+02 1.419781035038438404e+02 -7.291526151805511802e+01 -1.226812266997800691e+02 -7.999029758194637907e+01 -1.588516699029189283e+02 1.873643144893541290e+01 3.630153003441996162e+01 -1.625881588492909557e+01 -1.182476536260498534e+01 -8.539771495061035012e+01 -8.412084077315665809e+01 -2.348418157709427589e+01 1.271047769018655487e+02 1.290982090300251741e+02 7.682408073098766010e+01 9.191652839115280926e+01 -7.422246103812270235e+01 -1.706368703141611718e+02 -1.244112235712892911e+01 -2.178490874955382850e+01 -6.698085751587437642e+01 1.394296312549837769e+00 6.884272411906127331e+01 -4.986114625583224580e+01 2.330491774732166732e+01 7.463386301042322657e+01 6.607349631913193377e+01 1.041944040766020549e+02 -1.405629097788441868e+02 3.734831581344352003e+01 7.851394380641021087e+01 8.929859775808527900e+01 5.563674413845543398e+01 -9.728500862206267641e+01 1.290284532464533527e+02 1.201480914880636561e+02 9.033442386322053608e+01 9.568949223910036039e+01 -7.935181038755459326e+01 -1.399806652815927599e+01 -1.221160793993088411e+01 7.259085503833027531e+01 6.123274065191749571e+01 5.280745357532735795e+01 9.193190664934995482e+01 1.098066613844098924e+02 1.168385455145965039e+02 -6.107814312415866453e+01 7.597419953722638297e+01 6.146546213735612696e+01 -1.108877275027143980e+02 1.240310965138017281e+02 -9.441763244349228756e+00 -2.632978247172506059e+01 1.879183416784292149e+02 8.346978153598357153e+01 1.170751468244766187e+02 -1.361791481222052198e+02 -1.488881705165855749e+02 -1.449925206690127482e+02 -1.152757773077483137e+02 -4.180211952470247638e+01 1.036139226799697752e+02 -1.592959989906230192e+02 3.069200559523535787e+01 1.363648015575852810e+02 -5.609302754727567475e+01 -8.632207998684954475e+01 -3.322136022866006755e+01 1.284336705491955968e+02 2.149225820241013878e+02 -6.310802393190908788e+01 1.875735670412008815e+01 -2.617944655046383673e+01 6.482117191016271818e+01 5.700019771600042873e+01 -2.018487817287736732e+02 -8.395186391764204359e+01 1.302904703734449754e+02 1.323814185928610243e+02 8.953361790224292349e+01 -4.722323422190342512e+01 -7.178826826443811626e+01 -4.297948551941028228e+01 -1.673335000923848952e+02 6.739750886799031093e+01 -2.429845032220546130e+01 1.576842233467406800e+02 -2.649419395000912303e+01 -2.982745650528954116e+02 1.373370395868005858e+02 4.759051316771568452e+01 -1.118262585078317386e+02 -2.104738715313065001e+01 3.346978085980985895e+01 -1.969754004802410918e+02 -1.083605184801103434e+02 -1.040172472111255502e+02 -5.347365485592573719e+01 5.954547230606111441e+01 -1.563992267992732934e+02 1.023403041902007260e+02 -5.153997032150699198e+01 2.784109014290419015e+00 -1.265913820816617772e+02 -9.839742210067338135e+01 1.668615293296698212e+02 8.224786583223527714e+01 -4.007963781508841805e+01 3.524357970688804897e+01 -2.661433391514734126e+01 4.113303209370616997e+01 -9.931822545561024640e+01 9.394235244666667484e+01 4.792847882145358795e+01 -1.128798057411060682e+02 1.108485179906798379e+02 -4.661841786154021605e+01 9.485828134983195525e+01 -4.690163516713464276e+01 8.390970113577709810e+01 -1.456707631013213131e+02 1.355678773142324758e+02 2.351385941582161365e+01 9.562956190045366611e+01 1.239046729157345936e+02 -1.393338156599147624e+02 -8.162014980226594218e+01 -1.003723372018935152e+02 6.353036886237364911e+01 -1.628309842757509216e+02 1.440428156096484145e+02 1.352687977975273839e+02 5.034067182431647325e+01 -8.069205861246678069e+01 5.424665058986722244e+01 -1.020457964161345643e+02 -1.037452597977925706e+01 3.323310585201947021e+01 -1.746742821774919037e+02 -7.753248461345754095e+01 -1.286720073542114129e+01 9.714757629314209453e+01 -4.775646109334883960e+01 1.034337106804240136e+02 -6.116073764469670948e+01 -2.004605815138470177e+02 -1.018565960040889991e+02 -3.234973379674017480e+01 -5.723803794013419832e+01 2.861287539323159024e+01 4.894479679092927427e+01 6.021013242820974831e+00 2.419358556934010807e+01 -1.117161552308581633e+02 5.130861420198205991e+01 3.107178884572883604e+01 -6.867418863523238315e+01 8.848777668678586394e+00 5.371507821409099392e+01 -9.084432537373540129e+01 -5.248457895358908587e+01 -2.303826433400745799e+01 9.293005318622248012e+01 -1.632154316454458254e+01 3.998523498082833694e+00 -2.173862682555948709e+02 -9.053102528528303594e+01 9.429178239168795983e+01 -8.494405263432986430e+01 2.986031812540814201e+01 2.959477368528658303e+01 3.610820349852058797e+01 6.297982605777903586e+01 -1.691448423641000431e+02 1.372569467033065678e+02 7.776874232437546652e+01 -7.198130907721264293e+00 -7.703027720122496191e+01 1.066248649217802722e+02 5.920590898246341283e+01 -1.917760758453625272e+02 -4.802219696611606992e+01 -7.792283985259820156e+01 -4.937865514250481169e+01 -5.901306668246766662e+01 -9.438420177442328907e+01 -5.754826008324131692e+01 1.826562927664430731e+02 -1.628023819032967765e+02 6.242128893960707359e+01 2.646200466175201171e+01 -7.171336067110117085e+01 9.923152706341795692e+00 -3.762104278943861857e+01 3.284977824835825899e+00 -9.171338002300720404e+01 -1.884531529542020678e+02 1.754658623282984209e+01 3.995071782462549237e+01 -1.220238049859222329e+01 -8.522967077134655511e+00 -3.794175984998226880e+01 -1.811285763832391638e+02 -2.921111098808869500e+01 -6.233784508372644950e+01 1.328049060612240240e+01 -1.490073744006157774e+01 8.644299655408930505e+01 -6.014013535420667012e+01 -9.890914525066762053e+01 -3.403399589500956068e+01 -8.550191496661332380e+00 4.332301311087264395e+01 -2.109119289363588834e+01 -7.046671832480893727e+01 -1.515750522749970663e+01 1.911310293979622443e+01 4.532382054110745173e+01 -1.087496133293993523e+02 -1.326509382966183921e+02 2.198217440987160387e+02 -2.083227944978990251e+02 -7.244490889341514617e+01 -4.419312137643055394e+01 1.334589030493850146e+02 6.038595632987512829e+01 2.185259245268298685e+02 2.336206283739542755e+02 -5.953531140159294210e+01 1.235372733808685268e+02 -5.351784567604083520e+01 -3.897088151342408935e+01 -9.602506250717559055e+01 -7.620488824212543477e+01 -6.636517806478221360e+01 -8.499072885932245924e+01 -2.327104755737796893e+02 -2.585168899805914862e+02 1.285487419037861230e+02 -2.534295094185382879e+01 5.085402096435146291e+01 1.249925719877766142e+02
