# 
#                 ----------------------------------------------------
#                 Data from a 3D direct N-body simulation. 
# 
#                 rows are i-particle; 
#                 coumns are :mass, tag, x ,y, z, vx, vy, vz, ax, ay, az
# 
#                 NTHU, Computational Physics Lab
# 
#                 ----------------------------------------------------
#                 Time = 5.799999999999921
1.000000000000000000e+00 2.000000000000000000e+00 3.000000000000000000e+00 4.000000000000000000e+00 5.000000000000000000e+00 6.000000000000000000e+00 7.000000000000000000e+00 8.000000000000000000e+00 9.000000000000000000e+00 1.000000000000000000e+01 1.100000000000000000e+01 1.200000000000000000e+01 1.300000000000000000e+01 1.400000000000000000e+01 1.500000000000000000e+01 1.600000000000000000e+01 1.700000000000000000e+01 1.800000000000000000e+01 1.900000000000000000e+01 2.000000000000000000e+01 2.100000000000000000e+01 2.200000000000000000e+01 2.300000000000000000e+01 2.400000000000000000e+01 2.500000000000000000e+01 2.600000000000000000e+01 2.700000000000000000e+01 2.800000000000000000e+01 2.900000000000000000e+01 3.000000000000000000e+01 3.100000000000000000e+01 3.200000000000000000e+01 3.300000000000000000e+01 3.400000000000000000e+01 3.500000000000000000e+01 3.600000000000000000e+01 3.700000000000000000e+01 3.800000000000000000e+01 3.900000000000000000e+01 4.000000000000000000e+01 4.100000000000000000e+01 4.200000000000000000e+01 4.300000000000000000e+01 4.400000000000000000e+01 4.500000000000000000e+01 4.600000000000000000e+01 4.700000000000000000e+01 4.800000000000000000e+01 4.900000000000000000e+01 5.000000000000000000e+01 5.100000000000000000e+01 5.200000000000000000e+01 5.300000000000000000e+01 5.400000000000000000e+01 5.500000000000000000e+01 5.600000000000000000e+01 5.700000000000000000e+01 5.800000000000000000e+01 5.900000000000000000e+01 6.000000000000000000e+01 6.100000000000000000e+01 6.200000000000000000e+01 6.300000000000000000e+01 6.400000000000000000e+01 6.500000000000000000e+01 6.600000000000000000e+01 6.700000000000000000e+01 6.800000000000000000e+01 6.900000000000000000e+01 7.000000000000000000e+01 7.100000000000000000e+01 7.200000000000000000e+01 7.300000000000000000e+01 7.400000000000000000e+01 7.500000000000000000e+01 7.600000000000000000e+01 7.700000000000000000e+01 7.800000000000000000e+01 7.900000000000000000e+01 8.000000000000000000e+01 8.100000000000000000e+01 8.200000000000000000e+01 8.300000000000000000e+01 8.400000000000000000e+01 8.500000000000000000e+01 8.600000000000000000e+01 8.700000000000000000e+01 8.800000000000000000e+01 8.900000000000000000e+01 9.000000000000000000e+01 9.100000000000000000e+01 9.200000000000000000e+01 9.300000000000000000e+01 9.400000000000000000e+01 9.500000000000000000e+01 9.600000000000000000e+01 9.700000000000000000e+01 9.800000000000000000e+01 9.900000000000000000e+01 1.000000000000000000e+02 1.010000000000000000e+02 1.020000000000000000e+02 1.030000000000000000e+02 1.040000000000000000e+02 1.050000000000000000e+02 1.060000000000000000e+02 1.070000000000000000e+02 1.080000000000000000e+02 1.090000000000000000e+02 1.100000000000000000e+02 1.110000000000000000e+02 1.120000000000000000e+02 1.130000000000000000e+02 1.140000000000000000e+02 1.150000000000000000e+02 1.160000000000000000e+02 1.170000000000000000e+02 1.180000000000000000e+02 1.190000000000000000e+02 1.200000000000000000e+02 1.210000000000000000e+02 1.220000000000000000e+02 1.230000000000000000e+02 1.240000000000000000e+02 1.250000000000000000e+02 1.260000000000000000e+02 1.270000000000000000e+02 1.280000000000000000e+02 1.290000000000000000e+02 1.300000000000000000e+02 1.310000000000000000e+02 1.320000000000000000e+02 1.330000000000000000e+02 1.340000000000000000e+02 1.350000000000000000e+02 1.360000000000000000e+02 1.370000000000000000e+02 1.380000000000000000e+02 1.390000000000000000e+02 1.400000000000000000e+02 1.410000000000000000e+02 1.420000000000000000e+02 1.430000000000000000e+02 1.440000000000000000e+02 1.450000000000000000e+02 1.460000000000000000e+02 1.470000000000000000e+02 1.480000000000000000e+02 1.490000000000000000e+02 1.500000000000000000e+02 1.510000000000000000e+02 1.520000000000000000e+02 1.530000000000000000e+02 1.540000000000000000e+02 1.550000000000000000e+02 1.560000000000000000e+02 1.570000000000000000e+02 1.580000000000000000e+02 1.590000000000000000e+02 1.600000000000000000e+02 1.610000000000000000e+02 1.620000000000000000e+02 1.630000000000000000e+02 1.640000000000000000e+02 1.650000000000000000e+02 1.660000000000000000e+02 1.670000000000000000e+02 1.680000000000000000e+02 1.690000000000000000e+02 1.700000000000000000e+02 1.710000000000000000e+02 1.720000000000000000e+02 1.730000000000000000e+02 1.740000000000000000e+02 1.750000000000000000e+02 1.760000000000000000e+02 1.770000000000000000e+02 1.780000000000000000e+02 1.790000000000000000e+02 1.800000000000000000e+02 1.810000000000000000e+02 1.820000000000000000e+02 1.830000000000000000e+02 1.840000000000000000e+02 1.850000000000000000e+02 1.860000000000000000e+02 1.870000000000000000e+02 1.880000000000000000e+02 1.890000000000000000e+02 1.900000000000000000e+02 1.910000000000000000e+02 1.920000000000000000e+02 1.930000000000000000e+02 1.940000000000000000e+02 1.950000000000000000e+02 1.960000000000000000e+02 1.970000000000000000e+02 1.980000000000000000e+02 1.990000000000000000e+02 2.000000000000000000e+02 2.010000000000000000e+02 2.020000000000000000e+02 2.030000000000000000e+02 2.040000000000000000e+02 2.050000000000000000e+02 2.060000000000000000e+02 2.070000000000000000e+02 2.080000000000000000e+02 2.090000000000000000e+02 2.100000000000000000e+02 2.110000000000000000e+02 2.120000000000000000e+02 2.130000000000000000e+02 2.140000000000000000e+02 2.150000000000000000e+02 2.160000000000000000e+02 2.170000000000000000e+02 2.180000000000000000e+02 2.190000000000000000e+02 2.200000000000000000e+02 2.210000000000000000e+02 2.220000000000000000e+02 2.230000000000000000e+02 2.240000000000000000e+02 2.250000000000000000e+02 2.260000000000000000e+02 2.270000000000000000e+02 2.280000000000000000e+02 2.290000000000000000e+02 2.300000000000000000e+02 2.310000000000000000e+02 2.320000000000000000e+02 2.330000000000000000e+02 2.340000000000000000e+02 2.350000000000000000e+02 2.360000000000000000e+02 2.370000000000000000e+02 2.380000000000000000e+02 2.390000000000000000e+02 2.400000000000000000e+02 2.410000000000000000e+02 2.420000000000000000e+02 2.430000000000000000e+02 2.440000000000000000e+02 2.450000000000000000e+02 2.460000000000000000e+02 2.470000000000000000e+02 2.480000000000000000e+02 2.490000000000000000e+02 2.500000000000000000e+02 2.510000000000000000e+02 2.520000000000000000e+02 2.530000000000000000e+02 2.540000000000000000e+02 2.550000000000000000e+02 2.560000000000000000e+02 2.570000000000000000e+02 2.580000000000000000e+02 2.590000000000000000e+02 2.600000000000000000e+02 2.610000000000000000e+02 2.620000000000000000e+02 2.630000000000000000e+02 2.640000000000000000e+02 2.650000000000000000e+02 2.660000000000000000e+02 2.670000000000000000e+02 2.680000000000000000e+02 2.690000000000000000e+02 2.700000000000000000e+02 2.710000000000000000e+02 2.720000000000000000e+02 2.730000000000000000e+02 2.740000000000000000e+02 2.750000000000000000e+02 2.760000000000000000e+02 2.770000000000000000e+02 2.780000000000000000e+02 2.790000000000000000e+02 2.800000000000000000e+02 2.810000000000000000e+02 2.820000000000000000e+02 2.830000000000000000e+02 2.840000000000000000e+02 2.850000000000000000e+02 2.860000000000000000e+02 2.870000000000000000e+02 2.880000000000000000e+02 2.890000000000000000e+02 2.900000000000000000e+02 2.910000000000000000e+02 2.920000000000000000e+02 2.930000000000000000e+02 2.940000000000000000e+02 2.950000000000000000e+02 2.960000000000000000e+02 2.970000000000000000e+02 2.980000000000000000e+02 2.990000000000000000e+02 3.000000000000000000e+02 3.010000000000000000e+02 3.020000000000000000e+02 3.030000000000000000e+02 3.040000000000000000e+02 3.050000000000000000e+02 3.060000000000000000e+02 3.070000000000000000e+02 3.080000000000000000e+02 3.090000000000000000e+02 3.100000000000000000e+02 3.110000000000000000e+02 3.120000000000000000e+02 3.130000000000000000e+02 3.140000000000000000e+02 3.150000000000000000e+02 3.160000000000000000e+02 3.170000000000000000e+02 3.180000000000000000e+02 3.190000000000000000e+02 3.200000000000000000e+02 3.210000000000000000e+02 3.220000000000000000e+02 3.230000000000000000e+02 3.240000000000000000e+02 3.250000000000000000e+02 3.260000000000000000e+02 3.270000000000000000e+02 3.280000000000000000e+02 3.290000000000000000e+02 3.300000000000000000e+02 3.310000000000000000e+02 3.320000000000000000e+02 3.330000000000000000e+02 3.340000000000000000e+02 3.350000000000000000e+02 3.360000000000000000e+02 3.370000000000000000e+02 3.380000000000000000e+02 3.390000000000000000e+02 3.400000000000000000e+02 3.410000000000000000e+02 3.420000000000000000e+02 3.430000000000000000e+02 3.440000000000000000e+02 3.450000000000000000e+02 3.460000000000000000e+02 3.470000000000000000e+02 3.480000000000000000e+02 3.490000000000000000e+02 3.500000000000000000e+02 3.510000000000000000e+02 3.520000000000000000e+02 3.530000000000000000e+02 3.540000000000000000e+02 3.550000000000000000e+02 3.560000000000000000e+02 3.570000000000000000e+02 3.580000000000000000e+02 3.590000000000000000e+02 3.600000000000000000e+02 3.610000000000000000e+02 3.620000000000000000e+02 3.630000000000000000e+02 3.640000000000000000e+02 3.650000000000000000e+02 3.660000000000000000e+02 3.670000000000000000e+02 3.680000000000000000e+02 3.690000000000000000e+02 3.700000000000000000e+02 3.710000000000000000e+02 3.720000000000000000e+02 3.730000000000000000e+02 3.740000000000000000e+02 3.750000000000000000e+02 3.760000000000000000e+02 3.770000000000000000e+02 3.780000000000000000e+02 3.790000000000000000e+02 3.800000000000000000e+02 3.810000000000000000e+02 3.820000000000000000e+02 3.830000000000000000e+02 3.840000000000000000e+02 3.850000000000000000e+02 3.860000000000000000e+02 3.870000000000000000e+02 3.880000000000000000e+02 3.890000000000000000e+02 3.900000000000000000e+02 3.910000000000000000e+02 3.920000000000000000e+02 3.930000000000000000e+02 3.940000000000000000e+02 3.950000000000000000e+02 3.960000000000000000e+02 3.970000000000000000e+02 3.980000000000000000e+02 3.990000000000000000e+02 4.000000000000000000e+02 4.010000000000000000e+02 4.020000000000000000e+02 4.030000000000000000e+02 4.040000000000000000e+02 4.050000000000000000e+02 4.060000000000000000e+02 4.070000000000000000e+02 4.080000000000000000e+02 4.090000000000000000e+02 4.100000000000000000e+02 4.110000000000000000e+02 4.120000000000000000e+02 4.130000000000000000e+02 4.140000000000000000e+02 4.150000000000000000e+02 4.160000000000000000e+02 4.170000000000000000e+02 4.180000000000000000e+02 4.190000000000000000e+02 4.200000000000000000e+02 4.210000000000000000e+02 4.220000000000000000e+02 4.230000000000000000e+02 4.240000000000000000e+02 4.250000000000000000e+02 4.260000000000000000e+02 4.270000000000000000e+02 4.280000000000000000e+02 4.290000000000000000e+02 4.300000000000000000e+02 4.310000000000000000e+02 4.320000000000000000e+02 4.330000000000000000e+02 4.340000000000000000e+02 4.350000000000000000e+02 4.360000000000000000e+02 4.370000000000000000e+02 4.380000000000000000e+02 4.390000000000000000e+02 4.400000000000000000e+02 4.410000000000000000e+02 4.420000000000000000e+02 4.430000000000000000e+02 4.440000000000000000e+02 4.450000000000000000e+02 4.460000000000000000e+02 4.470000000000000000e+02 4.480000000000000000e+02 4.490000000000000000e+02 4.500000000000000000e+02 4.510000000000000000e+02 4.520000000000000000e+02 4.530000000000000000e+02 4.540000000000000000e+02 4.550000000000000000e+02 4.560000000000000000e+02 4.570000000000000000e+02 4.580000000000000000e+02 4.590000000000000000e+02 4.600000000000000000e+02 4.610000000000000000e+02 4.620000000000000000e+02 4.630000000000000000e+02 4.640000000000000000e+02 4.650000000000000000e+02 4.660000000000000000e+02 4.670000000000000000e+02 4.680000000000000000e+02 4.690000000000000000e+02 4.700000000000000000e+02 4.710000000000000000e+02 4.720000000000000000e+02 4.730000000000000000e+02 4.740000000000000000e+02 4.750000000000000000e+02 4.760000000000000000e+02 4.770000000000000000e+02 4.780000000000000000e+02 4.790000000000000000e+02 4.800000000000000000e+02 4.810000000000000000e+02 4.820000000000000000e+02 4.830000000000000000e+02 4.840000000000000000e+02 4.850000000000000000e+02 4.860000000000000000e+02 4.870000000000000000e+02 4.880000000000000000e+02 4.890000000000000000e+02 4.900000000000000000e+02 4.910000000000000000e+02 4.920000000000000000e+02 4.930000000000000000e+02 4.940000000000000000e+02 4.950000000000000000e+02 4.960000000000000000e+02 4.970000000000000000e+02 4.980000000000000000e+02 4.990000000000000000e+02 5.000000000000000000e+02 5.010000000000000000e+02 5.020000000000000000e+02 5.030000000000000000e+02 5.040000000000000000e+02 5.050000000000000000e+02 5.060000000000000000e+02 5.070000000000000000e+02 5.080000000000000000e+02 5.090000000000000000e+02 5.100000000000000000e+02 5.110000000000000000e+02 5.120000000000000000e+02 5.130000000000000000e+02 5.140000000000000000e+02 5.150000000000000000e+02 5.160000000000000000e+02 5.170000000000000000e+02 5.180000000000000000e+02 5.190000000000000000e+02 5.200000000000000000e+02 5.210000000000000000e+02 5.220000000000000000e+02 5.230000000000000000e+02 5.240000000000000000e+02 5.250000000000000000e+02 5.260000000000000000e+02 5.270000000000000000e+02 5.280000000000000000e+02 5.290000000000000000e+02 5.300000000000000000e+02 5.310000000000000000e+02 5.320000000000000000e+02 5.330000000000000000e+02 5.340000000000000000e+02 5.350000000000000000e+02 5.360000000000000000e+02 5.370000000000000000e+02 5.380000000000000000e+02 5.390000000000000000e+02 5.400000000000000000e+02 5.410000000000000000e+02 5.420000000000000000e+02 5.430000000000000000e+02 5.440000000000000000e+02 5.450000000000000000e+02 5.460000000000000000e+02 5.470000000000000000e+02 5.480000000000000000e+02 5.490000000000000000e+02 5.500000000000000000e+02 5.510000000000000000e+02 5.520000000000000000e+02 5.530000000000000000e+02 5.540000000000000000e+02 5.550000000000000000e+02 5.560000000000000000e+02 5.570000000000000000e+02 5.580000000000000000e+02 5.590000000000000000e+02 5.600000000000000000e+02 5.610000000000000000e+02 5.620000000000000000e+02 5.630000000000000000e+02 5.640000000000000000e+02 5.650000000000000000e+02 5.660000000000000000e+02 5.670000000000000000e+02 5.680000000000000000e+02 5.690000000000000000e+02 5.700000000000000000e+02 5.710000000000000000e+02 5.720000000000000000e+02 5.730000000000000000e+02 5.740000000000000000e+02 5.750000000000000000e+02 5.760000000000000000e+02 5.770000000000000000e+02 5.780000000000000000e+02 5.790000000000000000e+02 5.800000000000000000e+02 5.810000000000000000e+02 5.820000000000000000e+02 5.830000000000000000e+02 5.840000000000000000e+02 5.850000000000000000e+02 5.860000000000000000e+02 5.870000000000000000e+02 5.880000000000000000e+02 5.890000000000000000e+02 5.900000000000000000e+02 5.910000000000000000e+02 5.920000000000000000e+02 5.930000000000000000e+02 5.940000000000000000e+02 5.950000000000000000e+02 5.960000000000000000e+02 5.970000000000000000e+02 5.980000000000000000e+02 5.990000000000000000e+02 6.000000000000000000e+02 6.010000000000000000e+02 6.020000000000000000e+02 6.030000000000000000e+02 6.040000000000000000e+02 6.050000000000000000e+02 6.060000000000000000e+02 6.070000000000000000e+02 6.080000000000000000e+02 6.090000000000000000e+02 6.100000000000000000e+02 6.110000000000000000e+02 6.120000000000000000e+02 6.130000000000000000e+02 6.140000000000000000e+02 6.150000000000000000e+02 6.160000000000000000e+02 6.170000000000000000e+02 6.180000000000000000e+02 6.190000000000000000e+02 6.200000000000000000e+02 6.210000000000000000e+02 6.220000000000000000e+02 6.230000000000000000e+02 6.240000000000000000e+02 6.250000000000000000e+02 6.260000000000000000e+02 6.270000000000000000e+02 6.280000000000000000e+02 6.290000000000000000e+02 6.300000000000000000e+02 6.310000000000000000e+02 6.320000000000000000e+02 6.330000000000000000e+02 6.340000000000000000e+02 6.350000000000000000e+02 6.360000000000000000e+02 6.370000000000000000e+02 6.380000000000000000e+02 6.390000000000000000e+02 6.400000000000000000e+02 6.410000000000000000e+02 6.420000000000000000e+02 6.430000000000000000e+02 6.440000000000000000e+02 6.450000000000000000e+02 6.460000000000000000e+02 6.470000000000000000e+02 6.480000000000000000e+02 6.490000000000000000e+02 6.500000000000000000e+02 6.510000000000000000e+02 6.520000000000000000e+02 6.530000000000000000e+02 6.540000000000000000e+02 6.550000000000000000e+02 6.560000000000000000e+02 6.570000000000000000e+02 6.580000000000000000e+02 6.590000000000000000e+02 6.600000000000000000e+02 6.610000000000000000e+02 6.620000000000000000e+02 6.630000000000000000e+02 6.640000000000000000e+02 6.650000000000000000e+02 6.660000000000000000e+02 6.670000000000000000e+02 6.680000000000000000e+02 6.690000000000000000e+02 6.700000000000000000e+02 6.710000000000000000e+02 6.720000000000000000e+02 6.730000000000000000e+02 6.740000000000000000e+02 6.750000000000000000e+02 6.760000000000000000e+02 6.770000000000000000e+02 6.780000000000000000e+02 6.790000000000000000e+02 6.800000000000000000e+02 6.810000000000000000e+02 6.820000000000000000e+02 6.830000000000000000e+02 6.840000000000000000e+02 6.850000000000000000e+02 6.860000000000000000e+02 6.870000000000000000e+02 6.880000000000000000e+02 6.890000000000000000e+02 6.900000000000000000e+02 6.910000000000000000e+02 6.920000000000000000e+02 6.930000000000000000e+02 6.940000000000000000e+02 6.950000000000000000e+02 6.960000000000000000e+02 6.970000000000000000e+02 6.980000000000000000e+02 6.990000000000000000e+02 7.000000000000000000e+02 7.010000000000000000e+02 7.020000000000000000e+02 7.030000000000000000e+02 7.040000000000000000e+02 7.050000000000000000e+02 7.060000000000000000e+02 7.070000000000000000e+02 7.080000000000000000e+02 7.090000000000000000e+02 7.100000000000000000e+02 7.110000000000000000e+02 7.120000000000000000e+02 7.130000000000000000e+02 7.140000000000000000e+02 7.150000000000000000e+02 7.160000000000000000e+02 7.170000000000000000e+02 7.180000000000000000e+02 7.190000000000000000e+02 7.200000000000000000e+02 7.210000000000000000e+02 7.220000000000000000e+02 7.230000000000000000e+02 7.240000000000000000e+02 7.250000000000000000e+02 7.260000000000000000e+02 7.270000000000000000e+02 7.280000000000000000e+02 7.290000000000000000e+02 7.300000000000000000e+02 7.310000000000000000e+02 7.320000000000000000e+02 7.330000000000000000e+02 7.340000000000000000e+02 7.350000000000000000e+02 7.360000000000000000e+02 7.370000000000000000e+02 7.380000000000000000e+02 7.390000000000000000e+02 7.400000000000000000e+02 7.410000000000000000e+02 7.420000000000000000e+02 7.430000000000000000e+02 7.440000000000000000e+02 7.450000000000000000e+02 7.460000000000000000e+02 7.470000000000000000e+02 7.480000000000000000e+02 7.490000000000000000e+02 7.500000000000000000e+02 7.510000000000000000e+02 7.520000000000000000e+02 7.530000000000000000e+02 7.540000000000000000e+02 7.550000000000000000e+02 7.560000000000000000e+02 7.570000000000000000e+02 7.580000000000000000e+02 7.590000000000000000e+02 7.600000000000000000e+02 7.610000000000000000e+02 7.620000000000000000e+02 7.630000000000000000e+02 7.640000000000000000e+02 7.650000000000000000e+02 7.660000000000000000e+02 7.670000000000000000e+02 7.680000000000000000e+02 7.690000000000000000e+02 7.700000000000000000e+02 7.710000000000000000e+02 7.720000000000000000e+02 7.730000000000000000e+02 7.740000000000000000e+02 7.750000000000000000e+02 7.760000000000000000e+02 7.770000000000000000e+02 7.780000000000000000e+02 7.790000000000000000e+02 7.800000000000000000e+02 7.810000000000000000e+02 7.820000000000000000e+02 7.830000000000000000e+02 7.840000000000000000e+02 7.850000000000000000e+02 7.860000000000000000e+02 7.870000000000000000e+02 7.880000000000000000e+02 7.890000000000000000e+02 7.900000000000000000e+02 7.910000000000000000e+02 7.920000000000000000e+02 7.930000000000000000e+02 7.940000000000000000e+02 7.950000000000000000e+02 7.960000000000000000e+02 7.970000000000000000e+02 7.980000000000000000e+02 7.990000000000000000e+02 8.000000000000000000e+02 8.010000000000000000e+02 8.020000000000000000e+02 8.030000000000000000e+02 8.040000000000000000e+02 8.050000000000000000e+02 8.060000000000000000e+02 8.070000000000000000e+02 8.080000000000000000e+02 8.090000000000000000e+02 8.100000000000000000e+02 8.110000000000000000e+02 8.120000000000000000e+02 8.130000000000000000e+02 8.140000000000000000e+02 8.150000000000000000e+02 8.160000000000000000e+02 8.170000000000000000e+02 8.180000000000000000e+02 8.190000000000000000e+02 8.200000000000000000e+02 8.210000000000000000e+02 8.220000000000000000e+02 8.230000000000000000e+02 8.240000000000000000e+02 8.250000000000000000e+02 8.260000000000000000e+02 8.270000000000000000e+02 8.280000000000000000e+02 8.290000000000000000e+02 8.300000000000000000e+02 8.310000000000000000e+02 8.320000000000000000e+02 8.330000000000000000e+02 8.340000000000000000e+02 8.350000000000000000e+02 8.360000000000000000e+02 8.370000000000000000e+02 8.380000000000000000e+02 8.390000000000000000e+02 8.400000000000000000e+02 8.410000000000000000e+02 8.420000000000000000e+02 8.430000000000000000e+02 8.440000000000000000e+02 8.450000000000000000e+02 8.460000000000000000e+02 8.470000000000000000e+02 8.480000000000000000e+02 8.490000000000000000e+02 8.500000000000000000e+02 8.510000000000000000e+02 8.520000000000000000e+02 8.530000000000000000e+02 8.540000000000000000e+02 8.550000000000000000e+02 8.560000000000000000e+02 8.570000000000000000e+02 8.580000000000000000e+02 8.590000000000000000e+02 8.600000000000000000e+02 8.610000000000000000e+02 8.620000000000000000e+02 8.630000000000000000e+02 8.640000000000000000e+02 8.650000000000000000e+02 8.660000000000000000e+02 8.670000000000000000e+02 8.680000000000000000e+02 8.690000000000000000e+02 8.700000000000000000e+02 8.710000000000000000e+02 8.720000000000000000e+02 8.730000000000000000e+02 8.740000000000000000e+02 8.750000000000000000e+02 8.760000000000000000e+02 8.770000000000000000e+02 8.780000000000000000e+02 8.790000000000000000e+02 8.800000000000000000e+02 8.810000000000000000e+02 8.820000000000000000e+02 8.830000000000000000e+02 8.840000000000000000e+02 8.850000000000000000e+02 8.860000000000000000e+02 8.870000000000000000e+02 8.880000000000000000e+02 8.890000000000000000e+02 8.900000000000000000e+02 8.910000000000000000e+02 8.920000000000000000e+02 8.930000000000000000e+02 8.940000000000000000e+02 8.950000000000000000e+02 8.960000000000000000e+02 8.970000000000000000e+02 8.980000000000000000e+02 8.990000000000000000e+02 9.000000000000000000e+02 9.010000000000000000e+02 9.020000000000000000e+02 9.030000000000000000e+02 9.040000000000000000e+02 9.050000000000000000e+02 9.060000000000000000e+02 9.070000000000000000e+02 9.080000000000000000e+02 9.090000000000000000e+02 9.100000000000000000e+02 9.110000000000000000e+02 9.120000000000000000e+02 9.130000000000000000e+02 9.140000000000000000e+02 9.150000000000000000e+02 9.160000000000000000e+02 9.170000000000000000e+02 9.180000000000000000e+02 9.190000000000000000e+02 9.200000000000000000e+02 9.210000000000000000e+02 9.220000000000000000e+02 9.230000000000000000e+02 9.240000000000000000e+02 9.250000000000000000e+02 9.260000000000000000e+02 9.270000000000000000e+02 9.280000000000000000e+02 9.290000000000000000e+02 9.300000000000000000e+02 9.310000000000000000e+02 9.320000000000000000e+02 9.330000000000000000e+02 9.340000000000000000e+02 9.350000000000000000e+02 9.360000000000000000e+02 9.370000000000000000e+02 9.380000000000000000e+02 9.390000000000000000e+02 9.400000000000000000e+02 9.410000000000000000e+02 9.420000000000000000e+02 9.430000000000000000e+02 9.440000000000000000e+02 9.450000000000000000e+02 9.460000000000000000e+02 9.470000000000000000e+02 9.480000000000000000e+02 9.490000000000000000e+02 9.500000000000000000e+02 9.510000000000000000e+02 9.520000000000000000e+02 9.530000000000000000e+02 9.540000000000000000e+02 9.550000000000000000e+02 9.560000000000000000e+02 9.570000000000000000e+02 9.580000000000000000e+02 9.590000000000000000e+02 9.600000000000000000e+02 9.610000000000000000e+02 9.620000000000000000e+02 9.630000000000000000e+02 9.640000000000000000e+02 9.650000000000000000e+02 9.660000000000000000e+02 9.670000000000000000e+02 9.680000000000000000e+02 9.690000000000000000e+02 9.700000000000000000e+02 9.710000000000000000e+02 9.720000000000000000e+02 9.730000000000000000e+02 9.740000000000000000e+02 9.750000000000000000e+02 9.760000000000000000e+02 9.770000000000000000e+02 9.780000000000000000e+02 9.790000000000000000e+02 9.800000000000000000e+02 9.810000000000000000e+02 9.820000000000000000e+02 9.830000000000000000e+02 9.840000000000000000e+02 9.850000000000000000e+02 9.860000000000000000e+02 9.870000000000000000e+02 9.880000000000000000e+02 9.890000000000000000e+02 9.900000000000000000e+02 9.910000000000000000e+02 9.920000000000000000e+02 9.930000000000000000e+02 9.940000000000000000e+02 9.950000000000000000e+02 9.960000000000000000e+02 9.970000000000000000e+02 9.980000000000000000e+02 9.990000000000000000e+02 1.000000000000000000e+03
1.000000000000000021e-02 1.000000000000000021e-02 1.000000000000000021e-02 1.000000000000000021e-02 1.000000000000000021e-02 1.000000000000000021e-02 1.000000000000000021e-02 1.000000000000000021e-02 1.000000000000000021e-02 1.000000000000000021e-02 1.000000000000000021e-02 1.000000000000000021e-02 1.000000000000000021e-02 1.000000000000000021e-02 1.000000000000000021e-02 1.000000000000000021e-02 1.000000000000000021e-02 1.000000000000000021e-02 1.000000000000000021e-02 1.000000000000000021e-02 1.000000000000000021e-02 1.000000000000000021e-02 1.000000000000000021e-02 1.000000000000000021e-02 1.000000000000000021e-02 1.000000000000000021e-02 1.000000000000000021e-02 1.000000000000000021e-02 1.000000000000000021e-02 1.000000000000000021e-02 1.000000000000000021e-02 1.000000000000000021e-02 1.000000000000000021e-02 1.000000000000000021e-02 1.000000000000000021e-02 1.000000000000000021e-02 1.000000000000000021e-02 1.000000000000000021e-02 1.000000000000000021e-02 1.000000000000000021e-02 1.000000000000000021e-02 1.000000000000000021e-02 1.000000000000000021e-02 1.000000000000000021e-02 1.000000000000000021e-02 1.000000000000000021e-02 1.000000000000000021e-02 1.000000000000000021e-02 1.000000000000000021e-02 1.000000000000000021e-02 1.000000000000000021e-02 1.000000000000000021e-02 1.000000000000000021e-02 1.000000000000000021e-02 1.000000000000000021e-02 1.000000000000000021e-02 1.000000000000000021e-02 1.000000000000000021e-02 1.000000000000000021e-02 1.000000000000000021e-02 1.000000000000000021e-02 1.000000000000000021e-02 1.000000000000000021e-02 1.000000000000000021e-02 1.000000000000000021e-02 1.000000000000000021e-02 1.000000000000000021e-02 1.000000000000000021e-02 1.000000000000000021e-02 1.000000000000000021e-02 1.000000000000000021e-02 1.000000000000000021e-02 1.000000000000000021e-02 1.000000000000000021e-02 1.000000000000000021e-02 1.000000000000000021e-02 1.000000000000000021e-02 1.000000000000000021e-02 1.000000000000000021e-02 1.000000000000000021e-02 1.000000000000000021e-02 1.000000000000000021e-02 1.000000000000000021e-02 1.000000000000000021e-02 1.000000000000000021e-02 1.000000000000000021e-02 1.000000000000000021e-02 1.000000000000000021e-02 1.000000000000000021e-02 1.000000000000000021e-02 1.000000000000000021e-02 1.000000000000000021e-02 1.000000000000000021e-02 1.000000000000000021e-02 1.000000000000000021e-02 1.000000000000000021e-02 1.000000000000000021e-02 1.000000000000000021e-02 1.000000000000000021e-02 1.000000000000000021e-02 1.000000000000000021e-02 1.000000000000000021e-02 1.000000000000000021e-02 1.000000000000000021e-02 1.000000000000000021e-02 1.000000000000000021e-02 1.000000000000000021e-02 1.000000000000000021e-02 1.000000000000000021e-02 1.000000000000000021e-02 1.000000000000000021e-02 1.000000000000000021e-02 1.000000000000000021e-02 1.000000000000000021e-02 1.000000000000000021e-02 1.000000000000000021e-02 1.000000000000000021e-02 1.000000000000000021e-02 1.000000000000000021e-02 1.000000000000000021e-02 1.000000000000000021e-02 1.000000000000000021e-02 1.000000000000000021e-02 1.000000000000000021e-02 1.000000000000000021e-02 1.000000000000000021e-02 1.000000000000000021e-02 1.000000000000000021e-02 1.000000000000000021e-02 1.000000000000000021e-02 1.000000000000000021e-02 1.000000000000000021e-02 1.000000000000000021e-02 1.000000000000000021e-02 1.000000000000000021e-02 1.000000000000000021e-02 1.000000000000000021e-02 1.000000000000000021e-02 1.000000000000000021e-02 1.000000000000000021e-02 1.000000000000000021e-02 1.000000000000000021e-02 1.000000000000000021e-02 1.000000000000000021e-02 1.000000000000000021e-02 1.000000000000000021e-02 1.000000000000000021e-02 1.000000000000000021e-02 1.000000000000000021e-02 1.000000000000000021e-02 1.000000000000000021e-02 1.000000000000000021e-02 1.000000000000000021e-02 1.000000000000000021e-02 1.000000000000000021e-02 1.000000000000000021e-02 1.000000000000000021e-02 1.000000000000000021e-02 1.000000000000000021e-02 1.000000000000000021e-02 1.000000000000000021e-02 1.000000000000000021e-02 1.000000000000000021e-02 1.000000000000000021e-02 1.000000000000000021e-02 1.000000000000000021e-02 1.000000000000000021e-02 1.000000000000000021e-02 1.000000000000000021e-02 1.000000000000000021e-02 1.000000000000000021e-02 1.000000000000000021e-02 1.000000000000000021e-02 1.000000000000000021e-02 1.000000000000000021e-02 1.000000000000000021e-02 1.000000000000000021e-02 1.000000000000000021e-02 1.000000000000000021e-02 1.000000000000000021e-02 1.000000000000000021e-02 1.000000000000000021e-02 1.000000000000000021e-02 1.000000000000000021e-02 1.000000000000000021e-02 1.000000000000000021e-02 1.000000000000000021e-02 1.000000000000000021e-02 1.000000000000000021e-02 1.000000000000000021e-02 1.000000000000000021e-02 1.000000000000000021e-02 1.000000000000000021e-02 1.000000000000000021e-02 1.000000000000000021e-02 1.000000000000000021e-02 1.000000000000000021e-02 1.000000000000000021e-02 1.000000000000000021e-02 1.000000000000000021e-02 1.000000000000000021e-02 1.000000000000000021e-02 1.000000000000000021e-02 1.000000000000000021e-02 1.000000000000000021e-02 1.000000000000000021e-02 1.000000000000000021e-02 1.000000000000000021e-02 1.000000000000000021e-02 1.000000000000000021e-02 1.000000000000000021e-02 1.000000000000000021e-02 1.000000000000000021e-02 1.000000000000000021e-02 1.000000000000000021e-02 1.000000000000000021e-02 1.000000000000000021e-02 1.000000000000000021e-02 1.000000000000000021e-02 1.000000000000000021e-02 1.000000000000000021e-02 1.000000000000000021e-02 1.000000000000000021e-02 1.000000000000000021e-02 1.000000000000000021e-02 1.000000000000000021e-02 1.000000000000000021e-02 1.000000000000000021e-02 1.000000000000000021e-02 1.000000000000000021e-02 1.000000000000000021e-02 1.000000000000000021e-02 1.000000000000000021e-02 1.000000000000000021e-02 1.000000000000000021e-02 1.000000000000000021e-02 1.000000000000000021e-02 1.000000000000000021e-02 1.000000000000000021e-02 1.000000000000000021e-02 1.000000000000000021e-02 1.000000000000000021e-02 1.000000000000000021e-02 1.000000000000000021e-02 1.000000000000000021e-02 1.000000000000000021e-02 1.000000000000000021e-02 1.000000000000000021e-02 1.000000000000000021e-02 1.000000000000000021e-02 1.000000000000000021e-02 1.000000000000000021e-02 1.000000000000000021e-02 1.000000000000000021e-02 1.000000000000000021e-02 1.000000000000000021e-02 1.000000000000000021e-02 1.000000000000000021e-02 1.000000000000000021e-02 1.000000000000000021e-02 1.000000000000000021e-02 1.000000000000000021e-02 1.000000000000000021e-02 1.000000000000000021e-02 1.000000000000000021e-02 1.000000000000000021e-02 1.000000000000000021e-02 1.000000000000000021e-02 1.000000000000000021e-02 1.000000000000000021e-02 1.000000000000000021e-02 1.000000000000000021e-02 1.000000000000000021e-02 1.000000000000000021e-02 1.000000000000000021e-02 1.000000000000000021e-02 1.000000000000000021e-02 1.000000000000000021e-02 1.000000000000000021e-02 1.000000000000000021e-02 1.000000000000000021e-02 1.000000000000000021e-02 1.000000000000000021e-02 1.000000000000000021e-02 1.000000000000000021e-02 1.000000000000000021e-02 1.000000000000000021e-02 1.000000000000000021e-02 1.000000000000000021e-02 1.000000000000000021e-02 1.000000000000000021e-02 1.000000000000000021e-02 1.000000000000000021e-02 1.000000000000000021e-02 1.000000000000000021e-02 1.000000000000000021e-02 1.000000000000000021e-02 1.000000000000000021e-02 1.000000000000000021e-02 1.000000000000000021e-02 1.000000000000000021e-02 1.000000000000000021e-02 1.000000000000000021e-02 1.000000000000000021e-02 1.000000000000000021e-02 1.000000000000000021e-02 1.000000000000000021e-02 1.000000000000000021e-02 1.000000000000000021e-02 1.000000000000000021e-02 1.000000000000000021e-02 1.000000000000000021e-02 1.000000000000000021e-02 1.000000000000000021e-02 1.000000000000000021e-02 1.000000000000000021e-02 1.000000000000000021e-02 1.000000000000000021e-02 1.000000000000000021e-02 1.000000000000000021e-02 1.000000000000000021e-02 1.000000000000000021e-02 1.000000000000000021e-02 1.000000000000000021e-02 1.000000000000000021e-02 1.000000000000000021e-02 1.000000000000000021e-02 1.000000000000000021e-02 1.000000000000000021e-02 1.000000000000000021e-02 1.000000000000000021e-02 1.000000000000000021e-02 1.000000000000000021e-02 1.000000000000000021e-02 1.000000000000000021e-02 1.000000000000000021e-02 1.000000000000000021e-02 1.000000000000000021e-02 1.000000000000000021e-02 1.000000000000000021e-02 1.000000000000000021e-02 1.000000000000000021e-02 1.000000000000000021e-02 1.000000000000000021e-02 1.000000000000000021e-02 1.000000000000000021e-02 1.000000000000000021e-02 1.000000000000000021e-02 1.000000000000000021e-02 1.000000000000000021e-02 1.000000000000000021e-02 1.000000000000000021e-02 1.000000000000000021e-02 1.000000000000000021e-02 1.000000000000000021e-02 1.000000000000000021e-02 1.000000000000000021e-02 1.000000000000000021e-02 1.000000000000000021e-02 1.000000000000000021e-02 1.000000000000000021e-02 1.000000000000000021e-02 1.000000000000000021e-02 1.000000000000000021e-02 1.000000000000000021e-02 1.000000000000000021e-02 1.000000000000000021e-02 1.000000000000000021e-02 1.000000000000000021e-02 1.000000000000000021e-02 1.000000000000000021e-02 1.000000000000000021e-02 1.000000000000000021e-02 1.000000000000000021e-02 1.000000000000000021e-02 1.000000000000000021e-02 1.000000000000000021e-02 1.000000000000000021e-02 1.000000000000000021e-02 1.000000000000000021e-02 1.000000000000000021e-02 1.000000000000000021e-02 1.000000000000000021e-02 1.000000000000000021e-02 1.000000000000000021e-02 1.000000000000000021e-02 1.000000000000000021e-02 1.000000000000000021e-02 1.000000000000000021e-02 1.000000000000000021e-02 1.000000000000000021e-02 1.000000000000000021e-02 1.000000000000000021e-02 1.000000000000000021e-02 1.000000000000000021e-02 1.000000000000000021e-02 1.000000000000000021e-02 1.000000000000000021e-02 1.000000000000000021e-02 1.000000000000000021e-02 1.000000000000000021e-02 1.000000000000000021e-02 1.000000000000000021e-02 1.000000000000000021e-02 1.000000000000000021e-02 1.000000000000000021e-02 1.000000000000000021e-02 1.000000000000000021e-02 1.000000000000000021e-02 1.000000000000000021e-02 1.000000000000000021e-02 1.000000000000000021e-02 1.000000000000000021e-02 1.000000000000000021e-02 1.000000000000000021e-02 1.000000000000000021e-02 1.000000000000000021e-02 1.000000000000000021e-02 1.000000000000000021e-02 1.000000000000000021e-02 1.000000000000000021e-02 1.000000000000000021e-02 1.000000000000000021e-02 1.000000000000000021e-02 1.000000000000000021e-02 1.000000000000000021e-02 1.000000000000000021e-02 1.000000000000000021e-02 1.000000000000000021e-02 1.000000000000000021e-02 1.000000000000000021e-02 1.000000000000000021e-02 1.000000000000000021e-02 1.000000000000000021e-02 1.000000000000000021e-02 1.000000000000000021e-02 1.000000000000000021e-02 1.000000000000000021e-02 1.000000000000000021e-02 1.000000000000000021e-02 1.000000000000000021e-02 1.000000000000000021e-02 1.000000000000000021e-02 1.000000000000000021e-02 1.000000000000000021e-02 1.000000000000000021e-02 1.000000000000000021e-02 1.000000000000000021e-02 1.000000000000000021e-02 1.000000000000000021e-02 1.000000000000000021e-02 1.000000000000000021e-02 1.000000000000000021e-02 1.000000000000000021e-02 1.000000000000000021e-02 1.000000000000000021e-02 1.000000000000000021e-02 1.000000000000000021e-02 1.000000000000000021e-02 1.000000000000000021e-02 1.000000000000000021e-02 1.000000000000000021e-02 1.000000000000000021e-02 1.000000000000000021e-02 1.000000000000000021e-02 1.000000000000000021e-02 1.000000000000000021e-02 1.000000000000000021e-02 1.000000000000000021e-02 1.000000000000000021e-02 1.000000000000000021e-02 1.000000000000000021e-02 1.000000000000000021e-02 1.000000000000000021e-02 1.000000000000000021e-02 1.000000000000000021e-02 1.000000000000000021e-02 1.000000000000000021e-02 1.000000000000000021e-02 1.000000000000000021e-02 1.000000000000000021e-02 1.000000000000000021e-02 1.000000000000000021e-02 1.000000000000000021e-02 1.000000000000000021e-02 1.000000000000000021e-02 1.000000000000000021e-02 1.000000000000000021e-02 1.000000000000000021e-02 1.000000000000000021e-02 1.000000000000000021e-02 1.000000000000000021e-02 1.000000000000000021e-02 1.000000000000000021e-02 1.000000000000000021e-02 1.000000000000000021e-02 1.000000000000000021e-02 1.000000000000000021e-02 1.000000000000000021e-02 1.000000000000000021e-02 1.000000000000000021e-02 1.000000000000000021e-02 1.000000000000000021e-02 1.000000000000000021e-02 1.000000000000000021e-02 1.000000000000000021e-02 1.000000000000000021e-02 1.000000000000000021e-02 1.000000000000000021e-02 1.000000000000000021e-02 1.000000000000000021e-02 1.000000000000000021e-02 1.000000000000000021e-02 1.000000000000000021e-02 1.000000000000000021e-02 1.000000000000000021e-02 1.000000000000000021e-02 1.000000000000000021e-02 1.000000000000000021e-02 1.000000000000000021e-02 1.000000000000000021e-02 1.000000000000000021e-02 1.000000000000000021e-02 1.000000000000000021e-02 1.000000000000000021e-02 1.000000000000000021e-02 1.000000000000000021e-02 1.000000000000000021e-02 1.000000000000000021e-02 1.000000000000000021e-02 1.000000000000000021e-02 1.000000000000000021e-02 1.000000000000000021e-02 1.000000000000000021e-02 1.000000000000000021e-02 1.000000000000000021e-02 1.000000000000000021e-02 1.000000000000000021e-02 1.000000000000000021e-02 1.000000000000000021e-02 1.000000000000000021e-02 1.000000000000000021e-02 1.000000000000000021e-02 1.000000000000000021e-02 1.000000000000000021e-02 1.000000000000000021e-02 1.000000000000000021e-02 1.000000000000000021e-02 1.000000000000000021e-02 1.000000000000000021e-02 1.000000000000000021e-02 1.000000000000000021e-02 1.000000000000000021e-02 1.000000000000000021e-02 1.000000000000000021e-02 1.000000000000000021e-02 1.000000000000000021e-02 1.000000000000000021e-02 1.000000000000000021e-02 1.000000000000000021e-02 1.000000000000000021e-02 1.000000000000000021e-02 1.000000000000000021e-02 1.000000000000000021e-02 1.000000000000000021e-02 1.000000000000000021e-02 1.000000000000000021e-02 1.000000000000000021e-02 1.000000000000000021e-02 1.000000000000000021e-02 1.000000000000000021e-02 1.000000000000000021e-02 1.000000000000000021e-02 1.000000000000000021e-02 1.000000000000000021e-02 1.000000000000000021e-02 1.000000000000000021e-02 1.000000000000000021e-02 1.000000000000000021e-02 1.000000000000000021e-02 1.000000000000000021e-02 1.000000000000000021e-02 1.000000000000000021e-02 1.000000000000000021e-02 1.000000000000000021e-02 1.000000000000000021e-02 1.000000000000000021e-02 1.000000000000000021e-02 1.000000000000000021e-02 1.000000000000000021e-02 1.000000000000000021e-02 1.000000000000000021e-02 1.000000000000000021e-02 1.000000000000000021e-02 1.000000000000000021e-02 1.000000000000000021e-02 1.000000000000000021e-02 1.000000000000000021e-02 1.000000000000000021e-02 1.000000000000000021e-02 1.000000000000000021e-02 1.000000000000000021e-02 1.000000000000000021e-02 1.000000000000000021e-02 1.000000000000000021e-02 1.000000000000000021e-02 1.000000000000000021e-02 1.000000000000000021e-02 1.000000000000000021e-02 1.000000000000000021e-02 1.000000000000000021e-02 1.000000000000000021e-02 1.000000000000000021e-02 1.000000000000000021e-02 1.000000000000000021e-02 1.000000000000000021e-02 1.000000000000000021e-02 1.000000000000000021e-02 1.000000000000000021e-02 1.000000000000000021e-02 1.000000000000000021e-02 1.000000000000000021e-02 1.000000000000000021e-02 1.000000000000000021e-02 1.000000000000000021e-02 1.000000000000000021e-02 1.000000000000000021e-02 1.000000000000000021e-02 1.000000000000000021e-02 1.000000000000000021e-02 1.000000000000000021e-02 1.000000000000000021e-02 1.000000000000000021e-02 1.000000000000000021e-02 1.000000000000000021e-02 1.000000000000000021e-02 1.000000000000000021e-02 1.000000000000000021e-02 1.000000000000000021e-02 1.000000000000000021e-02 1.000000000000000021e-02 1.000000000000000021e-02 1.000000000000000021e-02 1.000000000000000021e-02 1.000000000000000021e-02 1.000000000000000021e-02 1.000000000000000021e-02 1.000000000000000021e-02 1.000000000000000021e-02 1.000000000000000021e-02 1.000000000000000021e-02 1.000000000000000021e-02 1.000000000000000021e-02 1.000000000000000021e-02 1.000000000000000021e-02 1.000000000000000021e-02 1.000000000000000021e-02 1.000000000000000021e-02 1.000000000000000021e-02 1.000000000000000021e-02 1.000000000000000021e-02 1.000000000000000021e-02 1.000000000000000021e-02 1.000000000000000021e-02 1.000000000000000021e-02 1.000000000000000021e-02 1.000000000000000021e-02 1.000000000000000021e-02 1.000000000000000021e-02 1.000000000000000021e-02 1.000000000000000021e-02 1.000000000000000021e-02 1.000000000000000021e-02 1.000000000000000021e-02 1.000000000000000021e-02 1.000000000000000021e-02 1.000000000000000021e-02 1.000000000000000021e-02 1.000000000000000021e-02 1.000000000000000021e-02 1.000000000000000021e-02 1.000000000000000021e-02 1.000000000000000021e-02 1.000000000000000021e-02 1.000000000000000021e-02 1.000000000000000021e-02 1.000000000000000021e-02 1.000000000000000021e-02 1.000000000000000021e-02 1.000000000000000021e-02 1.000000000000000021e-02 1.000000000000000021e-02 1.000000000000000021e-02 1.000000000000000021e-02 1.000000000000000021e-02 1.000000000000000021e-02 1.000000000000000021e-02 1.000000000000000021e-02 1.000000000000000021e-02 1.000000000000000021e-02 1.000000000000000021e-02 1.000000000000000021e-02 1.000000000000000021e-02 1.000000000000000021e-02 1.000000000000000021e-02 1.000000000000000021e-02 1.000000000000000021e-02 1.000000000000000021e-02 1.000000000000000021e-02 1.000000000000000021e-02 1.000000000000000021e-02 1.000000000000000021e-02 1.000000000000000021e-02 1.000000000000000021e-02 1.000000000000000021e-02 1.000000000000000021e-02 1.000000000000000021e-02 1.000000000000000021e-02 1.000000000000000021e-02 1.000000000000000021e-02 1.000000000000000021e-02 1.000000000000000021e-02 1.000000000000000021e-02 1.000000000000000021e-02 1.000000000000000021e-02 1.000000000000000021e-02 1.000000000000000021e-02 1.000000000000000021e-02 1.000000000000000021e-02 1.000000000000000021e-02 1.000000000000000021e-02 1.000000000000000021e-02 1.000000000000000021e-02 1.000000000000000021e-02 1.000000000000000021e-02 1.000000000000000021e-02 1.000000000000000021e-02 1.000000000000000021e-02 1.000000000000000021e-02 1.000000000000000021e-02 1.000000000000000021e-02 1.000000000000000021e-02 1.000000000000000021e-02 1.000000000000000021e-02 1.000000000000000021e-02 1.000000000000000021e-02 1.000000000000000021e-02 1.000000000000000021e-02 1.000000000000000021e-02 1.000000000000000021e-02 1.000000000000000021e-02 1.000000000000000021e-02 1.000000000000000021e-02 1.000000000000000021e-02 1.000000000000000021e-02 1.000000000000000021e-02 1.000000000000000021e-02 1.000000000000000021e-02 1.000000000000000021e-02 1.000000000000000021e-02 1.000000000000000021e-02 1.000000000000000021e-02 1.000000000000000021e-02 1.000000000000000021e-02 1.000000000000000021e-02 1.000000000000000021e-02 1.000000000000000021e-02 1.000000000000000021e-02 1.000000000000000021e-02 1.000000000000000021e-02 1.000000000000000021e-02 1.000000000000000021e-02 1.000000000000000021e-02 1.000000000000000021e-02 1.000000000000000021e-02 1.000000000000000021e-02 1.000000000000000021e-02 1.000000000000000021e-02 1.000000000000000021e-02 1.000000000000000021e-02 1.000000000000000021e-02 1.000000000000000021e-02 1.000000000000000021e-02 1.000000000000000021e-02 1.000000000000000021e-02 1.000000000000000021e-02 1.000000000000000021e-02 1.000000000000000021e-02 1.000000000000000021e-02 1.000000000000000021e-02 1.000000000000000021e-02 1.000000000000000021e-02 1.000000000000000021e-02 1.000000000000000021e-02 1.000000000000000021e-02 1.000000000000000021e-02 1.000000000000000021e-02 1.000000000000000021e-02 1.000000000000000021e-02 1.000000000000000021e-02 1.000000000000000021e-02 1.000000000000000021e-02 1.000000000000000021e-02 1.000000000000000021e-02 1.000000000000000021e-02 1.000000000000000021e-02 1.000000000000000021e-02 1.000000000000000021e-02 1.000000000000000021e-02 1.000000000000000021e-02 1.000000000000000021e-02 1.000000000000000021e-02 1.000000000000000021e-02 1.000000000000000021e-02 1.000000000000000021e-02 1.000000000000000021e-02 1.000000000000000021e-02 1.000000000000000021e-02 1.000000000000000021e-02 1.000000000000000021e-02 1.000000000000000021e-02 1.000000000000000021e-02 1.000000000000000021e-02 1.000000000000000021e-02 1.000000000000000021e-02 1.000000000000000021e-02 1.000000000000000021e-02 1.000000000000000021e-02 1.000000000000000021e-02 1.000000000000000021e-02 1.000000000000000021e-02 1.000000000000000021e-02 1.000000000000000021e-02 1.000000000000000021e-02 1.000000000000000021e-02 1.000000000000000021e-02 1.000000000000000021e-02 1.000000000000000021e-02 1.000000000000000021e-02 1.000000000000000021e-02 1.000000000000000021e-02 1.000000000000000021e-02 1.000000000000000021e-02 1.000000000000000021e-02 1.000000000000000021e-02 1.000000000000000021e-02 1.000000000000000021e-02 1.000000000000000021e-02 1.000000000000000021e-02 1.000000000000000021e-02 1.000000000000000021e-02 1.000000000000000021e-02 1.000000000000000021e-02 1.000000000000000021e-02 1.000000000000000021e-02 1.000000000000000021e-02 1.000000000000000021e-02 1.000000000000000021e-02 1.000000000000000021e-02 1.000000000000000021e-02 1.000000000000000021e-02 1.000000000000000021e-02 1.000000000000000021e-02 1.000000000000000021e-02 1.000000000000000021e-02 1.000000000000000021e-02 1.000000000000000021e-02 1.000000000000000021e-02 1.000000000000000021e-02 1.000000000000000021e-02 1.000000000000000021e-02 1.000000000000000021e-02 1.000000000000000021e-02 1.000000000000000021e-02 1.000000000000000021e-02 1.000000000000000021e-02 1.000000000000000021e-02 1.000000000000000021e-02 1.000000000000000021e-02 1.000000000000000021e-02 1.000000000000000021e-02 1.000000000000000021e-02 1.000000000000000021e-02 1.000000000000000021e-02 1.000000000000000021e-02 1.000000000000000021e-02 1.000000000000000021e-02 1.000000000000000021e-02 1.000000000000000021e-02 1.000000000000000021e-02 1.000000000000000021e-02 1.000000000000000021e-02 1.000000000000000021e-02 1.000000000000000021e-02 1.000000000000000021e-02 1.000000000000000021e-02 1.000000000000000021e-02 1.000000000000000021e-02 1.000000000000000021e-02 1.000000000000000021e-02 1.000000000000000021e-02 1.000000000000000021e-02 1.000000000000000021e-02 1.000000000000000021e-02 1.000000000000000021e-02 1.000000000000000021e-02 1.000000000000000021e-02 1.000000000000000021e-02 1.000000000000000021e-02 1.000000000000000021e-02 1.000000000000000021e-02 1.000000000000000021e-02 1.000000000000000021e-02 1.000000000000000021e-02 1.000000000000000021e-02 1.000000000000000021e-02 1.000000000000000021e-02 1.000000000000000021e-02 1.000000000000000021e-02 1.000000000000000021e-02 1.000000000000000021e-02 1.000000000000000021e-02 1.000000000000000021e-02 1.000000000000000021e-02 1.000000000000000021e-02 1.000000000000000021e-02 1.000000000000000021e-02 1.000000000000000021e-02 1.000000000000000021e-02 1.000000000000000021e-02 1.000000000000000021e-02 1.000000000000000021e-02 1.000000000000000021e-02 1.000000000000000021e-02 1.000000000000000021e-02 1.000000000000000021e-02 1.000000000000000021e-02 1.000000000000000021e-02 1.000000000000000021e-02 1.000000000000000021e-02 1.000000000000000021e-02 1.000000000000000021e-02 1.000000000000000021e-02 1.000000000000000021e-02 1.000000000000000021e-02 1.000000000000000021e-02 1.000000000000000021e-02 1.000000000000000021e-02 1.000000000000000021e-02 1.000000000000000021e-02 1.000000000000000021e-02 1.000000000000000021e-02 1.000000000000000021e-02 1.000000000000000021e-02 1.000000000000000021e-02 1.000000000000000021e-02 1.000000000000000021e-02 1.000000000000000021e-02 1.000000000000000021e-02 1.000000000000000021e-02 1.000000000000000021e-02 1.000000000000000021e-02 1.000000000000000021e-02 1.000000000000000021e-02 1.000000000000000021e-02 1.000000000000000021e-02 1.000000000000000021e-02 1.000000000000000021e-02 1.000000000000000021e-02 1.000000000000000021e-02 1.000000000000000021e-02 1.000000000000000021e-02 1.000000000000000021e-02 1.000000000000000021e-02 1.000000000000000021e-02 1.000000000000000021e-02 1.000000000000000021e-02 1.000000000000000021e-02 1.000000000000000021e-02 1.000000000000000021e-02 1.000000000000000021e-02 1.000000000000000021e-02 1.000000000000000021e-02 1.000000000000000021e-02 1.000000000000000021e-02 1.000000000000000021e-02 1.000000000000000021e-02 1.000000000000000021e-02 1.000000000000000021e-02 1.000000000000000021e-02 1.000000000000000021e-02 1.000000000000000021e-02 1.000000000000000021e-02 1.000000000000000021e-02 1.000000000000000021e-02 1.000000000000000021e-02 1.000000000000000021e-02 1.000000000000000021e-02 1.000000000000000021e-02 1.000000000000000021e-02
-1.114272846218456721e+02 1.693768031653178241e+02 3.928330871868271856e+01 -8.828888930462438722e+00 -8.776323271227082046e+01 -1.337338288121389240e+01 -2.076385611807118892e+02 6.880999932340501335e-01 -8.461334324092672432e+01 -1.403169093027298331e+01 -1.980829863457669759e+01 6.512314200636070360e+00 -1.779237178171212408e+00 1.675777222049119644e+02 8.451359509675496895e+01 -3.873448829284171069e+01 -5.273040277704501477e+01 7.911841109767627245e+01 3.278202536369406772e+01 -2.533952565063921725e+01 -7.875087441735905713e+01 -7.371592538553794327e+01 -1.378793604567979081e+01 2.889762305731803949e+01 -1.946802035134204516e+02 -9.861096519808141636e+01 -2.605685400633661075e+01 2.013854933070486197e+02 7.067671934362928710e+01 7.663073789738378139e+01 8.019638810737528445e+01 1.183068258366716252e+00 -7.914365265638124924e+01 2.071896813720679518e+02 -2.445501244587374288e+02 5.876107508524025036e+01 -1.200005360784931838e+02 -3.464064813012038258e+01 4.029215196407760047e+00 1.265621315558238535e+02 -1.227560413426001418e+02 -1.363159164455879946e+01 7.726672562047190240e+01 1.733955132849195024e+02 7.127121303123399798e+01 -6.833555822480764164e+01 4.117278636550171456e+01 -2.834996140742486403e+01 -6.598779453099857051e+01 1.564100851524502787e+02 -7.048184969341495787e+01 -5.205278520204650050e+01 -1.391691564987192749e+02 5.750302660493335161e+00 -5.047928305031993546e+01 3.862353360266706659e+01 -8.862906309897914525e+01 -5.000464695998395825e+01 -1.012971323438152496e+02 -1.552770675179397983e+02 1.943279079793299147e+01 4.531140955946725057e+01 -1.229929194101056567e+02 1.284360756155033201e+01 -7.920882613667262717e+01 4.906828764074712979e+01 1.664549824540788450e+02 -1.441143515041001422e+02 -4.326509300777384937e+01 7.189583762011817036e+00 2.926986221960850454e+00 4.233924674965611956e+01 8.389823669096244885e+01 8.728310500597500354e-01 -8.794274682164335388e+00 -6.995700242717119011e+01 7.818349115956128514e+01 -3.273237371625180714e+01 2.626957065740201358e+01 1.039136834405526173e+02 8.813738048352851706e+01 -4.271480935387277356e+01 5.774478887510900904e+01 1.472937147407591851e+02 1.160976123307176522e+02 -4.017520079851758297e+00 1.740411499138791385e+02 -1.114118826815038972e+02 4.193630844070730390e+00 -4.189864304507060666e+01 2.066402805828706448e+02 -2.120333379893728321e+01 2.880353744835294272e+00 -7.671120045734434711e+01 -7.130876841262739241e+00 -6.378328431107625818e+01 6.770902776511925936e+01 -9.446315991819673741e+01 6.851430210622983452e+01 -4.770576777430935067e+01 -4.971457207053337157e+01 -9.157582446588843084e+01 5.303989499783832429e+01 -5.466299097420402830e+01 -1.491957335403363913e+02 -7.939543792676001033e+01 -1.045179407749960490e+02 -1.570861383257701220e+02 1.358165531336235574e+02 -2.746680199603313000e+01 3.200316418100511129e+01 8.958634062814098797e+01 -1.039747792650555169e+02 5.691540352922299206e+01 -4.328159963345762407e+01 -6.927861401013308296e+01 -9.001044761698318553e+01 2.030823042934555644e+02 -5.669130125191579594e+01 -4.945145867928804506e+01 -4.716540743816432268e+01 8.032935618158967372e+01 -4.137308176398790494e+01 1.378620208283261661e+02 -4.983672818982797992e+01 5.505015068510738985e+01 4.538414815011284631e+00 -8.105971612787672598e+01 6.875188988400208245e+01 2.771463452174379540e+02 -9.195121440624356524e+01 4.744993375744503794e+01 -7.617985376244440943e+01 4.520215253924134657e+01 1.310923742107099201e+02 -5.135004954333703608e+01 1.458431224100940682e+01 -2.690977872919017955e+01 -1.018731404273016494e+02 -1.729532628529287663e+01 4.278812565522742695e+00 -7.813765801161231650e+00 -1.494248005334804574e+01 1.181643401908108473e+02 1.302913559974474254e+02 1.863698714928823108e+02 -3.041956723131448257e+02 3.819505379243644683e+01 -1.575045369967145348e+01 -6.233088814974568237e+01 1.802983290324491463e+02 7.618175102738344151e+01 -2.587568725914123569e+00 -1.159467883625023035e+02 -1.089767644278264314e+01 1.000912971418361366e+02 -1.343993772099896660e+02 -1.686463958992818846e+02 1.073798854499237976e+01 4.243972630664085699e+01 -6.103895610691154161e+01 4.205086758113136369e+01 -1.071240547587481444e+02 -1.513895942564111579e+02 2.111887905356252304e+01 4.860856894090710512e+01 4.811434831428799797e+00 -8.353925322020639044e+01 -9.366882985568302900e+01 -8.439291581342179427e+01 -8.763916449968395739e+01 1.265180152169690864e+01 5.690445662030815299e+01 1.166664550283885831e+02 7.955069105073275182e+01 8.965616314284069688e+01 1.076489657994796829e+02 -7.493369188502339284e+01 -8.268115568648100577e+01 7.067515157226283407e+01 6.864519642707702474e+01 5.937779832409796654e+01 -9.414572915145043908e+00 -9.133258827124184620e+01 5.414855753535132976e+01 -1.795751083475781513e+02 6.739023059430761009e+01 -4.469494978902896065e+01 -9.679805534733978334e+01 7.449758190858193529e+01 -1.721103782112309943e+01 -7.745703243921312264e+01 -5.771932100431789081e+01 -9.196717269955000162e+00 2.438666987205965881e+02 7.724884229742264097e+01 5.512783928715095527e+01 -1.044628611562867349e+02 1.491131075816984719e+02 1.056483197334443513e+00 -9.093432279221217129e+01 1.567907365337995884e+02 -1.551459578332341493e+02 1.588121290447486267e+01 -3.276398248126859158e+01 -2.237199298234217792e+02 -1.357947255476660189e+02 -8.880626024755063952e+01 -2.984288107016096703e+01 -1.213835745514483335e+02 5.869519068180361643e+01 6.616062453099715412e+01 -2.807615256739013176e+01 -1.015372141841201028e+02 1.151371790483278943e+02 1.203409846477209584e+02 4.705206164119261558e+01 1.779298893801880510e+01 2.661710934813137328e+02 4.447217402444649537e+01 -1.216602400053236153e+02 -4.589815125714414989e+01 -1.720129384925980105e+02 3.247045054684039656e+01 1.562084797597596832e+02 -1.511735090232006087e+02 1.342450527073042963e+02 -9.270561566830869538e+01 -1.927354726198529278e+01 -7.814167260929371084e-01 5.388685510710146076e+01 -1.182004195838337068e+01 -2.324335815373029490e+01 -1.925280035167173409e+01 -1.291927340965679321e+02 4.732771455514807712e+01 -3.095277524537699421e+01 -1.322144579177269996e+01 -1.092820557359393874e+01 2.304486534781260332e+02 1.776819927881902288e+02 2.372626841106807660e+02 1.344301367217032066e+02 -8.830382681627403940e+01 7.668899878867736675e+01 2.154737546284114558e+01 4.852972488882372915e+01 -4.051166295468566858e+01 2.605656094964577392e+02 -2.377395042733891017e+01 -1.394971840676149952e+02 -1.525538912311352391e+01 -4.676005774331294162e+01 -7.897103872264855795e+01 4.403734525732838989e+01 -1.195176466356637057e+01 1.856297590257217109e+02 9.428099127631323029e+01 4.172144844383523576e+01 1.000329471039530631e+02 9.647532223032149545e+01 -2.346125441359314578e+01 1.425158258732836885e+02 2.704763257660735576e+01 9.143748910922083439e+01 4.864942180697006791e+01 7.076096578960591188e+00 -1.181682969337100673e+02 -1.182507925727696687e+02 -9.189779930679351594e+01 -1.589545440219519712e+01 8.849504961080042165e+01 -3.129045005122587852e+01 1.009528038990520997e+02 4.472710282697619277e+01 -7.424311899077402188e+01 -3.058682115778298538e+01 -5.981810076877808058e+01 1.793167408602220902e+01 -4.729025760508767462e+01 -1.143865410731177263e+02 1.240688682230252908e+02 1.238755443277872672e+02 -8.060597896328725653e+01 5.550900447367715707e+00 -4.626304369621511370e+01 -3.328067639224212115e+01 -1.157913333909086795e+01 -3.187913050923412328e+01 4.539133083300701799e+01 -1.434706076843539222e+02 -5.394033282170398280e+01 -1.550215614579694545e+02 1.777080838679049180e+02 -2.063549713811642761e+01 6.013911210398720897e+01 1.216628906902289842e+01 1.473203878406723959e+02 4.553546712101421434e+01 3.644304385333494167e+01 1.574373029204668057e+02 -5.024195684028294551e+01 -9.953252649966830745e+01 2.771456635450147488e+01 -1.611055197800137364e+02 -5.444201723412687954e+01 1.042924725858722894e+02 -1.301357088153530697e+02 -3.706345987795881314e+01 9.304466641251238457e+01 -9.628437471228917843e+01 -9.119774101725053583e+01 -8.421771834902494902e+01 -6.502873674326968967e+01 2.537605522815360075e+02 2.019213064092657532e+02 1.049268217019820497e+02 -1.041066658787057975e+02 7.624475585701912905e+01 -6.737951864321719597e+01 -3.186797444744514962e+01 1.691045979844997760e+01 -3.280046695873384976e+01 -9.543587757179889763e+01 -2.797287707879806629e+00 1.504611603926373853e+01 1.106958320746407907e+02 -1.307254745723528515e+02 4.263521147190341765e+01 6.485080064761883989e+01 3.512452476042385996e+01 -9.213498663925015819e+01 -1.509835579790449458e+02 1.963817907669893827e+02 -1.810340933437252531e+01 2.559905008520817660e+01 1.590647565626534856e+02 2.709251987671285278e+01 2.817981584574901532e+01 -4.523654893088578888e+01 8.997916334529742244e+01 -1.384518706716490613e+02 -3.127828873131840481e+01 -6.229491088066082760e+00 -5.421951476736886377e+01 6.318770578042456343e+00 2.160861565669979356e+01 -3.632306344396510411e+01 1.386943166024340002e+01 2.168736161725991280e+02 -2.779523709974892753e+01 -2.838892380867499909e+01 -1.031392800323041428e+02 -1.672118600279144607e+00 -8.191762554753553616e+01 6.488134808028344302e+00 1.136819872343928637e+02 -5.277100198592849267e+01 6.133549792159803005e+00 -5.509031078956714111e+01 3.374221672500871350e+00 8.843834882416011567e+01 -1.174871896416255055e+02 -9.818000042938264471e+01 -1.040038634424381314e+02 7.237934210165543902e+01 8.776990422250192125e+01 -9.356699726768523817e+01 6.348873445374953661e+01 2.618034513230841753e+01 3.922506629677233292e+01 -1.799864422392079888e+01 9.260863971724846522e+01 8.082380486954484411e+01 -7.833739314026531986e+01 1.200010916430669816e+01 8.200504630487724000e+01 7.385808908267931372e+01 -2.016267235579974226e+01 2.532107616484435297e+01 -1.344070811576620201e+02 4.918533399922359450e+01 -3.321983066544964203e+01 -3.310501828116453282e+01 1.755493341639493678e+02 4.808093189583517102e+01 1.218509561542360444e+02 1.935560006535299067e+02 -1.395647074454115852e+02 1.511029879988377900e+02 -6.426836606420732778e+01 -1.369729832628461281e+02 8.343869723166054087e+01 -1.358944950361771760e+02 -2.909712765499917353e+01 5.718068277325449600e+01 8.184956543693965969e+00 -1.704097547455916981e+02 8.538071854668802985e+01 2.556387509453736229e+01 7.003260025011036305e+01 3.677563741533442254e+01 9.601574425538267121e+00 -6.802717076508352534e+01 1.172990937884352576e+02 5.522635473428184838e+01 -6.296489271609779337e+01 -1.026117983905387092e+02 3.946680708819121719e+01 2.603195816185115063e+01 8.350445193343571759e+01 1.862358731480366885e+02 -2.496532364783996627e+01 -1.116370840496101664e+02 -8.586821943342437180e+01 -5.201272146374076044e+01 -4.496660172168243719e+01 -1.487091665088184413e+02 -2.280961694847504617e+01 1.312413871856438732e+02 7.554396888606936500e+01 -1.240159740676880347e+02 -1.518725981359235959e+02 -6.901596696796622155e+01 -7.738063377213806859e+01 1.487329166207545086e+02 -1.727425328585253794e+02 8.769947911441497013e+01 -4.669406820067621311e+00 -4.360075681123727520e+01 1.347962643916433656e+01 9.238694143008066817e+01 5.024980306348008696e+01 1.400488380388318319e+02 -1.612526802328775091e+02 -8.204904291218865353e+01 2.568267597744814523e+01 4.249191641407049502e+01 2.088804526013675797e+02 1.473839760678748689e+02 6.639788290078951150e+01 7.306123197126626678e+01 -3.462841802686594406e+01 1.538356529413976830e+02 -1.817092043259910952e+02 -6.424142794276215795e+01 -5.439544444515698984e+01 -5.247837646216699881e+01 -1.046458728602393649e+02 -1.518395595648723351e+01 -6.954651424258914005e+01 7.211766415145521592e+01 -9.279166174172058135e+00 -5.885922226340485253e+01 -6.310806102328017886e+01 1.825607268390118918e+02 5.977710575209528088e+01 -1.388939885241302008e+01 2.116186391436162069e+02 -1.097502884449346965e+02 -3.579759032592939150e+01 6.783371607018392524e+01 -1.328126331241823721e-01 1.514132202462639576e+01 -1.267009992752290373e+02 1.784741724032208197e+02 -4.961982611285925771e+01 -2.728516797682651784e+01 -1.111098380003540029e+02 1.274486861569526042e+02 9.709345742615865049e+01 -7.849549066975083633e+01 -3.804705286374548479e+01 3.942842560966061427e+01 -1.532691751178377331e+02 -1.569885943190764688e-01 -7.561700320030568889e+01 7.795225983855252672e+00 -1.094271961271450948e+02 -1.604438357354807749e+02 -7.152540325615449035e+01 1.499313379632641841e+02 5.724736464893182841e+01 -9.067005208916295089e+01 9.021843796055122766e+01 3.463212324518922713e+01 8.932465455093797857e+01 -4.259581975027865042e+01 -8.504332179789739143e+01 1.729420530677091961e+02 4.212059736334620652e+01 2.927348448129502145e+01 -7.380595204431202205e+01 -4.277061029265019698e+01 9.652996897407559729e+00 -7.238569818630772978e+00 -1.746680255258668808e+02 -3.497196807714714595e+01 6.509169147898998631e+01 1.127695337225515004e+02 1.573132789904080937e+02 -1.340676959857034056e+01 9.052213790622369061e+01 1.592878068493067190e+02 6.404497688618295115e+01 1.491989450693246511e+02 1.621737315650450739e+01 1.325395772200604654e+02 -8.471965039133957021e+01 5.384646190171872604e+01 2.959698578767937249e+01 7.652892364091323429e+01 -1.071144141463140755e+02 1.996807252051288799e+02 -1.298224146679375792e+02 8.900558368612499294e+01 -1.082651200430579053e+02 4.649741730977311960e+01 1.390348237947017829e+01 9.137084318262716920e+01 -7.419788234032709795e+01 -7.603961456880107050e+01 -1.123702537436960824e+01 8.968728263152375746e+01 -2.977965323679628540e+01 -1.641234120372163119e+01 -1.975446145272114151e+01 4.765677370797970269e+00 9.870362122592192122e+01 -6.290832423482468982e+01 -2.727480615308882861e+00 -1.946605662110196704e+02 1.223738090478530154e+02 -1.252371740075347191e+02 -7.409270384494031703e+01 -2.360752613138421552e+01 -1.082381179145629915e+02 -5.330861343604487246e+01 -5.873515403986923644e+01 -1.972788367590356273e+01 1.366326773362759468e+02 5.420693646375617902e+01 1.007010496733790035e+02 -1.364613926562698794e+02 -1.389505804220714538e+02 -2.873344024832273931e+02 1.024289527431393765e+02 1.045440834189888051e+02 4.239995158467843339e+01 -4.254473497490079836e+01 -3.730805032031452129e+01 -1.841415965943274102e+02 1.465237231153694211e+02 -1.077117715724105977e+02 1.072541061853969637e+02 -1.596573395171754726e+02 -1.435047083631903497e+01 -5.553053422723733235e+01 -1.195870662693583029e+02 -4.622849154263688121e+01 -1.253668799887423191e+01 -9.292587143363408586e+01 -1.037913379862952183e+02 -1.239156765839081054e+01 7.140704510452690101e+01 -1.249960864860488385e+02 -1.571142762022384609e+01 -7.397666769399977227e+01 -1.318123586850657887e+02 6.676626025325099079e+00 9.545701055647489852e+01 1.660380232033569996e+02 -1.913082412195307214e+01 -4.620522283949045317e+01 -1.245606144127245187e+02 -1.641413445996331291e+02 1.041331013340411857e+02 -7.299899538791758857e+01 7.929414299272654887e+01 9.436903847394134459e+00 2.935070513019645233e+01 7.412419233013139319e+01 -8.505615679405175911e+01 8.298642179151198661e+01 1.157222284873061682e+02 1.580602531596541667e+02 -1.170352102196902280e+02 1.043612093966194294e+02 -4.796015081853900597e+01 -9.116379490896777327e+01 2.154422600785307793e+02 4.944742744068777540e+01 8.380917315863315764e+01 2.135898514359029932e+01 -6.346315906201603951e+01 -3.508023674520452317e+01 -2.112408776363193965e+02 1.060664279720234475e+02 8.183870111238263689e+01 -7.601201571876140406e+01 -7.344817819837645345e+01 1.457944214747307399e+02 1.014832152363765374e+02 5.132616241536278778e+01 7.639561332087836831e+01 -7.921066435236342684e+00 1.036237100655400241e+02 -1.039744515830187908e+02 1.871700185450119704e+02 -3.964692083004586465e+01 -1.225003701772405975e+02 -3.783065296087771401e+01 7.204389997203170992e+01 1.479559559057023534e+02 1.296281418138738317e+01 1.745498157824314944e+02 5.242104984079512064e+01 3.375997266743969760e+01 -1.117843219407850768e+02 4.499536771315734285e+01 -1.255542681161267637e+02 4.789760959501031579e+01 3.879158373775629087e+01 -1.238673567281215924e+02 -8.539421319798513821e+01 4.000721622015199586e+01 8.762687887474324810e+00 -2.332900512411788441e+01 4.203647353987944513e+01 -2.148976272888414485e+01 -6.335814949909745764e+01 -2.627419057716683426e+01 -2.254461260474837303e+01 -3.999575334619584055e+01 1.885577570913561374e+01 -8.083981921522502034e+01 1.194520706713062310e+02 -7.463219876365825201e+01 -4.288868792668435681e+00 6.581737952937393743e+01 3.910879734418088560e+00 1.601528183912254377e+01 1.602692944828231347e+01 -1.176255607118802544e+02 -4.435246276707240476e+00 6.532462731325350092e+01 -2.324061000148987830e+02 -8.521353587510428440e+01 -1.131900143391964662e+02 4.397396114224605412e+01 9.662168948537842539e+01 -9.213199572111913938e+01 -1.685827236111494472e+02 -1.859143650791927769e+02 2.005170114498169553e+01 -1.455185844815815983e+02 -6.345133989093701743e+00 1.481342630244163843e+02 -7.127335433250377328e+00 3.725925298644880712e+01 -9.917717113997485967e+01 8.001412989984096669e+01 -1.187447608534427701e+02 -1.543283282144209956e+01 -3.033781697443577130e+01 5.761699271779650644e+01 -8.877446132140502044e+00 1.056984616240365398e+02 -1.220451281930034639e+02 -5.006238119255680630e+01 8.651261990905717880e+01 6.608779218745611672e+01 -8.225213465002035207e+01 -5.432431479131183494e+01 -4.927994694002978093e+01 -2.888194810185383403e+02 1.931121963267918886e+02 7.592379482747858788e+01 -2.353487399599759300e+01 -2.958258892543839735e+01 4.140665929926064592e+01 -8.388098418545291679e+01 9.919477116688617002e+01 6.023919707661904255e+01 8.168600299403736642e+01 -8.375981651331466082e+01 -2.644568112431136697e+01 3.320097703805785017e+01 1.730525686650002015e+01 -4.262797513381271841e+01 1.571823042029281225e+02 -1.720937218117014567e+01 3.521861155475928484e+01 -2.286816804089223183e+02 -8.425348309282847481e+01 -7.278250819559735874e+01 2.289886478651276036e+01 1.086062000237658083e+02 -2.304462247325519968e+02 -1.860243112248371631e+02 2.204578602670410135e+02 -1.051105809249653156e+01 9.554117099461046791e+01 6.236016354861087763e+01 -5.505995335441402716e+01 -1.302804884229233267e+02 -9.463696734385521836e+01 -4.998295925106817350e+01 -3.722658978777530336e+01 -3.894032194124149981e+01 1.607565013395641884e+01 3.695116381518483450e+01 1.659007076479920499e+02 1.225258313719344585e+02 6.904271553656611715e+00 -4.365764404375014784e+00 -1.579059284945686272e+02 1.189863849032890926e+02 1.584345388760488049e+02 -1.028504108309723790e+02 7.332071806261932068e+01 1.746280086113732644e+00 5.459665015636129937e+01 1.247307486186597032e+02 7.054953204466367822e+01 -1.332902672706487692e+02 1.605291193368441327e+01 -2.922543966206172783e+01 1.108065024295412471e+01 -2.303017135633622559e+01 4.511079929926290077e+01 -2.592045616148344038e+02 1.802801030487177343e+02 7.267464302245089769e+00 1.586578076192718356e+02 -1.050400495412326229e+01 1.057018559020687718e+02 7.131888485365577424e+01 -4.182293523552398540e+01 2.978521219300808198e+01 -7.251257186268607313e+01 -8.863766116614840485e+01 -7.180858569000452007e+01 -3.193788831132637540e+01 4.502682458427820933e+01 1.098123654387364923e+02 2.840200905128255826e+01 6.192424927246483435e+01 -1.045157928045975098e+02 -1.367536200553697938e+02 -1.344751278768458036e+01 4.627787475131359685e+01 -4.538549921170169199e+01 9.431856752157182200e+01 5.539196071318535530e+01 -2.758599731974329572e+01 2.988322716854098360e+01 6.124118558470096474e+01 -7.196104318875148920e+01 -1.334523206099129879e+02 1.418073492192057188e+02 7.800776797013257102e+00 5.005997991189643415e+01 -1.490728734586718929e+02 -5.333529234174573475e+01 -4.575193311963955956e-01 -6.567018976416575526e+01 4.266142483269357299e+00 5.624197509149829699e+01 1.863219301135299020e+02 3.910750465388581887e+01 -1.095884732311394849e+01 7.219422009926361739e+01 -4.547753441932299268e+01 -1.089834769557730425e+02 -1.382221292702122355e+02 9.375136813714275874e+00 2.512482410007418920e+01 2.381728477389981080e+01 -5.692326985740987766e+01 1.209390610042454028e+02 -8.092329715547725755e+01 1.284831864269324910e+02 8.741618469815382753e+01 -6.513955625113780457e+01 -8.484226519363699026e+01 8.434628921989025230e+01 2.050690769986255191e+01 -5.260085804545231269e+01 -5.396105954371003577e+01 1.370015444969476448e+02 5.744587758371696395e+01 8.009111332433607799e+01 2.621542413727531340e+01 -4.219217631400240975e+01 1.077692467132098670e+02 -5.473147878328916960e+01 5.437135621761252091e-01 7.681746065976858517e+01 9.992670363585699533e+01 2.563890422019147195e+02 -1.758064532547148247e+02 1.615588756032304047e+02 -6.785815124042495938e+01 -1.528897390770331199e+01 -2.517554321885498325e+01 -2.082457249914861919e+01 -5.541803947726445756e+01 9.339392321597401292e+01 1.849985578551170988e+02 -1.194286252570420430e+02 3.110373735770648196e+01 -1.276436293328130489e+02 7.061968702349342664e+01 -4.477636797183814110e+01 -8.153282947117325818e+01 -5.426271914133916141e+01 4.147800169316299446e+01 1.953204842411409459e+01 -8.242508008926509433e+01 -1.422002830787310756e+02 2.094442701163329801e+01 1.589764219413387991e+02 1.441318257493688648e+01 1.841518462561481897e+02 7.533777022633871390e+00 1.359150469347864316e+02 -3.493839524040428302e+01 9.163670746014338420e+01 -7.218197637296148628e+01 -1.141032103197846226e+02 4.997029377063974920e+01 -5.865766307274603264e+01 -7.940974461605945578e+01 7.373910284888773958e+01 6.523870492604475935e+00 -9.542827632399364290e+01 -1.524000292058873640e+02 1.497570949512921175e+02 -9.031484901863255743e+01 -2.376723440691286271e+00 1.216733524486342191e+02 5.881431998913424053e+01 -9.954665163678075146e+01 1.077327576707156354e+01 2.860225308949964642e+02 5.408611494150662935e+01 -1.600366814642827649e+02 -4.842149310525726236e+01 -6.244738347283490043e+01 9.776627074139293327e+00 1.092152997444491405e+02 -1.050841595373279205e+02 2.190631206428950861e+01 1.325670654596844713e+02 1.907841963801160290e+01 -2.146759862263436673e+02 4.912584613498604114e+01 7.671687417630835171e+01 -1.380085985141927019e+01 3.334117909753081221e+01 1.437318687512613713e-01 2.287922486422451129e+01 2.819615793256772207e+01 1.177449580338267907e+02 9.965273821494129436e+01 1.581610732499107286e+01 1.515126653491629725e+02 -6.509083990842798073e+01 2.507767119612205988e+02 6.611907682332876846e+01 1.440804981148336879e+02 -2.234349691783645397e+01 9.158687345529082791e+01 -4.985358204717067565e+01 -1.488620148428713605e+02 2.663405593496880286e+01 9.668840133602151354e+01 -8.910503024164556507e+01 -1.065336593381437211e+02 -6.767967742498115058e+01 3.722342242644969446e+01 -1.161945817618964867e+02 7.601361318214472362e+01 2.855434831114852656e+01 -9.929850831926785304e+01 1.932254100811644832e+02 -1.196685663922713694e+01 -1.035125478125639802e+02 -1.361586422516467110e+01 -2.078954745597141240e+01 -1.426659188279106445e+02 -4.073048165651756136e+01 6.257273740801686301e+01 1.340673433181891880e+02 2.952597130698780603e+01 2.723022075726051838e+01 4.556975848545232566e+01 -3.637591714975926749e+01 -1.481328951708372017e+02 1.613317868514192099e+01 3.153124557519799254e+01 1.354222778617213407e+02 -1.010743679184789556e+01 -7.747298349000492124e+01 7.449009718289840976e+01 1.012620376760172469e+00 3.247909579106893574e+01 1.417213328676488970e+02 -1.806542265935792670e+02 -9.448376345411904254e+01 1.269232432452293438e+02 -2.133220006923005201e+02 -1.818488193040068097e+02 8.997326962160147446e+01 1.522696634513194454e+02 6.267583901291882853e+01 -4.401855016852717739e+00 1.540242664114627189e+02 -2.170309438368968813e+02 1.059554119644793815e+02 4.190562548194764503e+01 1.256534385934583611e+02 -1.864784510337738084e+02 1.053680876813831304e+02 -2.795996046370662214e+01 -1.322004025278122867e+02 -5.266226632809919650e+00 -9.136957305523353057e+01 -1.611932574852849953e+01 -4.243565705660546250e+00 -1.218112756281379347e+02 -1.219361745522771656e+02 -6.187369295528201008e+01 -1.274797606815757405e+02 1.987430572257969175e+02 -1.592310421653559445e+02 -4.960687061777802143e+01 1.706034060905676313e+02 3.354571955724977528e+01 -2.926669781120239691e+02 -1.256631496408049316e+02 3.512298838193268580e+01 5.403511146043444313e+01 8.499130047731057402e+00 -1.528925021347304494e+02 3.528719596351415788e+01 7.387902062607911269e+00 -7.349428438548009979e+01 2.004388483631883275e+02 2.003226789460102566e+02 4.284171417208897381e+00 -2.061909760578768385e+02 1.245762780896944690e+02 3.042412729967066198e+01 3.718155099851637946e+00 7.576477176823563298e+01 -2.051403198474284295e+02 -1.364861095155217470e+02 1.394578152203907280e+02 1.084119805807735872e+02 5.233498603203015875e+01 1.416145311821219650e+02 -1.762603335788018910e+02 -2.020755149032752129e+01 -1.289640927803253589e+02 4.310698097490140412e+01 -1.026977111548392969e+02 8.607011497405699174e+01 -3.350101131250179520e+01 1.224336761083380409e+01 1.754335481789458697e+02 2.817986545205673110e+01 -2.606035119631036991e+02 -1.249392899783345001e+02 -8.241494719052681717e+01 1.563257334012269553e+02 1.239423935726217607e+01 -5.321761499518979122e+01 3.003387443162448989e+01 6.181110146644145686e+01 -3.913284638013442418e+01 1.063029797790838273e+02 -9.960242882334749481e+01 4.865854110525859255e+01 1.106668274415657862e+02 -3.505435694371853117e+01 -9.701818905242092228e+01 -1.121424026351990193e+02 1.184093891560808487e+02 -4.910232777256408099e+01 1.943359910669382202e+02 5.655992964228917685e+01 1.097042972422243281e+02 1.823444292423284594e+02 8.464324947385730269e+00 -1.228795316075490405e+02 -1.638929155581077168e+02 -1.129004952452503829e+02 4.199833972121700043e+01
-1.315177244565941628e+01 -4.653494332920463883e+00 1.000172503329999500e+02 -2.211824501728304710e+02 1.500964676117347096e+02 6.134355195789045467e+01 1.469283484776576643e+02 -1.247334793714896364e+02 -2.685822681446189186e+00 -2.324900448874709369e+01 -2.119627676535410501e+02 3.161155701971484433e+01 -1.769648781397702209e+01 1.181065150660845404e+02 -1.207797019320260858e+02 5.959441782201222537e+01 1.210039267585139129e+02 -4.436966729352020167e+01 -4.794631426459450552e+01 -2.611119087732889099e+01 5.959049180553814296e+01 6.094159222329561487e+01 3.130673803961749613e+01 -2.245450194173542968e+02 -4.984147498399918419e+01 8.836431941032496695e+01 9.565071434197159661e+00 -1.000115281412386281e+01 -6.424756020338031703e+01 -1.493447916007674259e+01 7.081860265089848383e+01 -1.404091152148731396e+02 -5.978748219763087235e+01 8.680679748782072380e+00 2.003893964775128040e+02 2.047528856347560691e+02 -3.098201256531001491e+01 5.396397319119368774e+01 -2.633463478169646432e-01 -1.348546319354117031e+02 9.267843364717846555e+01 1.035471961092609234e+02 1.047833230514344791e+02 1.128715630652036772e+01 5.976358099910754618e+01 4.646708080913973049e+01 3.754552412746959078e+01 2.832321865646100889e+01 1.064888129772844394e+02 8.662901747670993302e+01 6.333926868414349798e+01 1.573678848234158920e+02 2.391715191114899426e+02 1.888380701732380658e+02 -5.709422574376723247e+01 4.756913050890242545e+01 -6.207232621226729208e+01 5.446831134412787634e+01 -1.855394817187679450e+02 5.455418584505006407e+01 -1.977152706190927631e+02 -1.629007063575433563e+02 1.249898351860506729e+01 -8.925721210133872319e+00 1.636966058419609737e+02 -2.007827213478814770e+02 7.269039757160284410e+01 2.219091717565113981e+02 -7.091112346851915049e+00 -1.880358127840766258e+02 3.435096955406116592e+01 1.904334253667039150e+02 -5.900431070975083259e+01 -2.573526778068687122e+02 -9.904577279447568117e+01 8.549842175424204882e+00 -2.222094725045810151e+02 3.094187256020625298e+01 -1.733310958095854062e+02 -1.792612874729638293e+02 -5.518133302084499547e+01 1.472999610727377444e+02 6.714343193178386571e+01 1.024959879243120930e+01 -8.565118849760574449e+01 -4.117310043688507193e+01 6.161198349701292187e+01 -2.243412962124758110e+02 5.230011301576158189e+01 -7.249889239147123021e+01 -7.551764477807141418e+01 -1.709344628878953642e+02 6.291927479996884642e+01 8.967687241382320451e+01 -1.569686035703624327e+02 1.670789888951508715e+02 -3.858309290854193563e+01 -1.636177341207974933e+01 8.471196274051797559e+01 1.511976364895882057e+02 2.099076998239614866e+01 1.465001678566689520e+02 -1.787358388055104186e+01 -8.775057120363888430e+01 -1.897729306027883212e+01 9.779268094366101138e+01 4.473410231804771797e+01 9.731087924508982212e+01 9.389981871691817616e+01 -8.262578434978334485e+01 -1.690250586818010277e+02 1.224145373189994359e+02 5.397110600436508321e+01 1.609749753500071279e+01 3.042094843097045853e+01 -6.757936135391220489e+01 9.555047857797350730e+01 8.939302314880646350e+01 -1.361823411492287583e+01 -7.089383058745032429e+01 3.060180465420998175e+01 6.246274731763707067e+00 -6.122832794257875122e+01 1.687514398859890434e+02 -3.277964750968018848e+01 1.210477062214689852e+02 -6.979246192828688322e+01 3.821584701201900458e+01 -3.594585931716541438e+01 8.908157870769672115e+01 2.338318097190775191e+01 1.150954751367983135e+02 -1.155276152326566290e+02 7.404593612107908029e+01 1.229974415374120582e+02 -4.453794443327073083e+01 7.572438320346154939e+00 -1.264710523677938880e+01 1.163565876494755287e+02 3.557969166180789955e+00 1.680733395600386473e+02 -1.409317598749995852e+02 1.162879286316425720e+02 -9.103336247550799953e+01 9.546888263155251764e+01 -1.366401791425492434e+02 2.943196989942846287e+01 2.467371440357846168e+01 1.803855395356185332e+00 3.621547709701352602e+01 4.580854310064990642e+01 -1.238701535265408005e+01 1.079786255998239142e+01 1.078298083225574544e+02 1.269622063206360707e+02 -8.648644795691406273e+01 -5.409193847315227544e+01 4.725810478081723431e+01 1.532438171627060086e+00 -1.366925461808192210e+02 -5.499716711128074564e+01 -3.538581095460843073e+01 4.883084011278971559e+01 -6.544733880342512577e+01 2.289247499650249651e+01 1.601523345962675364e+02 -7.936951453750002372e+01 8.071264257760419980e+01 8.400559191290919614e+01 1.122951171403624748e+01 1.233542791824814771e+02 6.285288637489529862e+01 1.679873110331326984e+02 -3.455790098943828070e+01 1.124580188743062763e+02 5.555488230775167580e+01 -1.607891337427476230e+01 2.042238838606604077e+02 -1.388933030739862318e+02 4.892376649335277961e+01 -1.877654667010618823e+02 -8.428104202567354264e+01 4.108431972276297017e+01 -7.231864943291660097e+01 -1.560976652284221302e+02 1.996911842829178738e+02 -8.594996009837774409e+01 -4.759074510999120378e+01 -4.638113752050705330e+01 1.220227512406138999e+02 1.952352330021205944e+02 6.490981190284696822e+01 1.466111055007887103e+02 2.200127321035433283e+02 -1.624367843556080881e+00 1.633292775397167134e+02 7.107636029161568558e+01 1.909031632775922276e+02 -1.261205828400031805e+02 -1.189537885626093683e+01 6.358190496964872374e+00 1.904662508074293328e+02 -9.113764807292740500e+01 -6.064367630901715245e+01 -5.309223079574753967e+01 -1.343367845340126792e+02 4.677933312503575358e+00 -1.012126815020281612e+02 1.545409122176452286e+02 2.363017862455355100e+01 1.203950669006085583e+01 7.250702492953925571e+01 -4.946028835447520144e+00 1.172826160614635143e+02 -1.592902545700091252e+02 4.553393292395269754e+01 -1.713117786526506166e+02 1.177491186603244557e+02 9.630413474117332839e+01 -6.749593804111027850e+01 4.690052432705364538e+01 2.387971819123105206e+02 -3.054287329051397393e+01 4.177346009324069342e+01 -3.276428236772331815e+01 5.809827514849526864e+01 6.446011282031416556e+01 -6.291465751727356448e+00 1.021977762450429168e+02 1.017768690535105094e+02 -1.943930270939248999e+02 -1.536489873255371208e+02 -1.201353168624894039e+02 -9.473399956683987710e+00 -1.501792573391461190e+02 1.158469917829224585e+02 1.106342461417319640e+02 5.912912224070795020e+01 1.118991970231967414e+01 1.580820673155912459e+02 8.417104008770299117e+01 6.766488517737617769e+01 -1.018806859622157788e+02 1.527285117801369836e+02 -3.590284159787864748e+00 1.095924001386217839e+02 8.837594503737301821e+00 3.682980037524858119e+01 -7.587441446049655269e+01 -9.095141313984768772e+01 7.173748501846569070e+01 -3.847642352212844230e+00 1.465405854783357711e+02 -1.259638172102016185e+01 -2.860088261496305240e+00 4.593939442416691321e+01 2.267987187041718755e+01 1.416552582877819191e+02 1.466880507933798050e+01 3.589812715795697073e+01 -1.549252214195107626e+02 6.593132901571583204e+01 1.338201074689785059e+02 -1.767582126122446695e+01 -2.282126628224250453e+02 8.446238831309099737e+01 1.361344669724226719e+02 2.031492136244832736e+01 1.887875022651156769e+02 -4.171943528100993781e+00 4.281496976984074365e+01 -4.349736891938064076e+01 -1.382886063846075047e+02 5.583230967273269130e+01 -4.731726558389728154e+01 -8.076224087651451100e+01 4.106160532028815879e+01 -1.840559888937542894e+02 7.140895684780970498e+01 1.636723122139925692e+02 -1.007632484799801063e+02 1.721472086587358490e+02 -9.716818274210997686e+01 -5.950191137146384257e+00 -1.046865014707026731e+01 7.619768326594586938e+01 -4.632409224888851185e+01 -1.071776677758519725e+02 -8.801813290940539503e+01 1.448682254723013045e+02 5.872554373101066716e+01 -1.308822162910887812e+02 4.406521773040114276e+00 4.313102926946616122e+01 8.197853493544643300e+01 -4.004118334544089919e+01 5.953908050461567569e+01 -6.845631309429651878e+01 -1.611257586921162499e+02 -3.436777279500580562e+01 1.398806684761482018e+02 -1.124838595753996344e+02 -6.362057984587660364e+00 -1.615976956345211022e+02 -4.752035232303910561e+00 -1.446803456565269528e+02 3.263341188811718041e+01 5.966014340759342360e+01 -4.990183606622237278e+01 -8.168063096042661186e+01 5.584203127089133467e+00 7.373879710151219058e+01 -6.716581378516296752e+01 1.334813636040820484e+02 1.045527901642690409e+02 -1.264575436409968887e+02 -1.044608979281577774e+02 1.337902224483953546e+02 7.064287072710901327e+01 1.487185973999491182e+02 9.916594630375475106e+01 8.034152324872928830e+01 -5.964594372533525757e+01 -8.091471754807913896e+01 -7.625016885110625253e+01 2.022948407236661978e+02 3.021473841319268772e+01 -2.462636857620589481e+01 -6.775435730158855563e+01 -4.942441273297941962e+01 -1.296859282224476999e+02 -1.629758807827063549e+01 -1.727824675617625019e+02 1.231314096440542301e+02 4.530809227072091261e+01 -1.134757582241915799e+02 -4.764961678098258346e+01 1.179116843465593547e+02 -9.547689031682516259e+01 1.012471735847744441e+02 -1.166351791533796529e+02 -1.158725129262265341e+01 -9.402796311971417254e+01 8.832930440339066536e+01 -4.182069302868968919e+01 1.015334474227535466e+01 2.887606172355667411e+01 -1.246720747907027373e+02 1.230536457175978882e+01 4.758236515299134339e+01 -2.203961448504187004e+01 -6.765936694757137104e+01 1.993207122923026020e+02 8.507740167528324093e+01 4.637566328189485176e+01 -3.091644237934125172e+01 7.894843537153685986e+01 1.649175140178201673e+02 -9.079297220845379002e+01 2.060964762099515895e+02 -1.309619951730728644e+02 -1.809646785643761291e+02 1.493898417357695223e+02 -2.301839836697963335e+02 -9.666486415124025955e-01 -2.409685519249669881e+02 -1.504415891490660044e+02 7.059990763745861386e+01 -1.432735722415955593e+02 5.743490502574518075e+01 1.081295501801983647e+02 -1.577695527251915451e+02 -2.963816972680373496e+01 7.418440713047615986e+01 1.317546868165326828e+02 -1.830792628230726962e+02 8.605235720564306234e+01 -9.636896018384537399e+01 -9.708901058539833429e+00 -1.365362324620581802e+01 -7.828729585404965974e+01 -8.884259574743599330e+01 1.784255826194670362e+02 -2.133344791488496739e+01 1.315294135331053216e+00 1.281329552273552963e+02 -8.530857255630117209e+01 -3.387902355844683200e+01 -1.059672426520923096e+02 -4.807474535617885181e+01 5.092791513026044825e+00 5.847136676813870082e+01 -1.330921081625034788e+02 2.338063075757702052e+02 -5.315643324419812643e+01 1.210135652385374101e+02 -4.818443401218442546e+01 1.182436634504255295e+02 1.373398665319684255e+02 4.738731361218921023e+01 1.205858072902214815e+02 -4.269621619432160742e+01 1.382691501163116357e+02 -1.545774112838506653e+02 -6.461474623301653253e+01 -6.222722320998933299e+01 2.524215387803295485e+01 -1.604030128749145661e+02 7.170441353995695977e+01 -3.048041886156088864e+01 -8.168504083474454092e+01 8.856678609446520056e+01 -1.493617706198698443e+02 -9.016796380639917174e+01 -5.201128216852889352e+01 3.270082270925414747e+01 1.283304957366792109e+02 1.155222168072727698e+02 6.832941717709806539e+01 -1.577532097805218969e+00 1.728673119373813449e+02 1.211209555253904853e+02 -9.336374036770385487e+01 -7.724827297611111021e+01 5.470678309521196070e+01 9.860857299658523090e+00 9.684923493841576203e+01 1.647648422433441624e+02 6.977078175068214705e+01 2.412048445446628264e+01 -1.010115271092087141e+02 1.697959131381580846e+02 -1.123452763640359535e+02 -1.633301160808390193e+02 6.494225874995397874e+01 1.101578822580135153e+02 1.939965054442358294e+01 -1.371702968163615708e+02 2.936873761268756411e+01 4.190481932382338925e+01 -3.245285706598462494e-01 1.293042495134973251e+02 9.642325290252794900e+01 1.689342014053773866e+01 7.735725506156143183e+01 -1.056465878555326867e+02 -6.243508154532991128e+00 9.707461152196415810e+01 2.930473007170662214e+01 -6.419316887688535189e+01 1.954645321995262179e+02 2.280862448055021048e+02 -1.238600914980373204e+02 -2.724767997991005686e+01 -2.074069033207100006e+02 -7.121712730538874325e+01 1.545002549325992049e+02 3.350567213373612852e+00 -7.002548926473080826e+01 1.615629142731055765e+02 -6.165438286296874537e+01 -1.583998779841560349e+02 1.346721362864590787e+02 -6.628141730753505101e+01 3.399359790814017401e+01 8.514631659845220213e+01 1.358928451435485307e+01 -2.348787881840741250e+02 4.170038522625308275e+01 -6.055539312831183629e+00 8.881266865895935325e+01 -2.322794721178366117e+01 9.970530154865303984e+01 1.673270056929406380e+01 -8.353029576425255698e+01 -2.018538224910881951e+01 -1.727168911326997147e+02 1.133399277950928763e+02 2.491062655412745031e+01 -4.102765133340916037e+01 -5.106446899210251900e+01 -6.197945650535216089e+01 4.051676053703496905e+01 1.583761251987020273e+02 1.307881386975647331e+02 4.244251635652508980e+01 -1.950081720648793748e+02 -3.823389235671508857e+01 4.318221033883197890e+01 1.156447992427655578e+02 8.595935868264433566e+01 1.522741651241706684e+01 -1.833491048587528383e+02 1.298045790447036723e+02 -2.205255981759181338e+02 -2.028403537548805105e+02 -1.816294902041545534e+00 -7.270969551146842491e+01 -2.374401752906862484e+01 8.587041787231933654e+01 5.511439797170316268e+01 -1.096006831830463000e+02 -1.492672504015872903e+02 1.438089570273108819e+01 1.219062772140772495e+02 2.039775527817483791e+01 -5.589172273514832767e+01 -5.088026485396540721e+01 -1.158978877358408077e+01 1.590466739212423875e+02 2.205021769854835156e+01 -1.742490960201396604e+02 1.287234952600151701e+02 -6.702831767048496658e+01 -4.189485495704142970e+00 1.545086255034347005e+02 -5.247629601128396359e+01 -1.965009481690100301e+01 -1.102186806765409983e+02 -6.027313584007757186e+00 -2.393618482677282699e+01 1.321465066226873546e+02 1.204915160316433571e+02 6.780854928293334183e+01 6.564215625039355473e+01 -1.877454797630419847e+01 1.356635994669118190e+02 -1.131323405304362808e+02 -4.275722363238775081e+00 -9.135894900548616704e+01 1.576576846559053138e+02 7.318693663673177241e+01 5.186368585052218805e+01 8.300535636774950987e+00 -5.346246612065574766e+01 3.449768052184275291e+01 6.768378761568090596e+00 3.624093055070585656e+00 2.419365780797508947e+01 5.997248700805035782e+01 1.708116096512881938e+02 -3.896107674897233863e+01 -5.215525982487839940e+01 6.700224760435973792e+01 1.160447007455144615e+02 -1.285136707764764630e+01 9.222411485109053331e+01 1.043757341952129991e+02 2.114275953652146711e+02 -8.681855742890769534e+01 -1.230727513381434477e+02 -2.872748195237049629e+01 6.233656839982614883e+01 -1.017805829012216634e+01 1.077398463969825713e+02 3.734758499651000108e+01 -1.631048450557150034e+02 4.518969765558578899e+01 -8.971335838046586275e+01 -1.356743292713069877e+02 1.348669616086197891e+02 -7.622916785828500963e+01 5.930337549840949407e+01 1.114755857378054174e+02 -9.926546118581518385e+01 2.353444699643688409e+01 -7.231034519131489446e+01 4.035355137665329295e+01 -1.148373090307008511e+02 6.169915006989108264e+01 5.477465892490336330e+01 3.920038447544762050e+00 8.421030950892320277e+01 -1.531822164424170865e+02 7.650055945854224149e+01 -2.930814296525357676e+01 -1.679964619187920221e+02 9.395373605174386000e+01 2.438877894612650010e+01 -1.950572416866032199e+02 2.339348405630204013e+02 -5.293446845190571404e-01 1.045808519850564267e+02 -1.199235459661705505e+02 -1.931123276399426629e+02 -9.279327802696666083e+01 2.466374613804142246e+00 1.420961885933139115e+02 3.978542705719606332e+00 -9.503348500427733825e+01 5.011585086489721164e+01 1.362764429218165958e+02 6.461882547834402146e+01 -5.145212993606082108e+01 -5.880930524246398505e+01 8.403335461516141436e+01 3.057423966309396235e+01 -1.944562913163334770e+02 -2.061684673258890399e+01 1.680869072966002307e+02 9.827293920559408491e+01 -5.700209783165418287e+01 -1.111769765301870763e+02 -4.244014992977432854e+01 -4.781100760070346922e+01 -1.138092406183200751e+02 -1.837356085980895770e+01 -4.540642013146111822e+01 -1.129784752171704127e+02 -1.311487108005428865e+02 -2.678105011642352196e+01 -1.249587333518368695e+02 -1.330401074404577457e+02 -3.811644846306074186e+01 -5.503837495124162871e+01 -1.103803236005473565e+02 1.917922466008468234e+02 1.084850866155457538e+01 -2.898645461288530711e+01 -1.752352412100287893e+01 8.105173280639159827e+01 1.611304730615800906e+01 2.580700218406401092e+01 -2.192743030489850398e+01 -4.764018978751810351e+01 2.155289919667712439e+01 -1.497714676071919939e+02 -1.640214156511428030e+02 -9.316790270324058554e+01 -1.966294001083196576e+02 -9.233882784624049123e+01 8.840184129008609659e+01 6.324361319838186546e+01 -2.685124469956207349e+01 6.261146269887162674e+01 -1.613029755084829162e+02 -4.206472979672671642e+01 -1.196495029721350107e+02 -6.877605194162177327e+01 2.173378932903211478e+02 -2.115093835037808958e+02 2.114892405340015671e+02 2.575116669043307738e+01 -5.818447630703222018e+01 9.504244689920615485e+01 1.278456129839736377e+02 -5.346360191693390362e+01 -2.099085333084145759e+02 -1.536193181899194542e+02 1.053698423971713680e+02 8.630140291187083790e+01 -1.396953836429098033e+02 3.292561517026313567e+01 -4.086933870654740986e+01 -7.974756911668585246e+01 -2.928643508017709607e+01 -5.649075837613257534e+01 -8.906156966023407051e+01 -3.507073270973265267e+01 4.617042728634115356e+00 -3.369637561099710865e+01 -4.059597148068249672e-01 -1.479203666342903212e+01 9.476651770144933096e+01 1.309397717419292348e+02 1.356773029257234064e+01 1.729938234092803739e+01 -6.502488533577697183e+01 -2.019722570811389630e+02 3.488046321408147321e+01 -9.451718621046438784e+01 2.661313502524144425e+01 -8.425908121314083843e+00 1.051774995074675978e+00 7.447152771439085939e+01 1.255776701869662872e+02 -7.260146844235039509e+01 3.915164929372058111e+01 -1.986950590191096353e+02 9.963606525293769778e+00 7.207395424269085638e+00 -1.262671138289967558e+02 -3.474942574590340172e+01 -4.567204840787359643e+01 4.916438403716476557e+00 -1.053540880955591348e+02 2.787653940467676961e+01 -1.006133282074996913e+02 5.781582001350754041e+01 6.990585647515982259e+01 3.799963920115548888e+01 -2.989787002756331447e+01 1.107055740958408450e+02 6.291791900737147358e+01 8.241155580008927473e+01 -6.901286998349057455e+01 2.090663433623808842e+01 1.317350762852370565e+02 -6.022715594108429826e+01 -7.120376536172190463e+00 3.294850451650032852e+01 -1.322362423178334438e+02 1.007352473229450709e+02 9.223695676070744298e+01 -1.041360014654906792e+02 -8.479052586130266889e+01 -5.716103386539127484e+01 -4.690546825873061465e+01 -1.649814752810578966e+02 -1.399106705945270335e+02 -1.363480561292709581e+02 1.087439173476544028e+02 6.151219619422997198e+01 1.641430400572123176e+02 7.404670276671441620e+00 -8.821346078264345181e+01 1.927070782678283223e+01 1.422899508945968705e+01 -6.532761906249410799e+01 7.615877527697007565e+01 1.214136802426042578e+02 1.027415672336727859e+01 1.474582138971578331e+02 2.314474775797020101e+01 1.140768126552606532e+02 1.551868719240785666e+01 -2.135855718107665098e+02 2.244614704226422361e+02 -5.029723002161491507e+01 -1.532540664636810845e+02 -6.904725029611752518e+01 -4.410227823923598578e+01 4.230416721212762354e+01 2.616647696927372735e+01 4.675817656051521709e+01 -7.574288467491426502e+01 1.250329959332096337e+02 -8.811268105168007025e+01 -7.159586867945637145e+00 1.454489281857180174e+02 1.118960452080036845e+02 5.918402113068112413e+01 -1.805849844972035783e+02 2.593742295471857418e+01 1.431578424865640216e+02 2.388695429867608411e+01 9.942466797353974073e+01 1.083932341975538236e+02 -2.152204938236855867e+02 7.828526426666972782e+01 -5.875993323279070779e+01 -2.287451798126470806e+02 8.995439357015490600e+01 2.496262741937678697e+01 -1.234016625439301151e+02 -5.914112757793191122e+01 1.399933070153409744e+02 1.485845216826791955e+02 -7.626502100718730048e+01 -1.284028687964010089e+02 -8.374624624048475141e+01 -1.663046344245556440e+02 1.959643732074838951e+01 3.795624412748682630e+01 -1.694780326978174756e+01 -1.236439659925187939e+01 -8.932502994822606013e+01 -8.811566093438715086e+01 -2.455581425081207314e+01 1.330265015248761529e+02 1.352058807532772562e+02 8.044489090248819707e+01 9.618809784946026298e+01 -7.779052477606413163e+01 -1.785566076304257308e+02 -1.307420612480734867e+01 -2.287356026106515117e+01 -7.007899096755528490e+01 1.477756212525941359e+00 7.210160968345799404e+01 -5.222227731219155089e+01 2.431800078391393072e+01 7.812693382334865078e+01 6.916449297252665929e+01 1.090534917177692762e+02 -1.471938398701179267e+02 3.911303782736479207e+01 8.220130354220097502e+01 9.349516449651326866e+01 5.828210490898418072e+01 -1.018619389415913474e+02 1.351095217379691462e+02 1.257608385279733199e+02 9.455824965473044585e+01 1.001765166217554537e+02 -8.310107698871665605e+01 -1.467360860331980099e+01 -1.275561554963280742e+01 7.603120036877271559e+01 6.410141628955899762e+01 5.522419298800715382e+01 9.628168022218176247e+01 1.149242117174224518e+02 1.222301622165314541e+02 -6.403605806858081451e+01 7.952147180100278945e+01 6.437615677484440369e+01 -1.160899142498661121e+02 1.298505880031386255e+02 -9.904935855907364584e+00 -2.755086138195293444e+01 1.966752626236984440e+02 8.732858493426432744e+01 1.225118868635842375e+02 -1.425098426636705256e+02 -1.558135713488137526e+02 -1.518473124022385718e+02 -1.206842779826479415e+02 -4.375253743386563343e+01 1.085148548751243283e+02 -1.666985011188008627e+02 3.215735456058761343e+01 1.427338676389519776e+02 -5.868960476940925730e+01 -9.036206478830300171e+01 -3.474118512194225872e+01 1.344621992517431863e+02 2.249710526945869731e+02 -6.597667885466920268e+01 1.961839829762944731e+01 -2.742570742511167481e+01 6.782992957385570776e+01 5.968681152997930184e+01 -2.112365197310871281e+02 -8.784675721292737194e+01 1.363284664641403197e+02 1.385486065328552456e+02 9.370162135719438368e+01 -4.937490875434799165e+01 -7.515524212168389795e+01 -4.502221888699018137e+01 -1.750520657554162653e+02 7.056795582574989112e+01 -2.545891945162431824e+01 1.650354546467602290e+02 -2.770394083905320315e+01 -3.120760399416280393e+02 1.437457623920163599e+02 4.990399593010893398e+01 -1.170629248351551013e+02 -2.197892142800281690e+01 3.504631535947929422e+01 -2.061250195766345428e+02 -1.134388997298330111e+02 -1.087982122928120390e+02 -5.602337064270525957e+01 6.235391767232582794e+01 -1.636469256980856812e+02 1.071651970119111610e+02 -5.393463949370428878e+01 2.890953884387170714e+00 -1.324935287175412952e+02 -1.028929255098578324e+02 1.746602988920731434e+02 8.607840824089149123e+01 -4.195353605861847512e+01 3.692797108790342264e+01 -2.787452204089373353e+01 4.295893231383884370e+01 -1.039483075136289187e+02 9.822381877119241267e+01 5.019255201396387633e+01 -1.181674640258951854e+02 1.160379026311515389e+02 -4.883763234751460658e+01 9.930814657525478140e+01 -4.911254711802332906e+01 8.786229889096065904e+01 -1.525095296423866387e+02 1.418741629522623100e+02 2.462859040113636411e+01 1.000738146945760434e+02 1.296835275196993393e+02 -1.458369161893068622e+02 -8.542769853657537737e+01 -1.050589167268979054e+02 6.651984701361668328e+01 -1.704410277661511373e+02 1.506986174855409786e+02 1.416560065533347483e+02 5.271262695601159720e+01 -8.446699948978425709e+01 5.677025908755165062e+01 -1.067713295460593201e+02 -1.089751014012853680e+01 3.481485789203945558e+01 -1.828574735556511541e+02 -8.120194829644734114e+01 -1.347138099836676339e+01 1.017350298955840060e+02 -4.997912231803999106e+01 1.082204541675887413e+02 -6.405369148076532326e+01 -2.098985411198530358e+02 -1.066409440929922283e+02 -3.392896692384189095e+01 -5.994209016578957971e+01 2.997649093100679707e+01 5.117983616918275658e+01 6.323877163356712572e+00 2.522080430994443034e+01 -1.168722965147360497e+02 5.364465786289879645e+01 3.251396069910968123e+01 -7.193307158970958426e+01 9.231452159815789926e+00 5.614087781089460805e+01 -9.510552785713642265e+01 -5.490519272187112421e+01 -2.407151479983140518e+01 9.730440272080454633e+01 -1.707938347931911593e+01 4.181602300221579860e+00 -2.274326545715088912e+02 -9.478141245992610209e+01 9.866893955106444025e+01 -8.899467420352225133e+01 3.126027703701531024e+01 3.098720995508830711e+01 3.784195949119536806e+01 6.592460670882745433e+01 -1.770361429337296784e+02 1.436348828395437067e+02 8.129711742157267906e+01 -7.500811532557660755e+00 -8.062692388186779624e+01 1.116687216475048956e+02 6.196138737550035103e+01 -2.006659525969343179e+02 -5.027934527940891485e+01 -8.152097501720147932e+01 -5.173247867122395860e+01 -6.181167389641800014e+01 -9.885310717511435996e+01 -6.025060372685433663e+01 1.911189007705850997e+02 -1.704509489911993398e+02 6.535712122962591764e+01 2.768976230922454107e+01 -7.503711796307655391e+01 1.036461227931062190e+01 -3.934532629100793599e+01 3.422265649123068076e+00 -9.595871715542422464e+01 -1.972023309174172709e+02 1.836106412367382035e+01 4.183855019761373484e+01 -1.277660008721106522e+01 -9.000439120750321820e+00 -3.971330174403947666e+01 -1.896115943510566808e+02 -3.059840240153315705e+01 -6.525966326972452691e+01 1.394303982166674238e+01 -1.558599258811543997e+01 9.041196099268742614e+01 -6.293715803266354669e+01 -1.035413232710155427e+02 -3.568617709926598280e+01 -8.997475397044429002e+00 4.543370948282742461e+01 -2.210805608932350452e+01 -7.364149041564648712e+01 -1.585193469439517422e+01 2.003676282583039381e+01 4.743868998197039133e+01 -1.138612150230986515e+02 -1.388545632611563292e+02 2.300565783947912450e+02 -2.180130764199103055e+02 -7.586113150728803589e+01 -4.628858031555095209e+01 1.397032222470584770e+02 6.321166815653094062e+01 2.286260668900810629e+02 2.444914238804571482e+02 -6.227277223577866749e+01 1.293376926535986797e+02 -5.590582808792565572e+01 -4.077086748797400872e+01 -1.005467552790877903e+02 -7.976518031934236319e+01 -6.950208726563499795e+01 -8.891258141566154904e+01 -2.435444414109380489e+02 -2.706163488371649919e+02 1.345708403021803861e+02 -2.650570912108027599e+01 5.321689390510170625e+01 1.307532173749239917e+02
