# 
#                 ----------------------------------------------------
#                 Data from a 3D direct N-body simulation. 
# 
#                 rows are i-particle; 
#                 coumns are :mass, tag, x ,y, z, vx, vy, vz, ax, ay, az
# 
#                 NTHU, Computational Physics Lab
# 
#                 ----------------------------------------------------
#                 Time = 9.499999999999842
1.000000000000000000e+00 2.000000000000000000e+00 3.000000000000000000e+00 4.000000000000000000e+00 5.000000000000000000e+00 6.000000000000000000e+00 7.000000000000000000e+00 8.000000000000000000e+00 9.000000000000000000e+00 1.000000000000000000e+01 1.100000000000000000e+01 1.200000000000000000e+01 1.300000000000000000e+01 1.400000000000000000e+01 1.500000000000000000e+01 1.600000000000000000e+01 1.700000000000000000e+01 1.800000000000000000e+01 1.900000000000000000e+01 2.000000000000000000e+01 2.100000000000000000e+01 2.200000000000000000e+01 2.300000000000000000e+01 2.400000000000000000e+01 2.500000000000000000e+01 2.600000000000000000e+01 2.700000000000000000e+01 2.800000000000000000e+01 2.900000000000000000e+01 3.000000000000000000e+01 3.100000000000000000e+01 3.200000000000000000e+01 3.300000000000000000e+01 3.400000000000000000e+01 3.500000000000000000e+01 3.600000000000000000e+01 3.700000000000000000e+01 3.800000000000000000e+01 3.900000000000000000e+01 4.000000000000000000e+01 4.100000000000000000e+01 4.200000000000000000e+01 4.300000000000000000e+01 4.400000000000000000e+01 4.500000000000000000e+01 4.600000000000000000e+01 4.700000000000000000e+01 4.800000000000000000e+01 4.900000000000000000e+01 5.000000000000000000e+01 5.100000000000000000e+01 5.200000000000000000e+01 5.300000000000000000e+01 5.400000000000000000e+01 5.500000000000000000e+01 5.600000000000000000e+01 5.700000000000000000e+01 5.800000000000000000e+01 5.900000000000000000e+01 6.000000000000000000e+01 6.100000000000000000e+01 6.200000000000000000e+01 6.300000000000000000e+01 6.400000000000000000e+01 6.500000000000000000e+01 6.600000000000000000e+01 6.700000000000000000e+01 6.800000000000000000e+01 6.900000000000000000e+01 7.000000000000000000e+01 7.100000000000000000e+01 7.200000000000000000e+01 7.300000000000000000e+01 7.400000000000000000e+01 7.500000000000000000e+01 7.600000000000000000e+01 7.700000000000000000e+01 7.800000000000000000e+01 7.900000000000000000e+01 8.000000000000000000e+01 8.100000000000000000e+01 8.200000000000000000e+01 8.300000000000000000e+01 8.400000000000000000e+01 8.500000000000000000e+01 8.600000000000000000e+01 8.700000000000000000e+01 8.800000000000000000e+01 8.900000000000000000e+01 9.000000000000000000e+01 9.100000000000000000e+01 9.200000000000000000e+01 9.300000000000000000e+01 9.400000000000000000e+01 9.500000000000000000e+01 9.600000000000000000e+01 9.700000000000000000e+01 9.800000000000000000e+01 9.900000000000000000e+01 1.000000000000000000e+02 1.010000000000000000e+02 1.020000000000000000e+02 1.030000000000000000e+02 1.040000000000000000e+02 1.050000000000000000e+02 1.060000000000000000e+02 1.070000000000000000e+02 1.080000000000000000e+02 1.090000000000000000e+02 1.100000000000000000e+02 1.110000000000000000e+02 1.120000000000000000e+02 1.130000000000000000e+02 1.140000000000000000e+02 1.150000000000000000e+02 1.160000000000000000e+02 1.170000000000000000e+02 1.180000000000000000e+02 1.190000000000000000e+02 1.200000000000000000e+02 1.210000000000000000e+02 1.220000000000000000e+02 1.230000000000000000e+02 1.240000000000000000e+02 1.250000000000000000e+02 1.260000000000000000e+02 1.270000000000000000e+02 1.280000000000000000e+02 1.290000000000000000e+02 1.300000000000000000e+02 1.310000000000000000e+02 1.320000000000000000e+02 1.330000000000000000e+02 1.340000000000000000e+02 1.350000000000000000e+02 1.360000000000000000e+02 1.370000000000000000e+02 1.380000000000000000e+02 1.390000000000000000e+02 1.400000000000000000e+02 1.410000000000000000e+02 1.420000000000000000e+02 1.430000000000000000e+02 1.440000000000000000e+02 1.450000000000000000e+02 1.460000000000000000e+02 1.470000000000000000e+02 1.480000000000000000e+02 1.490000000000000000e+02 1.500000000000000000e+02 1.510000000000000000e+02 1.520000000000000000e+02 1.530000000000000000e+02 1.540000000000000000e+02 1.550000000000000000e+02 1.560000000000000000e+02 1.570000000000000000e+02 1.580000000000000000e+02 1.590000000000000000e+02 1.600000000000000000e+02 1.610000000000000000e+02 1.620000000000000000e+02 1.630000000000000000e+02 1.640000000000000000e+02 1.650000000000000000e+02 1.660000000000000000e+02 1.670000000000000000e+02 1.680000000000000000e+02 1.690000000000000000e+02 1.700000000000000000e+02 1.710000000000000000e+02 1.720000000000000000e+02 1.730000000000000000e+02 1.740000000000000000e+02 1.750000000000000000e+02 1.760000000000000000e+02 1.770000000000000000e+02 1.780000000000000000e+02 1.790000000000000000e+02 1.800000000000000000e+02 1.810000000000000000e+02 1.820000000000000000e+02 1.830000000000000000e+02 1.840000000000000000e+02 1.850000000000000000e+02 1.860000000000000000e+02 1.870000000000000000e+02 1.880000000000000000e+02 1.890000000000000000e+02 1.900000000000000000e+02 1.910000000000000000e+02 1.920000000000000000e+02 1.930000000000000000e+02 1.940000000000000000e+02 1.950000000000000000e+02 1.960000000000000000e+02 1.970000000000000000e+02 1.980000000000000000e+02 1.990000000000000000e+02 2.000000000000000000e+02 2.010000000000000000e+02 2.020000000000000000e+02 2.030000000000000000e+02 2.040000000000000000e+02 2.050000000000000000e+02 2.060000000000000000e+02 2.070000000000000000e+02 2.080000000000000000e+02 2.090000000000000000e+02 2.100000000000000000e+02 2.110000000000000000e+02 2.120000000000000000e+02 2.130000000000000000e+02 2.140000000000000000e+02 2.150000000000000000e+02 2.160000000000000000e+02 2.170000000000000000e+02 2.180000000000000000e+02 2.190000000000000000e+02 2.200000000000000000e+02 2.210000000000000000e+02 2.220000000000000000e+02 2.230000000000000000e+02 2.240000000000000000e+02 2.250000000000000000e+02 2.260000000000000000e+02 2.270000000000000000e+02 2.280000000000000000e+02 2.290000000000000000e+02 2.300000000000000000e+02 2.310000000000000000e+02 2.320000000000000000e+02 2.330000000000000000e+02 2.340000000000000000e+02 2.350000000000000000e+02 2.360000000000000000e+02 2.370000000000000000e+02 2.380000000000000000e+02 2.390000000000000000e+02 2.400000000000000000e+02 2.410000000000000000e+02 2.420000000000000000e+02 2.430000000000000000e+02 2.440000000000000000e+02 2.450000000000000000e+02 2.460000000000000000e+02 2.470000000000000000e+02 2.480000000000000000e+02 2.490000000000000000e+02 2.500000000000000000e+02 2.510000000000000000e+02 2.520000000000000000e+02 2.530000000000000000e+02 2.540000000000000000e+02 2.550000000000000000e+02 2.560000000000000000e+02 2.570000000000000000e+02 2.580000000000000000e+02 2.590000000000000000e+02 2.600000000000000000e+02 2.610000000000000000e+02 2.620000000000000000e+02 2.630000000000000000e+02 2.640000000000000000e+02 2.650000000000000000e+02 2.660000000000000000e+02 2.670000000000000000e+02 2.680000000000000000e+02 2.690000000000000000e+02 2.700000000000000000e+02 2.710000000000000000e+02 2.720000000000000000e+02 2.730000000000000000e+02 2.740000000000000000e+02 2.750000000000000000e+02 2.760000000000000000e+02 2.770000000000000000e+02 2.780000000000000000e+02 2.790000000000000000e+02 2.800000000000000000e+02 2.810000000000000000e+02 2.820000000000000000e+02 2.830000000000000000e+02 2.840000000000000000e+02 2.850000000000000000e+02 2.860000000000000000e+02 2.870000000000000000e+02 2.880000000000000000e+02 2.890000000000000000e+02 2.900000000000000000e+02 2.910000000000000000e+02 2.920000000000000000e+02 2.930000000000000000e+02 2.940000000000000000e+02 2.950000000000000000e+02 2.960000000000000000e+02 2.970000000000000000e+02 2.980000000000000000e+02 2.990000000000000000e+02 3.000000000000000000e+02 3.010000000000000000e+02 3.020000000000000000e+02 3.030000000000000000e+02 3.040000000000000000e+02 3.050000000000000000e+02 3.060000000000000000e+02 3.070000000000000000e+02 3.080000000000000000e+02 3.090000000000000000e+02 3.100000000000000000e+02 3.110000000000000000e+02 3.120000000000000000e+02 3.130000000000000000e+02 3.140000000000000000e+02 3.150000000000000000e+02 3.160000000000000000e+02 3.170000000000000000e+02 3.180000000000000000e+02 3.190000000000000000e+02 3.200000000000000000e+02 3.210000000000000000e+02 3.220000000000000000e+02 3.230000000000000000e+02 3.240000000000000000e+02 3.250000000000000000e+02 3.260000000000000000e+02 3.270000000000000000e+02 3.280000000000000000e+02 3.290000000000000000e+02 3.300000000000000000e+02 3.310000000000000000e+02 3.320000000000000000e+02 3.330000000000000000e+02 3.340000000000000000e+02 3.350000000000000000e+02 3.360000000000000000e+02 3.370000000000000000e+02 3.380000000000000000e+02 3.390000000000000000e+02 3.400000000000000000e+02 3.410000000000000000e+02 3.420000000000000000e+02 3.430000000000000000e+02 3.440000000000000000e+02 3.450000000000000000e+02 3.460000000000000000e+02 3.470000000000000000e+02 3.480000000000000000e+02 3.490000000000000000e+02 3.500000000000000000e+02 3.510000000000000000e+02 3.520000000000000000e+02 3.530000000000000000e+02 3.540000000000000000e+02 3.550000000000000000e+02 3.560000000000000000e+02 3.570000000000000000e+02 3.580000000000000000e+02 3.590000000000000000e+02 3.600000000000000000e+02 3.610000000000000000e+02 3.620000000000000000e+02 3.630000000000000000e+02 3.640000000000000000e+02 3.650000000000000000e+02 3.660000000000000000e+02 3.670000000000000000e+02 3.680000000000000000e+02 3.690000000000000000e+02 3.700000000000000000e+02 3.710000000000000000e+02 3.720000000000000000e+02 3.730000000000000000e+02 3.740000000000000000e+02 3.750000000000000000e+02 3.760000000000000000e+02 3.770000000000000000e+02 3.780000000000000000e+02 3.790000000000000000e+02 3.800000000000000000e+02 3.810000000000000000e+02 3.820000000000000000e+02 3.830000000000000000e+02 3.840000000000000000e+02 3.850000000000000000e+02 3.860000000000000000e+02 3.870000000000000000e+02 3.880000000000000000e+02 3.890000000000000000e+02 3.900000000000000000e+02 3.910000000000000000e+02 3.920000000000000000e+02 3.930000000000000000e+02 3.940000000000000000e+02 3.950000000000000000e+02 3.960000000000000000e+02 3.970000000000000000e+02 3.980000000000000000e+02 3.990000000000000000e+02 4.000000000000000000e+02 4.010000000000000000e+02 4.020000000000000000e+02 4.030000000000000000e+02 4.040000000000000000e+02 4.050000000000000000e+02 4.060000000000000000e+02 4.070000000000000000e+02 4.080000000000000000e+02 4.090000000000000000e+02 4.100000000000000000e+02 4.110000000000000000e+02 4.120000000000000000e+02 4.130000000000000000e+02 4.140000000000000000e+02 4.150000000000000000e+02 4.160000000000000000e+02 4.170000000000000000e+02 4.180000000000000000e+02 4.190000000000000000e+02 4.200000000000000000e+02 4.210000000000000000e+02 4.220000000000000000e+02 4.230000000000000000e+02 4.240000000000000000e+02 4.250000000000000000e+02 4.260000000000000000e+02 4.270000000000000000e+02 4.280000000000000000e+02 4.290000000000000000e+02 4.300000000000000000e+02 4.310000000000000000e+02 4.320000000000000000e+02 4.330000000000000000e+02 4.340000000000000000e+02 4.350000000000000000e+02 4.360000000000000000e+02 4.370000000000000000e+02 4.380000000000000000e+02 4.390000000000000000e+02 4.400000000000000000e+02 4.410000000000000000e+02 4.420000000000000000e+02 4.430000000000000000e+02 4.440000000000000000e+02 4.450000000000000000e+02 4.460000000000000000e+02 4.470000000000000000e+02 4.480000000000000000e+02 4.490000000000000000e+02 4.500000000000000000e+02 4.510000000000000000e+02 4.520000000000000000e+02 4.530000000000000000e+02 4.540000000000000000e+02 4.550000000000000000e+02 4.560000000000000000e+02 4.570000000000000000e+02 4.580000000000000000e+02 4.590000000000000000e+02 4.600000000000000000e+02 4.610000000000000000e+02 4.620000000000000000e+02 4.630000000000000000e+02 4.640000000000000000e+02 4.650000000000000000e+02 4.660000000000000000e+02 4.670000000000000000e+02 4.680000000000000000e+02 4.690000000000000000e+02 4.700000000000000000e+02 4.710000000000000000e+02 4.720000000000000000e+02 4.730000000000000000e+02 4.740000000000000000e+02 4.750000000000000000e+02 4.760000000000000000e+02 4.770000000000000000e+02 4.780000000000000000e+02 4.790000000000000000e+02 4.800000000000000000e+02 4.810000000000000000e+02 4.820000000000000000e+02 4.830000000000000000e+02 4.840000000000000000e+02 4.850000000000000000e+02 4.860000000000000000e+02 4.870000000000000000e+02 4.880000000000000000e+02 4.890000000000000000e+02 4.900000000000000000e+02 4.910000000000000000e+02 4.920000000000000000e+02 4.930000000000000000e+02 4.940000000000000000e+02 4.950000000000000000e+02 4.960000000000000000e+02 4.970000000000000000e+02 4.980000000000000000e+02 4.990000000000000000e+02 5.000000000000000000e+02 5.010000000000000000e+02 5.020000000000000000e+02 5.030000000000000000e+02 5.040000000000000000e+02 5.050000000000000000e+02 5.060000000000000000e+02 5.070000000000000000e+02 5.080000000000000000e+02 5.090000000000000000e+02 5.100000000000000000e+02 5.110000000000000000e+02 5.120000000000000000e+02 5.130000000000000000e+02 5.140000000000000000e+02 5.150000000000000000e+02 5.160000000000000000e+02 5.170000000000000000e+02 5.180000000000000000e+02 5.190000000000000000e+02 5.200000000000000000e+02 5.210000000000000000e+02 5.220000000000000000e+02 5.230000000000000000e+02 5.240000000000000000e+02 5.250000000000000000e+02 5.260000000000000000e+02 5.270000000000000000e+02 5.280000000000000000e+02 5.290000000000000000e+02 5.300000000000000000e+02 5.310000000000000000e+02 5.320000000000000000e+02 5.330000000000000000e+02 5.340000000000000000e+02 5.350000000000000000e+02 5.360000000000000000e+02 5.370000000000000000e+02 5.380000000000000000e+02 5.390000000000000000e+02 5.400000000000000000e+02 5.410000000000000000e+02 5.420000000000000000e+02 5.430000000000000000e+02 5.440000000000000000e+02 5.450000000000000000e+02 5.460000000000000000e+02 5.470000000000000000e+02 5.480000000000000000e+02 5.490000000000000000e+02 5.500000000000000000e+02 5.510000000000000000e+02 5.520000000000000000e+02 5.530000000000000000e+02 5.540000000000000000e+02 5.550000000000000000e+02 5.560000000000000000e+02 5.570000000000000000e+02 5.580000000000000000e+02 5.590000000000000000e+02 5.600000000000000000e+02 5.610000000000000000e+02 5.620000000000000000e+02 5.630000000000000000e+02 5.640000000000000000e+02 5.650000000000000000e+02 5.660000000000000000e+02 5.670000000000000000e+02 5.680000000000000000e+02 5.690000000000000000e+02 5.700000000000000000e+02 5.710000000000000000e+02 5.720000000000000000e+02 5.730000000000000000e+02 5.740000000000000000e+02 5.750000000000000000e+02 5.760000000000000000e+02 5.770000000000000000e+02 5.780000000000000000e+02 5.790000000000000000e+02 5.800000000000000000e+02 5.810000000000000000e+02 5.820000000000000000e+02 5.830000000000000000e+02 5.840000000000000000e+02 5.850000000000000000e+02 5.860000000000000000e+02 5.870000000000000000e+02 5.880000000000000000e+02 5.890000000000000000e+02 5.900000000000000000e+02 5.910000000000000000e+02 5.920000000000000000e+02 5.930000000000000000e+02 5.940000000000000000e+02 5.950000000000000000e+02 5.960000000000000000e+02 5.970000000000000000e+02 5.980000000000000000e+02 5.990000000000000000e+02 6.000000000000000000e+02 6.010000000000000000e+02 6.020000000000000000e+02 6.030000000000000000e+02 6.040000000000000000e+02 6.050000000000000000e+02 6.060000000000000000e+02 6.070000000000000000e+02 6.080000000000000000e+02 6.090000000000000000e+02 6.100000000000000000e+02 6.110000000000000000e+02 6.120000000000000000e+02 6.130000000000000000e+02 6.140000000000000000e+02 6.150000000000000000e+02 6.160000000000000000e+02 6.170000000000000000e+02 6.180000000000000000e+02 6.190000000000000000e+02 6.200000000000000000e+02 6.210000000000000000e+02 6.220000000000000000e+02 6.230000000000000000e+02 6.240000000000000000e+02 6.250000000000000000e+02 6.260000000000000000e+02 6.270000000000000000e+02 6.280000000000000000e+02 6.290000000000000000e+02 6.300000000000000000e+02 6.310000000000000000e+02 6.320000000000000000e+02 6.330000000000000000e+02 6.340000000000000000e+02 6.350000000000000000e+02 6.360000000000000000e+02 6.370000000000000000e+02 6.380000000000000000e+02 6.390000000000000000e+02 6.400000000000000000e+02 6.410000000000000000e+02 6.420000000000000000e+02 6.430000000000000000e+02 6.440000000000000000e+02 6.450000000000000000e+02 6.460000000000000000e+02 6.470000000000000000e+02 6.480000000000000000e+02 6.490000000000000000e+02 6.500000000000000000e+02 6.510000000000000000e+02 6.520000000000000000e+02 6.530000000000000000e+02 6.540000000000000000e+02 6.550000000000000000e+02 6.560000000000000000e+02 6.570000000000000000e+02 6.580000000000000000e+02 6.590000000000000000e+02 6.600000000000000000e+02 6.610000000000000000e+02 6.620000000000000000e+02 6.630000000000000000e+02 6.640000000000000000e+02 6.650000000000000000e+02 6.660000000000000000e+02 6.670000000000000000e+02 6.680000000000000000e+02 6.690000000000000000e+02 6.700000000000000000e+02 6.710000000000000000e+02 6.720000000000000000e+02 6.730000000000000000e+02 6.740000000000000000e+02 6.750000000000000000e+02 6.760000000000000000e+02 6.770000000000000000e+02 6.780000000000000000e+02 6.790000000000000000e+02 6.800000000000000000e+02 6.810000000000000000e+02 6.820000000000000000e+02 6.830000000000000000e+02 6.840000000000000000e+02 6.850000000000000000e+02 6.860000000000000000e+02 6.870000000000000000e+02 6.880000000000000000e+02 6.890000000000000000e+02 6.900000000000000000e+02 6.910000000000000000e+02 6.920000000000000000e+02 6.930000000000000000e+02 6.940000000000000000e+02 6.950000000000000000e+02 6.960000000000000000e+02 6.970000000000000000e+02 6.980000000000000000e+02 6.990000000000000000e+02 7.000000000000000000e+02 7.010000000000000000e+02 7.020000000000000000e+02 7.030000000000000000e+02 7.040000000000000000e+02 7.050000000000000000e+02 7.060000000000000000e+02 7.070000000000000000e+02 7.080000000000000000e+02 7.090000000000000000e+02 7.100000000000000000e+02 7.110000000000000000e+02 7.120000000000000000e+02 7.130000000000000000e+02 7.140000000000000000e+02 7.150000000000000000e+02 7.160000000000000000e+02 7.170000000000000000e+02 7.180000000000000000e+02 7.190000000000000000e+02 7.200000000000000000e+02 7.210000000000000000e+02 7.220000000000000000e+02 7.230000000000000000e+02 7.240000000000000000e+02 7.250000000000000000e+02 7.260000000000000000e+02 7.270000000000000000e+02 7.280000000000000000e+02 7.290000000000000000e+02 7.300000000000000000e+02 7.310000000000000000e+02 7.320000000000000000e+02 7.330000000000000000e+02 7.340000000000000000e+02 7.350000000000000000e+02 7.360000000000000000e+02 7.370000000000000000e+02 7.380000000000000000e+02 7.390000000000000000e+02 7.400000000000000000e+02 7.410000000000000000e+02 7.420000000000000000e+02 7.430000000000000000e+02 7.440000000000000000e+02 7.450000000000000000e+02 7.460000000000000000e+02 7.470000000000000000e+02 7.480000000000000000e+02 7.490000000000000000e+02 7.500000000000000000e+02 7.510000000000000000e+02 7.520000000000000000e+02 7.530000000000000000e+02 7.540000000000000000e+02 7.550000000000000000e+02 7.560000000000000000e+02 7.570000000000000000e+02 7.580000000000000000e+02 7.590000000000000000e+02 7.600000000000000000e+02 7.610000000000000000e+02 7.620000000000000000e+02 7.630000000000000000e+02 7.640000000000000000e+02 7.650000000000000000e+02 7.660000000000000000e+02 7.670000000000000000e+02 7.680000000000000000e+02 7.690000000000000000e+02 7.700000000000000000e+02 7.710000000000000000e+02 7.720000000000000000e+02 7.730000000000000000e+02 7.740000000000000000e+02 7.750000000000000000e+02 7.760000000000000000e+02 7.770000000000000000e+02 7.780000000000000000e+02 7.790000000000000000e+02 7.800000000000000000e+02 7.810000000000000000e+02 7.820000000000000000e+02 7.830000000000000000e+02 7.840000000000000000e+02 7.850000000000000000e+02 7.860000000000000000e+02 7.870000000000000000e+02 7.880000000000000000e+02 7.890000000000000000e+02 7.900000000000000000e+02 7.910000000000000000e+02 7.920000000000000000e+02 7.930000000000000000e+02 7.940000000000000000e+02 7.950000000000000000e+02 7.960000000000000000e+02 7.970000000000000000e+02 7.980000000000000000e+02 7.990000000000000000e+02 8.000000000000000000e+02 8.010000000000000000e+02 8.020000000000000000e+02 8.030000000000000000e+02 8.040000000000000000e+02 8.050000000000000000e+02 8.060000000000000000e+02 8.070000000000000000e+02 8.080000000000000000e+02 8.090000000000000000e+02 8.100000000000000000e+02 8.110000000000000000e+02 8.120000000000000000e+02 8.130000000000000000e+02 8.140000000000000000e+02 8.150000000000000000e+02 8.160000000000000000e+02 8.170000000000000000e+02 8.180000000000000000e+02 8.190000000000000000e+02 8.200000000000000000e+02 8.210000000000000000e+02 8.220000000000000000e+02 8.230000000000000000e+02 8.240000000000000000e+02 8.250000000000000000e+02 8.260000000000000000e+02 8.270000000000000000e+02 8.280000000000000000e+02 8.290000000000000000e+02 8.300000000000000000e+02 8.310000000000000000e+02 8.320000000000000000e+02 8.330000000000000000e+02 8.340000000000000000e+02 8.350000000000000000e+02 8.360000000000000000e+02 8.370000000000000000e+02 8.380000000000000000e+02 8.390000000000000000e+02 8.400000000000000000e+02 8.410000000000000000e+02 8.420000000000000000e+02 8.430000000000000000e+02 8.440000000000000000e+02 8.450000000000000000e+02 8.460000000000000000e+02 8.470000000000000000e+02 8.480000000000000000e+02 8.490000000000000000e+02 8.500000000000000000e+02 8.510000000000000000e+02 8.520000000000000000e+02 8.530000000000000000e+02 8.540000000000000000e+02 8.550000000000000000e+02 8.560000000000000000e+02 8.570000000000000000e+02 8.580000000000000000e+02 8.590000000000000000e+02 8.600000000000000000e+02 8.610000000000000000e+02 8.620000000000000000e+02 8.630000000000000000e+02 8.640000000000000000e+02 8.650000000000000000e+02 8.660000000000000000e+02 8.670000000000000000e+02 8.680000000000000000e+02 8.690000000000000000e+02 8.700000000000000000e+02 8.710000000000000000e+02 8.720000000000000000e+02 8.730000000000000000e+02 8.740000000000000000e+02 8.750000000000000000e+02 8.760000000000000000e+02 8.770000000000000000e+02 8.780000000000000000e+02 8.790000000000000000e+02 8.800000000000000000e+02 8.810000000000000000e+02 8.820000000000000000e+02 8.830000000000000000e+02 8.840000000000000000e+02 8.850000000000000000e+02 8.860000000000000000e+02 8.870000000000000000e+02 8.880000000000000000e+02 8.890000000000000000e+02 8.900000000000000000e+02 8.910000000000000000e+02 8.920000000000000000e+02 8.930000000000000000e+02 8.940000000000000000e+02 8.950000000000000000e+02 8.960000000000000000e+02 8.970000000000000000e+02 8.980000000000000000e+02 8.990000000000000000e+02 9.000000000000000000e+02 9.010000000000000000e+02 9.020000000000000000e+02 9.030000000000000000e+02 9.040000000000000000e+02 9.050000000000000000e+02 9.060000000000000000e+02 9.070000000000000000e+02 9.080000000000000000e+02 9.090000000000000000e+02 9.100000000000000000e+02 9.110000000000000000e+02 9.120000000000000000e+02 9.130000000000000000e+02 9.140000000000000000e+02 9.150000000000000000e+02 9.160000000000000000e+02 9.170000000000000000e+02 9.180000000000000000e+02 9.190000000000000000e+02 9.200000000000000000e+02 9.210000000000000000e+02 9.220000000000000000e+02 9.230000000000000000e+02 9.240000000000000000e+02 9.250000000000000000e+02 9.260000000000000000e+02 9.270000000000000000e+02 9.280000000000000000e+02 9.290000000000000000e+02 9.300000000000000000e+02 9.310000000000000000e+02 9.320000000000000000e+02 9.330000000000000000e+02 9.340000000000000000e+02 9.350000000000000000e+02 9.360000000000000000e+02 9.370000000000000000e+02 9.380000000000000000e+02 9.390000000000000000e+02 9.400000000000000000e+02 9.410000000000000000e+02 9.420000000000000000e+02 9.430000000000000000e+02 9.440000000000000000e+02 9.450000000000000000e+02 9.460000000000000000e+02 9.470000000000000000e+02 9.480000000000000000e+02 9.490000000000000000e+02 9.500000000000000000e+02 9.510000000000000000e+02 9.520000000000000000e+02 9.530000000000000000e+02 9.540000000000000000e+02 9.550000000000000000e+02 9.560000000000000000e+02 9.570000000000000000e+02 9.580000000000000000e+02 9.590000000000000000e+02 9.600000000000000000e+02 9.610000000000000000e+02 9.620000000000000000e+02 9.630000000000000000e+02 9.640000000000000000e+02 9.650000000000000000e+02 9.660000000000000000e+02 9.670000000000000000e+02 9.680000000000000000e+02 9.690000000000000000e+02 9.700000000000000000e+02 9.710000000000000000e+02 9.720000000000000000e+02 9.730000000000000000e+02 9.740000000000000000e+02 9.750000000000000000e+02 9.760000000000000000e+02 9.770000000000000000e+02 9.780000000000000000e+02 9.790000000000000000e+02 9.800000000000000000e+02 9.810000000000000000e+02 9.820000000000000000e+02 9.830000000000000000e+02 9.840000000000000000e+02 9.850000000000000000e+02 9.860000000000000000e+02 9.870000000000000000e+02 9.880000000000000000e+02 9.890000000000000000e+02 9.900000000000000000e+02 9.910000000000000000e+02 9.920000000000000000e+02 9.930000000000000000e+02 9.940000000000000000e+02 9.950000000000000000e+02 9.960000000000000000e+02 9.970000000000000000e+02 9.980000000000000000e+02 9.990000000000000000e+02 1.000000000000000000e+03
1.000000000000000021e-02 1.000000000000000021e-02 1.000000000000000021e-02 1.000000000000000021e-02 1.000000000000000021e-02 1.000000000000000021e-02 1.000000000000000021e-02 1.000000000000000021e-02 1.000000000000000021e-02 1.000000000000000021e-02 1.000000000000000021e-02 1.000000000000000021e-02 1.000000000000000021e-02 1.000000000000000021e-02 1.000000000000000021e-02 1.000000000000000021e-02 1.000000000000000021e-02 1.000000000000000021e-02 1.000000000000000021e-02 1.000000000000000021e-02 1.000000000000000021e-02 1.000000000000000021e-02 1.000000000000000021e-02 1.000000000000000021e-02 1.000000000000000021e-02 1.000000000000000021e-02 1.000000000000000021e-02 1.000000000000000021e-02 1.000000000000000021e-02 1.000000000000000021e-02 1.000000000000000021e-02 1.000000000000000021e-02 1.000000000000000021e-02 1.000000000000000021e-02 1.000000000000000021e-02 1.000000000000000021e-02 1.000000000000000021e-02 1.000000000000000021e-02 1.000000000000000021e-02 1.000000000000000021e-02 1.000000000000000021e-02 1.000000000000000021e-02 1.000000000000000021e-02 1.000000000000000021e-02 1.000000000000000021e-02 1.000000000000000021e-02 1.000000000000000021e-02 1.000000000000000021e-02 1.000000000000000021e-02 1.000000000000000021e-02 1.000000000000000021e-02 1.000000000000000021e-02 1.000000000000000021e-02 1.000000000000000021e-02 1.000000000000000021e-02 1.000000000000000021e-02 1.000000000000000021e-02 1.000000000000000021e-02 1.000000000000000021e-02 1.000000000000000021e-02 1.000000000000000021e-02 1.000000000000000021e-02 1.000000000000000021e-02 1.000000000000000021e-02 1.000000000000000021e-02 1.000000000000000021e-02 1.000000000000000021e-02 1.000000000000000021e-02 1.000000000000000021e-02 1.000000000000000021e-02 1.000000000000000021e-02 1.000000000000000021e-02 1.000000000000000021e-02 1.000000000000000021e-02 1.000000000000000021e-02 1.000000000000000021e-02 1.000000000000000021e-02 1.000000000000000021e-02 1.000000000000000021e-02 1.000000000000000021e-02 1.000000000000000021e-02 1.000000000000000021e-02 1.000000000000000021e-02 1.000000000000000021e-02 1.000000000000000021e-02 1.000000000000000021e-02 1.000000000000000021e-02 1.000000000000000021e-02 1.000000000000000021e-02 1.000000000000000021e-02 1.000000000000000021e-02 1.000000000000000021e-02 1.000000000000000021e-02 1.000000000000000021e-02 1.000000000000000021e-02 1.000000000000000021e-02 1.000000000000000021e-02 1.000000000000000021e-02 1.000000000000000021e-02 1.000000000000000021e-02 1.000000000000000021e-02 1.000000000000000021e-02 1.000000000000000021e-02 1.000000000000000021e-02 1.000000000000000021e-02 1.000000000000000021e-02 1.000000000000000021e-02 1.000000000000000021e-02 1.000000000000000021e-02 1.000000000000000021e-02 1.000000000000000021e-02 1.000000000000000021e-02 1.000000000000000021e-02 1.000000000000000021e-02 1.000000000000000021e-02 1.000000000000000021e-02 1.000000000000000021e-02 1.000000000000000021e-02 1.000000000000000021e-02 1.000000000000000021e-02 1.000000000000000021e-02 1.000000000000000021e-02 1.000000000000000021e-02 1.000000000000000021e-02 1.000000000000000021e-02 1.000000000000000021e-02 1.000000000000000021e-02 1.000000000000000021e-02 1.000000000000000021e-02 1.000000000000000021e-02 1.000000000000000021e-02 1.000000000000000021e-02 1.000000000000000021e-02 1.000000000000000021e-02 1.000000000000000021e-02 1.000000000000000021e-02 1.000000000000000021e-02 1.000000000000000021e-02 1.000000000000000021e-02 1.000000000000000021e-02 1.000000000000000021e-02 1.000000000000000021e-02 1.000000000000000021e-02 1.000000000000000021e-02 1.000000000000000021e-02 1.000000000000000021e-02 1.000000000000000021e-02 1.000000000000000021e-02 1.000000000000000021e-02 1.000000000000000021e-02 1.000000000000000021e-02 1.000000000000000021e-02 1.000000000000000021e-02 1.000000000000000021e-02 1.000000000000000021e-02 1.000000000000000021e-02 1.000000000000000021e-02 1.000000000000000021e-02 1.000000000000000021e-02 1.000000000000000021e-02 1.000000000000000021e-02 1.000000000000000021e-02 1.000000000000000021e-02 1.000000000000000021e-02 1.000000000000000021e-02 1.000000000000000021e-02 1.000000000000000021e-02 1.000000000000000021e-02 1.000000000000000021e-02 1.000000000000000021e-02 1.000000000000000021e-02 1.000000000000000021e-02 1.000000000000000021e-02 1.000000000000000021e-02 1.000000000000000021e-02 1.000000000000000021e-02 1.000000000000000021e-02 1.000000000000000021e-02 1.000000000000000021e-02 1.000000000000000021e-02 1.000000000000000021e-02 1.000000000000000021e-02 1.000000000000000021e-02 1.000000000000000021e-02 1.000000000000000021e-02 1.000000000000000021e-02 1.000000000000000021e-02 1.000000000000000021e-02 1.000000000000000021e-02 1.000000000000000021e-02 1.000000000000000021e-02 1.000000000000000021e-02 1.000000000000000021e-02 1.000000000000000021e-02 1.000000000000000021e-02 1.000000000000000021e-02 1.000000000000000021e-02 1.000000000000000021e-02 1.000000000000000021e-02 1.000000000000000021e-02 1.000000000000000021e-02 1.000000000000000021e-02 1.000000000000000021e-02 1.000000000000000021e-02 1.000000000000000021e-02 1.000000000000000021e-02 1.000000000000000021e-02 1.000000000000000021e-02 1.000000000000000021e-02 1.000000000000000021e-02 1.000000000000000021e-02 1.000000000000000021e-02 1.000000000000000021e-02 1.000000000000000021e-02 1.000000000000000021e-02 1.000000000000000021e-02 1.000000000000000021e-02 1.000000000000000021e-02 1.000000000000000021e-02 1.000000000000000021e-02 1.000000000000000021e-02 1.000000000000000021e-02 1.000000000000000021e-02 1.000000000000000021e-02 1.000000000000000021e-02 1.000000000000000021e-02 1.000000000000000021e-02 1.000000000000000021e-02 1.000000000000000021e-02 1.000000000000000021e-02 1.000000000000000021e-02 1.000000000000000021e-02 1.000000000000000021e-02 1.000000000000000021e-02 1.000000000000000021e-02 1.000000000000000021e-02 1.000000000000000021e-02 1.000000000000000021e-02 1.000000000000000021e-02 1.000000000000000021e-02 1.000000000000000021e-02 1.000000000000000021e-02 1.000000000000000021e-02 1.000000000000000021e-02 1.000000000000000021e-02 1.000000000000000021e-02 1.000000000000000021e-02 1.000000000000000021e-02 1.000000000000000021e-02 1.000000000000000021e-02 1.000000000000000021e-02 1.000000000000000021e-02 1.000000000000000021e-02 1.000000000000000021e-02 1.000000000000000021e-02 1.000000000000000021e-02 1.000000000000000021e-02 1.000000000000000021e-02 1.000000000000000021e-02 1.000000000000000021e-02 1.000000000000000021e-02 1.000000000000000021e-02 1.000000000000000021e-02 1.000000000000000021e-02 1.000000000000000021e-02 1.000000000000000021e-02 1.000000000000000021e-02 1.000000000000000021e-02 1.000000000000000021e-02 1.000000000000000021e-02 1.000000000000000021e-02 1.000000000000000021e-02 1.000000000000000021e-02 1.000000000000000021e-02 1.000000000000000021e-02 1.000000000000000021e-02 1.000000000000000021e-02 1.000000000000000021e-02 1.000000000000000021e-02 1.000000000000000021e-02 1.000000000000000021e-02 1.000000000000000021e-02 1.000000000000000021e-02 1.000000000000000021e-02 1.000000000000000021e-02 1.000000000000000021e-02 1.000000000000000021e-02 1.000000000000000021e-02 1.000000000000000021e-02 1.000000000000000021e-02 1.000000000000000021e-02 1.000000000000000021e-02 1.000000000000000021e-02 1.000000000000000021e-02 1.000000000000000021e-02 1.000000000000000021e-02 1.000000000000000021e-02 1.000000000000000021e-02 1.000000000000000021e-02 1.000000000000000021e-02 1.000000000000000021e-02 1.000000000000000021e-02 1.000000000000000021e-02 1.000000000000000021e-02 1.000000000000000021e-02 1.000000000000000021e-02 1.000000000000000021e-02 1.000000000000000021e-02 1.000000000000000021e-02 1.000000000000000021e-02 1.000000000000000021e-02 1.000000000000000021e-02 1.000000000000000021e-02 1.000000000000000021e-02 1.000000000000000021e-02 1.000000000000000021e-02 1.000000000000000021e-02 1.000000000000000021e-02 1.000000000000000021e-02 1.000000000000000021e-02 1.000000000000000021e-02 1.000000000000000021e-02 1.000000000000000021e-02 1.000000000000000021e-02 1.000000000000000021e-02 1.000000000000000021e-02 1.000000000000000021e-02 1.000000000000000021e-02 1.000000000000000021e-02 1.000000000000000021e-02 1.000000000000000021e-02 1.000000000000000021e-02 1.000000000000000021e-02 1.000000000000000021e-02 1.000000000000000021e-02 1.000000000000000021e-02 1.000000000000000021e-02 1.000000000000000021e-02 1.000000000000000021e-02 1.000000000000000021e-02 1.000000000000000021e-02 1.000000000000000021e-02 1.000000000000000021e-02 1.000000000000000021e-02 1.000000000000000021e-02 1.000000000000000021e-02 1.000000000000000021e-02 1.000000000000000021e-02 1.000000000000000021e-02 1.000000000000000021e-02 1.000000000000000021e-02 1.000000000000000021e-02 1.000000000000000021e-02 1.000000000000000021e-02 1.000000000000000021e-02 1.000000000000000021e-02 1.000000000000000021e-02 1.000000000000000021e-02 1.000000000000000021e-02 1.000000000000000021e-02 1.000000000000000021e-02 1.000000000000000021e-02 1.000000000000000021e-02 1.000000000000000021e-02 1.000000000000000021e-02 1.000000000000000021e-02 1.000000000000000021e-02 1.000000000000000021e-02 1.000000000000000021e-02 1.000000000000000021e-02 1.000000000000000021e-02 1.000000000000000021e-02 1.000000000000000021e-02 1.000000000000000021e-02 1.000000000000000021e-02 1.000000000000000021e-02 1.000000000000000021e-02 1.000000000000000021e-02 1.000000000000000021e-02 1.000000000000000021e-02 1.000000000000000021e-02 1.000000000000000021e-02 1.000000000000000021e-02 1.000000000000000021e-02 1.000000000000000021e-02 1.000000000000000021e-02 1.000000000000000021e-02 1.000000000000000021e-02 1.000000000000000021e-02 1.000000000000000021e-02 1.000000000000000021e-02 1.000000000000000021e-02 1.000000000000000021e-02 1.000000000000000021e-02 1.000000000000000021e-02 1.000000000000000021e-02 1.000000000000000021e-02 1.000000000000000021e-02 1.000000000000000021e-02 1.000000000000000021e-02 1.000000000000000021e-02 1.000000000000000021e-02 1.000000000000000021e-02 1.000000000000000021e-02 1.000000000000000021e-02 1.000000000000000021e-02 1.000000000000000021e-02 1.000000000000000021e-02 1.000000000000000021e-02 1.000000000000000021e-02 1.000000000000000021e-02 1.000000000000000021e-02 1.000000000000000021e-02 1.000000000000000021e-02 1.000000000000000021e-02 1.000000000000000021e-02 1.000000000000000021e-02 1.000000000000000021e-02 1.000000000000000021e-02 1.000000000000000021e-02 1.000000000000000021e-02 1.000000000000000021e-02 1.000000000000000021e-02 1.000000000000000021e-02 1.000000000000000021e-02 1.000000000000000021e-02 1.000000000000000021e-02 1.000000000000000021e-02 1.000000000000000021e-02 1.000000000000000021e-02 1.000000000000000021e-02 1.000000000000000021e-02 1.000000000000000021e-02 1.000000000000000021e-02 1.000000000000000021e-02 1.000000000000000021e-02 1.000000000000000021e-02 1.000000000000000021e-02 1.000000000000000021e-02 1.000000000000000021e-02 1.000000000000000021e-02 1.000000000000000021e-02 1.000000000000000021e-02 1.000000000000000021e-02 1.000000000000000021e-02 1.000000000000000021e-02 1.000000000000000021e-02 1.000000000000000021e-02 1.000000000000000021e-02 1.000000000000000021e-02 1.000000000000000021e-02 1.000000000000000021e-02 1.000000000000000021e-02 1.000000000000000021e-02 1.000000000000000021e-02 1.000000000000000021e-02 1.000000000000000021e-02 1.000000000000000021e-02 1.000000000000000021e-02 1.000000000000000021e-02 1.000000000000000021e-02 1.000000000000000021e-02 1.000000000000000021e-02 1.000000000000000021e-02 1.000000000000000021e-02 1.000000000000000021e-02 1.000000000000000021e-02 1.000000000000000021e-02 1.000000000000000021e-02 1.000000000000000021e-02 1.000000000000000021e-02 1.000000000000000021e-02 1.000000000000000021e-02 1.000000000000000021e-02 1.000000000000000021e-02 1.000000000000000021e-02 1.000000000000000021e-02 1.000000000000000021e-02 1.000000000000000021e-02 1.000000000000000021e-02 1.000000000000000021e-02 1.000000000000000021e-02 1.000000000000000021e-02 1.000000000000000021e-02 1.000000000000000021e-02 1.000000000000000021e-02 1.000000000000000021e-02 1.000000000000000021e-02 1.000000000000000021e-02 1.000000000000000021e-02 1.000000000000000021e-02 1.000000000000000021e-02 1.000000000000000021e-02 1.000000000000000021e-02 1.000000000000000021e-02 1.000000000000000021e-02 1.000000000000000021e-02 1.000000000000000021e-02 1.000000000000000021e-02 1.000000000000000021e-02 1.000000000000000021e-02 1.000000000000000021e-02 1.000000000000000021e-02 1.000000000000000021e-02 1.000000000000000021e-02 1.000000000000000021e-02 1.000000000000000021e-02 1.000000000000000021e-02 1.000000000000000021e-02 1.000000000000000021e-02 1.000000000000000021e-02 1.000000000000000021e-02 1.000000000000000021e-02 1.000000000000000021e-02 1.000000000000000021e-02 1.000000000000000021e-02 1.000000000000000021e-02 1.000000000000000021e-02 1.000000000000000021e-02 1.000000000000000021e-02 1.000000000000000021e-02 1.000000000000000021e-02 1.000000000000000021e-02 1.000000000000000021e-02 1.000000000000000021e-02 1.000000000000000021e-02 1.000000000000000021e-02 1.000000000000000021e-02 1.000000000000000021e-02 1.000000000000000021e-02 1.000000000000000021e-02 1.000000000000000021e-02 1.000000000000000021e-02 1.000000000000000021e-02 1.000000000000000021e-02 1.000000000000000021e-02 1.000000000000000021e-02 1.000000000000000021e-02 1.000000000000000021e-02 1.000000000000000021e-02 1.000000000000000021e-02 1.000000000000000021e-02 1.000000000000000021e-02 1.000000000000000021e-02 1.000000000000000021e-02 1.000000000000000021e-02 1.000000000000000021e-02 1.000000000000000021e-02 1.000000000000000021e-02 1.000000000000000021e-02 1.000000000000000021e-02 1.000000000000000021e-02 1.000000000000000021e-02 1.000000000000000021e-02 1.000000000000000021e-02 1.000000000000000021e-02 1.000000000000000021e-02 1.000000000000000021e-02 1.000000000000000021e-02 1.000000000000000021e-02 1.000000000000000021e-02 1.000000000000000021e-02 1.000000000000000021e-02 1.000000000000000021e-02 1.000000000000000021e-02 1.000000000000000021e-02 1.000000000000000021e-02 1.000000000000000021e-02 1.000000000000000021e-02 1.000000000000000021e-02 1.000000000000000021e-02 1.000000000000000021e-02 1.000000000000000021e-02 1.000000000000000021e-02 1.000000000000000021e-02 1.000000000000000021e-02 1.000000000000000021e-02 1.000000000000000021e-02 1.000000000000000021e-02 1.000000000000000021e-02 1.000000000000000021e-02 1.000000000000000021e-02 1.000000000000000021e-02 1.000000000000000021e-02 1.000000000000000021e-02 1.000000000000000021e-02 1.000000000000000021e-02 1.000000000000000021e-02 1.000000000000000021e-02 1.000000000000000021e-02 1.000000000000000021e-02 1.000000000000000021e-02 1.000000000000000021e-02 1.000000000000000021e-02 1.000000000000000021e-02 1.000000000000000021e-02 1.000000000000000021e-02 1.000000000000000021e-02 1.000000000000000021e-02 1.000000000000000021e-02 1.000000000000000021e-02 1.000000000000000021e-02 1.000000000000000021e-02 1.000000000000000021e-02 1.000000000000000021e-02 1.000000000000000021e-02 1.000000000000000021e-02 1.000000000000000021e-02 1.000000000000000021e-02 1.000000000000000021e-02 1.000000000000000021e-02 1.000000000000000021e-02 1.000000000000000021e-02 1.000000000000000021e-02 1.000000000000000021e-02 1.000000000000000021e-02 1.000000000000000021e-02 1.000000000000000021e-02 1.000000000000000021e-02 1.000000000000000021e-02 1.000000000000000021e-02 1.000000000000000021e-02 1.000000000000000021e-02 1.000000000000000021e-02 1.000000000000000021e-02 1.000000000000000021e-02 1.000000000000000021e-02 1.000000000000000021e-02 1.000000000000000021e-02 1.000000000000000021e-02 1.000000000000000021e-02 1.000000000000000021e-02 1.000000000000000021e-02 1.000000000000000021e-02 1.000000000000000021e-02 1.000000000000000021e-02 1.000000000000000021e-02 1.000000000000000021e-02 1.000000000000000021e-02 1.000000000000000021e-02 1.000000000000000021e-02 1.000000000000000021e-02 1.000000000000000021e-02 1.000000000000000021e-02 1.000000000000000021e-02 1.000000000000000021e-02 1.000000000000000021e-02 1.000000000000000021e-02 1.000000000000000021e-02 1.000000000000000021e-02 1.000000000000000021e-02 1.000000000000000021e-02 1.000000000000000021e-02 1.000000000000000021e-02 1.000000000000000021e-02 1.000000000000000021e-02 1.000000000000000021e-02 1.000000000000000021e-02 1.000000000000000021e-02 1.000000000000000021e-02 1.000000000000000021e-02 1.000000000000000021e-02 1.000000000000000021e-02 1.000000000000000021e-02 1.000000000000000021e-02 1.000000000000000021e-02 1.000000000000000021e-02 1.000000000000000021e-02 1.000000000000000021e-02 1.000000000000000021e-02 1.000000000000000021e-02 1.000000000000000021e-02 1.000000000000000021e-02 1.000000000000000021e-02 1.000000000000000021e-02 1.000000000000000021e-02 1.000000000000000021e-02 1.000000000000000021e-02 1.000000000000000021e-02 1.000000000000000021e-02 1.000000000000000021e-02 1.000000000000000021e-02 1.000000000000000021e-02 1.000000000000000021e-02 1.000000000000000021e-02 1.000000000000000021e-02 1.000000000000000021e-02 1.000000000000000021e-02 1.000000000000000021e-02 1.000000000000000021e-02 1.000000000000000021e-02 1.000000000000000021e-02 1.000000000000000021e-02 1.000000000000000021e-02 1.000000000000000021e-02 1.000000000000000021e-02 1.000000000000000021e-02 1.000000000000000021e-02 1.000000000000000021e-02 1.000000000000000021e-02 1.000000000000000021e-02 1.000000000000000021e-02 1.000000000000000021e-02 1.000000000000000021e-02 1.000000000000000021e-02 1.000000000000000021e-02 1.000000000000000021e-02 1.000000000000000021e-02 1.000000000000000021e-02 1.000000000000000021e-02 1.000000000000000021e-02 1.000000000000000021e-02 1.000000000000000021e-02 1.000000000000000021e-02 1.000000000000000021e-02 1.000000000000000021e-02 1.000000000000000021e-02 1.000000000000000021e-02 1.000000000000000021e-02 1.000000000000000021e-02 1.000000000000000021e-02 1.000000000000000021e-02 1.000000000000000021e-02 1.000000000000000021e-02 1.000000000000000021e-02 1.000000000000000021e-02 1.000000000000000021e-02 1.000000000000000021e-02 1.000000000000000021e-02 1.000000000000000021e-02 1.000000000000000021e-02 1.000000000000000021e-02 1.000000000000000021e-02 1.000000000000000021e-02 1.000000000000000021e-02 1.000000000000000021e-02 1.000000000000000021e-02 1.000000000000000021e-02 1.000000000000000021e-02 1.000000000000000021e-02 1.000000000000000021e-02 1.000000000000000021e-02 1.000000000000000021e-02 1.000000000000000021e-02 1.000000000000000021e-02 1.000000000000000021e-02 1.000000000000000021e-02 1.000000000000000021e-02 1.000000000000000021e-02 1.000000000000000021e-02 1.000000000000000021e-02 1.000000000000000021e-02 1.000000000000000021e-02 1.000000000000000021e-02 1.000000000000000021e-02 1.000000000000000021e-02 1.000000000000000021e-02 1.000000000000000021e-02 1.000000000000000021e-02 1.000000000000000021e-02 1.000000000000000021e-02 1.000000000000000021e-02 1.000000000000000021e-02 1.000000000000000021e-02 1.000000000000000021e-02 1.000000000000000021e-02 1.000000000000000021e-02 1.000000000000000021e-02 1.000000000000000021e-02 1.000000000000000021e-02 1.000000000000000021e-02 1.000000000000000021e-02 1.000000000000000021e-02 1.000000000000000021e-02 1.000000000000000021e-02 1.000000000000000021e-02 1.000000000000000021e-02 1.000000000000000021e-02 1.000000000000000021e-02 1.000000000000000021e-02 1.000000000000000021e-02 1.000000000000000021e-02 1.000000000000000021e-02 1.000000000000000021e-02 1.000000000000000021e-02 1.000000000000000021e-02 1.000000000000000021e-02 1.000000000000000021e-02 1.000000000000000021e-02 1.000000000000000021e-02 1.000000000000000021e-02 1.000000000000000021e-02 1.000000000000000021e-02 1.000000000000000021e-02 1.000000000000000021e-02 1.000000000000000021e-02 1.000000000000000021e-02 1.000000000000000021e-02 1.000000000000000021e-02 1.000000000000000021e-02 1.000000000000000021e-02 1.000000000000000021e-02 1.000000000000000021e-02 1.000000000000000021e-02 1.000000000000000021e-02 1.000000000000000021e-02 1.000000000000000021e-02 1.000000000000000021e-02 1.000000000000000021e-02 1.000000000000000021e-02 1.000000000000000021e-02 1.000000000000000021e-02 1.000000000000000021e-02 1.000000000000000021e-02 1.000000000000000021e-02 1.000000000000000021e-02 1.000000000000000021e-02 1.000000000000000021e-02 1.000000000000000021e-02 1.000000000000000021e-02 1.000000000000000021e-02 1.000000000000000021e-02 1.000000000000000021e-02 1.000000000000000021e-02 1.000000000000000021e-02 1.000000000000000021e-02 1.000000000000000021e-02 1.000000000000000021e-02 1.000000000000000021e-02 1.000000000000000021e-02 1.000000000000000021e-02 1.000000000000000021e-02 1.000000000000000021e-02 1.000000000000000021e-02 1.000000000000000021e-02 1.000000000000000021e-02 1.000000000000000021e-02 1.000000000000000021e-02 1.000000000000000021e-02 1.000000000000000021e-02 1.000000000000000021e-02 1.000000000000000021e-02 1.000000000000000021e-02 1.000000000000000021e-02 1.000000000000000021e-02 1.000000000000000021e-02 1.000000000000000021e-02 1.000000000000000021e-02 1.000000000000000021e-02 1.000000000000000021e-02 1.000000000000000021e-02 1.000000000000000021e-02 1.000000000000000021e-02 1.000000000000000021e-02 1.000000000000000021e-02 1.000000000000000021e-02 1.000000000000000021e-02 1.000000000000000021e-02 1.000000000000000021e-02 1.000000000000000021e-02 1.000000000000000021e-02 1.000000000000000021e-02 1.000000000000000021e-02 1.000000000000000021e-02 1.000000000000000021e-02 1.000000000000000021e-02 1.000000000000000021e-02 1.000000000000000021e-02 1.000000000000000021e-02 1.000000000000000021e-02 1.000000000000000021e-02 1.000000000000000021e-02 1.000000000000000021e-02 1.000000000000000021e-02 1.000000000000000021e-02 1.000000000000000021e-02 1.000000000000000021e-02 1.000000000000000021e-02 1.000000000000000021e-02 1.000000000000000021e-02 1.000000000000000021e-02 1.000000000000000021e-02 1.000000000000000021e-02 1.000000000000000021e-02 1.000000000000000021e-02 1.000000000000000021e-02 1.000000000000000021e-02 1.000000000000000021e-02 1.000000000000000021e-02 1.000000000000000021e-02 1.000000000000000021e-02 1.000000000000000021e-02 1.000000000000000021e-02 1.000000000000000021e-02 1.000000000000000021e-02 1.000000000000000021e-02 1.000000000000000021e-02 1.000000000000000021e-02 1.000000000000000021e-02 1.000000000000000021e-02 1.000000000000000021e-02 1.000000000000000021e-02 1.000000000000000021e-02 1.000000000000000021e-02 1.000000000000000021e-02 1.000000000000000021e-02 1.000000000000000021e-02 1.000000000000000021e-02 1.000000000000000021e-02 1.000000000000000021e-02 1.000000000000000021e-02 1.000000000000000021e-02 1.000000000000000021e-02 1.000000000000000021e-02 1.000000000000000021e-02 1.000000000000000021e-02 1.000000000000000021e-02 1.000000000000000021e-02 1.000000000000000021e-02 1.000000000000000021e-02 1.000000000000000021e-02 1.000000000000000021e-02 1.000000000000000021e-02 1.000000000000000021e-02 1.000000000000000021e-02 1.000000000000000021e-02 1.000000000000000021e-02 1.000000000000000021e-02 1.000000000000000021e-02 1.000000000000000021e-02 1.000000000000000021e-02 1.000000000000000021e-02 1.000000000000000021e-02 1.000000000000000021e-02 1.000000000000000021e-02 1.000000000000000021e-02 1.000000000000000021e-02 1.000000000000000021e-02 1.000000000000000021e-02 1.000000000000000021e-02 1.000000000000000021e-02 1.000000000000000021e-02 1.000000000000000021e-02 1.000000000000000021e-02 1.000000000000000021e-02 1.000000000000000021e-02 1.000000000000000021e-02 1.000000000000000021e-02 1.000000000000000021e-02 1.000000000000000021e-02 1.000000000000000021e-02 1.000000000000000021e-02 1.000000000000000021e-02 1.000000000000000021e-02 1.000000000000000021e-02 1.000000000000000021e-02 1.000000000000000021e-02 1.000000000000000021e-02 1.000000000000000021e-02 1.000000000000000021e-02 1.000000000000000021e-02 1.000000000000000021e-02 1.000000000000000021e-02 1.000000000000000021e-02 1.000000000000000021e-02 1.000000000000000021e-02 1.000000000000000021e-02 1.000000000000000021e-02 1.000000000000000021e-02 1.000000000000000021e-02 1.000000000000000021e-02 1.000000000000000021e-02 1.000000000000000021e-02 1.000000000000000021e-02 1.000000000000000021e-02 1.000000000000000021e-02 1.000000000000000021e-02 1.000000000000000021e-02 1.000000000000000021e-02 1.000000000000000021e-02 1.000000000000000021e-02 1.000000000000000021e-02 1.000000000000000021e-02 1.000000000000000021e-02 1.000000000000000021e-02 1.000000000000000021e-02 1.000000000000000021e-02 1.000000000000000021e-02 1.000000000000000021e-02 1.000000000000000021e-02 1.000000000000000021e-02 1.000000000000000021e-02 1.000000000000000021e-02 1.000000000000000021e-02 1.000000000000000021e-02 1.000000000000000021e-02 1.000000000000000021e-02 1.000000000000000021e-02 1.000000000000000021e-02 1.000000000000000021e-02
-1.163183327133290135e+02 1.766570739044203719e+02 4.104381678897672003e+01 -9.233290219097515461e+00 -9.159206230211106003e+01 -1.395942333041662309e+01 -2.166102942008355114e+02 6.920993128375459991e-01 -8.833110668491704587e+01 -1.450206664663984313e+01 -2.064678253109846295e+01 6.755459171362319992e+00 -1.854623901190858737e+00 1.748654418066650180e+02 8.817580217096158890e+01 -4.036730529366664655e+01 -5.495708369157978979e+01 8.255777831410847512e+01 3.419415626480898851e+01 -2.642196270494910593e+01 -8.219582318270988708e+01 -7.695086109365441018e+01 -1.440601962858400853e+01 3.015332477284307444e+01 -2.031553498493830432e+02 -1.029262380326036350e+02 -2.718083674494207713e+01 2.101660656022605735e+02 7.374930787767119966e+01 7.991084222456450448e+01 8.366869524369295164e+01 1.240656455997082741e+00 -8.246532881837815410e+01 2.160998079985507445e+02 -2.550920727456968393e+02 6.123987713811693823e+01 -1.252837201907233009e+02 -3.613012040449319784e+01 4.197695521246228800e+00 1.320517544946250439e+02 -1.281098301017783001e+02 -1.425997248671991002e+01 8.065894249178816722e+01 1.809000233558799096e+02 7.440305153250477588e+01 -7.136271889836999094e+01 4.303012997194593936e+01 -2.955768197499929784e+01 -6.885429205882498138e+01 1.632133924553054953e+02 -7.364055111918895591e+01 -5.434482296030773085e+01 -1.451287346379971552e+02 5.911288829587784122e+00 -5.269926586106346633e+01 4.028248634563656339e+01 -9.247021257748669143e+01 -5.219315805234731442e+01 -1.056932948033991977e+02 -1.619994005475972472e+02 2.032742663272642503e+01 4.721525427146643494e+01 -1.283191658915789617e+02 1.341241249814581060e+01 -8.269382696736641947e+01 5.119071508447928665e+01 1.736073042565306253e+02 -1.503456460610194654e+02 -4.516843015179809839e+01 7.467125836463517352e+00 3.039801422921437624e+00 4.416191085782379844e+01 8.754085193996424152e+01 1.013180564537238704e+00 -9.129109340737525002e+00 -7.302034568485395027e+01 8.159943221539489855e+01 -3.421780921123316688e+01 2.738965420818329477e+01 1.084071753057570646e+02 9.200390609631460848e+01 -4.454613197652977163e+01 6.031400877764252044e+01 1.536997011875949397e+02 1.211236845974560765e+02 -4.229671546587153053e+00 1.816315499701984493e+02 -1.162309852230017668e+02 4.418793924482476321e+00 -4.371688426569377128e+01 2.156415703164319666e+02 -2.212352441435415784e+01 2.980204507040045137e+00 -8.004122896929432329e+01 -7.421131635492462131e+00 -6.659387368352892622e+01 7.062737849012472680e+01 -9.855064733429973955e+01 7.140699690326881921e+01 -4.974633543802748648e+01 -5.189684335302504081e+01 -9.554138207622276013e+01 5.538602887830057142e+01 -5.708584244521757967e+01 -1.556844326259357842e+02 -8.287093057164084087e+01 -1.090744975087766591e+02 -1.639164975824520241e+02 1.417417671429927850e+02 -2.872603316619198210e+01 3.337446730675305417e+01 9.348174858430374456e+01 -1.085398139657454664e+02 5.941991687588956950e+01 -4.517044326347979677e+01 -7.219215748825081391e+01 -9.385656900244322287e+01 2.119988080333761502e+02 -5.916349977857874620e+01 -5.156221741871686959e+01 -4.927614365914207184e+01 8.383226777558648735e+01 -4.315221519746047107e+01 1.438941421258624587e+02 -5.193122139286820982e+01 5.738770945025393644e+01 4.734385951577431584e+00 -8.465813047199904418e+01 7.178965871799039178e+01 2.891715827914831607e+02 -9.589006050809533122e+01 4.954251866838148999e+01 -7.943675199864038916e+01 4.715533221779495676e+01 1.367675223354179934e+02 -5.351690259540155381e+01 1.518123233019837315e+01 -2.804805303059891486e+01 -1.062648589480171353e+02 -1.797001484995798037e+01 4.423351772934625892e+00 -8.167453163754609946e+00 -1.560896202558089740e+01 1.233402718699079514e+02 1.358814170165451571e+02 1.944100437922867854e+02 -3.173006929842561021e+02 3.986244960361888445e+01 -1.640345628625027530e+01 -6.504467435783931251e+01 1.880847563794990833e+02 7.955861827930438324e+01 -2.652413520102521627e+00 -1.209994188771594992e+02 -1.140225581814690869e+01 1.044177988155968819e+02 -1.402652454226389125e+02 -1.759793767652655561e+02 1.120097770113240010e+01 4.430166279623236392e+01 -6.366008037482661308e+01 4.386728606725311863e+01 -1.117776758005440882e+02 -1.579830088378768096e+02 2.206760195711800066e+01 5.072228499559260229e+01 4.994483807784665608e+00 -8.722946800689740599e+01 -9.774868697597101175e+01 -8.811724028914544249e+01 -9.144033653539430873e+01 1.315973413872035280e+01 5.940190302019067303e+01 1.217211910088031601e+02 8.303044813828186932e+01 9.353538869446313697e+01 1.122775059351372278e+02 -7.820690644766597188e+01 -8.629167817086782577e+01 7.374620135731144899e+01 7.152427711518808451e+01 6.196145097344694364e+01 -9.836605328113392943e+00 -9.530718504245434985e+01 5.648685237184430719e+01 -1.872465197711157998e+02 7.028581434126051875e+01 -4.667497911221030193e+01 -1.010238846615733763e+02 7.772484674695795093e+01 -1.792036267568491681e+01 -8.086040570611362455e+01 -6.026375277297671573e+01 -9.565873751687510307e+00 2.544034667236236089e+02 8.048593622135010150e+01 5.750533515391055772e+01 -1.090356825035480313e+02 1.555553502632758978e+02 1.070759311581664042e+00 -9.490498115050154126e+01 1.635451331281848013e+02 -1.618796256244417293e+02 1.656445772439354513e+01 -3.422201172227572386e+01 -2.333848856111333703e+02 -1.417616333039316885e+02 -9.268476734291446917e+01 -3.102786685725216742e+01 -1.267014395772860809e+02 6.127380353611156494e+01 6.901725522674470881e+01 -2.925640419160650652e+01 -1.058805825010238664e+02 1.201433784478033715e+02 1.256271965877861732e+02 4.910392939358013109e+01 1.851654806426854449e+01 2.776648922406814677e+02 4.642705177246868686e+01 -1.268408610548883502e+02 -4.785078505813448402e+01 -1.795210440193860677e+02 3.387683698593163939e+01 1.630364434356853280e+02 -1.578473035199886851e+02 1.400750752139503845e+02 -9.673099404754979957e+01 -2.007152096545052444e+01 -7.512480120345791379e-01 5.620111590437344518e+01 -1.236694446405429915e+01 -2.421241458122535661e+01 -2.019148763164426086e+01 -1.347021658992537994e+02 4.941246896292391710e+01 -3.232309271096222858e+01 -1.386094631306503011e+01 -1.139124055981739048e+01 2.404244650947070170e+02 1.853136025380472347e+02 2.475384159100725867e+02 1.402537137851915361e+02 -9.212721318533284887e+01 8.005700035630245281e+01 2.244370365523915467e+01 5.071167166854776553e+01 -4.233765105622089209e+01 2.718798377204542476e+02 -2.477971518514833349e+01 -1.455371625441921992e+02 -1.593517438996333979e+01 -4.876769814691709115e+01 -8.242665381094498400e+01 4.595510212994079069e+01 -1.247172696437510631e+01 1.936875454355312343e+02 9.845662680952274570e+01 4.354598740267358892e+01 1.044324649876096061e+02 1.005259647597296606e+02 -2.448361347227612228e+01 1.487112731335350304e+02 2.817294679302605687e+01 9.536594085074850113e+01 5.072032393547703322e+01 7.396250829933985749e+00 -1.233189204560073904e+02 -1.233391013384914459e+02 -9.585480932529185338e+01 -1.659709340404073075e+01 9.231666948114019533e+01 -3.268739437755262855e+01 1.053381137211821112e+02 4.664599139951883444e+01 -7.746412659318529847e+01 -3.194070445440446449e+01 -6.242571751044786055e+01 1.870234056616146034e+01 -4.938598243746680794e+01 -1.193489300368701578e+02 1.294814705456213630e+02 1.292331336750857531e+02 -8.406672752892427525e+01 5.851974285484274674e+00 -4.824771203232922545e+01 -3.478120067267712301e+01 -1.208241742395099649e+01 -3.323442765093708573e+01 4.730534359331125671e+01 -1.496306831732825344e+02 -5.624909364024863123e+01 -1.617789325911471110e+02 1.854214199651418085e+02 -2.158956375459244015e+01 6.279528426838523814e+01 1.272113572731205444e+01 1.537312503866026532e+02 4.756217657213898065e+01 3.806947264737485881e+01 1.642402607825943903e+02 -5.242796521682637234e+01 -1.038101384623355301e+02 2.885825448580197872e+01 -1.681006737427637177e+02 -5.679404038410146427e+01 1.087798234880721822e+02 -1.359519507686677855e+02 -3.868317681922994922e+01 9.710197174366422246e+01 -1.005299418766312840e+02 -9.521920108133431881e+01 -8.790685490380437273e+01 -6.791742941207350270e+01 2.647472221911285715e+02 2.107008824026295315e+02 1.095351919402583434e+02 -1.086465514331548690e+02 7.959523979668257709e+01 -7.023080315714021538e+01 -3.306632031793139248e+01 1.762957912184002041e+01 -3.414082657817619548e+01 -9.961264821641663048e+01 -2.829401137821900392e+00 1.574963043103468863e+01 1.154666144243192605e+02 -1.363885031128172898e+02 4.439324462794183290e+01 6.764699905731518470e+01 3.669288349697578155e+01 -9.612020494177843943e+01 -1.574844979875050512e+02 2.049589060701659378e+02 -1.890321985571665309e+01 2.671261414455134187e+01 1.658884578543586201e+02 2.827583093540783565e+01 2.941847075308089288e+01 -4.717829138427512703e+01 9.385800019682751838e+01 -1.444723004754352189e+02 -3.264922193063897993e+01 -6.495983102593503311e+00 -5.660080958732561385e+01 6.473069611883166985e+00 2.260328255056332836e+01 -3.790003311241440542e+01 1.447213511388820351e+01 2.262803870455309720e+02 -2.898605813168541445e+01 -2.957914991677489880e+01 -1.076179022914633094e+02 -1.764290851581066244e+00 -8.549668216915861763e+01 6.803687718820098596e+00 1.186003814490761670e+02 -5.507651032992223605e+01 6.409707552342734260e+00 -5.750696835097762971e+01 3.542282215148288671e+00 9.230600778937844098e+01 -1.226082393448835433e+02 -1.024166558626830152e+02 -1.084967693414786964e+02 7.557757814979515842e+01 9.159454775045264796e+01 -9.771625950146595585e+01 6.620661904843680645e+01 2.729289696370933527e+01 4.093168319288592016e+01 -1.879787429896603967e+01 9.661567957431675779e+01 8.438256388148641918e+01 -8.178077352105179898e+01 1.258665178160021902e+01 8.560679212596515697e+01 7.710105526356224459e+01 -2.100907362004410217e+01 2.644910904761218973e+01 -1.402537964113072348e+02 5.129905090981417715e+01 -3.465176137279372170e+01 -3.450572948631074865e+01 1.831984736971984091e+02 5.020129956515397396e+01 1.271820639397270298e+02 2.019562869948415766e+02 -1.456671552808820138e+02 1.576488076605732545e+02 -6.699686664713389916e+01 -1.429203711679721778e+02 8.708118265605021691e+01 -1.418486642899391086e+02 -3.035150055659444135e+01 5.969659621662621873e+01 8.585459211962882975e+00 -1.777523286078698561e+02 8.904793422446368822e+01 2.665052482337815221e+01 7.309506487571920275e+01 3.834033618700530610e+01 1.003061961751801157e+01 -7.099437057503755000e+01 1.224459971022595113e+02 5.762279869019486966e+01 -6.571822909983535510e+01 -1.070758812182070869e+02 4.123179846051903041e+01 2.709747137322204935e+01 8.711652189210668951e+01 1.942698211717521133e+02 -2.607750173632098623e+01 -1.164789629445090213e+02 -8.967595666431908796e+01 -5.428329757491297869e+01 -4.698851404364282303e+01 -1.552044814972033464e+02 -2.377229531147180097e+01 1.369119873372889629e+02 7.885421658783603505e+01 -1.294213980348311566e+02 -1.583812207923105007e+02 -7.205332052429436374e+01 -8.081693369586734832e+01 1.551248248106017797e+02 -1.802460998744413985e+02 9.147142201015169860e+01 -4.874184976230268695e+00 -4.547802234702709967e+01 1.408887703239333611e+01 9.645007911099136777e+01 5.249034657024390071e+01 1.461459455607868847e+02 -1.682576548347341827e+02 -8.562172344709064475e+01 2.675470761346284121e+01 4.435157248137117847e+01 2.180138291217702431e+02 1.537766434797407271e+02 6.925395031973408777e+01 7.624226687929042612e+01 -3.630642269928629418e+01 1.605718654248328789e+02 -1.895555352267809894e+02 -6.700016107511359564e+01 -5.677027069229600187e+01 -5.476403475172294577e+01 -1.092399473642924477e+02 -1.582809069265876545e+01 -7.258900301537171629e+01 7.528383684692811073e+01 -9.707009484397083554e+00 -6.147835658311212370e+01 -6.594871388817655600e+01 1.905145210031787997e+02 6.231917072251418688e+01 -1.445217980078154696e+01 2.208129602720603089e+02 -1.144900686248398074e+02 -3.736942303959729372e+01 7.077572213990310956e+01 -1.294878830181224183e-01 1.575475972490509413e+01 -1.321358488641173778e+02 1.862270206339615015e+02 -5.183304136207799218e+01 -2.852798431984841798e+01 -1.159567184953607040e+02 1.329969654368981651e+02 1.013771161522357716e+02 -8.193450874989584065e+01 -3.963052107639806110e+01 4.111385366787633444e+01 -1.599659396374005667e+02 -1.076956431201379488e-01 -7.890758505121092981e+01 8.159883349297505362e+00 -1.142249354142001181e+02 -1.674311857564245543e+02 -7.462529810992995749e+01 1.564342422031068907e+02 5.978781115108666455e+01 -9.458497223345847260e+01 9.417633210057917381e+01 3.617831633331891084e+01 9.315115021576515630e+01 -4.444326352859285834e+01 -8.877283915148071003e+01 1.804399130507559335e+02 4.398770647222071517e+01 3.055855492495100378e+01 -7.704452281406908298e+01 -4.462610234393950037e+01 1.012181275194577346e+01 -7.535968387948740244e+00 -1.822420310578208387e+02 -3.647091365414406283e+01 6.793676287617404341e+01 1.177122546162131727e+02 1.641107800446548310e+02 -1.396732804770341474e+01 9.444825602618439575e+01 1.661681857615188846e+02 6.684454370824084890e+01 1.557882257921641838e+02 1.691748165986432539e+01 1.382805609513128502e+02 -8.839391323003434309e+01 5.622071524492285022e+01 3.092560798989944360e+01 7.987050093589685673e+01 -1.117592129008111215e+02 2.083007607931857876e+02 -1.355661392411786039e+02 9.283879061084411433e+01 -1.130434570969463977e+02 4.848606139407866777e+01 1.449644415964941402e+01 9.537175952605315388e+01 -7.746200901750289347e+01 -7.935460547986939162e+01 -1.176182542040626977e+01 9.359749633146645920e+01 -3.107064222015418054e+01 -1.714432120240343593e+01 -2.061844101493549175e+01 4.975898571565297246e+00 1.030319355240872170e+02 -6.569295459382333036e+01 -2.859329039147723517e+00 -2.031377840832432753e+02 1.276188350045902666e+02 -1.306781262639625822e+02 -7.733805807117630593e+01 -2.466014614689596485e+01 -1.129259248197496817e+02 -5.564700169724725498e+01 -6.126960179687879560e+01 -2.055903003956580477e+01 1.426281929576611844e+02 5.656855372000257631e+01 1.051145466038850600e+02 -1.424091984564344386e+02 -1.450243554398565493e+02 -2.997138680686535395e+02 1.068475761949066936e+02 1.091566014946695020e+02 4.419915903850171901e+01 -4.434203822179176058e+01 -3.899063459177072133e+01 -1.921332762872130786e+02 1.529740236988937738e+02 -1.124296207036681352e+02 1.119358412498953044e+02 -1.666713481038433997e+02 -1.496368553519412714e+01 -5.795490598463536713e+01 -1.247961334025814892e+02 -4.823759243764933302e+01 -1.302559873323543194e+01 -9.696088551824026069e+01 -1.083664866705947816e+02 -1.292485365482187554e+01 7.454775938269042967e+01 -1.304848676076450715e+02 -1.642101096105927738e+01 -7.722025564258393615e+01 -1.375831525007314724e+02 7.051049403774948487e+00 9.972030263396878524e+01 1.732621816846586000e+02 -1.998530853464652424e+01 -4.823596845617523599e+01 -1.299641247499644692e+02 -1.712411860947174773e+02 1.086347687537843427e+02 -7.619324186079592209e+01 8.278665858637684494e+01 9.855489048401091523e+00 3.067201239925147860e+01 7.736602579440329919e+01 -8.872082652771327105e+01 8.657653747739851724e+01 1.207459347646485384e+02 1.648469400897255923e+02 -1.221963708876874364e+02 1.088775933156048978e+02 -5.001712009910114176e+01 -9.511624377703189737e+01 2.247507251371337418e+02 5.164358214143894799e+01 8.744432997680034703e+01 2.236746959163235715e+01 -6.611738156773610342e+01 -3.660633545619780449e+01 -2.203916023885209370e+02 1.106574632739072115e+02 8.541783599130810956e+01 -7.931630140266362616e+01 -7.668363205212342848e+01 1.521347212506600499e+02 1.058911405728450035e+02 5.354717692942102047e+01 7.973633954665332624e+01 -8.319043246471586883e+00 1.081342022330033075e+02 -1.084377993137048151e+02 1.953649045506725201e+02 -4.136909727757075217e+01 -1.278013641245462537e+02 -3.942619998002066239e+01 7.518044913911337801e+01 1.544017303819008760e+02 1.360462512991398043e+01 1.821375197738841791e+02 5.472435825270176224e+01 3.520427610101727112e+01 -1.166626950252602057e+02 4.698928725464278955e+01 -1.310715269296929080e+02 4.995288064611797552e+01 4.054926579300540368e+01 -1.292132426257575162e+02 -8.910414405433921559e+01 4.172042850631159183e+01 9.145089326089888004e+00 -2.437502524533279669e+01 4.383045445648518523e+01 -2.242036020755671899e+01 -6.611902336527585078e+01 -2.731976695295586666e+01 -2.356770838919275590e+01 -4.174835813912889648e+01 1.969417742884212075e+01 -8.431538340153369404e+01 1.246644527605146209e+02 -7.794041669377713788e+01 -4.563036682968592217e+00 6.857280339679087433e+01 4.108040276243209554e+00 1.668885562154208912e+01 1.670923070663125287e+01 -1.227751380972494246e+02 -4.641686123015078103e+00 6.817913524316918483e+01 -2.425436791157946743e+02 -8.888394647202677845e+01 -1.181591904750262358e+02 4.587833603242076208e+01 1.008448874507272990e+02 -9.612646242383164008e+01 -1.759365627034276542e+02 -1.939643531379665546e+02 2.094636493790843090e+01 -1.518883457402783108e+02 -6.611354344861847032e+00 1.545893226832140499e+02 -7.479590526995382405e+00 3.891014445509426167e+01 -1.035660654793956894e+02 8.350012255864447752e+01 -1.239466032766925849e+02 -1.607735345609944844e+01 -3.169983237934925668e+01 6.010679616878969256e+01 -9.312056801185493171e+00 1.103214645416994841e+02 -1.273287486041340486e+02 -5.223894384232526278e+01 9.015585556313929771e+01 6.896114481921620154e+01 -8.587420056307213656e+01 -5.666416600188196639e+01 -5.138989132149086458e+01 -3.013263915649837941e+02 2.014919938829375781e+02 7.927246738018148164e+01 -2.459439406193433442e+01 -3.085956951674715754e+01 4.320633586158874806e+01 -8.759788710440328430e+01 1.035569968888461858e+02 6.282338628906621381e+01 8.535021847230852643e+01 -8.741485057176740270e+01 -2.767745125615808277e+01 3.468913152362997465e+01 1.806129335436954264e+01 -4.444721048856804657e+01 1.639585602396936963e+02 -1.797408860371091066e+01 3.671964783497450213e+01 -2.385651657144883302e+02 -8.795348022892497397e+01 -7.597598363469130334e+01 2.388287213309948953e+01 1.133371695564494530e+02 -2.403620065417086664e+02 -1.940919716081876629e+02 2.300792379026331673e+02 -1.097340489334908753e+01 9.972738028246303088e+01 6.515503431923887945e+01 -5.748657302703534810e+01 -1.359483022037190949e+02 -9.875316824337038213e+01 -5.217260242746858978e+01 -3.887570297038951139e+01 -4.062649052843178765e+01 1.681788009137226680e+01 3.848610104154501244e+01 1.730539543971610215e+02 1.277903382818760889e+02 7.137496871655136133e+00 -4.529647435069900752e+00 -1.648242217899450850e+02 1.241528860472595568e+02 1.653470302905794256e+02 -1.072667493362487932e+02 7.651770849709838274e+01 1.901342567672227535e+00 5.691760103250099689e+01 1.302153372309762176e+02 7.361338448029410131e+01 -1.390490534437126371e+02 1.678366192844360327e+01 -3.049172364325774254e+01 1.155408129896719593e+01 -2.410340790434294078e+01 4.709316186125094816e+01 -2.703430860686721644e+02 1.881563005955781875e+02 7.637338503505072040e+00 1.655769434828811768e+02 -1.100496824172610921e+01 1.103387415164181391e+02 7.442882906271655941e+01 -4.368609432734101716e+01 3.102725267501816830e+01 -7.562372039425204662e+01 -9.245723112142509592e+01 -7.496984236416072633e+01 -3.331641926997259873e+01 4.700475672692427054e+01 1.146149509035400484e+02 2.967425279378298342e+01 6.454309649398474846e+01 -1.090489873985482632e+02 -1.427074869922704181e+02 -1.403403987754254167e+01 4.832045888508671538e+01 -4.744248707217714411e+01 9.836221534939662092e+01 5.776927996503064833e+01 -2.880105962976930201e+01 3.119423252000640545e+01 6.387804399659268029e+01 -7.511944335336195877e+01 -1.392665944473636443e+02 1.480155583611089298e+02 8.144368696281587106e+00 5.224811285843878750e+01 -1.555364085929698490e+02 -5.565151414580851963e+01 -5.082861080979986790e-01 -6.843448725279115763e+01 4.465057120270746971e+00 5.866664136461722734e+01 1.944004844372819321e+02 4.079811002373308781e+01 -1.144159319857710955e+01 7.526900545763309935e+01 -4.747193148830334763e+01 -1.137188236993678458e+02 -1.442467402430022787e+02 9.795268442474148074e+00 2.621759216506701051e+01 2.480811955284359627e+01 -5.938993726180984822e+01 1.262089980994421126e+02 -8.445445445317824351e+01 1.340701410958510564e+02 9.122383400752997318e+01 -6.797448819911060980e+01 -8.844721744516128581e+01 8.798471616019682529e+01 2.146123397293863633e+01 -5.484379778091091850e+01 -5.631495601519308991e+01 1.428579329410237335e+02 5.989877329617367252e+01 8.351401782887521108e+01 2.734929389734517002e+01 -4.405819199572446365e+01 1.124922099166390979e+02 -5.709384910853507478e+01 5.311624747410573777e-01 8.018122343387220496e+01 1.042353322745986475e+02 2.674081880197148280e+02 -1.833481336912799406e+02 1.685715778923851360e+02 -7.084945372065067204e+01 -1.594073406024878814e+01 -2.618967360845790537e+01 -2.172884454841004143e+01 -5.788256070220371186e+01 9.736757195659157560e+01 1.930573079336493834e+02 -1.246379928532908252e+02 3.245164166571010611e+01 -1.331812287264727104e+02 7.367954097271096714e+01 -4.675375527728341041e+01 -8.501879206626259133e+01 -5.658278633505194222e+01 4.324941215839994157e+01 2.040518337581351460e+01 -8.603857682598869872e+01 -1.483972218347700505e+02 2.186525854695287308e+01 1.658859106472515919e+02 1.503736762688976825e+01 1.921564573024687377e+02 7.871835547133620992e+00 1.418068656990410261e+02 -3.646949545963116890e+01 9.557149422354710566e+01 -7.532688160546325662e+01 -1.190668948337592639e+02 5.214192520211736337e+01 -6.122891691459012264e+01 -8.284229602622308164e+01 7.699954462060627236e+01 6.773849652276349609e+00 -9.961275769940596092e+01 -1.589883530024861784e+02 1.562365175133694208e+02 -9.424177032319754233e+01 -2.447921550494188470e+00 1.269401032767782880e+02 6.140033940158376424e+01 -1.038510748045966210e+02 1.120469711906700461e+01 2.984402874717490022e+02 5.646707933783112310e+01 -1.670185008281130479e+02 -5.050890125570563782e+01 -6.520366531851351510e+01 1.022104429388780211e+01 1.139574732372094417e+02 -1.096178178096342606e+02 2.282622750656380006e+01 1.383511755918274559e+02 1.991382310286975610e+01 -2.239833596493444645e+02 5.132035319791166472e+01 8.004079074164393148e+01 -1.437839685146705904e+01 3.480755686579826857e+01 1.096116943283352435e-01 2.380539361512825991e+01 2.942052694885242303e+01 1.228234590953722432e+02 1.039331654508808214e+02 1.641037826532134147e+01 1.580866562846072441e+02 -6.791157574935489549e+01 2.616318620040710812e+02 6.896394423338030322e+01 1.502665102637907069e+02 -2.332272741032324248e+01 9.553211295056237873e+01 -5.212325186940996957e+01 -1.553017821012585671e+02 2.782108026170740089e+01 1.009749765196923192e+02 -9.301562237097012087e+01 -1.111424224304353032e+02 -7.060827209780896396e+01 3.880531358096492056e+01 -1.212807163380446127e+02 7.934178309694085840e+01 2.983042274137875438e+01 -1.036034039497820203e+02 2.016370731202757725e+02 -1.248881675305308292e+01 -1.079688751956644808e+02 -1.416785104399268924e+01 -2.168998940094174088e+01 -1.488693009244470886e+02 -4.251754471544142433e+01 6.527379848643086291e+01 1.398539139256474471e+02 3.077675825118571851e+01 2.843928145413018527e+01 4.754889464878347383e+01 -3.800129711754520656e+01 -1.545262345546495055e+02 1.678749701777335446e+01 3.294500580860269423e+01 1.412647759500651716e+02 -1.060235706752908591e+01 -8.085414221197437712e+01 7.773320187300056716e+01 1.081480389873369807e+00 3.402028687714532396e+01 1.479509949040418917e+02 -1.885699850466212979e+02 -9.857314050733647548e+01 1.324243861243881781e+02 -2.225863448645159792e+02 -1.897457969357411116e+02 9.383388772732133987e+01 1.588794866698569308e+02 6.535245757092440044e+01 -4.561760008947454814e+00 1.607654624441167357e+02 -2.263982845187002226e+02 1.105555768146988243e+02 4.372911201233920053e+01 1.311131385891022205e+02 -1.945742587813639375e+02 1.100274068760144814e+02 -2.923376068790068416e+01 -1.379500636561247973e+02 -5.499976964336086738e+00 -9.535625091093646688e+01 -1.691766716066678100e+01 -4.359244759906977684e+00 -1.270956654112798390e+02 -1.272287323800280063e+02 -6.457203486853508423e+01 -1.330382531882501382e+02 2.073916523767101125e+02 -1.660423541519436128e+02 -5.174492991125619312e+01 1.780025016525636659e+02 3.499441192200536221e+01 -3.053563568343766406e+02 -1.310611466317464533e+02 3.667293648657583560e+01 5.636101841099213772e+01 8.935406884175707276e+00 -1.595714793366591948e+02 3.682115876731665338e+01 7.666128156156733375e+00 -7.668142981704822603e+01 2.091062503959975629e+02 2.090483181569110229e+02 4.450732287288194478e+00 -2.151132171192201952e+02 1.299975244303445265e+02 3.176952425987249740e+01 3.815387062606726776e+00 7.910348030559349297e+01 -2.140162677961989459e+02 -1.424319773768178834e+02 1.455424361230675174e+02 1.131021365083680763e+02 5.464005404168030822e+01 1.478164339502149289e+02 -1.839079986647055023e+02 -2.104911502188235772e+01 -1.345972866472836813e+02 4.489254782706868951e+01 -1.071421044387842869e+02 8.977531887109822151e+01 -3.490522091373156144e+01 1.277112945595703764e+01 1.830284825251066536e+02 2.934217115228321404e+01 -2.719048505056136378e+02 -1.303209338413358580e+02 -8.600437966321668171e+01 1.631017980386544650e+02 1.292578703479898650e+01 -5.544455685847446347e+01 3.140384557820313560e+01 6.452974441442083275e+01 -4.086976466885640491e+01 1.109171664264802644e+02 -1.039103805919846479e+02 5.076820292619972719e+01 1.154595873876826602e+02 -3.649056488280372434e+01 -1.012230095056036987e+02 -1.169542620049055444e+02 1.235402444598494895e+02 -5.120389715541340792e+01 2.027634969619541891e+02 5.901176930536649223e+01 1.144754827159144526e+02 1.901451488751006877e+02 8.837739748851525690e+00 -1.281676387289863897e+02 -1.710455465407528379e+02 -1.178253467844234308e+02 4.377858524290125786e+01
-1.375621350569351264e+01 -4.820969834121571651e+00 1.043832274502188397e+02 -2.307520322991659611e+02 1.566032349437943481e+02 6.404283381320161084e+01 1.532906276874341529e+02 -1.301296500968202281e+02 -2.822061577163323065e+00 -2.427561631370364381e+01 -2.211425300836511951e+02 3.301698332055614316e+01 -1.847315590600069868e+01 1.232117372289294224e+02 -1.259639516495358151e+02 6.217404596524218618e+01 1.262865368673588335e+02 -4.628015947233968319e+01 -5.010844287255489604e+01 -2.731901277527965632e+01 6.214401260777431446e+01 6.364132806859571190e+01 3.264219818424297159e+01 -2.343222177221884124e+02 -5.207508321525845219e+01 9.213701918582420092e+01 9.968734358639302684e+00 -1.040457813653424068e+01 -6.705400249775854604e+01 -1.553616957048856229e+01 7.389503958024928920e+01 -1.465137088692131329e+02 -6.233092870446348854e+01 9.084644724805082561e+00 2.090165335913549995e+02 2.136255608720698547e+02 -3.225050929574982916e+01 5.631111689752924576e+01 -2.925049320015140619e-01 -1.407380566756728797e+02 9.672447830243783073e+01 1.080750113108941832e+02 1.093497714341416440e+02 1.179736844450834710e+01 6.238281434262442104e+01 4.849671711848425559e+01 3.918928700704397272e+01 2.951443124756003655e+01 1.111324096962110843e+02 9.041678545759440055e+01 6.612598485549789018e+01 1.641917070300013961e+02 2.494265072204350986e+02 1.970323706657583784e+02 -5.956556783966213686e+01 4.963606790856768214e+01 -6.480513371903855102e+01 5.687221693125301414e+01 -1.935523504990343042e+02 5.692989947805769901e+01 -2.063508217078595806e+02 -1.699759467865519582e+02 1.303134554342469187e+01 -9.284441494617272639e+00 1.708410786990372969e+02 -2.094611449265849501e+02 7.586518515194849499e+01 2.315107016784479299e+02 -7.333660740249941412e+00 -1.961111584205367535e+02 3.590490390680151478e+01 1.987539387097264978e+02 -6.155727886595518328e+01 -2.684448727100349856e+02 -1.033476126808768072e+02 8.845569297902850181e+00 -2.318643327543053658e+02 3.221380491019178294e+01 -1.808648009566439328e+02 -1.870863481981313328e+02 -5.750185962048350774e+01 1.537574807372802184e+02 7.012291409527949781e+01 1.068039372805771769e+01 -8.932099284975971898e+01 -4.297087423757275815e+01 6.431372981858513072e+01 -2.340291700820626204e+02 5.458144148927822670e+01 -7.572944476898319976e+01 -7.875778037262982423e+01 -1.783668168683012709e+02 6.571579905890662587e+01 9.363869860114687071e+01 -1.638199743158714057e+02 1.743153317631598327e+02 -4.028869209579430333e+01 -1.706910441642379439e+01 8.831191779200688075e+01 1.577379665295041207e+02 2.184069783721412605e+01 1.528533365434876430e+02 -1.860694214641476663e+01 -9.156820904557397967e+01 -1.981634455670950246e+01 1.020669467090854852e+02 4.666931184061665050e+01 1.015188779286152680e+02 9.798395159976632840e+01 -8.615359402589380977e+01 -1.763367567942614471e+02 1.277209950876388973e+02 5.632157817738836769e+01 1.671725428323828666e+01 3.174672495244325532e+01 -7.050550193778278185e+01 9.969868945611396782e+01 9.323212699286474958e+01 -1.414942617178389561e+01 -7.394472246027915219e+01 3.199795673908172589e+01 6.504162370357368772e+00 -6.393511579988850002e+01 1.760180295931060073e+02 -3.436851014873217736e+01 1.263006549043003730e+02 -7.284211707758285570e+01 3.987012208400400937e+01 -3.755482661025814650e+01 9.291781836530867622e+01 2.441440421574282738e+01 1.200818989993012877e+02 -1.205022421055733588e+02 7.725662380563851173e+01 1.283665244013401434e+02 -4.650153108500423116e+01 7.833595740410925323e+00 -1.308124320105349803e+01 1.213642323724388916e+02 3.599728912459929653e+00 1.754480186869073748e+02 -1.470581004053781840e+02 1.213866678612004648e+02 -9.506745236119999731e+01 9.956895057065123922e+01 -1.425804766457376616e+02 3.072702835005870625e+01 2.573087652659999947e+01 1.924102639893736644e+00 3.779103368979520639e+01 4.770177889179743147e+01 -1.297928966381670968e+01 1.116951136397510957e+01 1.125203080313794004e+02 1.325197722470884685e+02 -9.021098900464448889e+01 -5.650342452854433617e+01 4.936256790747408019e+01 1.626156031206102304e+00 -1.426116035496736743e+02 -5.733664108506800261e+01 -3.698289196803753498e+01 5.098985576774123984e+01 -6.834596718804395721e+01 2.391355190913568762e+01 1.671204264515366162e+02 -8.285332514065719067e+01 8.417639997256547701e+01 8.770093746206373453e+01 1.166433737641933099e+01 1.287134549723164127e+02 6.559245726053815417e+01 1.753066753558498192e+02 -3.599005751654738816e+01 1.173837502268656579e+02 5.795024580732265207e+01 -1.679641548081440305e+01 2.130930993466976702e+02 -1.449580245028805052e+02 5.103073184271310936e+01 -1.959012079226459093e+02 -8.795154799757055741e+01 4.283999305688973180e+01 -7.544029188819730791e+01 -1.629022111594794353e+02 2.083226168923454225e+02 -8.967318163634296013e+01 -4.964606554649623149e+01 -4.839548331851483454e+01 1.273014048171683044e+02 2.037027457388405196e+02 6.772917327690799993e+01 1.529639162297490884e+02 2.295153548876834293e+02 -1.726800026219587947e+00 1.704449179667163037e+02 7.416255505106445867e+01 1.991732857845460956e+02 -1.315485068679562914e+02 -1.245159044132286397e+01 6.610004052287028031e+00 1.987427723327646731e+02 -9.514051187911259433e+01 -6.320611818084596223e+01 -5.541411000812365018e+01 -1.400787980227435412e+02 4.870456512621974099e+00 -1.056139075160748462e+02 1.611568248328881054e+02 2.468387652705657587e+01 1.258611037759472495e+01 7.565428100645017651e+01 -5.190674072450843113e+00 1.223030020431099842e+02 -1.661515844061686948e+02 4.747860637246040483e+01 -1.788051222023492528e+02 1.228513905053329296e+02 1.003866821698393892e+02 -7.045853684813700113e+01 4.888835818551739720e+01 2.491355944830970941e+02 -3.184184785486866076e+01 4.359492749980035597e+01 -3.417357235253658132e+01 6.060553933980036589e+01 6.728414294702056964e+01 -6.547412755749035362e+00 1.066663642361344841e+02 1.062602019169467127e+02 -2.028286157819190976e+02 -1.603182994502620033e+02 -1.253061572272924309e+02 -9.915259373917411523e+00 -1.567284800403974430e+02 1.208645721457734794e+02 1.154651961904970534e+02 6.165339548096211075e+01 1.166975094053992734e+01 1.649550599240147335e+02 8.782438381136188355e+01 7.057822185298607565e+01 -1.063522957122464163e+02 1.592544533162279379e+02 -3.712612191360326275e+00 1.143056475410728297e+02 9.212914597538409467e+00 3.843074867051708310e+01 -7.919668905465474040e+01 -9.492067566803632417e+01 7.484340030332748483e+01 -3.977222817731290938e+00 1.529721453431781129e+02 -1.316554786973954094e+01 -3.000273094028725662e+00 4.793280661318301838e+01 2.368557869498816615e+01 1.478044555296420697e+02 1.523650796299328469e+01 3.743851716140468255e+01 -1.616840510450610395e+02 6.883280149456106756e+01 1.396555567254747814e+02 -1.853908890343849336e+01 -2.381461368794535360e+02 8.814386415761020999e+01 1.420226960594762886e+02 2.112729452365364580e+01 1.969254667915083417e+02 -4.228890074872915683e+00 4.470188215566943057e+01 -4.533922229726325526e+01 -1.443404334592883913e+02 5.821347505845051984e+01 -4.935422737384147496e+01 -8.434222493270378607e+01 4.282859774863021585e+01 -1.920770833272300138e+02 7.459258594845825030e+01 1.707004785956628723e+02 -1.051467001066561551e+02 1.795616498072641889e+02 -1.014563006014010398e+02 -6.234083453113194118e+00 -1.089176026298065736e+01 7.945571147559975600e+01 -4.828114822701603970e+01 -1.118695529376989128e+02 -9.177575282126926481e+01 1.511285869391220160e+02 6.126242458072596264e+01 -1.364557735100802915e+02 4.623497619940687642e+00 4.503485183983709561e+01 8.554981690811575845e+01 -4.178506596483828162e+01 6.216836445354131513e+01 -7.142641759563963433e+01 -1.681783793550647204e+02 -3.587228498459202086e+01 1.459804688956657799e+02 -1.173216061737048790e+02 -6.675884395945966610e+00 -1.686924930000357676e+02 -4.882568843918016377e+00 -1.509605795509321240e+02 3.399863701059087617e+01 6.216860884595396897e+01 -5.207791417723895933e+01 -8.526443163759509503e+01 5.814508892069927271e+00 7.693287564982323090e+01 -7.008726951769564550e+01 1.393221889383061409e+02 1.090362251739416735e+02 -1.319628577778097167e+02 -1.089924093015791300e+02 1.396172593628989773e+02 7.375920425231370814e+01 1.551774222737445825e+02 1.036995821264519719e+02 8.388401554446544139e+01 -6.222972299495872051e+01 -8.448114452304081112e+01 -7.960429173118158985e+01 2.111341582226902460e+02 3.145685780283313093e+01 -2.567950809838297843e+01 -7.076711413366115266e+01 -5.167828473872498307e+01 -1.353154950326305652e+02 -1.704916662480589906e+01 -1.802815447504169128e+02 1.285060146061108526e+02 4.732815979362873549e+01 -1.184526595995600076e+02 -4.970294279404632931e+01 1.230648071555650489e+02 -9.970660402680888978e+01 1.056434591513255015e+02 -1.216871684956458779e+02 -1.207780037241231774e+01 -9.812158777389380759e+01 9.213604592028167417e+01 -4.365324692478617408e+01 1.066757437272503495e+01 3.010327063203170184e+01 -1.301213402525105494e+02 1.284622614781588723e+01 4.960850268492026771e+01 -2.306463796400224453e+01 -7.060919824057285155e+01 2.079056220824785441e+02 8.876589287702046249e+01 4.843160269021201714e+01 -3.227421842471137836e+01 8.242351727502637004e+01 1.720822414064886061e+02 -9.480669084814776681e+01 2.150332098678307489e+02 -1.366525518883978521e+02 -1.888702379983318167e+02 1.559695297747685743e+02 -2.401771036625031286e+02 -1.061693047927446232e+00 -2.514395175839597414e+02 -1.570339036616464909e+02 7.365070918554052071e+01 -1.495533515598849021e+02 5.995216386643325990e+01 1.127577325368810364e+02 -1.646903509205067166e+02 -3.097930086761849111e+01 7.739188400877513629e+01 1.375074213392987303e+02 -1.909959564384217572e+02 8.975113785476024475e+01 -1.005403123301179136e+02 -1.016078784525690182e+01 -1.428669610999027206e+01 -8.171466229720698493e+01 -9.273863280024023936e+01 1.861766722328458457e+02 -2.221887150430824320e+01 1.350111975491008254e+00 1.336779224444786109e+02 -8.894756186650819529e+01 -3.534448734040208251e+01 -1.105190410970730426e+02 -5.018131690870225725e+01 5.352449865620464209e+00 6.104490502321119294e+01 -1.388744821495317865e+02 2.439514354646107108e+02 -5.549215048015526008e+01 1.263423407594600860e+02 -5.028723134607903233e+01 1.234320321704134358e+02 1.432356007029004275e+02 4.952133977418819200e+01 1.258860738449568544e+02 -4.455526721526533862e+01 1.442907534614344058e+02 -1.612479019305867496e+02 -6.742011730108048084e+01 -6.493700992781286629e+01 2.628724703881266223e+01 -1.673989722942375238e+02 7.484131894800104590e+01 -3.179954140372997529e+01 -8.524075890810139811e+01 9.245377716792485501e+01 -1.558521555577151787e+02 -9.406673718621080127e+01 -5.421404166584083839e+01 3.413644576868229308e+01 1.339352591727829349e+02 1.205992057143410108e+02 7.134966130275626028e+01 -1.704080733125678648e+00 1.803225552939196064e+02 1.263869358959337745e+02 -9.736262506805802275e+01 -8.066363198648389243e+01 5.738565071697865250e+01 1.033783239421737932e+01 1.010573771802810512e+02 1.718295187105480295e+02 7.278092906586803679e+01 2.509954005920407383e+01 -1.053558298844317420e+02 1.772064426278198539e+02 -1.172385179570155032e+02 -1.704264203437423930e+02 6.774399464069028909e+01 1.149067684555764686e+02 2.021289269594690197e+01 -1.431101920668992307e+02 3.067399777154877683e+01 4.374863808179566149e+01 -2.827575923968981830e-01 1.348864850573191347e+02 1.003967870463618937e+02 1.761685538654230498e+01 8.071162452276783483e+01 -1.103198604911773089e+02 -6.445899820570878624e+00 1.012584893668981039e+02 3.056108085141092801e+01 -6.698448812656960172e+01 2.038920054693117834e+02 2.379515861681865943e+02 -1.292985208968472648e+02 -2.839589139461579492e+01 -2.164619555258092305e+02 -7.430777464283340805e+01 1.612758108574210496e+02 3.547188085909418476e+00 -7.306106665672528777e+01 1.686254253772076197e+02 -6.437181829800914556e+01 -1.652622047012365272e+02 1.405092537495247882e+02 -6.920605057939874882e+01 3.539631757379875410e+01 8.888250127920471755e+01 1.416234023843541223e+01 -2.450486667250343089e+02 4.346725423185839787e+01 -6.264933328946710844e+00 9.262263193662775507e+01 -2.422990455836385593e+01 1.041106201447398689e+02 1.742018767655892120e+01 -8.724832107161918771e+01 -2.104814508110274218e+01 -1.801855400293333958e+02 1.182796150682063967e+02 2.597521234115298938e+01 -4.282752482791006088e+01 -5.329845113894280217e+01 -6.461036010060233536e+01 4.224065275148461751e+01 1.652378056809024542e+02 1.364776312904608346e+02 4.432071938537541200e+01 -2.034651197395206168e+02 -3.989045885473571218e+01 4.504073653847488856e+01 1.206965146961509276e+02 8.974613747396803376e+01 1.591330353319575330e+01 -1.913454374394104036e+02 1.355086782337199622e+02 -2.301320403996091386e+02 -2.116600039647511267e+02 -1.921752467893080407e+00 -7.588370096612659665e+01 -2.472151257619428932e+01 8.962278522402418446e+01 5.751758075378404556e+01 -1.144023066417530572e+02 -1.557300014614587553e+02 1.502535266470609798e+01 1.272160471080915158e+02 2.133322105069472485e+01 -5.832597535201840344e+01 -5.304128064423460387e+01 -1.218326326072462074e+01 1.659669883214832282e+02 2.302588515539524749e+01 -1.817404862566687598e+02 1.342293564248706446e+02 -6.988618793937236262e+01 -4.375170929462866454e+00 1.612192447712159549e+02 -5.479514156518150259e+01 -2.048647255031693604e+01 -1.150041339181147464e+02 -6.301633348869047246e+00 -2.499316570775612689e+01 1.379390940402446688e+02 1.257694168909531385e+02 7.075510937904074638e+01 6.844633598587643064e+01 -1.959937054993651984e+01 1.416341854177327377e+02 -1.180180609943740251e+02 -4.474548527856465618e+00 -9.533285030951356021e+01 1.645891121923019966e+02 7.638876251334268375e+01 5.415990239916496307e+01 8.698949891531503553e+00 -5.575324657188225075e+01 3.600256771713387138e+01 7.099275342754022944e+00 3.705527129888460891e+00 2.527192413743334853e+01 6.258428425891482050e+01 1.782359315035826910e+02 -4.060770562676117379e+01 -5.444802078235589704e+01 6.990509345654913886e+01 1.211062014524090671e+02 -1.340062979282638445e+01 9.618989051351320541e+01 1.088219372183515219e+02 2.205593151711555038e+02 -9.060475151900904223e+01 -1.284542128935222536e+02 -2.996253259662856294e+01 6.500776695368310243e+01 -1.061769195072197824e+01 1.124289543391392954e+02 3.894691371215040476e+01 -1.701977859367236476e+02 4.716277435770765436e+01 -9.361267710550974641e+01 -1.415774459200088131e+02 1.407196970182349105e+02 -7.949943240764329744e+01 6.182651973566648707e+01 1.163749666501825999e+02 -1.036347249362239040e+02 2.451583339626484204e+01 -7.546307175627966046e+01 4.206849006900120003e+01 -1.197417159869542758e+02 6.433246956066281541e+01 5.712349700033339417e+01 4.158269653161942081e+00 8.791688826038389948e+01 -1.598986584905524353e+02 7.983619217790990774e+01 -3.049476762248437822e+01 -1.752824005056005205e+02 9.798069471725682433e+01 2.540626606043392854e+01 -2.035845084878019975e+02 2.440268024193120766e+02 -5.417558494257654900e-01 1.091342583774132748e+02 -1.251367899948028537e+02 -2.015008900036753516e+02 -9.681654426397439295e+01 2.539617676021961756e+00 1.483080922820749379e+02 4.208747213462326719e+00 -9.914432133127253621e+01 5.236307532094269135e+01 1.421958222624749340e+02 6.745453912829670173e+01 -5.371984212001556358e+01 -6.135172936558227974e+01 8.768810022100942092e+01 3.194732055059077425e+01 -2.028424814095096451e+02 -2.151647012740169984e+01 1.754028842631551299e+02 1.025921996840608301e+02 -5.945028910352971963e+01 -1.160045750523906634e+02 -4.429696950062942307e+01 -4.988530742722206668e+01 -1.187558495035354582e+02 -1.923399836255671502e+01 -4.738493867182104680e+01 -1.178771949133066244e+02 -1.367817171879943885e+02 -2.790221716273447683e+01 -1.303581686030178446e+02 -1.387393186657782564e+02 -3.977046094200829884e+01 -5.746215737032120074e+01 -1.151269247688949520e+02 2.001550638742380102e+02 1.133395427895714747e+01 -3.026150187074926734e+01 -1.830378774322587532e+01 8.458459549382531861e+01 1.680115175992248311e+01 2.693387004805086704e+01 -2.294888496425995683e+01 -4.964317687289992875e+01 2.250774310057811434e+01 -1.562776499372360206e+02 -1.711983823563413694e+02 -9.730688204171939049e+01 -2.052095937449793439e+02 -9.639143648378211537e+01 9.231922975285766597e+01 6.599341364482557992e+01 -2.804253542896659113e+01 6.534913943213618381e+01 -1.683017446331358826e+02 -4.381593893737543510e+01 -1.248464196246004292e+02 -7.178794840276160016e+01 2.267461034994381635e+02 -2.207427179238198391e+02 2.207288544315090917e+02 2.692159436799966699e+01 -6.076597919823139904e+01 9.925711949125599176e+01 1.334348051511248343e+02 -5.580458795563005481e+01 -2.190186160663226360e+02 -1.603323625523073588e+02 1.099476150709086966e+02 9.007579625596993367e+01 -1.458238182516680297e+02 3.439782049017013321e+01 -4.261913674654132933e+01 -8.322712699612330312e+01 -3.056055967771167303e+01 -5.897947543237749812e+01 -9.298061670389760991e+01 -3.656564322680173262e+01 4.755616944875698415e+00 -3.523309650250887159e+01 -4.599385470254613306e-01 -1.549610104851105241e+01 9.896100676385518113e+01 1.366095774049752265e+02 1.417393328625368909e+01 1.803527283791443026e+01 -6.781272904493360443e+01 -2.107275740244694759e+02 3.641152759313848009e+01 -9.867190571352635686e+01 2.775627374871742958e+01 -8.872269924162118571e+00 1.041271328068980928e+00 7.758566847079345052e+01 1.310390278350094775e+02 -7.573452717380676802e+01 4.085987183418647817e+01 -2.072762699278735283e+02 1.037369860139134303e+01 7.608567082595175890e+00 -1.317540687939001600e+02 -3.628891547910185977e+01 -4.766285194272788317e+01 5.142982175215893292e+00 -1.099652141508474301e+02 2.910018736069824996e+01 -1.050169840466831488e+02 6.042300163152274450e+01 7.291935536737416612e+01 3.963253368299125157e+01 -3.120672459850815628e+01 1.154931932308865044e+02 6.562041768861203650e+01 8.598640155390256723e+01 -7.199352162301562430e+01 2.187664276447060274e+01 1.374880538267971701e+02 -6.281628414342494438e+01 -7.422651910958996346e+00 3.439104456066402093e+01 -1.379525006471928066e+02 1.051382569674169076e+02 9.624565614007407532e+01 -1.086027547982293981e+02 -8.848293117029000143e+01 -5.962128659122583940e+01 -4.884436383558588091e+01 -1.722121707336600025e+02 -1.460198971714070524e+02 -1.422435064921066896e+02 1.134598844794068953e+02 6.413364920113022549e+01 1.712336373532328935e+02 7.711121405036306165e+00 -9.211138560108945228e+01 2.007048733225608927e+01 1.485310732024560565e+01 -6.808821909597361355e+01 7.945749074721653926e+01 1.266802408045384851e+02 1.076290523153753576e+01 1.539227320960225143e+02 2.417708643367470600e+01 1.190434143225076156e+02 1.622768799337579182e+01 -2.228400537277710782e+02 2.341928871260526250e+02 -5.248036325754452491e+01 -1.599741371102418270e+02 -7.204403360836039383e+01 -4.609995907952452399e+01 4.406830659530795202e+01 2.728096785807994351e+01 4.873617630150305757e+01 -7.905223392686804118e+01 1.304142808140143757e+02 -9.190737216020046674e+01 -7.464900389291892147e+00 1.517903774354715551e+02 1.167887483165985998e+02 6.169947894258648091e+01 -1.883970344017560308e+02 2.706281467571793087e+01 1.494003077938234867e+02 2.493735015587126469e+01 1.037388334006756878e+02 1.131155891635936968e+02 -2.244681125618733688e+02 8.168539758280020635e+01 -6.131530000341505371e+01 -2.386475152522593532e+02 9.385660735925242193e+01 2.606475884254554387e+01 -1.287811079284431628e+02 -6.172624007586354367e+01 1.461475079975209610e+02 1.550174339893106037e+02 -7.952714878903434226e+01 -1.339743694812491128e+02 -8.740360721052221038e+01 -1.735622403501269275e+02 2.043391071839153028e+01 3.956755029788418909e+01 -1.761883571295658513e+01 -1.288996267027013509e+01 -9.314930584371734312e+01 -9.200593145401862216e+01 -2.559911599988885555e+01 1.387926854786278454e+02 1.411531472393525632e+02 8.397080313793941286e+01 1.003477475846173945e+02 -8.126503056343649689e+01 -1.862683443540983035e+02 -1.369060186161019033e+01 -2.393363088728030874e+01 -7.309621157481147691e+01 1.558775152305130085e+00 7.527516342558115525e+01 -5.452162077219355751e+01 2.530437143516694576e+01 8.152826948333326129e+01 7.217441200681948033e+01 1.137855135093811043e+02 -1.536512568529506382e+02 4.083145761362163029e+01 8.579147169022512287e+01 9.758188690066620552e+01 6.085800142118469580e+01 -1.063188225276955023e+02 1.410311621729222793e+02 1.312266783468284643e+02 9.867126536965861305e+01 1.045459130018707157e+02 -8.675208272757605243e+01 -1.533131894403261164e+01 -1.328529372902114503e+01 7.938140372752944529e+01 6.689487720273029936e+01 5.757745087351422342e+01 1.005171621209867396e+02 1.199075035935714908e+02 1.274803799129671802e+02 -6.691658457542291671e+01 8.297580315715303811e+01 6.721011882466721943e+01 -1.211561230817053598e+02 1.355175752249852792e+02 -1.035600666344214993e+01 -2.873990137292694413e+01 2.052022267254456551e+02 9.108648710447913288e+01 1.278057957173141546e+02 -1.486745699142932438e+02 -1.625572455353899386e+02 -1.585223103495396799e+02 -1.259509401498945067e+02 -4.565127164840740193e+01 1.132872644558015764e+02 -1.739065967313755721e+02 3.358426530127587739e+01 1.489357442499685646e+02 -6.121826058015469840e+01 -9.429595202568735601e+01 -3.622098023730924865e+01 1.403325889394245678e+02 2.347555454423229264e+02 -6.876996273166558638e+01 2.045692691178083678e+01 -2.863933440402642461e+01 7.075976621188598870e+01 6.230284635992826736e+01 -2.203776782582528426e+02 -9.163940426605587675e+01 1.422081885462746982e+02 1.445540004479810534e+02 9.776029083135343001e+01 -5.147014989203995583e+01 -7.843384658825372924e+01 -4.701143004328780250e+01 -1.825678788212847223e+02 7.365515693367203198e+01 -2.658894769707545791e+01 1.721937053496585861e+02 -2.888186872689448492e+01 -3.255146647173145311e+02 1.499861713563402361e+02 5.215691644542042837e+01 -1.221621809581942699e+02 -2.288660419301946902e+01 3.658163896088003497e+01 -2.150343727655260864e+02 -1.183840186059356938e+02 -1.134537227197702407e+02 -5.850640897381794758e+01 6.508870544278239834e+01 -1.707043072116030942e+02 1.118637200928483395e+02 -5.626652912292594522e+01 2.994872760811422729e+00 -1.382408097771978817e+02 -1.072708405338723452e+02 1.822545961139140616e+02 8.980843098633522459e+01 -4.377850806285961482e+01 3.856798937862641452e+01 -2.910161913505310949e+01 4.473695613926153669e+01 -1.084566811240566864e+02 1.023922219479450177e+02 5.239943207073326192e+01 -1.233162269904862995e+02 1.210909782100445682e+02 -5.099859536115679504e+01 1.036414490289669317e+02 -5.126623921622449132e+01 9.171107982707799522e+01 -1.591687313185891242e+02 1.480150650485537085e+02 2.571410394581039682e+01 1.044014589795829409e+02 1.353111170669253056e+02 -1.521693866491685014e+02 -8.913531315387008647e+01 -1.096224610133665607e+02 6.943091573638453440e+01 -1.778514056956631180e+02 1.571793585437181093e+02 1.478758229183877688e+02 5.502288547577573041e+01 -8.814292632411107320e+01 5.922780314487071962e+01 -1.113731298875962352e+02 -1.140673291273447809e+01 3.635504208409318494e+01 -1.908256773281999585e+02 -8.477538681030196699e+01 -1.405986695003748821e+01 1.062021792868153369e+02 -5.214342281829546266e+01 1.128816854207244234e+02 -6.687069787661286568e+01 -2.190886086504366688e+02 -1.112996351015796250e+02 -3.546676888198867772e+01 -6.257511001194267664e+01 3.130474856363466429e+01 5.335378066040637890e+01 6.618776603816335147e+00 2.622101018712118758e+01 -1.218933044098093745e+02 5.591926867575681115e+01 3.391823056457743490e+01 -7.510669900526848153e+01 9.604183259570250542e+00 5.850321730463545578e+01 -9.925466601761671370e+01 -5.726224416884120672e+01 -2.507771838136609688e+01 1.015639700909758574e+02 -1.781731464229292072e+01 4.359874778117482030e+00 -2.372149482600184740e+02 -9.892043466748890523e+01 1.029314981836941314e+02 -9.293881811198984622e+01 3.262360161265338832e+01 3.234320545438725247e+01 3.953021258269855309e+01 6.879217254952116889e+01 -1.847201394534519352e+02 1.498455831271143381e+02 8.473307314188792816e+01 -7.795536140599346631e+00 -8.412906846842504649e+01 1.165800574732542430e+02 6.464463577722158050e+01 -2.093222449009428203e+02 -5.247727510024220976e+01 -8.502453736036019905e+01 -5.402477936816437420e+01 -6.453690708364359807e+01 -1.032047848428480989e+02 -6.288184173054146697e+01 1.993591500295815990e+02 -1.778987032419140917e+02 6.821593785366843576e+01 2.888523823055859197e+01 -7.827365175859949886e+01 1.079445096421792982e+01 -4.102430258471966340e+01 3.555976109551358011e+00 -1.000927340436975044e+02 -2.057219162601180642e+02 1.915393348286833231e+01 4.367677731421034082e+01 -1.333564386202020735e+01 -9.465355231594555718e+00 -4.143825286138199715e+01 -1.978718558725625201e+02 -3.194934803548537516e+01 -6.810484457582444406e+01 1.458817365450825143e+01 -1.625316487258179521e+01 9.427687987494053345e+01 -6.566059901575741264e+01 -1.080518479431815422e+02 -3.729502865283805590e+01 -9.433029232765543171e+00 4.748915771930964524e+01 -2.309828592738992015e+01 -7.673278903181942212e+01 -1.652809645147694084e+01 2.093617683623489611e+01 4.949807777151448107e+01 -1.188385876750408414e+02 -1.448954378693040894e+02 2.400224630743979617e+02 -2.274489219730613172e+02 -7.918767544112510848e+01 -4.832909501685062992e+01 1.457837150787019596e+02 6.596322169784073708e+01 2.384608482211843352e+02 2.550765329148284195e+02 -6.493832195837859445e+01 1.349858582089413233e+02 -5.823120858466791816e+01 -4.252366358850355255e+01 -1.049498731608174893e+02 -8.323196667230857315e+01 -7.255666620669794042e+01 -9.273129259676248637e+01 -2.540934978814020440e+02 -2.823978584341373335e+02 1.404343641099367517e+02 -2.763795018195789055e+01 5.551778395418040901e+01 1.363627692570748025e+02
