# 
#                 ----------------------------------------------------
#                 Data from a 3D direct N-body simulation. 
# 
#                 rows are i-particle; 
#                 coumns are :mass, tag, x ,y, z, vx, vy, vz, ax, ay, az
# 
#                 NTHU, Computational Physics Lab
# 
#                 ----------------------------------------------------
#                 Time = 8.999999999999853
1.000000000000000000e+00 2.000000000000000000e+00 3.000000000000000000e+00 4.000000000000000000e+00 5.000000000000000000e+00 6.000000000000000000e+00 7.000000000000000000e+00 8.000000000000000000e+00 9.000000000000000000e+00 1.000000000000000000e+01 1.100000000000000000e+01 1.200000000000000000e+01 1.300000000000000000e+01 1.400000000000000000e+01 1.500000000000000000e+01 1.600000000000000000e+01 1.700000000000000000e+01 1.800000000000000000e+01 1.900000000000000000e+01 2.000000000000000000e+01 2.100000000000000000e+01 2.200000000000000000e+01 2.300000000000000000e+01 2.400000000000000000e+01 2.500000000000000000e+01 2.600000000000000000e+01 2.700000000000000000e+01 2.800000000000000000e+01 2.900000000000000000e+01 3.000000000000000000e+01 3.100000000000000000e+01 3.200000000000000000e+01 3.300000000000000000e+01 3.400000000000000000e+01 3.500000000000000000e+01 3.600000000000000000e+01 3.700000000000000000e+01 3.800000000000000000e+01 3.900000000000000000e+01 4.000000000000000000e+01 4.100000000000000000e+01 4.200000000000000000e+01 4.300000000000000000e+01 4.400000000000000000e+01 4.500000000000000000e+01 4.600000000000000000e+01 4.700000000000000000e+01 4.800000000000000000e+01 4.900000000000000000e+01 5.000000000000000000e+01 5.100000000000000000e+01 5.200000000000000000e+01 5.300000000000000000e+01 5.400000000000000000e+01 5.500000000000000000e+01 5.600000000000000000e+01 5.700000000000000000e+01 5.800000000000000000e+01 5.900000000000000000e+01 6.000000000000000000e+01 6.100000000000000000e+01 6.200000000000000000e+01 6.300000000000000000e+01 6.400000000000000000e+01 6.500000000000000000e+01 6.600000000000000000e+01 6.700000000000000000e+01 6.800000000000000000e+01 6.900000000000000000e+01 7.000000000000000000e+01 7.100000000000000000e+01 7.200000000000000000e+01 7.300000000000000000e+01 7.400000000000000000e+01 7.500000000000000000e+01 7.600000000000000000e+01 7.700000000000000000e+01 7.800000000000000000e+01 7.900000000000000000e+01 8.000000000000000000e+01 8.100000000000000000e+01 8.200000000000000000e+01 8.300000000000000000e+01 8.400000000000000000e+01 8.500000000000000000e+01 8.600000000000000000e+01 8.700000000000000000e+01 8.800000000000000000e+01 8.900000000000000000e+01 9.000000000000000000e+01 9.100000000000000000e+01 9.200000000000000000e+01 9.300000000000000000e+01 9.400000000000000000e+01 9.500000000000000000e+01 9.600000000000000000e+01 9.700000000000000000e+01 9.800000000000000000e+01 9.900000000000000000e+01 1.000000000000000000e+02 1.010000000000000000e+02 1.020000000000000000e+02 1.030000000000000000e+02 1.040000000000000000e+02 1.050000000000000000e+02 1.060000000000000000e+02 1.070000000000000000e+02 1.080000000000000000e+02 1.090000000000000000e+02 1.100000000000000000e+02 1.110000000000000000e+02 1.120000000000000000e+02 1.130000000000000000e+02 1.140000000000000000e+02 1.150000000000000000e+02 1.160000000000000000e+02 1.170000000000000000e+02 1.180000000000000000e+02 1.190000000000000000e+02 1.200000000000000000e+02 1.210000000000000000e+02 1.220000000000000000e+02 1.230000000000000000e+02 1.240000000000000000e+02 1.250000000000000000e+02 1.260000000000000000e+02 1.270000000000000000e+02 1.280000000000000000e+02 1.290000000000000000e+02 1.300000000000000000e+02 1.310000000000000000e+02 1.320000000000000000e+02 1.330000000000000000e+02 1.340000000000000000e+02 1.350000000000000000e+02 1.360000000000000000e+02 1.370000000000000000e+02 1.380000000000000000e+02 1.390000000000000000e+02 1.400000000000000000e+02 1.410000000000000000e+02 1.420000000000000000e+02 1.430000000000000000e+02 1.440000000000000000e+02 1.450000000000000000e+02 1.460000000000000000e+02 1.470000000000000000e+02 1.480000000000000000e+02 1.490000000000000000e+02 1.500000000000000000e+02 1.510000000000000000e+02 1.520000000000000000e+02 1.530000000000000000e+02 1.540000000000000000e+02 1.550000000000000000e+02 1.560000000000000000e+02 1.570000000000000000e+02 1.580000000000000000e+02 1.590000000000000000e+02 1.600000000000000000e+02 1.610000000000000000e+02 1.620000000000000000e+02 1.630000000000000000e+02 1.640000000000000000e+02 1.650000000000000000e+02 1.660000000000000000e+02 1.670000000000000000e+02 1.680000000000000000e+02 1.690000000000000000e+02 1.700000000000000000e+02 1.710000000000000000e+02 1.720000000000000000e+02 1.730000000000000000e+02 1.740000000000000000e+02 1.750000000000000000e+02 1.760000000000000000e+02 1.770000000000000000e+02 1.780000000000000000e+02 1.790000000000000000e+02 1.800000000000000000e+02 1.810000000000000000e+02 1.820000000000000000e+02 1.830000000000000000e+02 1.840000000000000000e+02 1.850000000000000000e+02 1.860000000000000000e+02 1.870000000000000000e+02 1.880000000000000000e+02 1.890000000000000000e+02 1.900000000000000000e+02 1.910000000000000000e+02 1.920000000000000000e+02 1.930000000000000000e+02 1.940000000000000000e+02 1.950000000000000000e+02 1.960000000000000000e+02 1.970000000000000000e+02 1.980000000000000000e+02 1.990000000000000000e+02 2.000000000000000000e+02 2.010000000000000000e+02 2.020000000000000000e+02 2.030000000000000000e+02 2.040000000000000000e+02 2.050000000000000000e+02 2.060000000000000000e+02 2.070000000000000000e+02 2.080000000000000000e+02 2.090000000000000000e+02 2.100000000000000000e+02 2.110000000000000000e+02 2.120000000000000000e+02 2.130000000000000000e+02 2.140000000000000000e+02 2.150000000000000000e+02 2.160000000000000000e+02 2.170000000000000000e+02 2.180000000000000000e+02 2.190000000000000000e+02 2.200000000000000000e+02 2.210000000000000000e+02 2.220000000000000000e+02 2.230000000000000000e+02 2.240000000000000000e+02 2.250000000000000000e+02 2.260000000000000000e+02 2.270000000000000000e+02 2.280000000000000000e+02 2.290000000000000000e+02 2.300000000000000000e+02 2.310000000000000000e+02 2.320000000000000000e+02 2.330000000000000000e+02 2.340000000000000000e+02 2.350000000000000000e+02 2.360000000000000000e+02 2.370000000000000000e+02 2.380000000000000000e+02 2.390000000000000000e+02 2.400000000000000000e+02 2.410000000000000000e+02 2.420000000000000000e+02 2.430000000000000000e+02 2.440000000000000000e+02 2.450000000000000000e+02 2.460000000000000000e+02 2.470000000000000000e+02 2.480000000000000000e+02 2.490000000000000000e+02 2.500000000000000000e+02 2.510000000000000000e+02 2.520000000000000000e+02 2.530000000000000000e+02 2.540000000000000000e+02 2.550000000000000000e+02 2.560000000000000000e+02 2.570000000000000000e+02 2.580000000000000000e+02 2.590000000000000000e+02 2.600000000000000000e+02 2.610000000000000000e+02 2.620000000000000000e+02 2.630000000000000000e+02 2.640000000000000000e+02 2.650000000000000000e+02 2.660000000000000000e+02 2.670000000000000000e+02 2.680000000000000000e+02 2.690000000000000000e+02 2.700000000000000000e+02 2.710000000000000000e+02 2.720000000000000000e+02 2.730000000000000000e+02 2.740000000000000000e+02 2.750000000000000000e+02 2.760000000000000000e+02 2.770000000000000000e+02 2.780000000000000000e+02 2.790000000000000000e+02 2.800000000000000000e+02 2.810000000000000000e+02 2.820000000000000000e+02 2.830000000000000000e+02 2.840000000000000000e+02 2.850000000000000000e+02 2.860000000000000000e+02 2.870000000000000000e+02 2.880000000000000000e+02 2.890000000000000000e+02 2.900000000000000000e+02 2.910000000000000000e+02 2.920000000000000000e+02 2.930000000000000000e+02 2.940000000000000000e+02 2.950000000000000000e+02 2.960000000000000000e+02 2.970000000000000000e+02 2.980000000000000000e+02 2.990000000000000000e+02 3.000000000000000000e+02 3.010000000000000000e+02 3.020000000000000000e+02 3.030000000000000000e+02 3.040000000000000000e+02 3.050000000000000000e+02 3.060000000000000000e+02 3.070000000000000000e+02 3.080000000000000000e+02 3.090000000000000000e+02 3.100000000000000000e+02 3.110000000000000000e+02 3.120000000000000000e+02 3.130000000000000000e+02 3.140000000000000000e+02 3.150000000000000000e+02 3.160000000000000000e+02 3.170000000000000000e+02 3.180000000000000000e+02 3.190000000000000000e+02 3.200000000000000000e+02 3.210000000000000000e+02 3.220000000000000000e+02 3.230000000000000000e+02 3.240000000000000000e+02 3.250000000000000000e+02 3.260000000000000000e+02 3.270000000000000000e+02 3.280000000000000000e+02 3.290000000000000000e+02 3.300000000000000000e+02 3.310000000000000000e+02 3.320000000000000000e+02 3.330000000000000000e+02 3.340000000000000000e+02 3.350000000000000000e+02 3.360000000000000000e+02 3.370000000000000000e+02 3.380000000000000000e+02 3.390000000000000000e+02 3.400000000000000000e+02 3.410000000000000000e+02 3.420000000000000000e+02 3.430000000000000000e+02 3.440000000000000000e+02 3.450000000000000000e+02 3.460000000000000000e+02 3.470000000000000000e+02 3.480000000000000000e+02 3.490000000000000000e+02 3.500000000000000000e+02 3.510000000000000000e+02 3.520000000000000000e+02 3.530000000000000000e+02 3.540000000000000000e+02 3.550000000000000000e+02 3.560000000000000000e+02 3.570000000000000000e+02 3.580000000000000000e+02 3.590000000000000000e+02 3.600000000000000000e+02 3.610000000000000000e+02 3.620000000000000000e+02 3.630000000000000000e+02 3.640000000000000000e+02 3.650000000000000000e+02 3.660000000000000000e+02 3.670000000000000000e+02 3.680000000000000000e+02 3.690000000000000000e+02 3.700000000000000000e+02 3.710000000000000000e+02 3.720000000000000000e+02 3.730000000000000000e+02 3.740000000000000000e+02 3.750000000000000000e+02 3.760000000000000000e+02 3.770000000000000000e+02 3.780000000000000000e+02 3.790000000000000000e+02 3.800000000000000000e+02 3.810000000000000000e+02 3.820000000000000000e+02 3.830000000000000000e+02 3.840000000000000000e+02 3.850000000000000000e+02 3.860000000000000000e+02 3.870000000000000000e+02 3.880000000000000000e+02 3.890000000000000000e+02 3.900000000000000000e+02 3.910000000000000000e+02 3.920000000000000000e+02 3.930000000000000000e+02 3.940000000000000000e+02 3.950000000000000000e+02 3.960000000000000000e+02 3.970000000000000000e+02 3.980000000000000000e+02 3.990000000000000000e+02 4.000000000000000000e+02 4.010000000000000000e+02 4.020000000000000000e+02 4.030000000000000000e+02 4.040000000000000000e+02 4.050000000000000000e+02 4.060000000000000000e+02 4.070000000000000000e+02 4.080000000000000000e+02 4.090000000000000000e+02 4.100000000000000000e+02 4.110000000000000000e+02 4.120000000000000000e+02 4.130000000000000000e+02 4.140000000000000000e+02 4.150000000000000000e+02 4.160000000000000000e+02 4.170000000000000000e+02 4.180000000000000000e+02 4.190000000000000000e+02 4.200000000000000000e+02 4.210000000000000000e+02 4.220000000000000000e+02 4.230000000000000000e+02 4.240000000000000000e+02 4.250000000000000000e+02 4.260000000000000000e+02 4.270000000000000000e+02 4.280000000000000000e+02 4.290000000000000000e+02 4.300000000000000000e+02 4.310000000000000000e+02 4.320000000000000000e+02 4.330000000000000000e+02 4.340000000000000000e+02 4.350000000000000000e+02 4.360000000000000000e+02 4.370000000000000000e+02 4.380000000000000000e+02 4.390000000000000000e+02 4.400000000000000000e+02 4.410000000000000000e+02 4.420000000000000000e+02 4.430000000000000000e+02 4.440000000000000000e+02 4.450000000000000000e+02 4.460000000000000000e+02 4.470000000000000000e+02 4.480000000000000000e+02 4.490000000000000000e+02 4.500000000000000000e+02 4.510000000000000000e+02 4.520000000000000000e+02 4.530000000000000000e+02 4.540000000000000000e+02 4.550000000000000000e+02 4.560000000000000000e+02 4.570000000000000000e+02 4.580000000000000000e+02 4.590000000000000000e+02 4.600000000000000000e+02 4.610000000000000000e+02 4.620000000000000000e+02 4.630000000000000000e+02 4.640000000000000000e+02 4.650000000000000000e+02 4.660000000000000000e+02 4.670000000000000000e+02 4.680000000000000000e+02 4.690000000000000000e+02 4.700000000000000000e+02 4.710000000000000000e+02 4.720000000000000000e+02 4.730000000000000000e+02 4.740000000000000000e+02 4.750000000000000000e+02 4.760000000000000000e+02 4.770000000000000000e+02 4.780000000000000000e+02 4.790000000000000000e+02 4.800000000000000000e+02 4.810000000000000000e+02 4.820000000000000000e+02 4.830000000000000000e+02 4.840000000000000000e+02 4.850000000000000000e+02 4.860000000000000000e+02 4.870000000000000000e+02 4.880000000000000000e+02 4.890000000000000000e+02 4.900000000000000000e+02 4.910000000000000000e+02 4.920000000000000000e+02 4.930000000000000000e+02 4.940000000000000000e+02 4.950000000000000000e+02 4.960000000000000000e+02 4.970000000000000000e+02 4.980000000000000000e+02 4.990000000000000000e+02 5.000000000000000000e+02 5.010000000000000000e+02 5.020000000000000000e+02 5.030000000000000000e+02 5.040000000000000000e+02 5.050000000000000000e+02 5.060000000000000000e+02 5.070000000000000000e+02 5.080000000000000000e+02 5.090000000000000000e+02 5.100000000000000000e+02 5.110000000000000000e+02 5.120000000000000000e+02 5.130000000000000000e+02 5.140000000000000000e+02 5.150000000000000000e+02 5.160000000000000000e+02 5.170000000000000000e+02 5.180000000000000000e+02 5.190000000000000000e+02 5.200000000000000000e+02 5.210000000000000000e+02 5.220000000000000000e+02 5.230000000000000000e+02 5.240000000000000000e+02 5.250000000000000000e+02 5.260000000000000000e+02 5.270000000000000000e+02 5.280000000000000000e+02 5.290000000000000000e+02 5.300000000000000000e+02 5.310000000000000000e+02 5.320000000000000000e+02 5.330000000000000000e+02 5.340000000000000000e+02 5.350000000000000000e+02 5.360000000000000000e+02 5.370000000000000000e+02 5.380000000000000000e+02 5.390000000000000000e+02 5.400000000000000000e+02 5.410000000000000000e+02 5.420000000000000000e+02 5.430000000000000000e+02 5.440000000000000000e+02 5.450000000000000000e+02 5.460000000000000000e+02 5.470000000000000000e+02 5.480000000000000000e+02 5.490000000000000000e+02 5.500000000000000000e+02 5.510000000000000000e+02 5.520000000000000000e+02 5.530000000000000000e+02 5.540000000000000000e+02 5.550000000000000000e+02 5.560000000000000000e+02 5.570000000000000000e+02 5.580000000000000000e+02 5.590000000000000000e+02 5.600000000000000000e+02 5.610000000000000000e+02 5.620000000000000000e+02 5.630000000000000000e+02 5.640000000000000000e+02 5.650000000000000000e+02 5.660000000000000000e+02 5.670000000000000000e+02 5.680000000000000000e+02 5.690000000000000000e+02 5.700000000000000000e+02 5.710000000000000000e+02 5.720000000000000000e+02 5.730000000000000000e+02 5.740000000000000000e+02 5.750000000000000000e+02 5.760000000000000000e+02 5.770000000000000000e+02 5.780000000000000000e+02 5.790000000000000000e+02 5.800000000000000000e+02 5.810000000000000000e+02 5.820000000000000000e+02 5.830000000000000000e+02 5.840000000000000000e+02 5.850000000000000000e+02 5.860000000000000000e+02 5.870000000000000000e+02 5.880000000000000000e+02 5.890000000000000000e+02 5.900000000000000000e+02 5.910000000000000000e+02 5.920000000000000000e+02 5.930000000000000000e+02 5.940000000000000000e+02 5.950000000000000000e+02 5.960000000000000000e+02 5.970000000000000000e+02 5.980000000000000000e+02 5.990000000000000000e+02 6.000000000000000000e+02 6.010000000000000000e+02 6.020000000000000000e+02 6.030000000000000000e+02 6.040000000000000000e+02 6.050000000000000000e+02 6.060000000000000000e+02 6.070000000000000000e+02 6.080000000000000000e+02 6.090000000000000000e+02 6.100000000000000000e+02 6.110000000000000000e+02 6.120000000000000000e+02 6.130000000000000000e+02 6.140000000000000000e+02 6.150000000000000000e+02 6.160000000000000000e+02 6.170000000000000000e+02 6.180000000000000000e+02 6.190000000000000000e+02 6.200000000000000000e+02 6.210000000000000000e+02 6.220000000000000000e+02 6.230000000000000000e+02 6.240000000000000000e+02 6.250000000000000000e+02 6.260000000000000000e+02 6.270000000000000000e+02 6.280000000000000000e+02 6.290000000000000000e+02 6.300000000000000000e+02 6.310000000000000000e+02 6.320000000000000000e+02 6.330000000000000000e+02 6.340000000000000000e+02 6.350000000000000000e+02 6.360000000000000000e+02 6.370000000000000000e+02 6.380000000000000000e+02 6.390000000000000000e+02 6.400000000000000000e+02 6.410000000000000000e+02 6.420000000000000000e+02 6.430000000000000000e+02 6.440000000000000000e+02 6.450000000000000000e+02 6.460000000000000000e+02 6.470000000000000000e+02 6.480000000000000000e+02 6.490000000000000000e+02 6.500000000000000000e+02 6.510000000000000000e+02 6.520000000000000000e+02 6.530000000000000000e+02 6.540000000000000000e+02 6.550000000000000000e+02 6.560000000000000000e+02 6.570000000000000000e+02 6.580000000000000000e+02 6.590000000000000000e+02 6.600000000000000000e+02 6.610000000000000000e+02 6.620000000000000000e+02 6.630000000000000000e+02 6.640000000000000000e+02 6.650000000000000000e+02 6.660000000000000000e+02 6.670000000000000000e+02 6.680000000000000000e+02 6.690000000000000000e+02 6.700000000000000000e+02 6.710000000000000000e+02 6.720000000000000000e+02 6.730000000000000000e+02 6.740000000000000000e+02 6.750000000000000000e+02 6.760000000000000000e+02 6.770000000000000000e+02 6.780000000000000000e+02 6.790000000000000000e+02 6.800000000000000000e+02 6.810000000000000000e+02 6.820000000000000000e+02 6.830000000000000000e+02 6.840000000000000000e+02 6.850000000000000000e+02 6.860000000000000000e+02 6.870000000000000000e+02 6.880000000000000000e+02 6.890000000000000000e+02 6.900000000000000000e+02 6.910000000000000000e+02 6.920000000000000000e+02 6.930000000000000000e+02 6.940000000000000000e+02 6.950000000000000000e+02 6.960000000000000000e+02 6.970000000000000000e+02 6.980000000000000000e+02 6.990000000000000000e+02 7.000000000000000000e+02 7.010000000000000000e+02 7.020000000000000000e+02 7.030000000000000000e+02 7.040000000000000000e+02 7.050000000000000000e+02 7.060000000000000000e+02 7.070000000000000000e+02 7.080000000000000000e+02 7.090000000000000000e+02 7.100000000000000000e+02 7.110000000000000000e+02 7.120000000000000000e+02 7.130000000000000000e+02 7.140000000000000000e+02 7.150000000000000000e+02 7.160000000000000000e+02 7.170000000000000000e+02 7.180000000000000000e+02 7.190000000000000000e+02 7.200000000000000000e+02 7.210000000000000000e+02 7.220000000000000000e+02 7.230000000000000000e+02 7.240000000000000000e+02 7.250000000000000000e+02 7.260000000000000000e+02 7.270000000000000000e+02 7.280000000000000000e+02 7.290000000000000000e+02 7.300000000000000000e+02 7.310000000000000000e+02 7.320000000000000000e+02 7.330000000000000000e+02 7.340000000000000000e+02 7.350000000000000000e+02 7.360000000000000000e+02 7.370000000000000000e+02 7.380000000000000000e+02 7.390000000000000000e+02 7.400000000000000000e+02 7.410000000000000000e+02 7.420000000000000000e+02 7.430000000000000000e+02 7.440000000000000000e+02 7.450000000000000000e+02 7.460000000000000000e+02 7.470000000000000000e+02 7.480000000000000000e+02 7.490000000000000000e+02 7.500000000000000000e+02 7.510000000000000000e+02 7.520000000000000000e+02 7.530000000000000000e+02 7.540000000000000000e+02 7.550000000000000000e+02 7.560000000000000000e+02 7.570000000000000000e+02 7.580000000000000000e+02 7.590000000000000000e+02 7.600000000000000000e+02 7.610000000000000000e+02 7.620000000000000000e+02 7.630000000000000000e+02 7.640000000000000000e+02 7.650000000000000000e+02 7.660000000000000000e+02 7.670000000000000000e+02 7.680000000000000000e+02 7.690000000000000000e+02 7.700000000000000000e+02 7.710000000000000000e+02 7.720000000000000000e+02 7.730000000000000000e+02 7.740000000000000000e+02 7.750000000000000000e+02 7.760000000000000000e+02 7.770000000000000000e+02 7.780000000000000000e+02 7.790000000000000000e+02 7.800000000000000000e+02 7.810000000000000000e+02 7.820000000000000000e+02 7.830000000000000000e+02 7.840000000000000000e+02 7.850000000000000000e+02 7.860000000000000000e+02 7.870000000000000000e+02 7.880000000000000000e+02 7.890000000000000000e+02 7.900000000000000000e+02 7.910000000000000000e+02 7.920000000000000000e+02 7.930000000000000000e+02 7.940000000000000000e+02 7.950000000000000000e+02 7.960000000000000000e+02 7.970000000000000000e+02 7.980000000000000000e+02 7.990000000000000000e+02 8.000000000000000000e+02 8.010000000000000000e+02 8.020000000000000000e+02 8.030000000000000000e+02 8.040000000000000000e+02 8.050000000000000000e+02 8.060000000000000000e+02 8.070000000000000000e+02 8.080000000000000000e+02 8.090000000000000000e+02 8.100000000000000000e+02 8.110000000000000000e+02 8.120000000000000000e+02 8.130000000000000000e+02 8.140000000000000000e+02 8.150000000000000000e+02 8.160000000000000000e+02 8.170000000000000000e+02 8.180000000000000000e+02 8.190000000000000000e+02 8.200000000000000000e+02 8.210000000000000000e+02 8.220000000000000000e+02 8.230000000000000000e+02 8.240000000000000000e+02 8.250000000000000000e+02 8.260000000000000000e+02 8.270000000000000000e+02 8.280000000000000000e+02 8.290000000000000000e+02 8.300000000000000000e+02 8.310000000000000000e+02 8.320000000000000000e+02 8.330000000000000000e+02 8.340000000000000000e+02 8.350000000000000000e+02 8.360000000000000000e+02 8.370000000000000000e+02 8.380000000000000000e+02 8.390000000000000000e+02 8.400000000000000000e+02 8.410000000000000000e+02 8.420000000000000000e+02 8.430000000000000000e+02 8.440000000000000000e+02 8.450000000000000000e+02 8.460000000000000000e+02 8.470000000000000000e+02 8.480000000000000000e+02 8.490000000000000000e+02 8.500000000000000000e+02 8.510000000000000000e+02 8.520000000000000000e+02 8.530000000000000000e+02 8.540000000000000000e+02 8.550000000000000000e+02 8.560000000000000000e+02 8.570000000000000000e+02 8.580000000000000000e+02 8.590000000000000000e+02 8.600000000000000000e+02 8.610000000000000000e+02 8.620000000000000000e+02 8.630000000000000000e+02 8.640000000000000000e+02 8.650000000000000000e+02 8.660000000000000000e+02 8.670000000000000000e+02 8.680000000000000000e+02 8.690000000000000000e+02 8.700000000000000000e+02 8.710000000000000000e+02 8.720000000000000000e+02 8.730000000000000000e+02 8.740000000000000000e+02 8.750000000000000000e+02 8.760000000000000000e+02 8.770000000000000000e+02 8.780000000000000000e+02 8.790000000000000000e+02 8.800000000000000000e+02 8.810000000000000000e+02 8.820000000000000000e+02 8.830000000000000000e+02 8.840000000000000000e+02 8.850000000000000000e+02 8.860000000000000000e+02 8.870000000000000000e+02 8.880000000000000000e+02 8.890000000000000000e+02 8.900000000000000000e+02 8.910000000000000000e+02 8.920000000000000000e+02 8.930000000000000000e+02 8.940000000000000000e+02 8.950000000000000000e+02 8.960000000000000000e+02 8.970000000000000000e+02 8.980000000000000000e+02 8.990000000000000000e+02 9.000000000000000000e+02 9.010000000000000000e+02 9.020000000000000000e+02 9.030000000000000000e+02 9.040000000000000000e+02 9.050000000000000000e+02 9.060000000000000000e+02 9.070000000000000000e+02 9.080000000000000000e+02 9.090000000000000000e+02 9.100000000000000000e+02 9.110000000000000000e+02 9.120000000000000000e+02 9.130000000000000000e+02 9.140000000000000000e+02 9.150000000000000000e+02 9.160000000000000000e+02 9.170000000000000000e+02 9.180000000000000000e+02 9.190000000000000000e+02 9.200000000000000000e+02 9.210000000000000000e+02 9.220000000000000000e+02 9.230000000000000000e+02 9.240000000000000000e+02 9.250000000000000000e+02 9.260000000000000000e+02 9.270000000000000000e+02 9.280000000000000000e+02 9.290000000000000000e+02 9.300000000000000000e+02 9.310000000000000000e+02 9.320000000000000000e+02 9.330000000000000000e+02 9.340000000000000000e+02 9.350000000000000000e+02 9.360000000000000000e+02 9.370000000000000000e+02 9.380000000000000000e+02 9.390000000000000000e+02 9.400000000000000000e+02 9.410000000000000000e+02 9.420000000000000000e+02 9.430000000000000000e+02 9.440000000000000000e+02 9.450000000000000000e+02 9.460000000000000000e+02 9.470000000000000000e+02 9.480000000000000000e+02 9.490000000000000000e+02 9.500000000000000000e+02 9.510000000000000000e+02 9.520000000000000000e+02 9.530000000000000000e+02 9.540000000000000000e+02 9.550000000000000000e+02 9.560000000000000000e+02 9.570000000000000000e+02 9.580000000000000000e+02 9.590000000000000000e+02 9.600000000000000000e+02 9.610000000000000000e+02 9.620000000000000000e+02 9.630000000000000000e+02 9.640000000000000000e+02 9.650000000000000000e+02 9.660000000000000000e+02 9.670000000000000000e+02 9.680000000000000000e+02 9.690000000000000000e+02 9.700000000000000000e+02 9.710000000000000000e+02 9.720000000000000000e+02 9.730000000000000000e+02 9.740000000000000000e+02 9.750000000000000000e+02 9.760000000000000000e+02 9.770000000000000000e+02 9.780000000000000000e+02 9.790000000000000000e+02 9.800000000000000000e+02 9.810000000000000000e+02 9.820000000000000000e+02 9.830000000000000000e+02 9.840000000000000000e+02 9.850000000000000000e+02 9.860000000000000000e+02 9.870000000000000000e+02 9.880000000000000000e+02 9.890000000000000000e+02 9.900000000000000000e+02 9.910000000000000000e+02 9.920000000000000000e+02 9.930000000000000000e+02 9.940000000000000000e+02 9.950000000000000000e+02 9.960000000000000000e+02 9.970000000000000000e+02 9.980000000000000000e+02 9.990000000000000000e+02 1.000000000000000000e+03
1.000000000000000021e-02 1.000000000000000021e-02 1.000000000000000021e-02 1.000000000000000021e-02 1.000000000000000021e-02 1.000000000000000021e-02 1.000000000000000021e-02 1.000000000000000021e-02 1.000000000000000021e-02 1.000000000000000021e-02 1.000000000000000021e-02 1.000000000000000021e-02 1.000000000000000021e-02 1.000000000000000021e-02 1.000000000000000021e-02 1.000000000000000021e-02 1.000000000000000021e-02 1.000000000000000021e-02 1.000000000000000021e-02 1.000000000000000021e-02 1.000000000000000021e-02 1.000000000000000021e-02 1.000000000000000021e-02 1.000000000000000021e-02 1.000000000000000021e-02 1.000000000000000021e-02 1.000000000000000021e-02 1.000000000000000021e-02 1.000000000000000021e-02 1.000000000000000021e-02 1.000000000000000021e-02 1.000000000000000021e-02 1.000000000000000021e-02 1.000000000000000021e-02 1.000000000000000021e-02 1.000000000000000021e-02 1.000000000000000021e-02 1.000000000000000021e-02 1.000000000000000021e-02 1.000000000000000021e-02 1.000000000000000021e-02 1.000000000000000021e-02 1.000000000000000021e-02 1.000000000000000021e-02 1.000000000000000021e-02 1.000000000000000021e-02 1.000000000000000021e-02 1.000000000000000021e-02 1.000000000000000021e-02 1.000000000000000021e-02 1.000000000000000021e-02 1.000000000000000021e-02 1.000000000000000021e-02 1.000000000000000021e-02 1.000000000000000021e-02 1.000000000000000021e-02 1.000000000000000021e-02 1.000000000000000021e-02 1.000000000000000021e-02 1.000000000000000021e-02 1.000000000000000021e-02 1.000000000000000021e-02 1.000000000000000021e-02 1.000000000000000021e-02 1.000000000000000021e-02 1.000000000000000021e-02 1.000000000000000021e-02 1.000000000000000021e-02 1.000000000000000021e-02 1.000000000000000021e-02 1.000000000000000021e-02 1.000000000000000021e-02 1.000000000000000021e-02 1.000000000000000021e-02 1.000000000000000021e-02 1.000000000000000021e-02 1.000000000000000021e-02 1.000000000000000021e-02 1.000000000000000021e-02 1.000000000000000021e-02 1.000000000000000021e-02 1.000000000000000021e-02 1.000000000000000021e-02 1.000000000000000021e-02 1.000000000000000021e-02 1.000000000000000021e-02 1.000000000000000021e-02 1.000000000000000021e-02 1.000000000000000021e-02 1.000000000000000021e-02 1.000000000000000021e-02 1.000000000000000021e-02 1.000000000000000021e-02 1.000000000000000021e-02 1.000000000000000021e-02 1.000000000000000021e-02 1.000000000000000021e-02 1.000000000000000021e-02 1.000000000000000021e-02 1.000000000000000021e-02 1.000000000000000021e-02 1.000000000000000021e-02 1.000000000000000021e-02 1.000000000000000021e-02 1.000000000000000021e-02 1.000000000000000021e-02 1.000000000000000021e-02 1.000000000000000021e-02 1.000000000000000021e-02 1.000000000000000021e-02 1.000000000000000021e-02 1.000000000000000021e-02 1.000000000000000021e-02 1.000000000000000021e-02 1.000000000000000021e-02 1.000000000000000021e-02 1.000000000000000021e-02 1.000000000000000021e-02 1.000000000000000021e-02 1.000000000000000021e-02 1.000000000000000021e-02 1.000000000000000021e-02 1.000000000000000021e-02 1.000000000000000021e-02 1.000000000000000021e-02 1.000000000000000021e-02 1.000000000000000021e-02 1.000000000000000021e-02 1.000000000000000021e-02 1.000000000000000021e-02 1.000000000000000021e-02 1.000000000000000021e-02 1.000000000000000021e-02 1.000000000000000021e-02 1.000000000000000021e-02 1.000000000000000021e-02 1.000000000000000021e-02 1.000000000000000021e-02 1.000000000000000021e-02 1.000000000000000021e-02 1.000000000000000021e-02 1.000000000000000021e-02 1.000000000000000021e-02 1.000000000000000021e-02 1.000000000000000021e-02 1.000000000000000021e-02 1.000000000000000021e-02 1.000000000000000021e-02 1.000000000000000021e-02 1.000000000000000021e-02 1.000000000000000021e-02 1.000000000000000021e-02 1.000000000000000021e-02 1.000000000000000021e-02 1.000000000000000021e-02 1.000000000000000021e-02 1.000000000000000021e-02 1.000000000000000021e-02 1.000000000000000021e-02 1.000000000000000021e-02 1.000000000000000021e-02 1.000000000000000021e-02 1.000000000000000021e-02 1.000000000000000021e-02 1.000000000000000021e-02 1.000000000000000021e-02 1.000000000000000021e-02 1.000000000000000021e-02 1.000000000000000021e-02 1.000000000000000021e-02 1.000000000000000021e-02 1.000000000000000021e-02 1.000000000000000021e-02 1.000000000000000021e-02 1.000000000000000021e-02 1.000000000000000021e-02 1.000000000000000021e-02 1.000000000000000021e-02 1.000000000000000021e-02 1.000000000000000021e-02 1.000000000000000021e-02 1.000000000000000021e-02 1.000000000000000021e-02 1.000000000000000021e-02 1.000000000000000021e-02 1.000000000000000021e-02 1.000000000000000021e-02 1.000000000000000021e-02 1.000000000000000021e-02 1.000000000000000021e-02 1.000000000000000021e-02 1.000000000000000021e-02 1.000000000000000021e-02 1.000000000000000021e-02 1.000000000000000021e-02 1.000000000000000021e-02 1.000000000000000021e-02 1.000000000000000021e-02 1.000000000000000021e-02 1.000000000000000021e-02 1.000000000000000021e-02 1.000000000000000021e-02 1.000000000000000021e-02 1.000000000000000021e-02 1.000000000000000021e-02 1.000000000000000021e-02 1.000000000000000021e-02 1.000000000000000021e-02 1.000000000000000021e-02 1.000000000000000021e-02 1.000000000000000021e-02 1.000000000000000021e-02 1.000000000000000021e-02 1.000000000000000021e-02 1.000000000000000021e-02 1.000000000000000021e-02 1.000000000000000021e-02 1.000000000000000021e-02 1.000000000000000021e-02 1.000000000000000021e-02 1.000000000000000021e-02 1.000000000000000021e-02 1.000000000000000021e-02 1.000000000000000021e-02 1.000000000000000021e-02 1.000000000000000021e-02 1.000000000000000021e-02 1.000000000000000021e-02 1.000000000000000021e-02 1.000000000000000021e-02 1.000000000000000021e-02 1.000000000000000021e-02 1.000000000000000021e-02 1.000000000000000021e-02 1.000000000000000021e-02 1.000000000000000021e-02 1.000000000000000021e-02 1.000000000000000021e-02 1.000000000000000021e-02 1.000000000000000021e-02 1.000000000000000021e-02 1.000000000000000021e-02 1.000000000000000021e-02 1.000000000000000021e-02 1.000000000000000021e-02 1.000000000000000021e-02 1.000000000000000021e-02 1.000000000000000021e-02 1.000000000000000021e-02 1.000000000000000021e-02 1.000000000000000021e-02 1.000000000000000021e-02 1.000000000000000021e-02 1.000000000000000021e-02 1.000000000000000021e-02 1.000000000000000021e-02 1.000000000000000021e-02 1.000000000000000021e-02 1.000000000000000021e-02 1.000000000000000021e-02 1.000000000000000021e-02 1.000000000000000021e-02 1.000000000000000021e-02 1.000000000000000021e-02 1.000000000000000021e-02 1.000000000000000021e-02 1.000000000000000021e-02 1.000000000000000021e-02 1.000000000000000021e-02 1.000000000000000021e-02 1.000000000000000021e-02 1.000000000000000021e-02 1.000000000000000021e-02 1.000000000000000021e-02 1.000000000000000021e-02 1.000000000000000021e-02 1.000000000000000021e-02 1.000000000000000021e-02 1.000000000000000021e-02 1.000000000000000021e-02 1.000000000000000021e-02 1.000000000000000021e-02 1.000000000000000021e-02 1.000000000000000021e-02 1.000000000000000021e-02 1.000000000000000021e-02 1.000000000000000021e-02 1.000000000000000021e-02 1.000000000000000021e-02 1.000000000000000021e-02 1.000000000000000021e-02 1.000000000000000021e-02 1.000000000000000021e-02 1.000000000000000021e-02 1.000000000000000021e-02 1.000000000000000021e-02 1.000000000000000021e-02 1.000000000000000021e-02 1.000000000000000021e-02 1.000000000000000021e-02 1.000000000000000021e-02 1.000000000000000021e-02 1.000000000000000021e-02 1.000000000000000021e-02 1.000000000000000021e-02 1.000000000000000021e-02 1.000000000000000021e-02 1.000000000000000021e-02 1.000000000000000021e-02 1.000000000000000021e-02 1.000000000000000021e-02 1.000000000000000021e-02 1.000000000000000021e-02 1.000000000000000021e-02 1.000000000000000021e-02 1.000000000000000021e-02 1.000000000000000021e-02 1.000000000000000021e-02 1.000000000000000021e-02 1.000000000000000021e-02 1.000000000000000021e-02 1.000000000000000021e-02 1.000000000000000021e-02 1.000000000000000021e-02 1.000000000000000021e-02 1.000000000000000021e-02 1.000000000000000021e-02 1.000000000000000021e-02 1.000000000000000021e-02 1.000000000000000021e-02 1.000000000000000021e-02 1.000000000000000021e-02 1.000000000000000021e-02 1.000000000000000021e-02 1.000000000000000021e-02 1.000000000000000021e-02 1.000000000000000021e-02 1.000000000000000021e-02 1.000000000000000021e-02 1.000000000000000021e-02 1.000000000000000021e-02 1.000000000000000021e-02 1.000000000000000021e-02 1.000000000000000021e-02 1.000000000000000021e-02 1.000000000000000021e-02 1.000000000000000021e-02 1.000000000000000021e-02 1.000000000000000021e-02 1.000000000000000021e-02 1.000000000000000021e-02 1.000000000000000021e-02 1.000000000000000021e-02 1.000000000000000021e-02 1.000000000000000021e-02 1.000000000000000021e-02 1.000000000000000021e-02 1.000000000000000021e-02 1.000000000000000021e-02 1.000000000000000021e-02 1.000000000000000021e-02 1.000000000000000021e-02 1.000000000000000021e-02 1.000000000000000021e-02 1.000000000000000021e-02 1.000000000000000021e-02 1.000000000000000021e-02 1.000000000000000021e-02 1.000000000000000021e-02 1.000000000000000021e-02 1.000000000000000021e-02 1.000000000000000021e-02 1.000000000000000021e-02 1.000000000000000021e-02 1.000000000000000021e-02 1.000000000000000021e-02 1.000000000000000021e-02 1.000000000000000021e-02 1.000000000000000021e-02 1.000000000000000021e-02 1.000000000000000021e-02 1.000000000000000021e-02 1.000000000000000021e-02 1.000000000000000021e-02 1.000000000000000021e-02 1.000000000000000021e-02 1.000000000000000021e-02 1.000000000000000021e-02 1.000000000000000021e-02 1.000000000000000021e-02 1.000000000000000021e-02 1.000000000000000021e-02 1.000000000000000021e-02 1.000000000000000021e-02 1.000000000000000021e-02 1.000000000000000021e-02 1.000000000000000021e-02 1.000000000000000021e-02 1.000000000000000021e-02 1.000000000000000021e-02 1.000000000000000021e-02 1.000000000000000021e-02 1.000000000000000021e-02 1.000000000000000021e-02 1.000000000000000021e-02 1.000000000000000021e-02 1.000000000000000021e-02 1.000000000000000021e-02 1.000000000000000021e-02 1.000000000000000021e-02 1.000000000000000021e-02 1.000000000000000021e-02 1.000000000000000021e-02 1.000000000000000021e-02 1.000000000000000021e-02 1.000000000000000021e-02 1.000000000000000021e-02 1.000000000000000021e-02 1.000000000000000021e-02 1.000000000000000021e-02 1.000000000000000021e-02 1.000000000000000021e-02 1.000000000000000021e-02 1.000000000000000021e-02 1.000000000000000021e-02 1.000000000000000021e-02 1.000000000000000021e-02 1.000000000000000021e-02 1.000000000000000021e-02 1.000000000000000021e-02 1.000000000000000021e-02 1.000000000000000021e-02 1.000000000000000021e-02 1.000000000000000021e-02 1.000000000000000021e-02 1.000000000000000021e-02 1.000000000000000021e-02 1.000000000000000021e-02 1.000000000000000021e-02 1.000000000000000021e-02 1.000000000000000021e-02 1.000000000000000021e-02 1.000000000000000021e-02 1.000000000000000021e-02 1.000000000000000021e-02 1.000000000000000021e-02 1.000000000000000021e-02 1.000000000000000021e-02 1.000000000000000021e-02 1.000000000000000021e-02 1.000000000000000021e-02 1.000000000000000021e-02 1.000000000000000021e-02 1.000000000000000021e-02 1.000000000000000021e-02 1.000000000000000021e-02 1.000000000000000021e-02 1.000000000000000021e-02 1.000000000000000021e-02 1.000000000000000021e-02 1.000000000000000021e-02 1.000000000000000021e-02 1.000000000000000021e-02 1.000000000000000021e-02 1.000000000000000021e-02 1.000000000000000021e-02 1.000000000000000021e-02 1.000000000000000021e-02 1.000000000000000021e-02 1.000000000000000021e-02 1.000000000000000021e-02 1.000000000000000021e-02 1.000000000000000021e-02 1.000000000000000021e-02 1.000000000000000021e-02 1.000000000000000021e-02 1.000000000000000021e-02 1.000000000000000021e-02 1.000000000000000021e-02 1.000000000000000021e-02 1.000000000000000021e-02 1.000000000000000021e-02 1.000000000000000021e-02 1.000000000000000021e-02 1.000000000000000021e-02 1.000000000000000021e-02 1.000000000000000021e-02 1.000000000000000021e-02 1.000000000000000021e-02 1.000000000000000021e-02 1.000000000000000021e-02 1.000000000000000021e-02 1.000000000000000021e-02 1.000000000000000021e-02 1.000000000000000021e-02 1.000000000000000021e-02 1.000000000000000021e-02 1.000000000000000021e-02 1.000000000000000021e-02 1.000000000000000021e-02 1.000000000000000021e-02 1.000000000000000021e-02 1.000000000000000021e-02 1.000000000000000021e-02 1.000000000000000021e-02 1.000000000000000021e-02 1.000000000000000021e-02 1.000000000000000021e-02 1.000000000000000021e-02 1.000000000000000021e-02 1.000000000000000021e-02 1.000000000000000021e-02 1.000000000000000021e-02 1.000000000000000021e-02 1.000000000000000021e-02 1.000000000000000021e-02 1.000000000000000021e-02 1.000000000000000021e-02 1.000000000000000021e-02 1.000000000000000021e-02 1.000000000000000021e-02 1.000000000000000021e-02 1.000000000000000021e-02 1.000000000000000021e-02 1.000000000000000021e-02 1.000000000000000021e-02 1.000000000000000021e-02 1.000000000000000021e-02 1.000000000000000021e-02 1.000000000000000021e-02 1.000000000000000021e-02 1.000000000000000021e-02 1.000000000000000021e-02 1.000000000000000021e-02 1.000000000000000021e-02 1.000000000000000021e-02 1.000000000000000021e-02 1.000000000000000021e-02 1.000000000000000021e-02 1.000000000000000021e-02 1.000000000000000021e-02 1.000000000000000021e-02 1.000000000000000021e-02 1.000000000000000021e-02 1.000000000000000021e-02 1.000000000000000021e-02 1.000000000000000021e-02 1.000000000000000021e-02 1.000000000000000021e-02 1.000000000000000021e-02 1.000000000000000021e-02 1.000000000000000021e-02 1.000000000000000021e-02 1.000000000000000021e-02 1.000000000000000021e-02 1.000000000000000021e-02 1.000000000000000021e-02 1.000000000000000021e-02 1.000000000000000021e-02 1.000000000000000021e-02 1.000000000000000021e-02 1.000000000000000021e-02 1.000000000000000021e-02 1.000000000000000021e-02 1.000000000000000021e-02 1.000000000000000021e-02 1.000000000000000021e-02 1.000000000000000021e-02 1.000000000000000021e-02 1.000000000000000021e-02 1.000000000000000021e-02 1.000000000000000021e-02 1.000000000000000021e-02 1.000000000000000021e-02 1.000000000000000021e-02 1.000000000000000021e-02 1.000000000000000021e-02 1.000000000000000021e-02 1.000000000000000021e-02 1.000000000000000021e-02 1.000000000000000021e-02 1.000000000000000021e-02 1.000000000000000021e-02 1.000000000000000021e-02 1.000000000000000021e-02 1.000000000000000021e-02 1.000000000000000021e-02 1.000000000000000021e-02 1.000000000000000021e-02 1.000000000000000021e-02 1.000000000000000021e-02 1.000000000000000021e-02 1.000000000000000021e-02 1.000000000000000021e-02 1.000000000000000021e-02 1.000000000000000021e-02 1.000000000000000021e-02 1.000000000000000021e-02 1.000000000000000021e-02 1.000000000000000021e-02 1.000000000000000021e-02 1.000000000000000021e-02 1.000000000000000021e-02 1.000000000000000021e-02 1.000000000000000021e-02 1.000000000000000021e-02 1.000000000000000021e-02 1.000000000000000021e-02 1.000000000000000021e-02 1.000000000000000021e-02 1.000000000000000021e-02 1.000000000000000021e-02 1.000000000000000021e-02 1.000000000000000021e-02 1.000000000000000021e-02 1.000000000000000021e-02 1.000000000000000021e-02 1.000000000000000021e-02 1.000000000000000021e-02 1.000000000000000021e-02 1.000000000000000021e-02 1.000000000000000021e-02 1.000000000000000021e-02 1.000000000000000021e-02 1.000000000000000021e-02 1.000000000000000021e-02 1.000000000000000021e-02 1.000000000000000021e-02 1.000000000000000021e-02 1.000000000000000021e-02 1.000000000000000021e-02 1.000000000000000021e-02 1.000000000000000021e-02 1.000000000000000021e-02 1.000000000000000021e-02 1.000000000000000021e-02 1.000000000000000021e-02 1.000000000000000021e-02 1.000000000000000021e-02 1.000000000000000021e-02 1.000000000000000021e-02 1.000000000000000021e-02 1.000000000000000021e-02 1.000000000000000021e-02 1.000000000000000021e-02 1.000000000000000021e-02 1.000000000000000021e-02 1.000000000000000021e-02 1.000000000000000021e-02 1.000000000000000021e-02 1.000000000000000021e-02 1.000000000000000021e-02 1.000000000000000021e-02 1.000000000000000021e-02 1.000000000000000021e-02 1.000000000000000021e-02 1.000000000000000021e-02 1.000000000000000021e-02 1.000000000000000021e-02 1.000000000000000021e-02 1.000000000000000021e-02 1.000000000000000021e-02 1.000000000000000021e-02 1.000000000000000021e-02 1.000000000000000021e-02 1.000000000000000021e-02 1.000000000000000021e-02 1.000000000000000021e-02 1.000000000000000021e-02 1.000000000000000021e-02 1.000000000000000021e-02 1.000000000000000021e-02 1.000000000000000021e-02 1.000000000000000021e-02 1.000000000000000021e-02 1.000000000000000021e-02 1.000000000000000021e-02 1.000000000000000021e-02 1.000000000000000021e-02 1.000000000000000021e-02 1.000000000000000021e-02 1.000000000000000021e-02 1.000000000000000021e-02 1.000000000000000021e-02 1.000000000000000021e-02 1.000000000000000021e-02 1.000000000000000021e-02 1.000000000000000021e-02 1.000000000000000021e-02 1.000000000000000021e-02 1.000000000000000021e-02 1.000000000000000021e-02 1.000000000000000021e-02 1.000000000000000021e-02 1.000000000000000021e-02 1.000000000000000021e-02 1.000000000000000021e-02 1.000000000000000021e-02 1.000000000000000021e-02 1.000000000000000021e-02 1.000000000000000021e-02 1.000000000000000021e-02 1.000000000000000021e-02 1.000000000000000021e-02 1.000000000000000021e-02 1.000000000000000021e-02 1.000000000000000021e-02 1.000000000000000021e-02 1.000000000000000021e-02 1.000000000000000021e-02 1.000000000000000021e-02 1.000000000000000021e-02 1.000000000000000021e-02 1.000000000000000021e-02 1.000000000000000021e-02 1.000000000000000021e-02 1.000000000000000021e-02 1.000000000000000021e-02 1.000000000000000021e-02 1.000000000000000021e-02 1.000000000000000021e-02 1.000000000000000021e-02 1.000000000000000021e-02 1.000000000000000021e-02 1.000000000000000021e-02 1.000000000000000021e-02 1.000000000000000021e-02 1.000000000000000021e-02 1.000000000000000021e-02 1.000000000000000021e-02 1.000000000000000021e-02 1.000000000000000021e-02 1.000000000000000021e-02 1.000000000000000021e-02 1.000000000000000021e-02 1.000000000000000021e-02 1.000000000000000021e-02 1.000000000000000021e-02 1.000000000000000021e-02 1.000000000000000021e-02 1.000000000000000021e-02 1.000000000000000021e-02 1.000000000000000021e-02 1.000000000000000021e-02 1.000000000000000021e-02 1.000000000000000021e-02 1.000000000000000021e-02 1.000000000000000021e-02 1.000000000000000021e-02 1.000000000000000021e-02 1.000000000000000021e-02 1.000000000000000021e-02 1.000000000000000021e-02 1.000000000000000021e-02 1.000000000000000021e-02 1.000000000000000021e-02 1.000000000000000021e-02 1.000000000000000021e-02 1.000000000000000021e-02 1.000000000000000021e-02 1.000000000000000021e-02 1.000000000000000021e-02 1.000000000000000021e-02 1.000000000000000021e-02 1.000000000000000021e-02 1.000000000000000021e-02 1.000000000000000021e-02 1.000000000000000021e-02 1.000000000000000021e-02 1.000000000000000021e-02 1.000000000000000021e-02 1.000000000000000021e-02 1.000000000000000021e-02 1.000000000000000021e-02 1.000000000000000021e-02 1.000000000000000021e-02 1.000000000000000021e-02 1.000000000000000021e-02 1.000000000000000021e-02 1.000000000000000021e-02 1.000000000000000021e-02 1.000000000000000021e-02 1.000000000000000021e-02 1.000000000000000021e-02 1.000000000000000021e-02 1.000000000000000021e-02 1.000000000000000021e-02 1.000000000000000021e-02 1.000000000000000021e-02 1.000000000000000021e-02 1.000000000000000021e-02 1.000000000000000021e-02 1.000000000000000021e-02 1.000000000000000021e-02 1.000000000000000021e-02 1.000000000000000021e-02 1.000000000000000021e-02 1.000000000000000021e-02 1.000000000000000021e-02 1.000000000000000021e-02 1.000000000000000021e-02 1.000000000000000021e-02 1.000000000000000021e-02 1.000000000000000021e-02 1.000000000000000021e-02 1.000000000000000021e-02 1.000000000000000021e-02 1.000000000000000021e-02 1.000000000000000021e-02 1.000000000000000021e-02 1.000000000000000021e-02 1.000000000000000021e-02 1.000000000000000021e-02 1.000000000000000021e-02 1.000000000000000021e-02 1.000000000000000021e-02 1.000000000000000021e-02 1.000000000000000021e-02 1.000000000000000021e-02 1.000000000000000021e-02 1.000000000000000021e-02 1.000000000000000021e-02 1.000000000000000021e-02 1.000000000000000021e-02 1.000000000000000021e-02 1.000000000000000021e-02 1.000000000000000021e-02 1.000000000000000021e-02 1.000000000000000021e-02 1.000000000000000021e-02 1.000000000000000021e-02 1.000000000000000021e-02 1.000000000000000021e-02 1.000000000000000021e-02 1.000000000000000021e-02 1.000000000000000021e-02 1.000000000000000021e-02 1.000000000000000021e-02 1.000000000000000021e-02 1.000000000000000021e-02 1.000000000000000021e-02 1.000000000000000021e-02 1.000000000000000021e-02 1.000000000000000021e-02 1.000000000000000021e-02 1.000000000000000021e-02 1.000000000000000021e-02 1.000000000000000021e-02 1.000000000000000021e-02 1.000000000000000021e-02 1.000000000000000021e-02 1.000000000000000021e-02 1.000000000000000021e-02 1.000000000000000021e-02 1.000000000000000021e-02 1.000000000000000021e-02 1.000000000000000021e-02 1.000000000000000021e-02 1.000000000000000021e-02 1.000000000000000021e-02 1.000000000000000021e-02 1.000000000000000021e-02 1.000000000000000021e-02 1.000000000000000021e-02 1.000000000000000021e-02 1.000000000000000021e-02 1.000000000000000021e-02 1.000000000000000021e-02 1.000000000000000021e-02 1.000000000000000021e-02 1.000000000000000021e-02 1.000000000000000021e-02 1.000000000000000021e-02 1.000000000000000021e-02 1.000000000000000021e-02 1.000000000000000021e-02 1.000000000000000021e-02 1.000000000000000021e-02 1.000000000000000021e-02 1.000000000000000021e-02 1.000000000000000021e-02 1.000000000000000021e-02 1.000000000000000021e-02 1.000000000000000021e-02 1.000000000000000021e-02 1.000000000000000021e-02 1.000000000000000021e-02 1.000000000000000021e-02 1.000000000000000021e-02 1.000000000000000021e-02 1.000000000000000021e-02 1.000000000000000021e-02 1.000000000000000021e-02 1.000000000000000021e-02 1.000000000000000021e-02 1.000000000000000021e-02 1.000000000000000021e-02 1.000000000000000021e-02 1.000000000000000021e-02 1.000000000000000021e-02 1.000000000000000021e-02 1.000000000000000021e-02 1.000000000000000021e-02 1.000000000000000021e-02 1.000000000000000021e-02 1.000000000000000021e-02 1.000000000000000021e-02 1.000000000000000021e-02 1.000000000000000021e-02 1.000000000000000021e-02 1.000000000000000021e-02 1.000000000000000021e-02 1.000000000000000021e-02 1.000000000000000021e-02 1.000000000000000021e-02 1.000000000000000021e-02 1.000000000000000021e-02 1.000000000000000021e-02 1.000000000000000021e-02 1.000000000000000021e-02 1.000000000000000021e-02 1.000000000000000021e-02 1.000000000000000021e-02 1.000000000000000021e-02 1.000000000000000021e-02 1.000000000000000021e-02 1.000000000000000021e-02 1.000000000000000021e-02 1.000000000000000021e-02 1.000000000000000021e-02 1.000000000000000021e-02 1.000000000000000021e-02 1.000000000000000021e-02 1.000000000000000021e-02 1.000000000000000021e-02 1.000000000000000021e-02 1.000000000000000021e-02 1.000000000000000021e-02 1.000000000000000021e-02 1.000000000000000021e-02 1.000000000000000021e-02 1.000000000000000021e-02 1.000000000000000021e-02 1.000000000000000021e-02 1.000000000000000021e-02 1.000000000000000021e-02 1.000000000000000021e-02 1.000000000000000021e-02 1.000000000000000021e-02 1.000000000000000021e-02 1.000000000000000021e-02 1.000000000000000021e-02 1.000000000000000021e-02 1.000000000000000021e-02 1.000000000000000021e-02 1.000000000000000021e-02 1.000000000000000021e-02 1.000000000000000021e-02 1.000000000000000021e-02 1.000000000000000021e-02 1.000000000000000021e-02 1.000000000000000021e-02 1.000000000000000021e-02 1.000000000000000021e-02 1.000000000000000021e-02 1.000000000000000021e-02 1.000000000000000021e-02 1.000000000000000021e-02 1.000000000000000021e-02 1.000000000000000021e-02 1.000000000000000021e-02 1.000000000000000021e-02 1.000000000000000021e-02 1.000000000000000021e-02 1.000000000000000021e-02 1.000000000000000021e-02 1.000000000000000021e-02 1.000000000000000021e-02 1.000000000000000021e-02 1.000000000000000021e-02 1.000000000000000021e-02 1.000000000000000021e-02 1.000000000000000021e-02 1.000000000000000021e-02 1.000000000000000021e-02 1.000000000000000021e-02 1.000000000000000021e-02 1.000000000000000021e-02 1.000000000000000021e-02 1.000000000000000021e-02 1.000000000000000021e-02 1.000000000000000021e-02 1.000000000000000021e-02 1.000000000000000021e-02 1.000000000000000021e-02 1.000000000000000021e-02 1.000000000000000021e-02 1.000000000000000021e-02 1.000000000000000021e-02 1.000000000000000021e-02
-1.156573541413592352e+02 1.756732280259458321e+02 4.080589950272348432e+01 -9.178638994693692155e+00 -9.107463382965798360e+01 -1.388022580105217507e+01 -2.153978779468003779e+02 6.915556944374383619e-01 -8.782869075036678908e+01 -1.443849993646239582e+01 -2.053347101577758593e+01 6.722601250060297851e+00 -1.844443562951482818e+00 1.738805910995029933e+02 8.768089211359945523e+01 -4.014663882563966979e+01 -5.465617363984041077e+01 8.209297641894625031e+01 3.400331530357063770e+01 -2.627568519014111459e+01 -8.173027152227786019e+01 -7.651369540497485389e+01 -1.432249958751087959e+01 2.998363361400380001e+01 -2.020100329953817777e+02 -1.023430607095180136e+02 -2.702893837429587620e+01 2.089794766731982065e+02 7.333407822093816719e+01 7.946757735934741618e+01 8.319943634861829196e+01 1.232872479635810592e+00 -8.201642535755149765e+01 2.148957143572105508e+02 -2.536674715736238852e+02 6.090489842923913244e+01 -1.245697489634056438e+02 -3.592883760467643128e+01 4.174924940911356686e+00 1.313098946613227156e+02 -1.273863238724458995e+02 -1.417505745316793764e+01 8.020051228552341627e+01 1.798858787659542884e+02 7.397981753465269605e+01 -7.095363904349900963e+01 4.277910822121322809e+01 -2.939446403246807904e+01 -6.846691257396062724e+01 1.622940093540278497e+02 -7.321369154058152162e+01 -5.403509626638996366e+01 -1.443233792985149364e+02 5.889532106779249432e+00 -5.239924858183301382e+01 4.005829709468203959e+01 -9.195112323925435760e+01 -5.189741395189156492e+01 -1.050992027984645034e+02 -1.610909327299449672e+02 2.020653236773597783e+01 4.695796738216218813e+01 -1.275993717692046374e+02 1.333554401239688580e+01 -8.222286673745151120e+01 5.090389159331867575e+01 1.726407510772783382e+02 -1.495035641556326311e+02 -4.491118822520235199e+01 7.429609219747202786e+00 3.024547264353827813e+00 4.391559765282040928e+01 8.704859152400871380e+01 9.942152159153239133e-01 -9.083860916205795277e+00 -7.260637817301758901e+01 8.113781136183753517e+01 -3.401703893787064459e+01 2.723829242108765669e+01 1.077999324879605609e+02 9.148139433772999496e+01 -4.429864423158456077e+01 5.996681045944408339e+01 1.528340018986592099e+02 1.204444733397736655e+02 -4.201005152997685066e+00 1.806057917283116012e+02 -1.155797432111504861e+02 4.388358273179909119e+00 -4.347115580098684973e+01 2.144251535242506179e+02 -2.199917148125103239e+01 2.966709812573477212e+00 -7.959122188803343079e+01 -7.381907179480561076e+00 -6.621404271057070900e+01 7.023298523067099097e+01 -9.799825893334113402e+01 7.101608646831783744e+01 -4.947057792487793648e+01 -5.160192558248899530e+01 -9.500547506608378967e+01 5.506896657338635492e+01 -5.675841026438570935e+01 -1.548075535163810059e+02 -8.240126045690226420e+01 -1.084587163735651103e+02 -1.629934561825930359e+02 1.409410460048096922e+02 -2.855584885984764654e+01 3.318915852791765531e+01 9.295530888383520107e+01 -1.079228770521425247e+02 5.908145075584558015e+01 -4.491518802632909768e+01 -7.179842207073521365e+01 -9.333680784203703240e+01 2.107938468007650670e+02 -5.882940514109140651e+01 -5.127698637955418093e+01 -4.899089963393689118e+01 8.335888576047064191e+01 -4.291178335779871134e+01 1.430789740138624495e+02 -5.164816038752074689e+01 5.707181033456920716e+01 4.707903285295760298e+00 -8.417183624052516677e+01 7.137915105411953220e+01 2.875465303448130499e+02 -9.535775850997899283e+01 4.925971262305350962e+01 -7.899660929403388820e+01 4.689137574585349455e+01 1.360005910173960331e+02 -5.322406959908878576e+01 1.510055813264931679e+01 -2.789423584834855419e+01 -1.056713703152597077e+02 -1.787892885196159298e+01 4.403816023617318720e+00 -8.119656977284870791e+00 -1.551889261520655339e+01 1.226407943171362689e+02 1.351259792787270726e+02 1.933235108302220056e+02 -3.155297240897046436e+02 3.963712550522297562e+01 -1.631513826744727780e+01 -6.467792018162892020e+01 1.870325738499384158e+02 7.910225869837287860e+01 -2.643631846316346401e+00 -1.203166045244446423e+02 -1.133407380135485809e+01 1.038331157414346677e+02 -1.394725299429094605e+02 -1.749884133498744063e+02 1.113840336262718722e+01 4.405001783600107501e+01 -6.330586132613284889e+01 4.362181373453141475e+01 -1.111487928919594594e+02 -1.570919721204111283e+02 2.193938637427432070e+01 5.043663134286709493e+01 4.969740136258058882e+00 -8.673077335648794417e+01 -9.719732538631299690e+01 -8.761390968625576647e+01 -9.092664503130224318e+01 1.309109080155139537e+01 5.906440177197337249e+01 1.210380953893621552e+02 8.256019309130707029e+01 9.301113896441529505e+01 1.116519972637506157e+02 -7.776457087670034696e+01 -8.580375204066315575e+01 7.333116673257042351e+01 7.113520308880808329e+01 6.161228608619501301e+01 -9.779593184266017758e+00 -9.477005679468420851e+01 5.617085442193553035e+01 -1.862098270182690953e+02 6.989450629128016601e+01 -4.640740817288254760e+01 -1.004527973812849382e+02 7.728872340834314514e+01 -1.782450030135323615e+01 -8.040046232649996227e+01 -5.991989552318022305e+01 -9.515984234435027389e+00 2.529795508894292198e+02 8.004848178718738438e+01 5.718402807392230613e+01 -1.084177121077216412e+02 1.546847534739106891e+02 1.068821344182902200e+00 -9.436839879001284714e+01 1.626323540458379853e+02 -1.609696344087020066e+02 1.647212974862635804e+01 -3.402496160107298095e+01 -2.320787890095589603e+02 -1.409552485993987716e+02 -9.216061467488538028e+01 -3.086773007856384510e+01 -1.259827872450402850e+02 6.092529512152701443e+01 6.863120563986005607e+01 -2.909695489083779307e+01 -1.052936279485008129e+02 1.194668428850959572e+02 1.249128181036629286e+02 4.882664123653095345e+01 1.841878426605055452e+01 2.761116652965826574e+02 4.616285422465223576e+01 -1.261407484496746463e+02 -4.758691296271756244e+01 -1.785063943492973806e+02 3.368676704917594833e+01 1.621137065974907330e+02 -1.569454033769678460e+02 1.392872019223694338e+02 -9.618699135603506534e+01 -1.996367981414248760e+01 -7.553402089142521314e-01 5.588836729077839038e+01 -1.229302292512401351e+01 -2.408146112473045264e+01 -2.006461502205433334e+01 -1.339576276555794436e+02 4.913072290993792279e+01 -3.213791027361702390e+01 -1.377452147295995033e+01 -1.132870179733065896e+01 2.390763603066122016e+02 1.842822896011216187e+02 2.461497743798965701e+02 1.394667095415488802e+02 -9.161051905720367472e+01 7.960183259229373220e+01 2.232257906343702558e+01 5.041680459200608055e+01 -4.209088061106757550e+01 2.703508629810136199e+02 -2.464379881712854115e+01 -1.447209062949381178e+02 -1.584330984347957916e+01 -4.849639176360476966e+01 -8.195963376404844780e+01 4.569592412944318482e+01 -1.240146785336423463e+01 1.925986109823215884e+02 9.789232742337493676e+01 4.329939626267752573e+01 1.038379110095319646e+02 9.997856458439440530e+01 -2.434545388714317937e+01 1.478740113465438242e+02 2.802086368790838833e+01 9.483505874235011390e+01 5.044045278907407948e+01 7.352967923098989722e+00 -1.226228367630709499e+02 -1.226514693932342510e+02 -9.532007156748549903e+01 -1.650225143097021530e+01 9.180020831898291078e+01 -3.249860399273698164e+01 1.047454694055443696e+02 4.638667020720387058e+01 -7.702882174229945633e+01 -3.175773696479037156e+01 -6.207333250308192873e+01 1.859816877074332453e+01 -4.910276562452294513e+01 -1.186783115195419498e+02 1.287500124565173110e+02 1.285091071834882257e+02 -8.359903455673175188e+01 5.811280282389212459e+00 -4.797948554460448634e+01 -3.457842068158669946e+01 -1.201439665486068442e+01 -3.305128323478697894e+01 4.704668149142347033e+01 -1.487981868734953821e+02 -5.593709525768847612e+01 -1.608657366765753807e+02 1.843789721203092142e+02 -2.146062794721138545e+01 6.243629087776790954e+01 1.264614560057129999e+01 1.528648828203233450e+02 4.728827140074173485e+01 3.784965602182113997e+01 1.633209283142640516e+02 -5.213255373414279603e+01 -1.032320283699798722e+02 2.870370418137268942e+01 -1.671553625329333954e+02 -5.647618898855441216e+01 1.081733883583081308e+02 -1.351659252326597027e+02 -3.846427894771902345e+01 9.655366509611195625e+01 -9.995618080776068837e+01 -9.467572989906005887e+01 -8.740828540393543733e+01 -6.752703837017493527e+01 2.632625092126905884e+02 2.095144264210840390e+02 1.089124177003070884e+02 -1.080330385421883364e+02 7.914243802474253187e+01 -6.984548606017261818e+01 -3.290440411263913489e+01 1.753238239956561983e+01 -3.395968719479929376e+01 -9.904820077570408898e+01 -2.825070419013984591e+00 1.565455374014402246e+01 1.148218800805990440e+02 -1.356232100191785150e+02 4.415567153291427616e+01 6.726910351450382564e+01 3.648094787014055385e+01 -9.558163879444818178e+01 -1.566059764262343776e+02 2.037998048522871386e+02 -1.879514236027090135e+01 2.656211857291068057e+01 1.649663167001219222e+02 2.811589064756242706e+01 2.925107668647040171e+01 -4.691587030500614475e+01 9.333380193809819048e+01 -1.436586808456685844e+02 -3.246395941277901187e+01 -6.459970815314209247e+00 -5.627898453194634953e+01 6.452222148940142787e+00 2.246885923658235029e+01 -3.768692950160733801e+01 1.439068251710779123e+01 2.250091761228729865e+02 -2.882513383659866335e+01 -2.941830839617066573e+01 -1.070126739334551047e+02 -1.751840585402264949e+00 -8.501300959338821883e+01 6.761025226096499807e+00 1.179356947816224306e+02 -5.476495185297414281e+01 6.372380487300590701e+00 -5.718038788208704659e+01 3.519563813702329291e+00 9.178332893097966405e+01 -1.219161661808420689e+02 -1.018441196490843055e+02 -1.078896088751166218e+02 7.514537602227625257e+01 9.107768053495867377e+01 -9.715550990333434811e+01 6.583932866438968290e+01 2.714253532843127559e+01 4.070106459121572584e+01 -1.868986767360158652e+01 9.607414760574069135e+01 8.390162025239811783e+01 -8.131542080834408637e+01 1.250738847152438460e+01 8.512004940575958756e+01 7.666278129503632499e+01 -2.089470296822517170e+01 2.629669222935351414e+01 -1.394636612980478390e+02 5.101339813802711376e+01 -3.445824784456483059e+01 -3.431643138717271313e+01 1.821647714087397674e+02 4.991473818209807689e+01 1.264615948429752166e+02 2.008210791297193509e+02 -1.448424678045173266e+02 1.567641735633546602e+02 -6.662811650639874017e+01 -1.421166398144011112e+02 8.658892933546970028e+01 -1.410440329308756304e+02 -3.018200603000079241e+01 5.935660673398975717e+01 8.531325657576028121e+00 -1.767600589871173327e+02 8.855232441516035635e+01 2.650367252703484411e+01 7.268119700489684476e+01 3.812887348876787286e+01 9.972647414830296597e+00 -7.059337027860024705e+01 1.217504334808267288e+02 5.729892135217113491e+01 -6.534613338384379233e+01 -1.064725974483107080e+02 4.099326756281067929e+01 2.695347529300150669e+01 8.662837190876273041e+01 1.931841215185592375e+02 -2.592721750538937187e+01 -1.158246180163477419e+02 -8.916136335261585089e+01 -5.397644287732035906e+01 -4.671526343762932498e+01 -1.543266934359909328e+02 -2.364220414281913207e+01 1.361456975486698866e+02 7.840685801580704606e+01 -1.286909013229848426e+02 -1.575016303670736590e+02 -7.164283616089198858e+01 -8.035255023879288672e+01 1.542610219650669308e+02 -1.792320755660883265e+02 9.096168340477612446e+01 -4.846504613489279301e+00 -4.522431954455284142e+01 1.400652800429935319e+01 9.590098490478725068e+01 5.218755152109907414e+01 1.453219833629724462e+02 -1.673109840331882481e+02 -8.513890610985716023e+01 2.660982498063006929e+01 4.410025646304699620e+01 2.167795458845951373e+02 1.529127397761327245e+02 6.886796280331900277e+01 7.581237364111595411e+01 -3.607957960169866851e+01 1.596615283033710284e+02 -1.884951772246913890e+02 -6.662732178510098890e+01 -5.644932099547983029e+01 -5.445515837096578338e+01 -1.086190557762272562e+02 -1.574105492264265393e+01 -7.217783889383227347e+01 7.485596525658374389e+01 -9.649184371531120519e+00 -6.112438385757108250e+01 -6.556483269968286720e+01 1.894396480211579217e+02 6.197566538832096228e+01 -1.437614028837858804e+01 2.195704306985254561e+02 -1.138495328221669922e+02 -3.715699500169541381e+01 7.037813545998334064e+01 -1.299264118626090869e-01 1.567186130935109922e+01 -1.314013572853433516e+02 1.851792874725827005e+02 -5.153393464944207381e+01 -2.836003148597389156e+01 -1.153016999602561867e+02 1.322471062650010367e+02 1.007982032613959262e+02 -8.146975749704114378e+01 -3.941652287349779016e+01 4.088609417472142837e+01 -1.590609252501599258e+02 -1.143783173243761581e-01 -7.846289368742127124e+01 8.110604551224742664e+00 -1.135765819293291656e+02 -1.664869004984022354e+02 -7.420644221224858939e+01 1.555554347643267761e+02 5.944446315144325155e+01 -9.405589681103766964e+01 9.364146657800334594e+01 3.596934381790892132e+01 9.263403632951954592e+01 -4.419358176884200162e+01 -8.826881118261346160e+01 1.794266541647249369e+02 4.373538708372787198e+01 3.038488764725558511e+01 -7.660685970429976521e+01 -4.437534932676509669e+01 1.005845293034390409e+01 -7.495772773801024691e+00 -1.812184680630681157e+02 -3.626833049788226759e+01 6.755226547054159880e+01 1.170442837820519344e+02 1.631921573042859848e+02 -1.389157229118307590e+01 9.391767210674417754e+01 1.652383443357408055e+02 6.646620478204971505e+01 1.548977485728425165e+02 1.682286946575061037e+01 1.375047194508811401e+02 -8.789736097769015544e+01 5.589982732793155407e+01 3.074606057945595694e+01 7.941893368913395079e+01 -1.111315161570090737e+02 2.071358646202457123e+02 -1.347899076946204389e+02 9.232076890406325731e+01 -1.123976973543410338e+02 4.821728850553289192e+01 1.441630959372028364e+01 9.483106681389446635e+01 -7.702087504383257510e+01 -7.890662337174119045e+01 -1.169089829957670723e+01 9.306906043034449283e+01 -3.089617125479576387e+01 -1.704540093148406754e+01 -2.050168891033643703e+01 4.947502274553705170e+00 1.024469896831478479e+02 -6.531662961852026683e+01 -2.841507767401647122e+00 -2.019921653490654592e+02 1.269100080914930402e+02 -1.299428341833350373e+02 -7.689935467527102730e+01 -2.451788530375127806e+01 -1.122924054280947388e+02 -5.533098053834062569e+01 -6.092708143393798537e+01 -2.044670356101525144e+01 1.418179467115207331e+02 5.624939675681913798e+01 1.045180994352162429e+02 -1.416053941227498569e+02 -1.442035320160913159e+02 -2.980409509246156290e+02 1.062504492340971467e+02 1.085333174936713476e+02 4.395601640529830689e+01 -4.409913949454975324e+01 -3.876324456988007228e+01 -1.910532913181122865e+02 1.521023229831641004e+02 -1.117920335900302149e+02 1.113030696693334392e+02 -1.657234496376570405e+02 -1.488081586699138370e+01 -5.762726959690085238e+01 -1.240921853866045694e+02 -4.796607890436443711e+01 -1.295951874500784484e+01 -9.641557627751561199e+01 -1.077481979026991183e+02 -1.285278708180233664e+01 7.412331292301171004e+01 -1.297430959036337015e+02 -1.632511423682148433e+01 -7.678189492877307032e+01 -1.368032811061053451e+02 7.000440661426187816e+00 9.914416372739039218e+01 1.722858950907574922e+02 -1.986983343969503579e+01 -4.796153044995996595e+01 -1.292338853505878831e+02 -1.702817063916075426e+02 1.080264115957298401e+02 -7.576155847057921733e+01 8.231466588628327941e+01 9.798913284594455320e+00 3.049345676845128494e+01 7.692789902429746007e+01 -8.822557754763450077e+01 8.609135710177245926e+01 1.200670305782171852e+02 1.639297804614190284e+02 -1.214988514791479588e+02 1.082672426379644151e+02 -4.973913191805340261e+01 -9.458209431169554193e+01 2.234928076200609723e+02 5.134680264028775554e+01 8.695305493633230753e+01 2.223117563995340618e+01 -6.575868980278578135e+01 -3.640009750799131893e+01 -2.191549842433796300e+02 1.100370399364142884e+02 8.493413380006298041e+01 -7.886975640711149538e+01 -7.624637391930623664e+01 1.512779014642462982e+02 1.052954420801780344e+02 5.324701050354877907e+01 7.928486076805778282e+01 -8.265256576116749798e+00 1.075246224836596269e+02 -1.078346026198592540e+02 1.942574526149927294e+02 -4.113635320651439287e+01 -1.270849964138618731e+02 -3.921057887753960358e+01 7.475656908272081580e+01 1.535306454424473372e+02 1.351789916472400144e+01 1.811121269989819780e+02 5.441308748778122606e+01 3.500908993488383203e+01 -1.160034249763058511e+02 4.671981434562434998e+01 -1.303259236476016838e+02 4.967512691978707551e+01 4.031170481858987387e+01 -1.284907975287758575e+02 -8.860280393760432105e+01 4.148886206183758674e+01 9.093408853393924574e+00 -2.423366511681834368e+01 4.358799872752629057e+01 -2.229458264973472481e+01 -6.574591513050775404e+01 -2.717849310112245576e+01 -2.342944079877546670e+01 -4.151149382801082055e+01 1.958086353198837415e+01 -8.384569031643438564e+01 1.239600339651070442e+02 -7.749333503342978702e+01 -4.525986786153135100e+00 6.820043824665496857e+01 4.081400187278465097e+00 1.659783316928269059e+01 1.661703139034994336e+01 -1.220792145557696671e+02 -4.613786411416445077e+00 6.779339096487554173e+01 -2.411737032816929514e+02 -8.838792495173922248e+01 -1.174876520725298406e+02 4.562101370191977168e+01 1.002741322837150904e+02 -9.558663321428124959e+01 -1.749427764792552864e+02 -1.928764783828766838e+02 2.082545373561955415e+01 -1.510275252062320988e+02 -6.575382224080374094e+00 1.537169841983572383e+02 -7.431982328950859085e+00 3.868694054435731289e+01 -1.029729178389434168e+02 8.302901282888394974e+01 -1.232436340187769304e+02 -1.599025287549608265e+01 -3.151576542804119541e+01 5.977031004609266773e+01 -9.253321940808074686e+00 1.096967006986465520e+02 -1.266147253115754125e+02 -5.194480012270805247e+01 8.966350547233457746e+01 6.857282883434140786e+01 -8.538470131153009390e+01 -5.634795673774024749e+01 -5.110474082497376003e+01 -2.996362503452677970e+02 2.003595542841823942e+02 7.881987555408146306e+01 -2.445122311679068261e+01 -3.068700124053641787e+01 4.296321343331433695e+01 -8.709558246337928722e+01 1.029674876198858300e+02 6.247415877263441075e+01 8.485503301864397940e+01 -8.692089432759198075e+01 -2.751090108796676859e+01 3.448802137628158704e+01 1.795912495485619687e+01 -4.420135172268468438e+01 1.630428055458710332e+02 -1.787073174765358274e+01 3.651679299117556354e+01 -2.372295264922975662e+02 -8.745344160409591439e+01 -7.554440062495763186e+01 2.374989864325034361e+01 1.126978216630554499e+02 -2.390220043301749797e+02 -1.930017250476194022e+02 2.287790225071601924e+02 -1.091091655943662175e+01 9.916164553857089459e+01 6.477731212609467093e+01 -5.715861753041382798e+01 -1.351823307219758874e+02 -9.819688594865097286e+01 -5.187667987411833792e+01 -3.865284470409561379e+01 -4.039862509413485725e+01 1.671757084757657452e+01 3.827864757136892138e+01 1.720872649826191036e+02 1.270789033089100712e+02 7.106023225277097843e+00 -4.507491632090512290e+00 -1.638892648272638723e+02 1.234546720638321773e+02 1.644128578816670654e+02 -1.066699271230172599e+02 7.608567082302594997e+01 1.880359458337218292e+00 5.660394131861467315e+01 1.294741365861044926e+02 7.319934813664397666e+01 -1.382707919641166541e+02 1.668491080514602487e+01 -3.032060183946171961e+01 1.149019709686475466e+01 -2.395835398649671788e+01 4.682525128917300350e+01 -2.688378635756632775e+02 1.870919074168704697e+02 7.587372011401853023e+00 1.646418835374167031e+02 -1.093726202429140493e+01 1.097121039575180248e+02 7.400854601457982085e+01 -4.343429069548798793e+01 3.085939846194416347e+01 -7.520332486368266700e+01 -9.194104029333149697e+01 -7.454262855326196302e+01 -3.313019894170054869e+01 4.673747973928586674e+01 1.139659497309853293e+02 2.950230907378586309e+01 6.418918581080438912e+01 -1.084363824409588233e+02 -1.419028876399268597e+02 -1.395476119460196784e+01 4.804442586992777109e+01 -4.716450655148210558e+01 9.781576016617204061e+01 5.744800345927955476e+01 -2.863685502439807351e+01 3.101706259133101895e+01 6.352170824002384819e+01 -7.469261448058908570e+01 -1.384808534080009110e+02 1.471765999696962126e+02 8.097934978887053603e+00 5.195239039407648107e+01 -1.546629220619703062e+02 -5.533848998159790256e+01 -5.014173293596110303e-01 -6.806093159941534054e+01 4.438167511205959315e+00 5.833897701245334844e+01 1.933087638030463324e+02 4.056963333921745374e+01 -1.137635421909301137e+01 7.485348203410758572e+01 -4.720240668559428343e+01 -1.130788972266749965e+02 -1.434325665205413429e+02 9.738499691671723468e+00 2.606991868572098170e+01 2.467422691625401043e+01 -5.905658671173186036e+01 1.254968138829446787e+02 -8.397724145831082865e+01 1.333151131311589666e+02 9.070926219532526602e+01 -6.759132320722886789e+01 -8.796004846415007705e+01 8.749305287406875209e+01 2.133227382345972600e+01 -5.454069174945539089e+01 -5.599685069566408657e+01 1.420664984552666397e+02 5.956725885618926952e+01 8.305145579409750667e+01 2.719606593477590550e+01 -4.380600494264715650e+01 1.118539397092921632e+02 -5.677459177705220128e+01 5.328703511266846826e-01 7.972663526971174974e+01 1.036530568184372498e+02 2.659190855120687047e+02 -1.823289633119079838e+02 1.676238828060384094e+02 -7.044520082692332608e+01 -1.585264511328690951e+01 -2.605262386515143547e+01 -2.160663019932122353e+01 -5.754950323653701361e+01 9.683058188037610137e+01 1.919682595453455178e+02 -1.239339988922193214e+02 3.226949046602991444e+01 -1.324328853629489231e+02 7.326601413238421401e+01 -4.648651872669671548e+01 -8.454770062346376847e+01 -5.626926918421927581e+01 4.301001921196812106e+01 2.028719705886835456e+01 -8.555024218102049360e+01 -1.475597706543144625e+02 2.174080425347824175e+01 1.649521746427701032e+02 1.495303431164296271e+01 1.910747313074640488e+02 7.826142388434106145e+00 1.410106448038234532e+02 -3.626258411944780136e+01 9.503973160578317447e+01 -7.490187777121670365e+01 -1.183961063555937727e+02 5.184844651123728454e+01 -6.088144549751019952e+01 -8.237842473825138256e+01 7.655891995986004872e+01 6.740067016086956464e+00 -9.904727460439268327e+01 -1.580980044161039757e+02 1.553608888857752106e+02 -9.371108083973841474e+01 -2.438290312578270669e+00 1.262283558808443473e+02 6.105086462377576595e+01 -1.032693684744058373e+02 1.114639025113554283e+01 2.967621905249230281e+02 5.614532398916929878e+01 -1.660749921132726001e+02 -5.022679496775476338e+01 -6.483118185466908301e+01 1.016097137989990884e+01 1.133166104490373414e+02 -1.090051480224209115e+02 2.270190524145338173e+01 1.375695136592988774e+02 1.980090681286202425e+01 -2.227255765822010858e+02 5.102379281005682543e+01 7.959159456166085533e+01 -1.430035507157008645e+01 3.460938373292548675e+01 1.142167289483937975e-01 2.368024859386957459e+01 2.925506872292226745e+01 1.221371415872137334e+02 1.033547001106288263e+02 1.633006473189265151e+01 1.571982430372282238e+02 -6.753038856438708137e+01 2.601649341240498075e+02 6.857950446918788145e+01 1.494308737104238105e+02 -2.319039517914157500e+01 9.499894433049352926e+01 -5.181652609158666678e+01 -1.544315228780881739e+02 2.766066057911582021e+01 1.003956905290179691e+02 -9.248714795020129031e+01 -1.105196105865255163e+02 -7.021249600243855582e+01 3.859154411703654830e+01 -1.205933512498065596e+02 7.889201286089944176e+01 2.965796041574968100e+01 -1.030216417767612285e+02 2.005003332611267410e+02 -1.241828153515531419e+01 -1.073666573615695228e+02 -1.409324968527697308e+01 -2.156829264866973972e+01 -1.480309954978449696e+02 -4.227604526683369102e+01 6.490878003304116817e+01 1.390719164123265728e+02 3.060771785831345326e+01 2.827589096250621381e+01 4.728143876656079669e+01 -3.778162867917536261e+01 -1.536622295656536892e+02 1.669898550119325265e+01 3.275395696683690261e+01 1.404752288765708386e+02 -1.053547620689957753e+01 -8.039721821385224132e+01 7.729491015822067368e+01 1.072171817498494439e+00 3.381201505545929820e+01 1.471087923379087670e+02 -1.875002552493623682e+02 -9.802049424803651334e+01 1.316809664559855548e+02 -2.213343795647899412e+02 -1.886786171309063604e+02 9.331216889894251665e+01 1.579862422976177072e+02 6.499074510638087077e+01 -4.540146541557007254e+00 1.598544572560466577e+02 -2.251323921069053995e+02 1.099339052319182315e+02 4.348268344862091794e+01 1.303753074516370418e+02 -1.934802160074720234e+02 1.093977461032480392e+02 -2.906161697978025060e+01 -1.371730373897489130e+02 -5.468369386502984320e+00 -9.481747960851643597e+01 -1.680977859080294579e+01 -4.343609793605531344e+00 -1.263815406520022435e+02 -1.265134991778919300e+02 -6.420737682811949298e+01 -1.322870849301400824e+02 2.062229056585348985e+02 -1.651218891017808517e+02 -5.145598670598843682e+01 1.770026066590609162e+02 3.479863579878789892e+01 -3.036415579903718935e+02 -1.303316640346300233e+02 3.646346396934522005e+01 5.604669278843180535e+01 8.876436819486366758e+00 -1.586688992493404839e+02 3.661386002081766833e+01 7.628527759824484278e+00 -7.625071538644584734e+01 2.079349524086445058e+02 2.078691488318424376e+02 4.428225578435883492e+00 -2.139074720026711702e+02 1.292649048441033415e+02 3.158770361533660065e+01 3.802246194846426786e+00 7.865228729581426137e+01 -2.128167959545782821e+02 -1.416284558657147556e+02 1.447201607309713154e+02 1.124683212751138655e+02 5.432854193989877700e+01 1.469783187448106503e+02 -1.828745021355130973e+02 -2.093538201168844282e+01 -1.338360191222396338e+02 4.465127091772533419e+01 -1.065414937448243506e+02 8.927459706529936057e+01 -3.471546515728951476e+01 1.269980337815530547e+01 1.820021111276077477e+02 2.918509955360748975e+01 -2.703776362300283722e+02 -1.295936640578426022e+02 -8.551930235263451152e+01 1.621860880378890215e+02 1.285395388712676734e+01 -5.514361325135217839e+01 3.121870902638379874e+01 6.416234947422179857e+01 -4.063503270491038677e+01 1.102936068489598540e+02 -1.033282003087928729e+02 5.048310900853998362e+01 1.148119067746197572e+02 -3.629649358715651175e+01 -1.006547738914738659e+02 -1.163039864364010754e+02 1.228468698706431042e+02 -5.091989064594766035e+01 2.016246159351729261e+02 5.868042086719849237e+01 1.138307049224122807e+02 1.890909880766358526e+02 8.787277809063542833e+00 -1.274530308978671940e+02 -1.700789499262760671e+02 -1.171598048733954727e+02 4.353801742577503120e+01
-1.367452578185927869e+01 -4.798337297844781801e+00 1.037932090825865856e+02 -2.294588243363234028e+02 1.557239158567074071e+02 6.367804693764831825e+01 1.524308482696941383e+02 -1.294004164068534237e+02 -2.803648256583138210e+00 -2.413688321709477691e+01 -2.199019949306222941e+02 3.282705091131037989e+01 -1.836819156116641594e+01 1.225218282055838017e+02 -1.252633551319256782e+02 6.182542856517657981e+01 1.255726504035304174e+02 -4.602197048882323571e+01 -4.981624543805577332e+01 -2.715577948367494798e+01 6.179893396354952984e+01 6.327647761643937230e+01 3.246172026892310214e+01 -2.330009521869828291e+02 -5.177323610403504262e+01 9.162717355043248801e+01 9.914183082216071696e+00 -1.035005841284938022e+01 -6.667474275028327213e+01 -1.545487423055660692e+01 7.347929163351231807e+01 -1.456887457537702346e+02 -6.198721650650218606e+01 9.030054661207064015e+00 2.078506935577377703e+02 2.124265273384251884e+02 -3.207908610481015188e+01 5.599392403200393176e+01 -2.885568700633663330e-01 -1.399429839868442116e+02 9.617769956626527517e+01 1.074631312926305071e+02 1.087326685447098811e+02 1.172841992652444887e+01 6.202885560989656710e+01 4.822243983470133344e+01 3.896713206550161601e+01 2.935344323979527914e+01 1.105048776694800949e+02 8.990491715421093488e+01 6.574937825065302377e+01 1.632695531640213460e+02 2.480406859345955581e+02 1.959250080174261655e+02 -5.923158957366596411e+01 4.935674510083959632e+01 -6.443582412971079521e+01 5.654735574681212995e+01 -1.924695054148229190e+02 5.660885001674371608e+01 -2.051838232783094895e+02 -1.690197990362126461e+02 1.295940163728631234e+01 -9.235964931754853779e+00 1.698755815650028751e+02 -2.082883499557592302e+02 7.543615131263767637e+01 2.302131771183905471e+02 -7.300871974966495870e+00 -1.950198930108978459e+02 3.569489369760130160e+01 1.976295087409064877e+02 -6.121227865992231187e+01 -2.669459190365034260e+02 -1.027662543362310856e+02 8.805603609955813482e+00 -2.305596007303916224e+02 3.204190899783132807e+01 -1.798467002842261877e+02 -1.860288846194337395e+02 -5.718826815578906775e+01 1.528848084553270610e+02 6.972026189050764344e+01 1.062217870011998144e+01 -8.882506540360381564e+01 -4.272792489883986633e+01 6.394862067128198646e+01 -2.327199732721779810e+02 5.427317285466826036e+01 -7.529285167373625143e+01 -7.831991551849969824e+01 -1.773624100113952125e+02 6.533785017408983720e+01 9.310328804046798723e+01 -1.628940855275161255e+02 1.733374072475990602e+02 -4.005820066974820293e+01 -1.697351539541719490e+01 8.782542953090870697e+01 1.568541129248457935e+02 2.172585366344357638e+01 1.519947775773969738e+02 -1.850783279626300271e+01 -9.105229843379856902e+01 -1.970295270545212318e+01 1.014893292696787199e+02 4.640778248523135829e+01 1.009502171348535313e+02 9.743203217797262994e+01 -8.567685537478328683e+01 -1.753486638446793791e+02 1.270038809041395211e+02 5.600396389971410116e+01 1.663349526311112214e+01 3.156756112870354869e+01 -7.011005677375200662e+01 9.913810023267376437e+01 9.271331850995501611e+01 -1.407763479781364779e+01 -7.353241742870902442e+01 3.180927334109811611e+01 6.469313459316059500e+00 -6.356932600237413311e+01 1.750360349737773618e+02 -3.415380230729147115e+01 1.255907736622095143e+02 -7.242999326007651462e+01 3.964657622902841183e+01 -3.733737551903069374e+01 9.239940156437204166e+01 2.427504217433753908e+01 1.194080088843479217e+02 -1.198299595573407856e+02 7.682273965232172941e+01 1.276409506189227301e+02 -4.623616573966787513e+01 7.798312268506466971e+00 -1.302258922144140740e+01 1.206875025549415454e+02 3.594170733920346361e+00 1.744514074804599773e+02 -1.462301819457490808e+02 1.206976216276245282e+02 -9.452229116878156390e+01 9.901487073570667974e+01 -1.417777155068415880e+02 3.055201896688189933e+01 2.558802682843800369e+01 1.907769294331518761e+00 3.757811418126077996e+01 4.744600023086795204e+01 -1.289924420602121025e+01 1.111931058916010606e+01 1.118864357600260888e+02 1.317687137559789221e+02 -8.970766223421274788e+01 -5.617753235719039395e+01 4.907817098394787081e+01 1.613493635549157368e+00 -1.418116905366786114e+02 -5.702048381111838182e+01 -3.676705819069511705e+01 5.069807970220151105e+01 -6.795424775751051527e+01 2.377556729134028046e+01 1.661787590862440140e+02 -8.238252510820568375e+01 8.370830880182893452e+01 8.720154137173774700e+01 1.160557183470243636e+01 1.279892152913927816e+02 6.522225146840860077e+01 1.743175471460386063e+02 -3.579652072562912934e+01 1.167180844424019597e+02 5.762653815293538884e+01 -1.669944703470349978e+01 2.118945251585674896e+02 -1.441384407149060678e+02 5.074600268357029620e+01 -1.948017593879359879e+02 -8.745551417681953410e+01 4.260274321850069867e+01 -7.501843060692439735e+01 -1.619826608225718871e+02 2.071561878104908487e+02 -8.917002849967948919e+01 -4.936828452550037127e+01 -4.812325929726163309e+01 1.265880464951615920e+02 2.025584516328317477e+02 6.734816677152784337e+01 1.521053831611328917e+02 2.282311751398937076e+02 -1.712955811648039228e+00 1.694833187823055596e+02 7.374549249504332238e+01 1.980556732395137942e+02 -1.308149834994185312e+02 -1.237643011608723675e+01 6.575975104058250587e+00 1.976242979758796992e+02 -9.459956053115615759e+01 -6.285983672993405236e+01 -5.510034305624123618e+01 -1.393028369348214994e+02 4.844433141613343707e+00 -1.050191218449460564e+02 1.602627504704602188e+02 2.454148453915291128e+01 1.251223430698305172e+01 7.522896325695077735e+01 -5.157592724802256612e+00 1.216245484177727576e+02 -1.652243578962606989e+02 4.721580816240263800e+01 -1.777924864970297847e+02 1.221618708453031843e+02 9.983498137483100265e+01 -7.005816789383294463e+01 4.861972602658834575e+01 2.477384809650462785e+02 -3.166630536208455737e+01 4.334877559805917002e+01 -3.398313678701045859e+01 6.026670403165139334e+01 6.690250201208236547e+01 -6.512826608191290667e+00 1.060624578139609469e+02 1.056543063890864431e+02 -2.016886441320504559e+02 -1.594170099459491325e+02 -1.246073682981701438e+02 -9.855557019514357364e+00 -1.558434243297589319e+02 1.201865010950516961e+02 1.148123421462350393e+02 6.131226088845275513e+01 1.160491303647388150e+01 1.640262611940077022e+02 8.733069241703364582e+01 7.018452080881073130e+01 -1.057480054265702165e+02 1.583725385535146017e+02 -3.696068624498908495e+00 1.136686946493198036e+02 9.162206448143530579e+00 3.821437819184035334e+01 -7.874772714900845472e+01 -9.438425906307490720e+01 7.442367079496135318e+01 -3.959708109922632335e+00 1.521029775988971835e+02 -1.308862733321435456e+01 -2.981325883722734105e+00 4.766337220509326045e+01 2.354966969157261403e+01 1.469734418787388108e+02 1.515979782904449458e+01 3.723036241049484119e+01 -1.607706556878303843e+02 6.844069893811078487e+01 1.388669565343449221e+02 -1.842234904019851172e+01 -2.368037484228131859e+02 8.764632840377853995e+01 1.412269390196482561e+02 2.101751045445527666e+01 1.958257152726048957e+02 -4.221197333588031952e+00 4.444689449630239864e+01 -4.509031351946634203e+01 -1.435225967548497863e+02 5.789168350528717610e+01 -4.907894155156555627e+01 -8.385840563595603214e+01 4.258981155509184191e+01 -1.909931364070166353e+02 7.416232066890790975e+01 1.697506791606428749e+02 -1.045543138226673818e+02 1.785596681827230157e+02 -1.008767771518119076e+02 -6.195701460732519372e+00 -1.083458294932163568e+01 7.901542484755032092e+01 -4.801666720475102323e+01 -1.112354699997009106e+02 -9.126794813931762462e+01 1.502825507202361166e+02 6.091958381474282191e+01 -1.357025819142808416e+02 4.594180006572377906e+00 4.477750256297338183e+01 8.506719340105500748e+01 -4.154941081575162798e+01 6.181304032048850416e+01 -7.102503889240531976e+01 -1.672252827693163226e+02 -3.566895631829284952e+01 1.451561537166792846e+02 -1.166678114466017604e+02 -6.633499988949483672e+00 -1.677336966054169238e+02 -4.864929333896389707e+00 -1.501118636537750888e+02 3.381413967807927179e+01 6.182959822980485853e+01 -5.178382558761484944e+01 -8.478010193459292054e+01 5.783382887698805597e+00 7.650120758168789337e+01 -6.969244844139903705e+01 1.385328561411927240e+02 1.084303441137527102e+02 -1.312188812100618520e+02 -1.083800091059160309e+02 1.388297994626687171e+02 7.333804572456085680e+01 1.543045789481598433e+02 1.030868559599861243e+02 8.340526279279544042e+01 -6.188052516620147259e+01 -8.399917155223410248e+01 -7.915099409534840902e+01 2.099396157051717466e+02 3.128900030842187263e+01 -2.553718970039764002e+01 -7.035996383286675382e+01 -5.137368165390313379e+01 -1.345547228611354740e+02 -1.694759004258517621e+01 -1.792681418725049696e+02 1.277797010892359566e+02 4.705514244700271576e+01 -1.177800783208004276e+02 -4.942544773873644459e+01 1.223684054713313714e+02 -9.913499350000112997e+01 1.050493326421672577e+02 -1.210044410553286269e+02 -1.201149986724485430e+01 -9.756832707442373476e+01 9.162160420123821325e+01 -4.340557472255061811e+01 1.059808489420066913e+01 2.993745319793999826e+01 -1.293849277686642267e+02 1.277313415777594940e+01 4.933469615250476892e+01 -2.292609770739390740e+01 -7.021052554743202734e+01 2.067454631939298508e+02 8.826740662296025164e+01 4.815376539677779277e+01 -3.209071588383940821e+01 8.195389593303809761e+01 1.711140182668098078e+02 -9.426426738479868561e+01 2.138254960691398594e+02 -1.358835116037886053e+02 -1.878018896154690367e+02 1.550803453204532332e+02 -2.388266503861560466e+02 -1.048813574537638571e+00 -2.500245032402073093e+02 -1.561430088187215688e+02 7.323841025911374913e+01 -1.487047116331266352e+02 5.961197575495702239e+01 1.121322852070936023e+02 -1.637550692058171649e+02 -3.079805390365578432e+01 7.695842425943409637e+01 1.367299920422801733e+02 -1.899260966678425575e+02 8.925129470891440064e+01 -9.997658515106024879e+01 -1.009973683538434130e+01 -1.420118745374769809e+01 -8.125148827309403998e+01 -9.221210096746867180e+01 1.851291848772956428e+02 -2.209921060352434452e+01 1.345412147415001813e+00 1.329285767148213040e+02 -8.845580184010145786e+01 -3.514644961816425450e+01 -1.099039003587526224e+02 -4.989662567210894650e+01 5.317354432577884538e+00 6.069711011205396289e+01 -1.380930510777368454e+02 2.425804480449300797e+02 -5.517650401414056915e+01 1.256221963802767476e+02 -5.000304862510899540e+01 1.227308844590337031e+02 1.424388537737327454e+02 4.923293088334931866e+01 1.251697862913121639e+02 -4.430402214178766229e+01 1.434769859487520023e+02 -1.603464441422980542e+02 -6.704099475067796732e+01 -6.457080510989077027e+01 2.614600826365828823e+01 -1.664535393292279650e+02 7.441738709013088737e+01 -3.162129325512842826e+01 -8.476022913203156861e+01 9.192849411186486464e+01 -1.549750566994920575e+02 -9.353984982862932895e+01 -5.391635270250470313e+01 3.394243113174819371e+01 1.331778153989016005e+02 1.199131040140339195e+02 7.094149602140002742e+01 -1.686922124272996149e+00 1.793150386224275508e+02 1.256752846534650701e+02 -9.682221665342792960e+01 -8.020206670012564132e+01 5.702361991041009048e+01 1.027338057933446969e+01 1.004886838388999450e+02 1.708748057746165898e+02 7.237413169204864971e+01 2.496721178800957475e+01 -1.047687303853003158e+02 1.762049684388801722e+02 -1.165772477296654159e+02 -1.694674306524759118e+02 6.736536503907358053e+01 1.142650032843145880e+02 2.010298348896010978e+01 -1.423074618943504674e+02 3.049760573644815764e+01 4.349946579908387889e+01 -2.884020747008566588e-01 1.341320921601802922e+02 9.985982788640761498e+01 1.751909290313289702e+01 8.025831726661408538e+01 -1.096883051945000886e+02 -6.418549160836659162e+00 1.006930640654976941e+02 3.039132888866169679e+01 -6.660727062483927341e+01 2.027531214781288043e+02 2.366184048113331926e+02 -1.285635651830787083e+02 -2.824071683563061086e+01 -2.152382580495349771e+02 -7.389010728040935305e+01 1.603601173325324964e+02 3.520610437346977317e+00 -7.265083843533659547e+01 1.676709920009132304e+02 -6.400456946519595647e+01 -1.643348125815765286e+02 1.397204270110540563e+02 -6.881081991295081934e+01 3.520676271215131692e+01 8.837757621117366114e+01 1.408487118170683772e+01 -2.436743197168379425e+02 4.322848113866223940e+01 -6.236694360781648072e+00 9.210774750529402866e+01 -2.409450197052177245e+01 1.035152679957813007e+02 1.732728029351454424e+01 -8.674587075107334044e+01 -2.093155309838828870e+01 -1.791762256547672507e+02 1.176120430785647386e+02 2.583130271287897273e+01 -4.258428487424466624e+01 -5.299663916109717832e+01 -6.425481694732195592e+01 4.200767554791713110e+01 1.643105117498552659e+02 1.357087409036248857e+02 4.406688063158093627e+01 -2.023222518753607915e+02 -3.966658516320900674e+01 4.478957201759310891e+01 1.200138369605531494e+02 8.923438724516945797e+01 1.582060461578484833e+01 -1.902648158447499043e+02 1.347378084847692037e+02 -2.288338262754332959e+02 -2.104681128260512537e+02 -1.907494676420341762e+00 -7.545474130782810107e+01 -2.458940967808209521e+01 8.911568479950132371e+01 5.719280195196644456e+01 -1.137534001355392093e+02 -1.548566245365456382e+02 1.493826898134234327e+01 1.264984730446901011e+02 2.120679735277359867e+01 -5.799698126429885292e+01 -5.274924202840088583e+01 -1.210303717623305708e+01 1.650317800875717751e+02 2.289404128793496085e+01 -1.807281284923439841e+02 1.334852965572081018e+02 -6.949997976407877331e+01 -4.350065709516338863e+00 1.603123623563772071e+02 -5.448176458505064090e+01 -2.037343516665455923e+01 -1.143574110986600516e+02 -6.264565676333750055e+00 -2.485031732738848831e+01 1.371562679294991653e+02 1.250561307431437967e+02 7.035692134924083518e+01 6.806735992348262698e+01 -1.948789333818179514e+01 1.408273145652854339e+02 -1.173577935197773456e+02 -4.447676803436975135e+00 -9.479581215387071325e+01 1.636523786584193658e+02 7.595607228217593843e+01 5.384959323192578040e+01 8.645103666841650991e+00 -5.544357815753767227e+01 3.579919134024000016e+01 7.054572465546353754e+00 3.694531048629908110e+00 2.512620581953402521e+01 6.223132966107396413e+01 1.772326044938912730e+02 -4.038516762742551691e+01 -5.413816999379904615e+01 6.951279705780062557e+01 1.204221876499017867e+02 -1.332640324434772516e+01 9.565399590460781098e+01 1.082211447490856955e+02 2.193252613053589073e+02 -9.009308129893184969e+01 -1.277269412097138570e+02 -2.979562913634780941e+01 6.464677881533590664e+01 -1.055827032137082355e+01 1.117951741934530219e+02 3.873080166020708504e+01 -1.692392439252620306e+02 4.689612795913422616e+01 -9.308570702454419177e+01 -1.407796999412359185e+02 1.399287492448866885e+02 -7.905748869130341916e+01 6.148554193794463174e+01 1.157128444875291535e+02 -1.030442394163239754e+02 2.438321816260641484e+01 -7.503698398128234714e+01 4.183672202630710046e+01 -1.190789320656606662e+02 6.397659845593519634e+01 5.680606093928071942e+01 4.126082076619189465e+00 8.741595997649872629e+01 -1.589909863395382104e+02 7.938543708138860211e+01 -3.033440320547140345e+01 -1.742977813111440639e+02 9.743648035694117482e+01 2.526875441126398059e+01 -2.024321429843946873e+02 2.426629972296418600e+02 -5.400902658357203956e-01 1.085189090597779966e+02 -1.244322786635084270e+02 -2.003672660761695852e+02 -9.627283294544012904e+01 2.529714573710061920e+00 1.474686040423140696e+02 4.177661246672159656e+00 -9.858877629043266211e+01 5.205939741360982254e+01 1.413958806882094450e+02 6.707132298779139035e+01 -5.341338275255660051e+01 -6.100813341177316573e+01 8.719416490099489181e+01 3.176176489424028659e+01 -2.017091844508647114e+02 -2.139488944969156847e+01 1.744142008713518521e+02 1.020084879558754096e+02 -5.911945029684627428e+01 -1.153521606410584894e+02 -4.404603347945866432e+01 -4.960498066260657168e+01 -1.180873643040771839e+02 -1.911770694149336336e+01 -4.711756186536108260e+01 -1.172151808861492697e+02 -1.360204991732444739e+02 -2.775069706178402384e+01 -1.296284896528028980e+02 -1.379691206742406564e+02 -3.954694158896530354e+01 -5.713460382368470647e+01 -1.144854768548008366e+02 1.990249017073927291e+02 1.126836576217281838e+01 -3.008917639532723598e+01 -1.819833191673946260e+01 8.410715934377982705e+01 1.670811227745783967e+01 2.678157834217240563e+01 -2.281084984233795510e+01 -4.937247726158339844e+01 2.237868071482341037e+01 -1.553983937616996513e+02 -1.702284720436267662e+02 -9.674754755239624160e+01 -2.040500493692363477e+02 -9.584374971177480518e+01 9.178983979283226802e+01 6.562179023189968063e+01 -2.788152234335388613e+01 6.497915895003730213e+01 -1.673559562279362183e+02 -4.357928787035099560e+01 -1.241440967069891315e+02 -7.138089912710636042e+01 2.254746853389437433e+02 -2.194949285579424156e+02 2.194802104406418835e+02 2.676340373483164115e+01 -6.041710286488238779e+01 9.868753820580400316e+01 1.326794608500735251e+02 -5.548822543385747963e+01 -2.177874863512066383e+02 -1.594251648283523082e+02 1.093289680152547163e+02 8.956570363688432224e+01 -1.449956199296094610e+02 3.419886643072413790e+01 -4.238266420932716017e+01 -8.275688092918970540e+01 -3.038835967186752640e+01 -5.864314548167239849e+01 -9.245099365240820077e+01 -3.636362459092647015e+01 4.736844652202347739e+00 -3.502542012570477681e+01 -4.526482167371002063e-01 -1.540096269180159183e+01 9.839416582374911968e+01 1.358433478675558490e+02 1.409201103370516783e+01 1.793582343058163886e+01 -6.743597372679992930e+01 -2.095443960814333764e+02 3.620461309892498747e+01 -9.811042360817940278e+01 2.760178786005538143e+01 -8.811944833624272277e+00 1.042702727219951608e+00 7.716482606834287594e+01 1.303010000473167906e+02 -7.531112918852477378e+01 4.062901692373558404e+01 -2.061166273182134319e+02 1.031827507717127723e+01 7.554446819686288173e+00 -1.310125701290939730e+02 -3.608087968491610553e+01 -4.739380497554183336e+01 5.112371794095516009e+00 -1.093420561013990238e+02 2.893485080523273112e+01 -1.044218520971318753e+02 6.007066270300093436e+01 7.251210750274269401e+01 3.941182723332443061e+01 -3.102983767073261845e+01 1.148461892889179978e+02 6.525521039778115551e+01 8.550329192579842186e+01 -7.159071944959647738e+01 2.174555722108397759e+01 1.367106073203513290e+02 -6.246640205388440137e+01 -7.381799443476129596e+00 3.419609832180798747e+01 -1.371800122343529722e+02 1.045432340965710267e+02 9.570389189287369902e+01 -1.079991359252351941e+02 -8.798394660794879485e+01 -5.928879285910112173e+01 -4.858233772542507012e+01 -1.712350176672942439e+02 -1.451942695983888711e+02 -1.414467861052867477e+02 1.128225843333682974e+02 6.377939067433660369e+01 1.702754284141630876e+02 7.669685897193112112e+00 -9.158460196967061506e+01 1.996239575818279022e+01 1.476876222225645563e+01 -6.771514705953518387e+01 7.901169493536518473e+01 1.259685170499953983e+02 1.069686825633546157e+01 1.530491073845275309e+02 2.403757894935911565e+01 1.183722339020365126e+02 1.613187445546495979e+01 -2.215894130360449594e+02 2.328777964545526231e+02 -5.218531991517523494e+01 -1.590659749571507291e+02 -7.163904060571719867e+01 -4.582999698468108818e+01 4.382990408547303929e+01 2.713034252983983308e+01 4.846890342349887248e+01 -7.860501214605201881e+01 1.296870444912188987e+02 -9.139454197983441475e+01 -7.423639105474832078e+00 1.509333873892329052e+02 1.161275489603879976e+02 6.135953548713976602e+01 -1.873413248727205200e+02 2.691069429673530067e+01 1.485566867361511356e+02 2.479539490768413756e+01 1.031558030454477688e+02 1.124774123995719464e+02 -2.232184035747347082e+02 8.122591017995050322e+01 -6.096995762626028181e+01 -2.373093285194667885e+02 9.332925647101474453e+01 2.591581375584706493e+01 -1.280541098040651207e+02 -6.137688694472785045e+01 1.453158143015322423e+02 1.541481025776305387e+02 -7.908629238799659333e+01 -1.332214406037082597e+02 -8.690935541449238144e+01 -1.725814406656969027e+02 2.032073324609687148e+01 3.934979874362682750e+01 -1.752814606979122303e+01 -1.281893278348619702e+01 -9.263249471807182545e+01 -9.148018775265960301e+01 -2.545813705704317442e+01 1.380134553751211115e+02 1.403494450545311736e+02 8.349430740284030605e+01 9.978560596175309172e+01 -8.079548426162276087e+01 -1.852261951810443463e+02 -1.360730669567346318e+01 -2.379037435963212133e+01 -7.268844524950819164e+01 1.547840153753749615e+00 7.484628140077413150e+01 -5.421087970571948489e+01 2.517108094973735177e+01 8.106861929577772230e+01 7.176765172314777885e+01 1.131460067610376257e+02 -1.527785790400287169e+02 4.059923114192767457e+01 8.530632233819677879e+01 9.702959476639109937e+01 6.050989905050604278e+01 -1.057165191851287602e+02 1.402309076950303393e+02 1.304880078844325055e+02 9.811543367101293711e+01 1.039554294111881774e+02 -8.625868150876516438e+01 -1.524244209521767246e+01 -1.321371623871340084e+01 7.892865214398941021e+01 6.651736738018544770e+01 5.725943666163873758e+01 9.994479008872743009e+01 1.192340631663267487e+02 1.267708645351627013e+02 -6.652729970091235145e+01 8.250897931824479770e+01 6.682715829086158976e+01 -1.204714499205636002e+02 1.347517311878195017e+02 -1.029504640061012211e+01 -2.857921515071068086e+01 2.040499075932895607e+02 9.057862743704568231e+01 1.270903891722922339e+02 -1.478414642954422220e+02 -1.616459097739581239e+02 -1.576202510340334300e+02 -1.252392022690840179e+02 -4.539470522791135210e+01 1.126423197031475922e+02 -1.729325081288612580e+02 3.339143275619058926e+01 1.480976300171111575e+02 -6.087652806601243327e+01 -9.376433375201993670e+01 -3.602100978903954598e+01 1.395392653860351686e+02 2.334332918283110700e+02 -6.839248522205073755e+01 2.034360426419019774e+01 -2.847532187860258901e+01 7.036382832447981173e+01 6.194932152515077917e+01 -2.191423611093552495e+02 -9.112687064613395194e+01 1.414135976316283632e+02 1.437424334247348270e+02 9.721180281908323195e+01 -5.118699889439459838e+01 -7.799077908950509652e+01 -4.674260493617881451e+01 -1.815522083222597587e+02 7.323795738392989563e+01 -2.643623582192401145e+01 1.712263483458784492e+02 -2.872268838615280018e+01 -3.236986154163438982e+02 1.491428544659194699e+02 5.185245029717641074e+01 -1.214730706469254642e+02 -2.276390824960864023e+01 3.637414766826157830e+01 -2.138303780823467264e+02 -1.177157386120486819e+02 -1.128245800229387896e+02 -5.817084072312151477e+01 6.471912593157385629e+01 -1.697505845399618067e+02 1.112287516451842322e+02 -5.595139583068583988e+01 2.980835868188993931e+00 -1.374641254074671792e+02 -1.066791915012090612e+02 1.812282983106049983e+02 8.930435835909790399e+01 -4.353186911439389917e+01 3.834636587207229041e+01 -2.893579132435919377e+01 4.449667311899055733e+01 -1.078474340300321472e+02 1.018289460852051747e+02 5.210106525041401682e+01 -1.226204343724599397e+02 1.204081162319758249e+02 -5.070656518906919530e+01 1.030558382095866961e+02 -5.097514729791039656e+01 9.119096342171775404e+01 -1.582688172244737927e+02 1.471851822248137296e+02 2.556740651931418640e+01 1.038166233184513487e+02 1.345505875113513810e+02 -1.513136198757218835e+02 -8.863426974104665135e+01 -1.090057496933876280e+02 6.903751379118573084e+01 -1.768499705848055612e+02 1.563035777073123711e+02 1.470352693804882733e+02 5.471064894498353226e+01 -8.764616155068692649e+01 5.889568370294361443e+01 -1.107512309957885606e+02 -1.133791895200305788e+01 3.614690582451390100e+01 -1.897488734250325990e+02 -8.429246026503464861e+01 -1.398033065837820210e+01 1.055984875916741004e+02 -5.185094323948518280e+01 1.122517645267422637e+02 -6.649001127669369282e+01 -2.178466816878381280e+02 -1.106700687949481221e+02 -3.525895077980105441e+01 -6.221928977690351559e+01 3.112522567735804913e+01 5.306013794674827722e+01 6.578925023064528865e+00 2.608584618619117634e+01 -1.212147595460627372e+02 5.561188655068438180e+01 3.372846164166061556e+01 -7.467780296750522950e+01 9.553807264107803121e+00 5.818396168783791467e+01 -9.869396752930597927e+01 -5.694371620473307871e+01 -2.494173702781387192e+01 1.009883347568854930e+02 -1.771759235591512649e+01 4.335783255487891452e+00 -2.358930010683980072e+02 -9.836108077852269105e+01 1.023554445464841933e+02 -9.240581936087379233e+01 3.243935724989743363e+01 3.215995178178872038e+01 3.930206356618730723e+01 6.840464840319003770e+01 -1.836817417958497174e+02 1.490062663098313749e+02 8.426873129666950035e+01 -7.755707983010911022e+00 -8.365579768763858226e+01 1.159163518417258274e+02 6.428201924076053331e+01 -2.081524560325454729e+02 -5.218024772264855216e+01 -8.455107671501681921e+01 -5.371498607862483254e+01 -6.416861740612762333e+01 -1.026166998099356107e+02 -6.252626841102923549e+01 1.982455841987620602e+02 -1.768922245651301353e+02 6.782959796869285185e+01 2.872368591109968250e+01 -7.783626900928763348e+01 1.073636484826592863e+01 -4.079741015270026594e+01 3.537905200760313562e+00 -9.953406134376066916e+01 -2.045705855052492552e+02 1.904679854056776378e+01 4.342836417098599355e+01 -1.326010099171036138e+01 -9.402528232798273322e+00 -4.120514973534838532e+01 -1.967555780783464456e+02 -3.176677899225247259e+01 -6.772034682400983741e+01 1.450099230816043416e+01 -1.616300920556365739e+01 9.375457167557678417e+01 -6.529256514295603608e+01 -1.074423041495270041e+02 -3.707760815398496845e+01 -9.374168373160713941e+00 4.721137832309428006e+01 -2.296446417145929431e+01 -7.631504206971028736e+01 -1.643672287291804324e+01 2.081463107270308299e+01 4.921977269323927828e+01 -1.181659540916342053e+02 -1.440790760081384292e+02 2.386757007159820034e+02 -2.261737765441986880e+02 -7.873813036898837936e+01 -4.805333889438415440e+01 1.449619996895299892e+02 6.559137907466175932e+01 2.371318001119661574e+02 2.536460916454417429e+02 -6.457810564834370837e+01 1.342225713582327842e+02 -5.791695486131862225e+01 -4.228678953260593687e+01 -1.043548344526178226e+02 -8.276347187111930737e+01 -7.214387327076020995e+01 -9.221524702345138280e+01 -2.526679390680431254e+02 -2.808057375757219347e+02 1.396420016838934544e+02 -2.748494016938260032e+01 5.520684206290377460e+01 1.356046941786029265e+02
