# 
#                 ----------------------------------------------------
#                 Data from a 3D direct N-body simulation. 
# 
#                 rows are i-particle; 
#                 coumns are :mass, tag, x ,y, z, vx, vy, vz, ax, ay, az
# 
#                 NTHU, Computational Physics Lab
# 
#                 ----------------------------------------------------
#                 Time = 6.099999999999914
1.000000000000000000e+00 2.000000000000000000e+00 3.000000000000000000e+00 4.000000000000000000e+00 5.000000000000000000e+00 6.000000000000000000e+00 7.000000000000000000e+00 8.000000000000000000e+00 9.000000000000000000e+00 1.000000000000000000e+01 1.100000000000000000e+01 1.200000000000000000e+01 1.300000000000000000e+01 1.400000000000000000e+01 1.500000000000000000e+01 1.600000000000000000e+01 1.700000000000000000e+01 1.800000000000000000e+01 1.900000000000000000e+01 2.000000000000000000e+01 2.100000000000000000e+01 2.200000000000000000e+01 2.300000000000000000e+01 2.400000000000000000e+01 2.500000000000000000e+01 2.600000000000000000e+01 2.700000000000000000e+01 2.800000000000000000e+01 2.900000000000000000e+01 3.000000000000000000e+01 3.100000000000000000e+01 3.200000000000000000e+01 3.300000000000000000e+01 3.400000000000000000e+01 3.500000000000000000e+01 3.600000000000000000e+01 3.700000000000000000e+01 3.800000000000000000e+01 3.900000000000000000e+01 4.000000000000000000e+01 4.100000000000000000e+01 4.200000000000000000e+01 4.300000000000000000e+01 4.400000000000000000e+01 4.500000000000000000e+01 4.600000000000000000e+01 4.700000000000000000e+01 4.800000000000000000e+01 4.900000000000000000e+01 5.000000000000000000e+01 5.100000000000000000e+01 5.200000000000000000e+01 5.300000000000000000e+01 5.400000000000000000e+01 5.500000000000000000e+01 5.600000000000000000e+01 5.700000000000000000e+01 5.800000000000000000e+01 5.900000000000000000e+01 6.000000000000000000e+01 6.100000000000000000e+01 6.200000000000000000e+01 6.300000000000000000e+01 6.400000000000000000e+01 6.500000000000000000e+01 6.600000000000000000e+01 6.700000000000000000e+01 6.800000000000000000e+01 6.900000000000000000e+01 7.000000000000000000e+01 7.100000000000000000e+01 7.200000000000000000e+01 7.300000000000000000e+01 7.400000000000000000e+01 7.500000000000000000e+01 7.600000000000000000e+01 7.700000000000000000e+01 7.800000000000000000e+01 7.900000000000000000e+01 8.000000000000000000e+01 8.100000000000000000e+01 8.200000000000000000e+01 8.300000000000000000e+01 8.400000000000000000e+01 8.500000000000000000e+01 8.600000000000000000e+01 8.700000000000000000e+01 8.800000000000000000e+01 8.900000000000000000e+01 9.000000000000000000e+01 9.100000000000000000e+01 9.200000000000000000e+01 9.300000000000000000e+01 9.400000000000000000e+01 9.500000000000000000e+01 9.600000000000000000e+01 9.700000000000000000e+01 9.800000000000000000e+01 9.900000000000000000e+01 1.000000000000000000e+02 1.010000000000000000e+02 1.020000000000000000e+02 1.030000000000000000e+02 1.040000000000000000e+02 1.050000000000000000e+02 1.060000000000000000e+02 1.070000000000000000e+02 1.080000000000000000e+02 1.090000000000000000e+02 1.100000000000000000e+02 1.110000000000000000e+02 1.120000000000000000e+02 1.130000000000000000e+02 1.140000000000000000e+02 1.150000000000000000e+02 1.160000000000000000e+02 1.170000000000000000e+02 1.180000000000000000e+02 1.190000000000000000e+02 1.200000000000000000e+02 1.210000000000000000e+02 1.220000000000000000e+02 1.230000000000000000e+02 1.240000000000000000e+02 1.250000000000000000e+02 1.260000000000000000e+02 1.270000000000000000e+02 1.280000000000000000e+02 1.290000000000000000e+02 1.300000000000000000e+02 1.310000000000000000e+02 1.320000000000000000e+02 1.330000000000000000e+02 1.340000000000000000e+02 1.350000000000000000e+02 1.360000000000000000e+02 1.370000000000000000e+02 1.380000000000000000e+02 1.390000000000000000e+02 1.400000000000000000e+02 1.410000000000000000e+02 1.420000000000000000e+02 1.430000000000000000e+02 1.440000000000000000e+02 1.450000000000000000e+02 1.460000000000000000e+02 1.470000000000000000e+02 1.480000000000000000e+02 1.490000000000000000e+02 1.500000000000000000e+02 1.510000000000000000e+02 1.520000000000000000e+02 1.530000000000000000e+02 1.540000000000000000e+02 1.550000000000000000e+02 1.560000000000000000e+02 1.570000000000000000e+02 1.580000000000000000e+02 1.590000000000000000e+02 1.600000000000000000e+02 1.610000000000000000e+02 1.620000000000000000e+02 1.630000000000000000e+02 1.640000000000000000e+02 1.650000000000000000e+02 1.660000000000000000e+02 1.670000000000000000e+02 1.680000000000000000e+02 1.690000000000000000e+02 1.700000000000000000e+02 1.710000000000000000e+02 1.720000000000000000e+02 1.730000000000000000e+02 1.740000000000000000e+02 1.750000000000000000e+02 1.760000000000000000e+02 1.770000000000000000e+02 1.780000000000000000e+02 1.790000000000000000e+02 1.800000000000000000e+02 1.810000000000000000e+02 1.820000000000000000e+02 1.830000000000000000e+02 1.840000000000000000e+02 1.850000000000000000e+02 1.860000000000000000e+02 1.870000000000000000e+02 1.880000000000000000e+02 1.890000000000000000e+02 1.900000000000000000e+02 1.910000000000000000e+02 1.920000000000000000e+02 1.930000000000000000e+02 1.940000000000000000e+02 1.950000000000000000e+02 1.960000000000000000e+02 1.970000000000000000e+02 1.980000000000000000e+02 1.990000000000000000e+02 2.000000000000000000e+02 2.010000000000000000e+02 2.020000000000000000e+02 2.030000000000000000e+02 2.040000000000000000e+02 2.050000000000000000e+02 2.060000000000000000e+02 2.070000000000000000e+02 2.080000000000000000e+02 2.090000000000000000e+02 2.100000000000000000e+02 2.110000000000000000e+02 2.120000000000000000e+02 2.130000000000000000e+02 2.140000000000000000e+02 2.150000000000000000e+02 2.160000000000000000e+02 2.170000000000000000e+02 2.180000000000000000e+02 2.190000000000000000e+02 2.200000000000000000e+02 2.210000000000000000e+02 2.220000000000000000e+02 2.230000000000000000e+02 2.240000000000000000e+02 2.250000000000000000e+02 2.260000000000000000e+02 2.270000000000000000e+02 2.280000000000000000e+02 2.290000000000000000e+02 2.300000000000000000e+02 2.310000000000000000e+02 2.320000000000000000e+02 2.330000000000000000e+02 2.340000000000000000e+02 2.350000000000000000e+02 2.360000000000000000e+02 2.370000000000000000e+02 2.380000000000000000e+02 2.390000000000000000e+02 2.400000000000000000e+02 2.410000000000000000e+02 2.420000000000000000e+02 2.430000000000000000e+02 2.440000000000000000e+02 2.450000000000000000e+02 2.460000000000000000e+02 2.470000000000000000e+02 2.480000000000000000e+02 2.490000000000000000e+02 2.500000000000000000e+02 2.510000000000000000e+02 2.520000000000000000e+02 2.530000000000000000e+02 2.540000000000000000e+02 2.550000000000000000e+02 2.560000000000000000e+02 2.570000000000000000e+02 2.580000000000000000e+02 2.590000000000000000e+02 2.600000000000000000e+02 2.610000000000000000e+02 2.620000000000000000e+02 2.630000000000000000e+02 2.640000000000000000e+02 2.650000000000000000e+02 2.660000000000000000e+02 2.670000000000000000e+02 2.680000000000000000e+02 2.690000000000000000e+02 2.700000000000000000e+02 2.710000000000000000e+02 2.720000000000000000e+02 2.730000000000000000e+02 2.740000000000000000e+02 2.750000000000000000e+02 2.760000000000000000e+02 2.770000000000000000e+02 2.780000000000000000e+02 2.790000000000000000e+02 2.800000000000000000e+02 2.810000000000000000e+02 2.820000000000000000e+02 2.830000000000000000e+02 2.840000000000000000e+02 2.850000000000000000e+02 2.860000000000000000e+02 2.870000000000000000e+02 2.880000000000000000e+02 2.890000000000000000e+02 2.900000000000000000e+02 2.910000000000000000e+02 2.920000000000000000e+02 2.930000000000000000e+02 2.940000000000000000e+02 2.950000000000000000e+02 2.960000000000000000e+02 2.970000000000000000e+02 2.980000000000000000e+02 2.990000000000000000e+02 3.000000000000000000e+02 3.010000000000000000e+02 3.020000000000000000e+02 3.030000000000000000e+02 3.040000000000000000e+02 3.050000000000000000e+02 3.060000000000000000e+02 3.070000000000000000e+02 3.080000000000000000e+02 3.090000000000000000e+02 3.100000000000000000e+02 3.110000000000000000e+02 3.120000000000000000e+02 3.130000000000000000e+02 3.140000000000000000e+02 3.150000000000000000e+02 3.160000000000000000e+02 3.170000000000000000e+02 3.180000000000000000e+02 3.190000000000000000e+02 3.200000000000000000e+02 3.210000000000000000e+02 3.220000000000000000e+02 3.230000000000000000e+02 3.240000000000000000e+02 3.250000000000000000e+02 3.260000000000000000e+02 3.270000000000000000e+02 3.280000000000000000e+02 3.290000000000000000e+02 3.300000000000000000e+02 3.310000000000000000e+02 3.320000000000000000e+02 3.330000000000000000e+02 3.340000000000000000e+02 3.350000000000000000e+02 3.360000000000000000e+02 3.370000000000000000e+02 3.380000000000000000e+02 3.390000000000000000e+02 3.400000000000000000e+02 3.410000000000000000e+02 3.420000000000000000e+02 3.430000000000000000e+02 3.440000000000000000e+02 3.450000000000000000e+02 3.460000000000000000e+02 3.470000000000000000e+02 3.480000000000000000e+02 3.490000000000000000e+02 3.500000000000000000e+02 3.510000000000000000e+02 3.520000000000000000e+02 3.530000000000000000e+02 3.540000000000000000e+02 3.550000000000000000e+02 3.560000000000000000e+02 3.570000000000000000e+02 3.580000000000000000e+02 3.590000000000000000e+02 3.600000000000000000e+02 3.610000000000000000e+02 3.620000000000000000e+02 3.630000000000000000e+02 3.640000000000000000e+02 3.650000000000000000e+02 3.660000000000000000e+02 3.670000000000000000e+02 3.680000000000000000e+02 3.690000000000000000e+02 3.700000000000000000e+02 3.710000000000000000e+02 3.720000000000000000e+02 3.730000000000000000e+02 3.740000000000000000e+02 3.750000000000000000e+02 3.760000000000000000e+02 3.770000000000000000e+02 3.780000000000000000e+02 3.790000000000000000e+02 3.800000000000000000e+02 3.810000000000000000e+02 3.820000000000000000e+02 3.830000000000000000e+02 3.840000000000000000e+02 3.850000000000000000e+02 3.860000000000000000e+02 3.870000000000000000e+02 3.880000000000000000e+02 3.890000000000000000e+02 3.900000000000000000e+02 3.910000000000000000e+02 3.920000000000000000e+02 3.930000000000000000e+02 3.940000000000000000e+02 3.950000000000000000e+02 3.960000000000000000e+02 3.970000000000000000e+02 3.980000000000000000e+02 3.990000000000000000e+02 4.000000000000000000e+02 4.010000000000000000e+02 4.020000000000000000e+02 4.030000000000000000e+02 4.040000000000000000e+02 4.050000000000000000e+02 4.060000000000000000e+02 4.070000000000000000e+02 4.080000000000000000e+02 4.090000000000000000e+02 4.100000000000000000e+02 4.110000000000000000e+02 4.120000000000000000e+02 4.130000000000000000e+02 4.140000000000000000e+02 4.150000000000000000e+02 4.160000000000000000e+02 4.170000000000000000e+02 4.180000000000000000e+02 4.190000000000000000e+02 4.200000000000000000e+02 4.210000000000000000e+02 4.220000000000000000e+02 4.230000000000000000e+02 4.240000000000000000e+02 4.250000000000000000e+02 4.260000000000000000e+02 4.270000000000000000e+02 4.280000000000000000e+02 4.290000000000000000e+02 4.300000000000000000e+02 4.310000000000000000e+02 4.320000000000000000e+02 4.330000000000000000e+02 4.340000000000000000e+02 4.350000000000000000e+02 4.360000000000000000e+02 4.370000000000000000e+02 4.380000000000000000e+02 4.390000000000000000e+02 4.400000000000000000e+02 4.410000000000000000e+02 4.420000000000000000e+02 4.430000000000000000e+02 4.440000000000000000e+02 4.450000000000000000e+02 4.460000000000000000e+02 4.470000000000000000e+02 4.480000000000000000e+02 4.490000000000000000e+02 4.500000000000000000e+02 4.510000000000000000e+02 4.520000000000000000e+02 4.530000000000000000e+02 4.540000000000000000e+02 4.550000000000000000e+02 4.560000000000000000e+02 4.570000000000000000e+02 4.580000000000000000e+02 4.590000000000000000e+02 4.600000000000000000e+02 4.610000000000000000e+02 4.620000000000000000e+02 4.630000000000000000e+02 4.640000000000000000e+02 4.650000000000000000e+02 4.660000000000000000e+02 4.670000000000000000e+02 4.680000000000000000e+02 4.690000000000000000e+02 4.700000000000000000e+02 4.710000000000000000e+02 4.720000000000000000e+02 4.730000000000000000e+02 4.740000000000000000e+02 4.750000000000000000e+02 4.760000000000000000e+02 4.770000000000000000e+02 4.780000000000000000e+02 4.790000000000000000e+02 4.800000000000000000e+02 4.810000000000000000e+02 4.820000000000000000e+02 4.830000000000000000e+02 4.840000000000000000e+02 4.850000000000000000e+02 4.860000000000000000e+02 4.870000000000000000e+02 4.880000000000000000e+02 4.890000000000000000e+02 4.900000000000000000e+02 4.910000000000000000e+02 4.920000000000000000e+02 4.930000000000000000e+02 4.940000000000000000e+02 4.950000000000000000e+02 4.960000000000000000e+02 4.970000000000000000e+02 4.980000000000000000e+02 4.990000000000000000e+02 5.000000000000000000e+02 5.010000000000000000e+02 5.020000000000000000e+02 5.030000000000000000e+02 5.040000000000000000e+02 5.050000000000000000e+02 5.060000000000000000e+02 5.070000000000000000e+02 5.080000000000000000e+02 5.090000000000000000e+02 5.100000000000000000e+02 5.110000000000000000e+02 5.120000000000000000e+02 5.130000000000000000e+02 5.140000000000000000e+02 5.150000000000000000e+02 5.160000000000000000e+02 5.170000000000000000e+02 5.180000000000000000e+02 5.190000000000000000e+02 5.200000000000000000e+02 5.210000000000000000e+02 5.220000000000000000e+02 5.230000000000000000e+02 5.240000000000000000e+02 5.250000000000000000e+02 5.260000000000000000e+02 5.270000000000000000e+02 5.280000000000000000e+02 5.290000000000000000e+02 5.300000000000000000e+02 5.310000000000000000e+02 5.320000000000000000e+02 5.330000000000000000e+02 5.340000000000000000e+02 5.350000000000000000e+02 5.360000000000000000e+02 5.370000000000000000e+02 5.380000000000000000e+02 5.390000000000000000e+02 5.400000000000000000e+02 5.410000000000000000e+02 5.420000000000000000e+02 5.430000000000000000e+02 5.440000000000000000e+02 5.450000000000000000e+02 5.460000000000000000e+02 5.470000000000000000e+02 5.480000000000000000e+02 5.490000000000000000e+02 5.500000000000000000e+02 5.510000000000000000e+02 5.520000000000000000e+02 5.530000000000000000e+02 5.540000000000000000e+02 5.550000000000000000e+02 5.560000000000000000e+02 5.570000000000000000e+02 5.580000000000000000e+02 5.590000000000000000e+02 5.600000000000000000e+02 5.610000000000000000e+02 5.620000000000000000e+02 5.630000000000000000e+02 5.640000000000000000e+02 5.650000000000000000e+02 5.660000000000000000e+02 5.670000000000000000e+02 5.680000000000000000e+02 5.690000000000000000e+02 5.700000000000000000e+02 5.710000000000000000e+02 5.720000000000000000e+02 5.730000000000000000e+02 5.740000000000000000e+02 5.750000000000000000e+02 5.760000000000000000e+02 5.770000000000000000e+02 5.780000000000000000e+02 5.790000000000000000e+02 5.800000000000000000e+02 5.810000000000000000e+02 5.820000000000000000e+02 5.830000000000000000e+02 5.840000000000000000e+02 5.850000000000000000e+02 5.860000000000000000e+02 5.870000000000000000e+02 5.880000000000000000e+02 5.890000000000000000e+02 5.900000000000000000e+02 5.910000000000000000e+02 5.920000000000000000e+02 5.930000000000000000e+02 5.940000000000000000e+02 5.950000000000000000e+02 5.960000000000000000e+02 5.970000000000000000e+02 5.980000000000000000e+02 5.990000000000000000e+02 6.000000000000000000e+02 6.010000000000000000e+02 6.020000000000000000e+02 6.030000000000000000e+02 6.040000000000000000e+02 6.050000000000000000e+02 6.060000000000000000e+02 6.070000000000000000e+02 6.080000000000000000e+02 6.090000000000000000e+02 6.100000000000000000e+02 6.110000000000000000e+02 6.120000000000000000e+02 6.130000000000000000e+02 6.140000000000000000e+02 6.150000000000000000e+02 6.160000000000000000e+02 6.170000000000000000e+02 6.180000000000000000e+02 6.190000000000000000e+02 6.200000000000000000e+02 6.210000000000000000e+02 6.220000000000000000e+02 6.230000000000000000e+02 6.240000000000000000e+02 6.250000000000000000e+02 6.260000000000000000e+02 6.270000000000000000e+02 6.280000000000000000e+02 6.290000000000000000e+02 6.300000000000000000e+02 6.310000000000000000e+02 6.320000000000000000e+02 6.330000000000000000e+02 6.340000000000000000e+02 6.350000000000000000e+02 6.360000000000000000e+02 6.370000000000000000e+02 6.380000000000000000e+02 6.390000000000000000e+02 6.400000000000000000e+02 6.410000000000000000e+02 6.420000000000000000e+02 6.430000000000000000e+02 6.440000000000000000e+02 6.450000000000000000e+02 6.460000000000000000e+02 6.470000000000000000e+02 6.480000000000000000e+02 6.490000000000000000e+02 6.500000000000000000e+02 6.510000000000000000e+02 6.520000000000000000e+02 6.530000000000000000e+02 6.540000000000000000e+02 6.550000000000000000e+02 6.560000000000000000e+02 6.570000000000000000e+02 6.580000000000000000e+02 6.590000000000000000e+02 6.600000000000000000e+02 6.610000000000000000e+02 6.620000000000000000e+02 6.630000000000000000e+02 6.640000000000000000e+02 6.650000000000000000e+02 6.660000000000000000e+02 6.670000000000000000e+02 6.680000000000000000e+02 6.690000000000000000e+02 6.700000000000000000e+02 6.710000000000000000e+02 6.720000000000000000e+02 6.730000000000000000e+02 6.740000000000000000e+02 6.750000000000000000e+02 6.760000000000000000e+02 6.770000000000000000e+02 6.780000000000000000e+02 6.790000000000000000e+02 6.800000000000000000e+02 6.810000000000000000e+02 6.820000000000000000e+02 6.830000000000000000e+02 6.840000000000000000e+02 6.850000000000000000e+02 6.860000000000000000e+02 6.870000000000000000e+02 6.880000000000000000e+02 6.890000000000000000e+02 6.900000000000000000e+02 6.910000000000000000e+02 6.920000000000000000e+02 6.930000000000000000e+02 6.940000000000000000e+02 6.950000000000000000e+02 6.960000000000000000e+02 6.970000000000000000e+02 6.980000000000000000e+02 6.990000000000000000e+02 7.000000000000000000e+02 7.010000000000000000e+02 7.020000000000000000e+02 7.030000000000000000e+02 7.040000000000000000e+02 7.050000000000000000e+02 7.060000000000000000e+02 7.070000000000000000e+02 7.080000000000000000e+02 7.090000000000000000e+02 7.100000000000000000e+02 7.110000000000000000e+02 7.120000000000000000e+02 7.130000000000000000e+02 7.140000000000000000e+02 7.150000000000000000e+02 7.160000000000000000e+02 7.170000000000000000e+02 7.180000000000000000e+02 7.190000000000000000e+02 7.200000000000000000e+02 7.210000000000000000e+02 7.220000000000000000e+02 7.230000000000000000e+02 7.240000000000000000e+02 7.250000000000000000e+02 7.260000000000000000e+02 7.270000000000000000e+02 7.280000000000000000e+02 7.290000000000000000e+02 7.300000000000000000e+02 7.310000000000000000e+02 7.320000000000000000e+02 7.330000000000000000e+02 7.340000000000000000e+02 7.350000000000000000e+02 7.360000000000000000e+02 7.370000000000000000e+02 7.380000000000000000e+02 7.390000000000000000e+02 7.400000000000000000e+02 7.410000000000000000e+02 7.420000000000000000e+02 7.430000000000000000e+02 7.440000000000000000e+02 7.450000000000000000e+02 7.460000000000000000e+02 7.470000000000000000e+02 7.480000000000000000e+02 7.490000000000000000e+02 7.500000000000000000e+02 7.510000000000000000e+02 7.520000000000000000e+02 7.530000000000000000e+02 7.540000000000000000e+02 7.550000000000000000e+02 7.560000000000000000e+02 7.570000000000000000e+02 7.580000000000000000e+02 7.590000000000000000e+02 7.600000000000000000e+02 7.610000000000000000e+02 7.620000000000000000e+02 7.630000000000000000e+02 7.640000000000000000e+02 7.650000000000000000e+02 7.660000000000000000e+02 7.670000000000000000e+02 7.680000000000000000e+02 7.690000000000000000e+02 7.700000000000000000e+02 7.710000000000000000e+02 7.720000000000000000e+02 7.730000000000000000e+02 7.740000000000000000e+02 7.750000000000000000e+02 7.760000000000000000e+02 7.770000000000000000e+02 7.780000000000000000e+02 7.790000000000000000e+02 7.800000000000000000e+02 7.810000000000000000e+02 7.820000000000000000e+02 7.830000000000000000e+02 7.840000000000000000e+02 7.850000000000000000e+02 7.860000000000000000e+02 7.870000000000000000e+02 7.880000000000000000e+02 7.890000000000000000e+02 7.900000000000000000e+02 7.910000000000000000e+02 7.920000000000000000e+02 7.930000000000000000e+02 7.940000000000000000e+02 7.950000000000000000e+02 7.960000000000000000e+02 7.970000000000000000e+02 7.980000000000000000e+02 7.990000000000000000e+02 8.000000000000000000e+02 8.010000000000000000e+02 8.020000000000000000e+02 8.030000000000000000e+02 8.040000000000000000e+02 8.050000000000000000e+02 8.060000000000000000e+02 8.070000000000000000e+02 8.080000000000000000e+02 8.090000000000000000e+02 8.100000000000000000e+02 8.110000000000000000e+02 8.120000000000000000e+02 8.130000000000000000e+02 8.140000000000000000e+02 8.150000000000000000e+02 8.160000000000000000e+02 8.170000000000000000e+02 8.180000000000000000e+02 8.190000000000000000e+02 8.200000000000000000e+02 8.210000000000000000e+02 8.220000000000000000e+02 8.230000000000000000e+02 8.240000000000000000e+02 8.250000000000000000e+02 8.260000000000000000e+02 8.270000000000000000e+02 8.280000000000000000e+02 8.290000000000000000e+02 8.300000000000000000e+02 8.310000000000000000e+02 8.320000000000000000e+02 8.330000000000000000e+02 8.340000000000000000e+02 8.350000000000000000e+02 8.360000000000000000e+02 8.370000000000000000e+02 8.380000000000000000e+02 8.390000000000000000e+02 8.400000000000000000e+02 8.410000000000000000e+02 8.420000000000000000e+02 8.430000000000000000e+02 8.440000000000000000e+02 8.450000000000000000e+02 8.460000000000000000e+02 8.470000000000000000e+02 8.480000000000000000e+02 8.490000000000000000e+02 8.500000000000000000e+02 8.510000000000000000e+02 8.520000000000000000e+02 8.530000000000000000e+02 8.540000000000000000e+02 8.550000000000000000e+02 8.560000000000000000e+02 8.570000000000000000e+02 8.580000000000000000e+02 8.590000000000000000e+02 8.600000000000000000e+02 8.610000000000000000e+02 8.620000000000000000e+02 8.630000000000000000e+02 8.640000000000000000e+02 8.650000000000000000e+02 8.660000000000000000e+02 8.670000000000000000e+02 8.680000000000000000e+02 8.690000000000000000e+02 8.700000000000000000e+02 8.710000000000000000e+02 8.720000000000000000e+02 8.730000000000000000e+02 8.740000000000000000e+02 8.750000000000000000e+02 8.760000000000000000e+02 8.770000000000000000e+02 8.780000000000000000e+02 8.790000000000000000e+02 8.800000000000000000e+02 8.810000000000000000e+02 8.820000000000000000e+02 8.830000000000000000e+02 8.840000000000000000e+02 8.850000000000000000e+02 8.860000000000000000e+02 8.870000000000000000e+02 8.880000000000000000e+02 8.890000000000000000e+02 8.900000000000000000e+02 8.910000000000000000e+02 8.920000000000000000e+02 8.930000000000000000e+02 8.940000000000000000e+02 8.950000000000000000e+02 8.960000000000000000e+02 8.970000000000000000e+02 8.980000000000000000e+02 8.990000000000000000e+02 9.000000000000000000e+02 9.010000000000000000e+02 9.020000000000000000e+02 9.030000000000000000e+02 9.040000000000000000e+02 9.050000000000000000e+02 9.060000000000000000e+02 9.070000000000000000e+02 9.080000000000000000e+02 9.090000000000000000e+02 9.100000000000000000e+02 9.110000000000000000e+02 9.120000000000000000e+02 9.130000000000000000e+02 9.140000000000000000e+02 9.150000000000000000e+02 9.160000000000000000e+02 9.170000000000000000e+02 9.180000000000000000e+02 9.190000000000000000e+02 9.200000000000000000e+02 9.210000000000000000e+02 9.220000000000000000e+02 9.230000000000000000e+02 9.240000000000000000e+02 9.250000000000000000e+02 9.260000000000000000e+02 9.270000000000000000e+02 9.280000000000000000e+02 9.290000000000000000e+02 9.300000000000000000e+02 9.310000000000000000e+02 9.320000000000000000e+02 9.330000000000000000e+02 9.340000000000000000e+02 9.350000000000000000e+02 9.360000000000000000e+02 9.370000000000000000e+02 9.380000000000000000e+02 9.390000000000000000e+02 9.400000000000000000e+02 9.410000000000000000e+02 9.420000000000000000e+02 9.430000000000000000e+02 9.440000000000000000e+02 9.450000000000000000e+02 9.460000000000000000e+02 9.470000000000000000e+02 9.480000000000000000e+02 9.490000000000000000e+02 9.500000000000000000e+02 9.510000000000000000e+02 9.520000000000000000e+02 9.530000000000000000e+02 9.540000000000000000e+02 9.550000000000000000e+02 9.560000000000000000e+02 9.570000000000000000e+02 9.580000000000000000e+02 9.590000000000000000e+02 9.600000000000000000e+02 9.610000000000000000e+02 9.620000000000000000e+02 9.630000000000000000e+02 9.640000000000000000e+02 9.650000000000000000e+02 9.660000000000000000e+02 9.670000000000000000e+02 9.680000000000000000e+02 9.690000000000000000e+02 9.700000000000000000e+02 9.710000000000000000e+02 9.720000000000000000e+02 9.730000000000000000e+02 9.740000000000000000e+02 9.750000000000000000e+02 9.760000000000000000e+02 9.770000000000000000e+02 9.780000000000000000e+02 9.790000000000000000e+02 9.800000000000000000e+02 9.810000000000000000e+02 9.820000000000000000e+02 9.830000000000000000e+02 9.840000000000000000e+02 9.850000000000000000e+02 9.860000000000000000e+02 9.870000000000000000e+02 9.880000000000000000e+02 9.890000000000000000e+02 9.900000000000000000e+02 9.910000000000000000e+02 9.920000000000000000e+02 9.930000000000000000e+02 9.940000000000000000e+02 9.950000000000000000e+02 9.960000000000000000e+02 9.970000000000000000e+02 9.980000000000000000e+02 9.990000000000000000e+02 1.000000000000000000e+03
1.000000000000000021e-02 1.000000000000000021e-02 1.000000000000000021e-02 1.000000000000000021e-02 1.000000000000000021e-02 1.000000000000000021e-02 1.000000000000000021e-02 1.000000000000000021e-02 1.000000000000000021e-02 1.000000000000000021e-02 1.000000000000000021e-02 1.000000000000000021e-02 1.000000000000000021e-02 1.000000000000000021e-02 1.000000000000000021e-02 1.000000000000000021e-02 1.000000000000000021e-02 1.000000000000000021e-02 1.000000000000000021e-02 1.000000000000000021e-02 1.000000000000000021e-02 1.000000000000000021e-02 1.000000000000000021e-02 1.000000000000000021e-02 1.000000000000000021e-02 1.000000000000000021e-02 1.000000000000000021e-02 1.000000000000000021e-02 1.000000000000000021e-02 1.000000000000000021e-02 1.000000000000000021e-02 1.000000000000000021e-02 1.000000000000000021e-02 1.000000000000000021e-02 1.000000000000000021e-02 1.000000000000000021e-02 1.000000000000000021e-02 1.000000000000000021e-02 1.000000000000000021e-02 1.000000000000000021e-02 1.000000000000000021e-02 1.000000000000000021e-02 1.000000000000000021e-02 1.000000000000000021e-02 1.000000000000000021e-02 1.000000000000000021e-02 1.000000000000000021e-02 1.000000000000000021e-02 1.000000000000000021e-02 1.000000000000000021e-02 1.000000000000000021e-02 1.000000000000000021e-02 1.000000000000000021e-02 1.000000000000000021e-02 1.000000000000000021e-02 1.000000000000000021e-02 1.000000000000000021e-02 1.000000000000000021e-02 1.000000000000000021e-02 1.000000000000000021e-02 1.000000000000000021e-02 1.000000000000000021e-02 1.000000000000000021e-02 1.000000000000000021e-02 1.000000000000000021e-02 1.000000000000000021e-02 1.000000000000000021e-02 1.000000000000000021e-02 1.000000000000000021e-02 1.000000000000000021e-02 1.000000000000000021e-02 1.000000000000000021e-02 1.000000000000000021e-02 1.000000000000000021e-02 1.000000000000000021e-02 1.000000000000000021e-02 1.000000000000000021e-02 1.000000000000000021e-02 1.000000000000000021e-02 1.000000000000000021e-02 1.000000000000000021e-02 1.000000000000000021e-02 1.000000000000000021e-02 1.000000000000000021e-02 1.000000000000000021e-02 1.000000000000000021e-02 1.000000000000000021e-02 1.000000000000000021e-02 1.000000000000000021e-02 1.000000000000000021e-02 1.000000000000000021e-02 1.000000000000000021e-02 1.000000000000000021e-02 1.000000000000000021e-02 1.000000000000000021e-02 1.000000000000000021e-02 1.000000000000000021e-02 1.000000000000000021e-02 1.000000000000000021e-02 1.000000000000000021e-02 1.000000000000000021e-02 1.000000000000000021e-02 1.000000000000000021e-02 1.000000000000000021e-02 1.000000000000000021e-02 1.000000000000000021e-02 1.000000000000000021e-02 1.000000000000000021e-02 1.000000000000000021e-02 1.000000000000000021e-02 1.000000000000000021e-02 1.000000000000000021e-02 1.000000000000000021e-02 1.000000000000000021e-02 1.000000000000000021e-02 1.000000000000000021e-02 1.000000000000000021e-02 1.000000000000000021e-02 1.000000000000000021e-02 1.000000000000000021e-02 1.000000000000000021e-02 1.000000000000000021e-02 1.000000000000000021e-02 1.000000000000000021e-02 1.000000000000000021e-02 1.000000000000000021e-02 1.000000000000000021e-02 1.000000000000000021e-02 1.000000000000000021e-02 1.000000000000000021e-02 1.000000000000000021e-02 1.000000000000000021e-02 1.000000000000000021e-02 1.000000000000000021e-02 1.000000000000000021e-02 1.000000000000000021e-02 1.000000000000000021e-02 1.000000000000000021e-02 1.000000000000000021e-02 1.000000000000000021e-02 1.000000000000000021e-02 1.000000000000000021e-02 1.000000000000000021e-02 1.000000000000000021e-02 1.000000000000000021e-02 1.000000000000000021e-02 1.000000000000000021e-02 1.000000000000000021e-02 1.000000000000000021e-02 1.000000000000000021e-02 1.000000000000000021e-02 1.000000000000000021e-02 1.000000000000000021e-02 1.000000000000000021e-02 1.000000000000000021e-02 1.000000000000000021e-02 1.000000000000000021e-02 1.000000000000000021e-02 1.000000000000000021e-02 1.000000000000000021e-02 1.000000000000000021e-02 1.000000000000000021e-02 1.000000000000000021e-02 1.000000000000000021e-02 1.000000000000000021e-02 1.000000000000000021e-02 1.000000000000000021e-02 1.000000000000000021e-02 1.000000000000000021e-02 1.000000000000000021e-02 1.000000000000000021e-02 1.000000000000000021e-02 1.000000000000000021e-02 1.000000000000000021e-02 1.000000000000000021e-02 1.000000000000000021e-02 1.000000000000000021e-02 1.000000000000000021e-02 1.000000000000000021e-02 1.000000000000000021e-02 1.000000000000000021e-02 1.000000000000000021e-02 1.000000000000000021e-02 1.000000000000000021e-02 1.000000000000000021e-02 1.000000000000000021e-02 1.000000000000000021e-02 1.000000000000000021e-02 1.000000000000000021e-02 1.000000000000000021e-02 1.000000000000000021e-02 1.000000000000000021e-02 1.000000000000000021e-02 1.000000000000000021e-02 1.000000000000000021e-02 1.000000000000000021e-02 1.000000000000000021e-02 1.000000000000000021e-02 1.000000000000000021e-02 1.000000000000000021e-02 1.000000000000000021e-02 1.000000000000000021e-02 1.000000000000000021e-02 1.000000000000000021e-02 1.000000000000000021e-02 1.000000000000000021e-02 1.000000000000000021e-02 1.000000000000000021e-02 1.000000000000000021e-02 1.000000000000000021e-02 1.000000000000000021e-02 1.000000000000000021e-02 1.000000000000000021e-02 1.000000000000000021e-02 1.000000000000000021e-02 1.000000000000000021e-02 1.000000000000000021e-02 1.000000000000000021e-02 1.000000000000000021e-02 1.000000000000000021e-02 1.000000000000000021e-02 1.000000000000000021e-02 1.000000000000000021e-02 1.000000000000000021e-02 1.000000000000000021e-02 1.000000000000000021e-02 1.000000000000000021e-02 1.000000000000000021e-02 1.000000000000000021e-02 1.000000000000000021e-02 1.000000000000000021e-02 1.000000000000000021e-02 1.000000000000000021e-02 1.000000000000000021e-02 1.000000000000000021e-02 1.000000000000000021e-02 1.000000000000000021e-02 1.000000000000000021e-02 1.000000000000000021e-02 1.000000000000000021e-02 1.000000000000000021e-02 1.000000000000000021e-02 1.000000000000000021e-02 1.000000000000000021e-02 1.000000000000000021e-02 1.000000000000000021e-02 1.000000000000000021e-02 1.000000000000000021e-02 1.000000000000000021e-02 1.000000000000000021e-02 1.000000000000000021e-02 1.000000000000000021e-02 1.000000000000000021e-02 1.000000000000000021e-02 1.000000000000000021e-02 1.000000000000000021e-02 1.000000000000000021e-02 1.000000000000000021e-02 1.000000000000000021e-02 1.000000000000000021e-02 1.000000000000000021e-02 1.000000000000000021e-02 1.000000000000000021e-02 1.000000000000000021e-02 1.000000000000000021e-02 1.000000000000000021e-02 1.000000000000000021e-02 1.000000000000000021e-02 1.000000000000000021e-02 1.000000000000000021e-02 1.000000000000000021e-02 1.000000000000000021e-02 1.000000000000000021e-02 1.000000000000000021e-02 1.000000000000000021e-02 1.000000000000000021e-02 1.000000000000000021e-02 1.000000000000000021e-02 1.000000000000000021e-02 1.000000000000000021e-02 1.000000000000000021e-02 1.000000000000000021e-02 1.000000000000000021e-02 1.000000000000000021e-02 1.000000000000000021e-02 1.000000000000000021e-02 1.000000000000000021e-02 1.000000000000000021e-02 1.000000000000000021e-02 1.000000000000000021e-02 1.000000000000000021e-02 1.000000000000000021e-02 1.000000000000000021e-02 1.000000000000000021e-02 1.000000000000000021e-02 1.000000000000000021e-02 1.000000000000000021e-02 1.000000000000000021e-02 1.000000000000000021e-02 1.000000000000000021e-02 1.000000000000000021e-02 1.000000000000000021e-02 1.000000000000000021e-02 1.000000000000000021e-02 1.000000000000000021e-02 1.000000000000000021e-02 1.000000000000000021e-02 1.000000000000000021e-02 1.000000000000000021e-02 1.000000000000000021e-02 1.000000000000000021e-02 1.000000000000000021e-02 1.000000000000000021e-02 1.000000000000000021e-02 1.000000000000000021e-02 1.000000000000000021e-02 1.000000000000000021e-02 1.000000000000000021e-02 1.000000000000000021e-02 1.000000000000000021e-02 1.000000000000000021e-02 1.000000000000000021e-02 1.000000000000000021e-02 1.000000000000000021e-02 1.000000000000000021e-02 1.000000000000000021e-02 1.000000000000000021e-02 1.000000000000000021e-02 1.000000000000000021e-02 1.000000000000000021e-02 1.000000000000000021e-02 1.000000000000000021e-02 1.000000000000000021e-02 1.000000000000000021e-02 1.000000000000000021e-02 1.000000000000000021e-02 1.000000000000000021e-02 1.000000000000000021e-02 1.000000000000000021e-02 1.000000000000000021e-02 1.000000000000000021e-02 1.000000000000000021e-02 1.000000000000000021e-02 1.000000000000000021e-02 1.000000000000000021e-02 1.000000000000000021e-02 1.000000000000000021e-02 1.000000000000000021e-02 1.000000000000000021e-02 1.000000000000000021e-02 1.000000000000000021e-02 1.000000000000000021e-02 1.000000000000000021e-02 1.000000000000000021e-02 1.000000000000000021e-02 1.000000000000000021e-02 1.000000000000000021e-02 1.000000000000000021e-02 1.000000000000000021e-02 1.000000000000000021e-02 1.000000000000000021e-02 1.000000000000000021e-02 1.000000000000000021e-02 1.000000000000000021e-02 1.000000000000000021e-02 1.000000000000000021e-02 1.000000000000000021e-02 1.000000000000000021e-02 1.000000000000000021e-02 1.000000000000000021e-02 1.000000000000000021e-02 1.000000000000000021e-02 1.000000000000000021e-02 1.000000000000000021e-02 1.000000000000000021e-02 1.000000000000000021e-02 1.000000000000000021e-02 1.000000000000000021e-02 1.000000000000000021e-02 1.000000000000000021e-02 1.000000000000000021e-02 1.000000000000000021e-02 1.000000000000000021e-02 1.000000000000000021e-02 1.000000000000000021e-02 1.000000000000000021e-02 1.000000000000000021e-02 1.000000000000000021e-02 1.000000000000000021e-02 1.000000000000000021e-02 1.000000000000000021e-02 1.000000000000000021e-02 1.000000000000000021e-02 1.000000000000000021e-02 1.000000000000000021e-02 1.000000000000000021e-02 1.000000000000000021e-02 1.000000000000000021e-02 1.000000000000000021e-02 1.000000000000000021e-02 1.000000000000000021e-02 1.000000000000000021e-02 1.000000000000000021e-02 1.000000000000000021e-02 1.000000000000000021e-02 1.000000000000000021e-02 1.000000000000000021e-02 1.000000000000000021e-02 1.000000000000000021e-02 1.000000000000000021e-02 1.000000000000000021e-02 1.000000000000000021e-02 1.000000000000000021e-02 1.000000000000000021e-02 1.000000000000000021e-02 1.000000000000000021e-02 1.000000000000000021e-02 1.000000000000000021e-02 1.000000000000000021e-02 1.000000000000000021e-02 1.000000000000000021e-02 1.000000000000000021e-02 1.000000000000000021e-02 1.000000000000000021e-02 1.000000000000000021e-02 1.000000000000000021e-02 1.000000000000000021e-02 1.000000000000000021e-02 1.000000000000000021e-02 1.000000000000000021e-02 1.000000000000000021e-02 1.000000000000000021e-02 1.000000000000000021e-02 1.000000000000000021e-02 1.000000000000000021e-02 1.000000000000000021e-02 1.000000000000000021e-02 1.000000000000000021e-02 1.000000000000000021e-02 1.000000000000000021e-02 1.000000000000000021e-02 1.000000000000000021e-02 1.000000000000000021e-02 1.000000000000000021e-02 1.000000000000000021e-02 1.000000000000000021e-02 1.000000000000000021e-02 1.000000000000000021e-02 1.000000000000000021e-02 1.000000000000000021e-02 1.000000000000000021e-02 1.000000000000000021e-02 1.000000000000000021e-02 1.000000000000000021e-02 1.000000000000000021e-02 1.000000000000000021e-02 1.000000000000000021e-02 1.000000000000000021e-02 1.000000000000000021e-02 1.000000000000000021e-02 1.000000000000000021e-02 1.000000000000000021e-02 1.000000000000000021e-02 1.000000000000000021e-02 1.000000000000000021e-02 1.000000000000000021e-02 1.000000000000000021e-02 1.000000000000000021e-02 1.000000000000000021e-02 1.000000000000000021e-02 1.000000000000000021e-02 1.000000000000000021e-02 1.000000000000000021e-02 1.000000000000000021e-02 1.000000000000000021e-02 1.000000000000000021e-02 1.000000000000000021e-02 1.000000000000000021e-02 1.000000000000000021e-02 1.000000000000000021e-02 1.000000000000000021e-02 1.000000000000000021e-02 1.000000000000000021e-02 1.000000000000000021e-02 1.000000000000000021e-02 1.000000000000000021e-02 1.000000000000000021e-02 1.000000000000000021e-02 1.000000000000000021e-02 1.000000000000000021e-02 1.000000000000000021e-02 1.000000000000000021e-02 1.000000000000000021e-02 1.000000000000000021e-02 1.000000000000000021e-02 1.000000000000000021e-02 1.000000000000000021e-02 1.000000000000000021e-02 1.000000000000000021e-02 1.000000000000000021e-02 1.000000000000000021e-02 1.000000000000000021e-02 1.000000000000000021e-02 1.000000000000000021e-02 1.000000000000000021e-02 1.000000000000000021e-02 1.000000000000000021e-02 1.000000000000000021e-02 1.000000000000000021e-02 1.000000000000000021e-02 1.000000000000000021e-02 1.000000000000000021e-02 1.000000000000000021e-02 1.000000000000000021e-02 1.000000000000000021e-02 1.000000000000000021e-02 1.000000000000000021e-02 1.000000000000000021e-02 1.000000000000000021e-02 1.000000000000000021e-02 1.000000000000000021e-02 1.000000000000000021e-02 1.000000000000000021e-02 1.000000000000000021e-02 1.000000000000000021e-02 1.000000000000000021e-02 1.000000000000000021e-02 1.000000000000000021e-02 1.000000000000000021e-02 1.000000000000000021e-02 1.000000000000000021e-02 1.000000000000000021e-02 1.000000000000000021e-02 1.000000000000000021e-02 1.000000000000000021e-02 1.000000000000000021e-02 1.000000000000000021e-02 1.000000000000000021e-02 1.000000000000000021e-02 1.000000000000000021e-02 1.000000000000000021e-02 1.000000000000000021e-02 1.000000000000000021e-02 1.000000000000000021e-02 1.000000000000000021e-02 1.000000000000000021e-02 1.000000000000000021e-02 1.000000000000000021e-02 1.000000000000000021e-02 1.000000000000000021e-02 1.000000000000000021e-02 1.000000000000000021e-02 1.000000000000000021e-02 1.000000000000000021e-02 1.000000000000000021e-02 1.000000000000000021e-02 1.000000000000000021e-02 1.000000000000000021e-02 1.000000000000000021e-02 1.000000000000000021e-02 1.000000000000000021e-02 1.000000000000000021e-02 1.000000000000000021e-02 1.000000000000000021e-02 1.000000000000000021e-02 1.000000000000000021e-02 1.000000000000000021e-02 1.000000000000000021e-02 1.000000000000000021e-02 1.000000000000000021e-02 1.000000000000000021e-02 1.000000000000000021e-02 1.000000000000000021e-02 1.000000000000000021e-02 1.000000000000000021e-02 1.000000000000000021e-02 1.000000000000000021e-02 1.000000000000000021e-02 1.000000000000000021e-02 1.000000000000000021e-02 1.000000000000000021e-02 1.000000000000000021e-02 1.000000000000000021e-02 1.000000000000000021e-02 1.000000000000000021e-02 1.000000000000000021e-02 1.000000000000000021e-02 1.000000000000000021e-02 1.000000000000000021e-02 1.000000000000000021e-02 1.000000000000000021e-02 1.000000000000000021e-02 1.000000000000000021e-02 1.000000000000000021e-02 1.000000000000000021e-02 1.000000000000000021e-02 1.000000000000000021e-02 1.000000000000000021e-02 1.000000000000000021e-02 1.000000000000000021e-02 1.000000000000000021e-02 1.000000000000000021e-02 1.000000000000000021e-02 1.000000000000000021e-02 1.000000000000000021e-02 1.000000000000000021e-02 1.000000000000000021e-02 1.000000000000000021e-02 1.000000000000000021e-02 1.000000000000000021e-02 1.000000000000000021e-02 1.000000000000000021e-02 1.000000000000000021e-02 1.000000000000000021e-02 1.000000000000000021e-02 1.000000000000000021e-02 1.000000000000000021e-02 1.000000000000000021e-02 1.000000000000000021e-02 1.000000000000000021e-02 1.000000000000000021e-02 1.000000000000000021e-02 1.000000000000000021e-02 1.000000000000000021e-02 1.000000000000000021e-02 1.000000000000000021e-02 1.000000000000000021e-02 1.000000000000000021e-02 1.000000000000000021e-02 1.000000000000000021e-02 1.000000000000000021e-02 1.000000000000000021e-02 1.000000000000000021e-02 1.000000000000000021e-02 1.000000000000000021e-02 1.000000000000000021e-02 1.000000000000000021e-02 1.000000000000000021e-02 1.000000000000000021e-02 1.000000000000000021e-02 1.000000000000000021e-02 1.000000000000000021e-02 1.000000000000000021e-02 1.000000000000000021e-02 1.000000000000000021e-02 1.000000000000000021e-02 1.000000000000000021e-02 1.000000000000000021e-02 1.000000000000000021e-02 1.000000000000000021e-02 1.000000000000000021e-02 1.000000000000000021e-02 1.000000000000000021e-02 1.000000000000000021e-02 1.000000000000000021e-02 1.000000000000000021e-02 1.000000000000000021e-02 1.000000000000000021e-02 1.000000000000000021e-02 1.000000000000000021e-02 1.000000000000000021e-02 1.000000000000000021e-02 1.000000000000000021e-02 1.000000000000000021e-02 1.000000000000000021e-02 1.000000000000000021e-02 1.000000000000000021e-02 1.000000000000000021e-02 1.000000000000000021e-02 1.000000000000000021e-02 1.000000000000000021e-02 1.000000000000000021e-02 1.000000000000000021e-02 1.000000000000000021e-02 1.000000000000000021e-02 1.000000000000000021e-02 1.000000000000000021e-02 1.000000000000000021e-02 1.000000000000000021e-02 1.000000000000000021e-02 1.000000000000000021e-02 1.000000000000000021e-02 1.000000000000000021e-02 1.000000000000000021e-02 1.000000000000000021e-02 1.000000000000000021e-02 1.000000000000000021e-02 1.000000000000000021e-02 1.000000000000000021e-02 1.000000000000000021e-02 1.000000000000000021e-02 1.000000000000000021e-02 1.000000000000000021e-02 1.000000000000000021e-02 1.000000000000000021e-02 1.000000000000000021e-02 1.000000000000000021e-02 1.000000000000000021e-02 1.000000000000000021e-02 1.000000000000000021e-02 1.000000000000000021e-02 1.000000000000000021e-02 1.000000000000000021e-02 1.000000000000000021e-02 1.000000000000000021e-02 1.000000000000000021e-02 1.000000000000000021e-02 1.000000000000000021e-02 1.000000000000000021e-02 1.000000000000000021e-02 1.000000000000000021e-02 1.000000000000000021e-02 1.000000000000000021e-02 1.000000000000000021e-02 1.000000000000000021e-02 1.000000000000000021e-02 1.000000000000000021e-02 1.000000000000000021e-02 1.000000000000000021e-02 1.000000000000000021e-02 1.000000000000000021e-02 1.000000000000000021e-02 1.000000000000000021e-02 1.000000000000000021e-02 1.000000000000000021e-02 1.000000000000000021e-02 1.000000000000000021e-02 1.000000000000000021e-02 1.000000000000000021e-02 1.000000000000000021e-02 1.000000000000000021e-02 1.000000000000000021e-02 1.000000000000000021e-02 1.000000000000000021e-02 1.000000000000000021e-02 1.000000000000000021e-02 1.000000000000000021e-02 1.000000000000000021e-02 1.000000000000000021e-02 1.000000000000000021e-02 1.000000000000000021e-02 1.000000000000000021e-02 1.000000000000000021e-02 1.000000000000000021e-02 1.000000000000000021e-02 1.000000000000000021e-02 1.000000000000000021e-02 1.000000000000000021e-02 1.000000000000000021e-02 1.000000000000000021e-02 1.000000000000000021e-02 1.000000000000000021e-02 1.000000000000000021e-02 1.000000000000000021e-02 1.000000000000000021e-02 1.000000000000000021e-02 1.000000000000000021e-02 1.000000000000000021e-02 1.000000000000000021e-02 1.000000000000000021e-02 1.000000000000000021e-02 1.000000000000000021e-02 1.000000000000000021e-02 1.000000000000000021e-02 1.000000000000000021e-02 1.000000000000000021e-02 1.000000000000000021e-02 1.000000000000000021e-02 1.000000000000000021e-02 1.000000000000000021e-02 1.000000000000000021e-02 1.000000000000000021e-02 1.000000000000000021e-02 1.000000000000000021e-02 1.000000000000000021e-02 1.000000000000000021e-02 1.000000000000000021e-02 1.000000000000000021e-02 1.000000000000000021e-02 1.000000000000000021e-02 1.000000000000000021e-02 1.000000000000000021e-02 1.000000000000000021e-02 1.000000000000000021e-02 1.000000000000000021e-02 1.000000000000000021e-02 1.000000000000000021e-02 1.000000000000000021e-02 1.000000000000000021e-02 1.000000000000000021e-02 1.000000000000000021e-02 1.000000000000000021e-02 1.000000000000000021e-02 1.000000000000000021e-02 1.000000000000000021e-02 1.000000000000000021e-02 1.000000000000000021e-02 1.000000000000000021e-02 1.000000000000000021e-02 1.000000000000000021e-02 1.000000000000000021e-02 1.000000000000000021e-02 1.000000000000000021e-02 1.000000000000000021e-02 1.000000000000000021e-02 1.000000000000000021e-02 1.000000000000000021e-02 1.000000000000000021e-02 1.000000000000000021e-02 1.000000000000000021e-02 1.000000000000000021e-02 1.000000000000000021e-02 1.000000000000000021e-02 1.000000000000000021e-02 1.000000000000000021e-02 1.000000000000000021e-02 1.000000000000000021e-02 1.000000000000000021e-02 1.000000000000000021e-02 1.000000000000000021e-02 1.000000000000000021e-02 1.000000000000000021e-02 1.000000000000000021e-02 1.000000000000000021e-02 1.000000000000000021e-02 1.000000000000000021e-02 1.000000000000000021e-02 1.000000000000000021e-02 1.000000000000000021e-02 1.000000000000000021e-02 1.000000000000000021e-02 1.000000000000000021e-02 1.000000000000000021e-02 1.000000000000000021e-02 1.000000000000000021e-02 1.000000000000000021e-02 1.000000000000000021e-02 1.000000000000000021e-02 1.000000000000000021e-02 1.000000000000000021e-02 1.000000000000000021e-02 1.000000000000000021e-02 1.000000000000000021e-02 1.000000000000000021e-02 1.000000000000000021e-02 1.000000000000000021e-02 1.000000000000000021e-02 1.000000000000000021e-02 1.000000000000000021e-02 1.000000000000000021e-02 1.000000000000000021e-02 1.000000000000000021e-02 1.000000000000000021e-02 1.000000000000000021e-02 1.000000000000000021e-02 1.000000000000000021e-02 1.000000000000000021e-02 1.000000000000000021e-02 1.000000000000000021e-02 1.000000000000000021e-02 1.000000000000000021e-02 1.000000000000000021e-02 1.000000000000000021e-02 1.000000000000000021e-02 1.000000000000000021e-02 1.000000000000000021e-02 1.000000000000000021e-02 1.000000000000000021e-02 1.000000000000000021e-02 1.000000000000000021e-02 1.000000000000000021e-02 1.000000000000000021e-02 1.000000000000000021e-02 1.000000000000000021e-02 1.000000000000000021e-02 1.000000000000000021e-02 1.000000000000000021e-02 1.000000000000000021e-02 1.000000000000000021e-02 1.000000000000000021e-02 1.000000000000000021e-02 1.000000000000000021e-02 1.000000000000000021e-02 1.000000000000000021e-02 1.000000000000000021e-02 1.000000000000000021e-02 1.000000000000000021e-02 1.000000000000000021e-02 1.000000000000000021e-02 1.000000000000000021e-02 1.000000000000000021e-02 1.000000000000000021e-02 1.000000000000000021e-02 1.000000000000000021e-02 1.000000000000000021e-02 1.000000000000000021e-02 1.000000000000000021e-02 1.000000000000000021e-02 1.000000000000000021e-02 1.000000000000000021e-02 1.000000000000000021e-02 1.000000000000000021e-02 1.000000000000000021e-02 1.000000000000000021e-02 1.000000000000000021e-02 1.000000000000000021e-02 1.000000000000000021e-02 1.000000000000000021e-02 1.000000000000000021e-02 1.000000000000000021e-02 1.000000000000000021e-02 1.000000000000000021e-02 1.000000000000000021e-02 1.000000000000000021e-02 1.000000000000000021e-02 1.000000000000000021e-02 1.000000000000000021e-02 1.000000000000000021e-02 1.000000000000000021e-02 1.000000000000000021e-02 1.000000000000000021e-02 1.000000000000000021e-02 1.000000000000000021e-02 1.000000000000000021e-02 1.000000000000000021e-02 1.000000000000000021e-02 1.000000000000000021e-02 1.000000000000000021e-02 1.000000000000000021e-02 1.000000000000000021e-02 1.000000000000000021e-02 1.000000000000000021e-02 1.000000000000000021e-02 1.000000000000000021e-02 1.000000000000000021e-02 1.000000000000000021e-02 1.000000000000000021e-02 1.000000000000000021e-02 1.000000000000000021e-02 1.000000000000000021e-02 1.000000000000000021e-02 1.000000000000000021e-02 1.000000000000000021e-02 1.000000000000000021e-02 1.000000000000000021e-02 1.000000000000000021e-02 1.000000000000000021e-02 1.000000000000000021e-02 1.000000000000000021e-02 1.000000000000000021e-02 1.000000000000000021e-02 1.000000000000000021e-02 1.000000000000000021e-02 1.000000000000000021e-02 1.000000000000000021e-02 1.000000000000000021e-02 1.000000000000000021e-02 1.000000000000000021e-02 1.000000000000000021e-02 1.000000000000000021e-02 1.000000000000000021e-02 1.000000000000000021e-02 1.000000000000000021e-02 1.000000000000000021e-02 1.000000000000000021e-02 1.000000000000000021e-02 1.000000000000000021e-02 1.000000000000000021e-02 1.000000000000000021e-02 1.000000000000000021e-02 1.000000000000000021e-02 1.000000000000000021e-02 1.000000000000000021e-02 1.000000000000000021e-02 1.000000000000000021e-02 1.000000000000000021e-02 1.000000000000000021e-02 1.000000000000000021e-02 1.000000000000000021e-02 1.000000000000000021e-02 1.000000000000000021e-02 1.000000000000000021e-02 1.000000000000000021e-02 1.000000000000000021e-02 1.000000000000000021e-02 1.000000000000000021e-02 1.000000000000000021e-02 1.000000000000000021e-02 1.000000000000000021e-02 1.000000000000000021e-02 1.000000000000000021e-02 1.000000000000000021e-02 1.000000000000000021e-02 1.000000000000000021e-02 1.000000000000000021e-02 1.000000000000000021e-02 1.000000000000000021e-02 1.000000000000000021e-02 1.000000000000000021e-02 1.000000000000000021e-02
-1.118238390577674153e+02 1.699670787603386941e+02 3.942604558362232581e+01 -8.861676658700273990e+00 -8.807366592486005175e+01 -1.342089779911668046e+01 -2.083659860211857335e+02 6.884221913518290270e-01 -8.491477343866816341e+01 -1.406982792590134146e+01 -1.987628193706416369e+01 6.532028335399481911e+00 -1.785354214237595549e+00 1.681686029180625894e+02 8.481051958769720045e+01 -3.886686874768148670e+01 -5.291093976844879876e+01 7.939726401598964856e+01 3.289651434221582349e+01 -2.542728935121957434e+01 -7.903018282689015450e+01 -7.397820950405927931e+01 -1.383805403356218910e+01 2.899943557723259602e+01 -1.953673600655122868e+02 -9.896083109998170357e+01 -2.614798200090789138e+01 2.020974152368862349e+02 7.092583837191912721e+01 7.689668743129587369e+01 8.047790814149321648e+01 1.187736406361616703e+00 -7.941295927583182390e+01 2.079121094241565402e+02 -2.454048681805610670e+02 5.896205547660704127e+01 -1.204288844821687263e+02 -3.476141435256686663e+01 4.042873827826992006e+00 1.270072238011431978e+02 -1.231901184612791553e+02 -1.368254228945818163e+01 7.754175555452286517e+01 1.740039729897606264e+02 7.152513768393600913e+01 -6.858100103340717624e+01 4.132336264416142058e+01 -2.844787652766453334e+01 -6.622020349811766948e+01 1.569616934200834635e+02 -7.073795538397479277e+01 -5.223863139994097793e+01 -1.396523610091455225e+02 5.763354396398053581e+00 -5.065926886889755565e+01 3.875803908199089420e+01 -8.894049781818418410e+01 -5.018209422285124788e+01 -1.016535675223692294e+02 -1.558220925664319623e+02 1.950533045006848454e+01 4.546576845230705288e+01 -1.234247569715493853e+02 1.288972495274200725e+01 -7.949138454358731565e+01 4.924037050644580660e+01 1.670348853143453880e+02 -1.446195817786497742e+02 -4.341939544509024529e+01 7.212080059702956625e+00 2.936127629856378984e+00 4.248702560547334173e+01 8.419357402527369061e+01 8.842112637182004686e-01 -8.821423114710814417e+00 -7.020538018796868585e+01 7.846045466162988191e+01 -3.285279118113383845e+01 2.636038879540638646e+01 1.042780113703382909e+02 8.845087714883618446e+01 -4.286328734733458390e+01 5.795309979742589945e+01 1.478131024615741183e+02 1.165051237304172957e+02 -4.034723331556143044e+00 1.746565691734121799e+02 -1.118026129444234442e+02 4.211881972132879071e+00 -4.204605482697664343e+01 2.073700977502319063e+02 -2.127794198733188935e+01 2.888448859106144351e+00 -7.698120067272343192e+01 -7.154410471325200582e+00 -6.401115585489104376e+01 6.794563672862837223e+01 -9.479456136962079427e+01 6.874884119057759335e+01 -4.787121586489633529e+01 -4.989150237253141995e+01 -9.189734257712781584e+01 5.323011086599481700e+01 -5.485942546561683031e+01 -1.497218261020704801e+02 -7.967722879530991520e+01 -1.048873716184935176e+02 -1.576399382845394541e+02 1.362969651083215581e+02 -2.756889012555170382e+01 3.211435251899348486e+01 8.990216284733459418e+01 -1.043448909232673145e+02 5.711846039218612248e+01 -4.343474513792822478e+01 -6.951483857765049379e+01 -9.032228549911874893e+01 2.038052456129307473e+02 -5.689174081733450805e+01 -4.962260562268996011e+01 -4.733654206140046483e+01 8.061336588213551124e+01 -4.151733035138930461e+01 1.383511009347570564e+02 -5.000653803121793572e+01 5.523967412580714154e+01 4.554304312261686860e+00 -8.135146510054823921e+01 6.899819662382560637e+01 2.781213512212915475e+02 -9.227056373380851539e+01 4.761958694414220616e+01 -7.644391269864077287e+01 4.536050982123543207e+01 1.315525087007373486e+02 -5.152573054313602796e+01 1.463270509247511342e+01 -2.700207367355162091e+01 -1.022292171282628317e+02 -1.735008718305349262e+01 4.290529728241550877e+00 -7.842442769852875806e+00 -1.499651633790420036e+01 1.185839925214180255e+02 1.307445884929303759e+02 1.870217622343326127e+02 -3.052582284210312196e+02 3.833024782199424152e+01 -1.580335231793083040e+01 -6.255090775605051334e+01 1.809296847581961742e+02 7.645553400921001241e+01 -2.592814203152282726e+00 -1.163564438722076630e+02 -1.093859113798109384e+01 1.004420810996590916e+02 -1.348749682095987339e+02 -1.692409488669551934e+02 1.077552282380550785e+01 4.259067329289143800e+01 -6.125147117927396323e+01 4.219813798012959438e+01 -1.075013654903861351e+02 -1.519241727888500577e+02 2.119579615986203791e+01 4.877994066867753276e+01 4.826271864717975646e+00 -8.383844875983037070e+01 -9.399960982068758142e+01 -8.469485971732204632e+01 -8.794735486570645833e+01 1.269298281914865001e+01 5.710694673821581802e+01 1.170762833980649305e+02 7.983282204712853058e+01 8.997067534214720297e+01 1.080242331056180092e+02 -7.519908161323795071e+01 -8.297388922431635194e+01 7.092413742757479156e+01 6.887862949014980529e+01 5.958726891936926506e+01 -9.448804377359643070e+00 -9.165483945494300144e+01 5.433814106538122246e+01 -1.801971045550133113e+02 6.762499921026659422e+01 -4.485549306492394095e+01 -9.714067108242036852e+01 7.475924784452821825e+01 -1.726854565497002980e+01 -7.773296329868483667e+01 -5.792561644709164881e+01 -9.226646591466758807e+00 2.447210128402122677e+02 7.751130330684463843e+01 5.532059367738968803e+01 -1.048336163396250100e+02 1.496354362999570924e+02 1.057635033096817834e+00 -9.125626356006367246e+01 1.573383754584893097e+02 -1.556919073634818460e+02 1.593661270369887006e+01 -3.288218860024395696e+01 -2.245035608791812933e+02 -1.362784990142930042e+02 -8.912071418462689110e+01 -2.993895867704506131e+01 -1.218147385019440492e+02 5.890423669980086174e+01 6.639223123171480268e+01 -2.817187727792288854e+01 -1.018893708020726194e+02 1.155430726831814212e+02 1.207695797976892607e+02 4.721842360514106929e+01 1.785166530293495768e+01 2.671030160105903519e+02 4.463066140953068128e+01 -1.220802716485295747e+02 -4.605647117972322491e+01 -1.726216771989448944e+02 3.258447033356593892e+01 1.567620729934510280e+02 -1.517146040477404370e+02 1.347177361069024073e+02 -9.303197640213244313e+01 -1.933824334048351190e+01 -7.789806178582173724e-01 5.407449092139622593e+01 -1.186437514842840812e+01 -2.332193035857790164e+01 -1.932889519345874163e+01 -1.296394314626911068e+02 4.749673405279429517e+01 -3.106387920569240890e+01 -1.327329336914433711e+01 -1.096577073503902078e+01 2.312574886407542465e+02 1.783007626611560568e+02 2.380958325726988107e+02 1.349022962404523298e+02 -8.861381789245697860e+01 7.696205884802672870e+01 2.162005125817596252e+01 4.870663331420401221e+01 -4.065970607751069821e+01 2.614829630721153535e+02 -2.385549747813668020e+01 -1.399868840369276199e+02 -1.531050574603816727e+01 -4.692283702684321156e+01 -7.925119435515352961e+01 4.419282492708622101e+01 -1.199392782253768708e+01 1.862830641216334016e+02 9.461954047253209410e+01 4.186936310644436787e+01 1.003896487860341153e+02 9.680374222975372334e+01 -2.354414646981098969e+01 1.430181338938296562e+02 2.713886492637952941e+01 9.175600554191662184e+01 4.881732007479745761e+01 7.102042807667706903e+00 -1.185858801925234189e+02 -1.186633434545678654e+02 -9.221863363316764151e+01 -1.595232715454685568e+01 8.880489370691140039e+01 -3.140370659216182503e+01 1.013083468221632728e+02 4.488268060854948516e+01 -7.450425991606920206e+01 -3.069658875420380539e+01 -6.002952630915442001e+01 1.799414249461495885e+01 -4.746017424586423061e+01 -1.147888803670329736e+02 1.245077113558689774e+02 1.243099251791479389e+02 -8.088656438411280192e+01 5.575306362567562068e+00 -4.642394443967390316e+01 -3.340233635327649608e+01 -1.161993404184503476e+01 -3.198902197828865468e+01 4.554651340908520041e+01 -1.439700381169454886e+02 -5.412752724824608919e+01 -1.555694318674599401e+02 1.783334216150912539e+02 -2.071284877639550714e+01 6.035444399658631909e+01 1.221126956921098916e+01 1.478401648300557554e+02 4.569977828648028151e+01 3.657489757752787796e+01 1.579888850709699000e+02 -5.041919752382727182e+01 -9.987932457222417781e+01 2.780729923130550674e+01 -1.616726813031045822e+02 -5.463271502245856936e+01 1.046562881528277273e+02 -1.306072655602287114e+02 -3.719477708046138531e+01 9.337362269662757797e+01 -9.662858657208175828e+01 -9.152378536618341798e+01 -8.451681306188854137e+01 -6.526293735210768432e+01 2.546513451999059896e+02 2.026331464580518400e+02 1.053004593693632671e+02 -1.044747550379270962e+02 7.651639475578731719e+01 -6.761069841768288313e+01 -3.196515437617541622e+01 1.696875475011583845e+01 -3.290913837980343715e+01 -9.577452228929260514e+01 -2.799897337503447492e+00 1.510315306890259102e+01 1.110826300917159557e+02 -1.311846266941347494e+02 4.277775406134656322e+01 6.507749930085373080e+01 3.525169210151813814e+01 -9.245809738182268234e+01 -1.515106506939294775e+02 1.970772119617904252e+02 -1.816826200658933388e+01 2.568932997514515648e+01 1.596180169568922338e+02 2.718844227382765766e+01 2.828024192171955065e+01 -4.539397221836759400e+01 9.029364335611415981e+01 -1.389399823157343974e+02 -3.138944466657664378e+01 -6.251098580015774786e+00 -5.441257419499923742e+01 6.331283778832070830e+00 2.168925849649747661e+01 -3.645092609987982968e+01 1.391829546565190334e+01 2.176363105959985376e+02 -2.789178848556001356e+01 -2.848542851059630010e+01 -1.035024056151234362e+02 -1.679595592380334734e+00 -8.220780870755484671e+01 6.513706990987954804e+00 1.140807506599761751e+02 -5.295793292166627708e+01 6.155935464525088996e+00 -5.528625266179660258e+01 3.387843305852677123e+00 8.875192826258788159e+01 -1.179023841916998947e+02 -9.852350311910601022e+01 -1.043681457865556581e+02 7.263865328111354813e+01 8.807999513712577766e+01 -9.390339887372968519e+01 6.370909780390673660e+01 2.627054107962631235e+01 3.936344410947205574e+01 -1.806344498534043197e+01 9.293350868062438508e+01 8.111233317879073468e+01 -7.861656590739262640e+01 1.204766614193863994e+01 8.229706649299954790e+01 7.412100927082556723e+01 -2.023130460908764761e+01 2.541255184007065893e+01 -1.348811140887557940e+02 4.935670645118928945e+01 -3.333592702778561545e+01 -3.321858114775038473e+01 1.761695119917110333e+02 4.825283724285871756e+01 1.222831761143745979e+02 1.942370827678676903e+02 -1.400594794191859762e+02 1.516336885648811972e+02 -6.448957385259653563e+01 -1.374551841974777346e+02 8.373401723410792385e+01 -1.363772564646423575e+02 -2.919884358395699309e+01 5.738467491279607202e+01 8.217422192499959976e+00 -1.710050790744941480e+02 8.567803427243093495e+01 2.565197677989655745e+01 7.028089430180494901e+01 3.690249386025936218e+01 9.636366328531982717e+00 -6.826773672400159398e+01 1.177163867031942885e+02 5.542063911098330209e+01 -6.318812106035048259e+01 -1.029737319334850696e+02 3.960990241256559585e+01 2.611834603850942571e+01 8.379730134534437980e+01 1.868872541129792069e+02 -2.505550681442158378e+01 -1.120296447287959865e+02 -8.617693255197585245e+01 -5.219680912569992870e+01 -4.513052802881558279e+01 -1.492357857851046958e+02 -2.288767223948358520e+01 1.317011700986095093e+02 7.581234923462019992e+01 -1.244542295106633247e+02 -1.524002937731134182e+02 -6.926221855512389425e+01 -7.765924058478992720e+01 1.492511589254636419e+02 -1.733509114365899677e+02 8.800530151248474908e+01 -4.686005525518488923e+00 -4.375295562761816370e+01 1.352901351122184437e+01 9.271637096900347785e+01 5.043145643163123282e+01 1.405431793692099802e+02 -1.618206168606476183e+02 -8.233870495755161301e+01 2.576958868531657032e+01 4.264269208229207209e+01 2.096209685037518398e+02 1.479022810721533006e+02 6.662943478008773468e+01 7.331913828772511010e+01 -3.476441439180399584e+01 1.543818074772815976e+02 -1.823453652826657958e+02 -6.446508456625235794e+01 -5.458798008292487935e+01 -5.266369782390405874e+01 -1.050183193551987983e+02 -1.523618926348574831e+01 -6.979319145137506553e+01 7.237437406904903980e+01 -9.313850629041972695e+00 -5.907156125189016649e+01 -6.333837824531859440e+01 1.832056056427850024e+02 5.998323002586313635e+01 -1.393503752041855215e+01 2.123640895882373059e+02 -1.101345786646737110e+02 -3.592502439565313921e+01 6.807224517682332987e+01 -1.325360471074692736e-01 1.519105927499850672e+01 -1.271416285689020924e+02 1.791027484771153127e+02 -4.979926072524342118e+01 -2.738593381853445763e+01 -1.115028056950670532e+02 1.278984872194037337e+02 9.744075499085789716e+01 -7.877431753401832282e+01 -3.817543171595470142e+01 3.956508263751786814e+01 -1.538121259155127234e+02 -1.530058279840346425e-01 -7.588379530741877943e+01 7.824792286148948506e+00 -1.098161952527222525e+02 -1.610103458471140243e+02 -7.177677982046654392e+01 1.504585766345096260e+02 5.745331784646441520e+01 -9.098745708868467830e+01 9.053933849962278657e+01 3.475747231593678777e+01 8.963489800080715497e+01 -4.274559476542048486e+01 -8.534568958469333211e+01 1.735499651350412478e+02 4.227197980122065246e+01 2.937767345003063824e+01 -7.406852685886909171e+01 -4.292104851937422438e+01 9.691004873854859980e+00 -7.262678890315608982e+00 -1.752821023173383992e+02 -3.509348921543678301e+01 6.532235449602343635e+01 1.131702717038557466e+02 1.578644006719439972e+02 -1.345221728465646827e+01 9.084045393773958210e+01 1.598456359990476301e+02 6.427195634134228897e+01 1.497331889736724690e+02 1.627413678711956635e+01 1.330050409431749756e+02 -8.501754390173330478e+01 5.403894114048254949e+01 2.970470939126553134e+01 7.679986059503127649e+01 -1.074910056025984915e+02 2.003796297421905024e+02 -1.302880877981748711e+02 8.931637071478091627e+01 -1.086525277046643083e+02 4.665863447438772482e+01 1.395155737504771665e+01 9.169522333662315816e+01 -7.446251794421145576e+01 -7.630839086706720309e+01 -1.127957138786630686e+01 9.000430832489426791e+01 -2.988431956123005762e+01 -1.647168828761205717e+01 -1.982451507943455127e+01 4.782730131998444101e+00 9.905454051404697680e+01 -6.313408971347985243e+01 -2.738168474160237675e+00 -1.953478764242702255e+02 1.227990556050360595e+02 -1.256783138790734711e+02 -7.435574621614638602e+01 -2.369286399569250534e+01 -1.086181895943969948e+02 -5.349819766592069925e+01 -5.894063189984318285e+01 -1.979526775871474698e+01 1.371187731804999430e+02 5.439840621813516464e+01 1.010588820845725024e+02 -1.369436166782320470e+02 -1.394430206171763871e+02 -2.883381322557433464e+02 1.027872093544490752e+02 1.049180874112332305e+02 4.254582903737809829e+01 -4.269044927554419644e+01 -3.744446703307029622e+01 -1.847895522084395168e+02 1.470466953771770875e+02 -1.080942738249641195e+02 1.076336411965854722e+02 -1.602260041029678064e+02 -1.440018910643705752e+01 -5.572709279248419989e+01 -1.200094100379257895e+02 -4.639138286616798723e+01 -1.257632224855445635e+01 -9.325301059245816759e+01 -1.041622794963843717e+02 -1.243480645479729851e+01 7.166168092699740555e+01 -1.254410937780585158e+02 -1.576895680619154305e+01 -7.423963654077959973e+01 -1.322802384717070652e+02 6.706977522211532872e+00 9.580267092835207166e+01 1.666237338758922988e+02 -1.920010390064112116e+01 -4.636986946680998045e+01 -1.249987138459557059e+02 -1.647169803000436730e+02 1.044980859379187308e+02 -7.325796976998975651e+01 7.957729962967192705e+01 9.470836534573319199e+00 2.945783776276264376e+01 7.438701686149472891e+01 -8.535327696633393657e+01 8.327749295572293420e+01 1.161295397546071797e+02 1.586104991463897136e+02 -1.174536401184770682e+02 1.047273840930034083e+02 -4.812691942532529765e+01 -9.148424107637247005e+01 2.161969895268562709e+02 4.962549287313697732e+01 8.410389106755637556e+01 2.144074616570303959e+01 -6.367835779960521592e+01 -3.520396905827743694e+01 -2.119828063182861797e+02 1.064386655001527089e+02 8.212887819183455917e+01 -7.627991779982613707e+01 -7.371048970816821111e+01 1.463084851131812911e+02 1.018405931299131453e+02 5.150622556840475852e+01 7.666646392163123380e+01 -7.953330905014471597e+00 1.039893905982323759e+02 -1.043363175450358256e+02 1.878344460057542449e+02 -3.978654531824178520e+01 -1.229301693330134384e+02 -3.796001737159848943e+01 7.229820038547737227e+01 1.484785638910942964e+02 1.301485636173612548e+01 1.751650171869303847e+02 5.260779618601083740e+01 3.387707177463733643e+01 -1.121798458584910350e+02 4.515702085883780370e+01 -1.260015953279794729e+02 4.806424391877986579e+01 3.893407480825864297e+01 -1.243007886617650826e+02 -8.569501957776310519e+01 4.014609192446415165e+01 8.793690403247641285e+00 -2.341381361103575998e+01 4.218191466515357746e+01 -2.156520292316543674e+01 -6.358199297168408748e+01 -2.635898029533747433e+01 -2.262755889858590663e+01 -4.013783962168160713e+01 1.892374355130530716e+01 -8.112160723705223120e+01 1.198746683179745673e+02 -7.490041623233928192e+01 -4.311098493641271290e+00 6.604078538010391242e+01 3.926867823121997336e+00 1.606989660736425307e+01 1.608225355774390408e+01 -1.180430713914108907e+02 -4.451983036909644476e+00 6.555607401885310992e+01 -2.332280445462672560e+02 -8.551112364024182000e+01 -1.135929021828629288e+02 4.412838657672924825e+01 9.696407642929159465e+01 -9.245584766175933567e+01 -1.691789651429881189e+02 -1.865670417006846264e+02 2.012423447887132966e+01 -1.460350242180200553e+02 -6.366721768165241713e+00 1.486576246435581083e+02 -7.155892647057885192e+00 3.739303690331002628e+01 -9.953299237496777607e+01 8.029675865263244816e+01 -1.191665203753562849e+02 -1.548508917808203122e+01 -3.044824360988252110e+01 5.781885159268025376e+01 -8.912682553714617484e+00 1.060732777137009180e+02 -1.224735164702895673e+02 -5.023885037521065300e+01 8.680800373239983969e+01 6.632075030961205186e+01 -8.254579552905774165e+01 -5.451402386969508029e+01 -4.945100857337130407e+01 -2.898335430029783879e+02 1.937916168670358843e+02 7.619526434362677492e+01 -2.362078576587677858e+01 -2.968612571084439722e+01 4.155262973071478427e+01 -8.418234136023701808e+01 9.954845259239588984e+01 6.044871761287349443e+01 8.198308773493283752e+01 -8.405614931415441049e+01 -2.654549278516433830e+01 3.332163280532915905e+01 1.736655628833016607e+01 -4.277547021899660251e+01 1.577317014920268150e+02 -1.727136525361856201e+01 3.534030929773645369e+01 -2.294830225081856554e+02 -8.455345746054730682e+01 -7.304141761307555214e+01 2.297864949970283277e+01 1.089897740823761723e+02 -2.312501864020458697e+02 -1.866784313915719622e+02 2.212379529130108153e+02 -1.054853977803265330e+01 9.588057329838530052e+01 6.258675065398328741e+01 -5.525668414081283686e+01 -1.307400078034567912e+02 -9.497068797982439037e+01 -5.016048170503093218e+01 -3.736029832733088085e+01 -3.907703515708958975e+01 1.613582578371016041e+01 3.707559901137769032e+01 1.664806782042666669e+02 1.229526734523771552e+02 6.923209715314011525e+00 -4.379046054841206015e+00 -1.584668369931581253e+02 1.194052655486538583e+02 1.589949773172844516e+02 -1.032084794653786446e+02 7.357992574989810919e+01 1.758834162165290538e+00 5.478482379481449271e+01 1.251754189025365918e+02 7.079795104654201054e+01 -1.337571651560912187e+02 1.611216120459320678e+01 -2.932810980686644697e+01 1.111909525948690991e+01 -2.311717622565140218e+01 4.527151591618996918e+01 -2.601076744685331050e+02 1.809186861699285203e+02 7.297464840259419994e+00 1.592187914451828021e+02 -1.054461806175050320e+01 1.060777991282681398e+02 7.157102938343311394e+01 -4.197398566308890366e+01 2.988591102243502817e+01 -7.276484664082612142e+01 -8.894733464001554069e+01 -7.206489274067331507e+01 -3.204970490035784536e+01 4.518720477351800469e+01 1.102017622028428576e+02 2.850515163524700668e+01 6.213658014788605755e+01 -1.048833418935857793e+02 -1.372363512375357857e+02 -1.349505715942635931e+01 4.644348438089281927e+01 -4.555227602311833124e+01 9.464642024542874310e+01 5.558470514885386393e+01 -2.768451133710885159e+01 2.998952029405150199e+01 6.145498260838067495e+01 -7.221711793117560774e+01 -1.339237297343869102e+02 1.423107102224290372e+02 7.828634051876575128e+00 5.023737730995795658e+01 -1.495969205169114105e+02 -5.352308027265677026e+01 -4.616301036195394891e-01 -6.589432073212756791e+01 4.282264667099805244e+00 5.643856546767857196e+01 1.869769323185933274e+02 3.924456998466204283e+01 -1.099798690081882135e+01 7.244351928865260959e+01 -4.563923467183501259e+01 -1.093674143711748172e+02 -1.387105870391796429e+02 9.409205320390347183e+00 2.521342557590500277e+01 2.389762514572067786e+01 -5.712325875456584612e+01 1.213663332909146106e+02 -8.120958792893983968e+01 1.289361605388681937e+02 8.772489701149133623e+01 -6.536937258753599167e+01 -8.513454995495568767e+01 8.464130715859322152e+01 2.058428736424013294e+01 -5.278271407482701960e+01 -5.415190871127626338e+01 1.374763668324940795e+02 5.764473360510086053e+01 8.036864132057660015e+01 2.630735801273181451e+01 -4.234346003916875389e+01 1.081521688414406412e+02 -5.492301054669272276e+01 5.427036063504875329e-01 7.709018146805694016e+01 1.002760334026787632e+02 2.572824677265231230e+02 -1.764179249721413214e+02 1.621274518277871266e+02 -6.810067440381048698e+01 -1.534181066280915573e+01 -2.525776665466556636e+01 -2.089788179566037485e+01 -5.561785635913966530e+01 9.371610410275819447e+01 1.856519517013401810e+02 -1.198509898905716113e+02 3.121302561395982167e+01 -1.280926114100746531e+02 7.086776160327370633e+01 -4.493668231948462477e+01 -8.181546503484300104e+01 -5.445083624959080026e+01 4.162162099461937004e+01 1.960284645982484619e+01 -8.271805048637126845e+01 -1.427027199536015587e+02 2.101907756644985881e+01 1.595366368664536481e+02 1.446380262577181419e+01 1.848008545674464074e+02 7.561180932946644617e+00 1.363927429505732505e+02 -3.506253465300288497e+01 9.195572160766489844e+01 -7.243695783826844092e+01 -1.145056579811156752e+02 5.014636221132715832e+01 -5.886614006600714788e+01 -7.968805112922191825e+01 7.400344694213941921e+01 6.544137981692599304e+00 -9.576755035293183482e+01 -1.529341950947144539e+02 1.502824333625976863e+02 -9.063323211115938705e+01 -2.382489850267855758e+00 1.221003704404387378e+02 5.902398896668091055e+01 -9.989564097361594008e+01 1.080825151565871778e+01 2.870293618530678827e+02 5.427916389084853677e+01 -1.606027621418282081e+02 -4.859072670587527654e+01 -6.267085734719290713e+01 9.812650096191211091e+00 1.095997816932766966e+02 -1.054517448031917866e+02 2.198089369318329744e+01 1.330360307847672914e+02 1.914613944517062194e+01 -2.154306186335641655e+02 4.930377563529073370e+01 7.698636902133192450e+01 -1.384768962549908267e+01 3.346006549201841551e+01 1.409615847887444595e-01 2.295432804873943411e+01 2.829542916734141755e+01 1.181567065187769145e+02 9.999978080814111081e+01 1.586428708268470977e+01 1.520456681178458780e+02 -6.531954389522137205e+01 2.516568490208566402e+02 6.634974284186387194e+01 1.445822623139497409e+02 -2.242289152063123936e+01 9.190673940638532713e+01 -5.003760045354691499e+01 -1.493841448381136559e+02 2.673029386348406433e+01 9.703594904758884354e+01 -8.942209483252180746e+01 -1.069073388996509806e+02 -6.791711796778500343e+01 3.735168361576543816e+01 -1.166069387692065789e+02 7.628345335701435204e+01 2.865780087781432783e+01 -9.964754118478616363e+01 1.939074181425930306e+02 -1.200917768211664338e+01 -1.038738642154994807e+02 -1.366061435349037723e+01 -2.086254621469707615e+01 -1.431688888638661297e+02 -4.087537576890462532e+01 6.279173571000072229e+01 1.345365061275691971e+02 2.962737661871449291e+01 2.732825015534469770e+01 4.573022568725956916e+01 -3.650769007409309808e+01 -1.486512478274576665e+02 1.618617467500300933e+01 3.164587468792958447e+01 1.358959806591733468e+02 -1.014756564278883211e+01 -7.774712454657331762e+01 7.475302922663304628e+01 1.018201569088850622e+00 3.260405539290609056e+01 1.422262151841140394e+02 -1.812960235178762503e+02 -9.481531647623377523e+01 1.273692675348081451e+02 -2.140731461997398242e+02 -1.824891013156766633e+02 9.028628380819247923e+01 1.528055787558172369e+02 6.289285739327056746e+01 -4.414817263734991393e+00 1.545708285146058358e+02 -2.177904347741417439e+02 1.063283802608510342e+02 4.205346826338153221e+01 1.260960949092912671e+02 -1.871348582971832570e+02 1.057458552918253787e+02 -2.806323599471851438e+01 -1.326665619143522292e+02 -5.285166526070525173e+00 -9.169279698995116235e+01 -1.618405314227654301e+01 -4.252943364783233093e+00 -1.222397279088085043e+02 -1.223652860828295559e+02 -6.209246620356100976e+01 -1.279304358240352570e+02 1.994442831656523367e+02 -1.597832993116611249e+02 -4.978021616114643422e+01 1.712033215379706235e+02 3.366317661229911096e+01 -2.936958349650054174e+02 -1.261008097203234399e+02 3.524864677627752485e+01 5.422368946987990768e+01 8.534494848536885669e+00 -1.534340306571942847e+02 3.541156710355353709e+01 7.410459445099679243e+00 -7.375268912879188576e+01 2.011415928022205719e+02 2.010301443709213061e+02 4.297677337444469892e+00 -2.069143769911270851e+02 1.250158263987293026e+02 3.053320686562882003e+01 3.726037857456498514e+00 7.603546731274150261e+01 -2.058599786573169297e+02 -1.369681900525406206e+02 1.399511437608066728e+02 1.087922567363807360e+02 5.252187273412390311e+01 1.421173749749647186e+02 -1.768803961036765884e+02 -2.027578101950371448e+01 -1.294208218613427448e+02 4.325176702396002781e+01 -1.030580562742648283e+02 8.637052480230164520e+01 -3.361486760974513288e+01 1.228615460964548411e+01 1.760493348178045210e+02 2.827410431501767363e+01 -2.615198325604284264e+02 -1.253756260423080704e+02 -8.270596995357210801e+01 1.568751273625686338e+02 1.243733626379569479e+01 -5.339817424768131815e+01 3.014494971113899169e+01 6.203152496205315458e+01 -3.927366893647226931e+01 1.066770894348685914e+02 -9.995170614716137436e+01 4.882959184604492719e+01 1.110554228509875401e+02 -3.517081327278885539e+01 -9.735910959432109735e+01 -1.125325375517761017e+02 1.188253941716243531e+02 -4.927271834449962284e+01 1.950192835296450653e+02 5.675871520899781331e+01 1.100911351213296570e+02 1.829769138304781109e+02 8.494601510520809029e+00 -1.233082978190202113e+02 -1.644728424041011294e+02 -1.132997935596204684e+02 4.214268782893597631e+01
-1.320077694438345084e+01 -4.667072962208797193e+00 1.003712344870433810e+02 -2.219583484231796149e+02 1.506240262580371052e+02 6.156240022356056585e+01 1.474442011597332396e+02 -1.251709927610468611e+02 -2.696867345227360602e+00 -2.333224212318663149e+01 -2.127070553019017041e+02 3.172550401198157033e+01 -1.775945490179957176e+01 1.185204427821217337e+02 -1.212000320104383491e+02 5.980356446861612341e+01 1.214322332914190241e+02 -4.452456270179268216e+01 -4.812161032757866508e+01 -2.620911316728665597e+01 5.979752864015581082e+01 6.116047584802083747e+01 3.141501186462208040e+01 -2.253377505460361476e+02 -5.002257303563011703e+01 8.867020007620213562e+01 9.597799412840622324e+00 -1.003386115754253893e+01 -6.447510254647772854e+01 -1.498327410344085919e+01 7.106803486232706746e+01 -1.409040705176463462e+02 -5.999370551087262982e+01 8.713433539830608865e+00 2.010888871110919638e+02 2.054722765045702602e+02 -3.108486057976900341e+01 5.415427478356001956e+01 -2.657055216694592659e-01 -1.353316564063033240e+02 9.300648092837298009e+01 1.039143077275475235e+02 1.051535656724880425e+02 1.132852424996457508e+01 5.997594587356944373e+01 4.663164454952122639e+01 3.767878599119567440e+01 2.841979477832744649e+01 1.068653084498388210e+02 8.693612873841799171e+01 6.356520344480579610e+01 1.579211574628808421e+02 2.400029967629310477e+02 1.895024567891346408e+02 -5.729459625674557088e+01 4.773671550266330144e+01 -6.229389784822681975e+01 5.466321669082154244e+01 -1.861891574998170142e+02 5.474680667873560225e+01 -1.984154295358726188e+02 -1.634743522205987176e+02 1.254214599638531169e+01 -8.954806085640264257e+00 1.642758692724653713e+02 -2.014863544821239429e+02 7.294780724804125782e+01 2.226876608105688717e+02 -7.110770621531345981e+00 -1.886905689253825642e+02 3.447695177556915525e+01 1.911080379359212600e+02 -5.921130519653743818e+01 -2.582520394815029476e+02 -9.939455196207343590e+01 8.573818362158238671e+00 -2.229922852065840573e+02 3.104499365406871902e+01 -1.739419156483660629e+02 -1.798957369023924571e+02 -5.536947939028407717e+01 1.478235212702934689e+02 6.738499886427922547e+01 1.028452844008074329e+01 -8.594873505940992686e+01 -4.131886136861570691e+01 6.183103860413974928e+01 -2.251267834232560574e+02 5.248509802172372218e+01 -7.276080818600451039e+01 -7.578035280821069364e+01 -1.715370635692484598e+02 6.314599377535033398e+01 8.999808290842565839e+01 -1.575241019466948558e+02 1.676656930952717062e+02 -3.872138144373190016e+01 -1.641912213008770749e+01 8.500384586568040390e+01 1.517279170900905285e+02 2.105969018731249776e+01 1.470152748709834611e+02 -1.793304087643448597e+01 -8.806010052955643630e+01 -1.904532001775181982e+01 9.813923393466164669e+01 4.489100171717454657e+01 9.765206029521438325e+01 9.423095838634183963e+01 -8.291181794238946168e+01 -1.696178823552145332e+02 1.228447741640495252e+02 5.416169593832423601e+01 1.614774282329500110e+01 3.052844067168370046e+01 -6.781660245805197462e+01 9.588680685129129699e+01 8.970429488458266576e+01 -1.366129806548343595e+01 -7.114118571932463908e+01 3.071499688531351069e+01 6.267185042141748319e+00 -6.144779223747495678e+01 1.693406078191165989e+02 -3.290847630767995469e+01 1.214736057688229494e+02 -7.003972588572671043e+01 3.834998056259416899e+01 -3.607630104236418589e+01 8.939262123175120678e+01 2.346678878023351444e+01 1.154997478315699482e+02 -1.159309400996029069e+02 7.430625730705901333e+01 1.234327582139443251e+02 -4.469714386770337455e+01 7.593618502705860251e+00 -1.268231437136742912e+01 1.167625991049942940e+02 3.561410368705672624e+00 1.686712650411978416e+02 -1.414284676243207741e+02 1.167013220485493150e+02 -9.136044178514195835e+01 9.580130974833315349e+01 -1.371218130020246804e+02 2.953697367138502372e+01 2.475943683582154264e+01 1.813550842696967091e+00 3.634322073251551899e+01 4.596209018785362588e+01 -1.243503213126362006e+01 1.082801067536536266e+01 1.082101054496060897e+02 1.274127962690638469e+02 -8.678843098678314050e+01 -5.428745415250133277e+01 4.742873038223354598e+01 1.540038329072138445e+00 -1.371724434072372674e+02 -5.518684623983416770e+01 -3.551529617677159933e+01 4.900588424001340115e+01 -6.568235432331478307e+01 2.297526419992938074e+01 1.607172932889271806e+02 -7.965197600757362295e+01 8.099347743869688543e+01 8.430519819433239093e+01 1.126476435365581352e+01 1.237887895279136075e+02 6.307501802809136393e+01 1.685807567689735720e+02 -3.467402040777356831e+01 1.128573852761521579e+02 5.574909452655951725e+01 -1.613708355868124755e+01 2.049429888753489024e+02 -1.393850197517427034e+02 4.909459884767682070e+01 -1.884251057166026158e+02 -8.457863790828074002e+01 4.122667377086861507e+01 -7.257174403724614820e+01 -1.566493740422755252e+02 2.003910176137420081e+02 -8.625183311171304013e+01 -4.775736999340178102e+01 -4.654445298323105362e+01 1.224507327409109365e+02 1.959217648633134559e+02 6.513840112281071981e+01 1.471261688577585289e+02 2.207831879640489490e+02 -1.632671835895159962e+00 1.639062043216203506e+02 7.132658628932527733e+01 1.915736952433186104e+02 -1.265606716726567100e+02 -1.194047928805308878e+01 6.378607747585979482e+00 1.911373035016645758e+02 -9.146218908483595555e+01 -6.085143825247349270e+01 -5.328049162992965648e+01 -1.348023445148514554e+02 4.693538918033979712e+00 -1.015695211141958367e+02 1.550773166318132041e+02 2.371561334736074755e+01 1.208381896810382727e+01 7.276219945986279924e+01 -4.965851257766058069e+00 1.176896593468474777e+02 -1.598465657198596546e+02 4.569160621212040496e+01 -1.719193328649543560e+02 1.181628010630093968e+02 9.663514871371936010e+01 -6.773613717760289887e+01 4.706169616893877361e+01 2.396354115472059050e+02 -3.064819203763640232e+01 4.192114164549015243e+01 -3.287855502570618427e+01 5.830155648255621514e+01 6.468907830439553663e+01 -6.312219039221865557e+00 1.025600660347174511e+02 1.021403566263928298e+02 -1.950769760107056356e+02 -1.541897220800494779e+02 -1.205545567605763324e+02 -9.509231789285292891e+00 -1.507102587037262822e+02 1.162538097954782899e+02 1.110259298313276730e+02 5.933378223039698440e+01 1.122882756856966324e+01 1.586393265940917274e+02 8.446725978649180888e+01 6.790109716939366535e+01 -1.022432367263434543e+02 1.532576221083738517e+02 -3.600194348617554052e+00 1.099745373666667092e+02 8.868032857414750225e+00 3.695958997137537949e+01 -7.614378424509997956e+01 -9.127322582819402896e+01 7.198930871413399757e+01 -3.858146378307195867e+00 1.470620385302102591e+02 -1.264252629622668245e+01 -2.871452459878575780e+00 4.610098690370355001e+01 2.276141392142248421e+01 1.421538150969667811e+02 1.471483922576971715e+01 3.602302759417670330e+01 -1.554732085714789775e+02 6.616657593773177837e+01 1.342932350801170571e+02 -1.774576195285013469e+01 -2.290180619775736659e+02 8.476086093779433384e+01 1.366118581463742885e+02 2.038078691023961753e+01 1.894473198905983793e+02 -4.176562572594897382e+00 4.296796303156525454e+01 -4.364670207495325371e+01 -1.387792805751946332e+02 5.602536902500665406e+01 -4.748241112551237819e+01 -8.105248529689254156e+01 4.120487277188334474e+01 -1.847063379701827159e+02 7.166705948109749613e+01 1.642421327472121106e+02 -1.011186452549318915e+02 1.727483599290846996e+02 -9.751583661168753281e+01 -5.973197614550978862e+00 -1.050295619264091407e+01 7.646183957289893840e+01 -4.648276337019752447e+01 -1.075580619584187900e+02 -8.832279298839763726e+01 1.453757953405795149e+02 5.893122432749477468e+01 -1.313341210014335729e+02 4.424116654551454531e+00 4.328534401793399411e+01 8.226808675089330336e+01 -4.018258231533690861e+01 5.975225560019752180e+01 -6.869712376761475525e+01 -1.616975669031672282e+02 -3.448974970421629394e+01 1.403752352648501187e+02 -1.128760798371979490e+02 -6.387519252862333907e+00 -1.621729234148039325e+02 -4.762619143163679070e+00 -1.451895305857289316e+02 3.274410095910118912e+01 5.986351366993021372e+01 -5.007825921550554682e+01 -8.197118833952175976e+01 5.602874220099439917e+00 7.399775307033053195e+01 -6.740266916878589143e+01 1.339549231325445646e+02 1.049163044481999520e+02 -1.269039105573029644e+02 -1.048282957079724724e+02 1.342626703083455482e+02 7.089552535752068252e+01 1.492422669104367117e+02 9.953348899379284376e+01 8.062872785968534117e+01 -5.985541422676492829e+01 -8.120387208080239816e+01 -7.652210012566185071e+01 2.030115159689297286e+02 3.031544849809148445e+01 -2.471175680614147652e+01 -6.799862119731352550e+01 -4.960714230735522534e+01 -1.301423666312354328e+02 -1.635851910517951779e+01 -1.733904916790833113e+02 1.235671782886399228e+02 4.547185854905742985e+01 -1.138792731418367481e+02 -4.781609059506773463e+01 1.183294831220938192e+02 -9.581982210167025471e+01 1.016036070978054227e+02 -1.170447828662397143e+02 -1.162701896920880174e+01 -9.435983418008306955e+01 8.863794789844482125e+01 -4.196925907856203963e+01 1.019503968646480274e+01 2.897557925643331345e+01 -1.251138906641713220e+02 1.234921653221610249e+01 4.774664385985132498e+01 -2.212270914653396758e+01 -6.789851191554241439e+01 2.000167626160082079e+02 8.537644145605071344e+01 4.654235611933748373e+01 -3.102651974661658230e+01 7.923018855626990842e+01 1.654984269206514114e+02 -9.111838991649239006e+01 2.068210455498114015e+02 -1.314233615950649039e+02 -1.816056506062694496e+02 1.499233055628693023e+02 -2.309942160097793646e+02 -9.743318265985085880e-01 -2.418175367661883399e+02 -1.509760740634593503e+02 7.084725139891745016e+01 -1.437827297788221301e+02 5.763899533851017054e+01 1.085047969674463815e+02 -1.583306732944288626e+02 -2.974690156416719233e+01 7.444446179253395712e+01 1.322211033893949264e+02 -1.837211332253329203e+02 8.635225315385667955e+01 -9.670715772938409316e+01 -9.745550134452861002e+00 -1.370498139127301940e+01 -7.856517974506967050e+01 -8.915846435298632855e+01 1.790540214503449192e+02 -2.140523308381122902e+01 1.318120639735270050e+00 1.285825303008983838e+02 -8.560362267755564858e+01 -3.399784359741678230e+01 -1.063362859900239101e+02 -4.824553577470982191e+01 5.113840777439359719e+00 5.868001941373745467e+01 -1.335609302794571249e+02 2.346288697392298275e+02 -5.334580990644587928e+01 1.214456023660301440e+02 -4.835491745734472602e+01 1.186643310454381464e+02 1.378178820475134216e+02 4.756032517317877506e+01 1.210155356260831923e+02 -4.284693574895030821e+01 1.387573638248398993e+02 -1.551182357380734516e+02 -6.484219677399067905e+01 -6.244692429446334359e+01 2.532688465269243849e+01 -1.609702312884144249e+02 7.195874046066110452e+01 -3.058738225887602269e+01 -8.197332447815574596e+01 8.888193840134312040e+01 -1.498880051408242196e+02 -9.048406355518640964e+01 -5.218987206043685489e+01 3.281721707098104446e+01 1.287849077715696922e+02 1.159338501452551071e+02 6.857428608791049385e+01 -1.587755674964905106e+00 1.734717576713610185e+02 1.215479058698513768e+02 -9.368796214122031074e+01 -7.752517424786647382e+01 5.492397448047996278e+01 9.899533757258801359e+00 9.719041905614307097e+01 1.653376363015807726e+02 7.001483428118740449e+01 2.419985204647320032e+01 -1.013637472852452532e+02 1.703967334263886926e+02 -1.127420117605694401e+02 -1.639054727732774666e+02 6.516941567745698194e+01 1.105429115821440575e+02 1.946558151031820216e+01 -1.376518828139772097e+02 2.947456591886869504e+01 4.205431320274563234e+01 -3.211415772189973872e-01 1.297568392339065895e+02 9.674543659379199312e+01 1.695207642276436744e+01 7.762922178887342284e+01 -1.060254810350687364e+02 -6.259918123162196757e+00 9.741382110503244007e+01 2.940661267939791301e+01 -6.441948409357348737e+01 1.961478172173480061e+02 2.288861196740702439e+02 -1.243010239110593176e+02 -2.734077113342683774e+01 -2.081410695138370386e+02 -7.146771230393407848e+01 1.550495737118586987e+02 3.366504726724749652e+00 -7.027160734601758918e+01 1.621355242481102437e+02 -6.187469731857772359e+01 -1.589562498276281133e+02 1.351453984332802349e+02 -6.651854326883027113e+01 3.410733314227934443e+01 8.544922730575110847e+01 1.363572969716120653e+01 -2.357033474483681914e+02 4.184364032165530034e+01 -6.072554399952833748e+00 8.912156860271829828e+01 -2.330918507734662271e+01 1.000624641953440630e+02 1.678844035263567847e+01 -8.383174784774408295e+01 -2.025533442656339389e+01 -1.733224328075504559e+02 1.137404125568635465e+02 2.499691393514087423e+01 -4.117357802259654420e+01 -5.124565545782393627e+01 -6.219276282220678098e+01 4.065652332647800904e+01 1.589324517384636408e+02 1.312494228249046841e+02 4.259478515417398370e+01 -1.956938463446058449e+02 -3.836819983502547871e+01 4.333289358860606910e+01 1.160543890012247203e+02 8.626637956107933292e+01 1.528302149186163028e+01 -1.839974326115187182e+02 1.302670438888960405e+02 -2.213044687494488585e+02 -2.035554302048790021e+02 -1.824841102998145947e+00 -7.296702125430284980e+01 -2.382326802640668717e+01 8.617464838624272261e+01 5.530923474992523126e+01 -1.099899788527615954e+02 -1.497912362692351280e+02 1.443315225783013567e+01 1.223367745703900908e+02 2.047359776197037462e+01 -5.608906779447946178e+01 -5.105547617019844608e+01 -1.163789083398711277e+01 1.596077604223855531e+02 2.212932785754492215e+01 -1.748565010197360436e+02 1.291699004153434771e+02 -6.726003069045528093e+01 -4.204532849256503724e+00 1.550527024025044511e+02 -5.266429783026454459e+01 -1.971790050022033824e+01 -1.106066643591464782e+02 -6.049557371701959951e+00 -2.402187743628162409e+01 1.326161471746132463e+02 1.209194172216092511e+02 6.804745683340213702e+01 6.586950073783215487e+01 -1.884141589900574232e+01 1.361476782875587901e+02 -1.135284572268678289e+02 -4.291841240003961389e+00 -9.168114125594982511e+01 1.582196569956978180e+02 7.344653693733870625e+01 5.204985928903806069e+01 8.332835277761095227e+00 -5.364813535817089729e+01 3.461968977555138594e+01 6.795216547198651647e+00 3.630701392368544944e+00 2.428108045208781718e+01 6.018424847741344053e+01 1.714135554248350672e+02 -3.909457409857823507e+01 -5.234114749648880149e+01 6.723760049282887508e+01 1.164550749568248875e+02 -1.289590068294059577e+01 9.254567804414745069e+01 1.047362625833374210e+02 2.121679805240006829e+02 -8.712553155803486504e+01 -1.235090553406569427e+02 -2.882761811407116781e+01 6.255314204807080358e+01 -1.021369666085869277e+01 1.081199726817724240e+02 3.747726910602011685e+01 -1.636799245825669118e+02 4.534966744925728932e+01 -9.002949645808273260e+01 -1.361529424048469821e+02 1.353414832199930800e+02 -7.649431395206475770e+01 5.950794671665046565e+01 1.118728043729541639e+02 -9.961969681908466612e+01 2.361402182282365914e+01 -7.256594322292900756e+01 4.049258771293946069e+01 -1.152349465595955422e+02 6.191265130770928238e+01 5.496508858743759873e+01 3.939358286887527871e+00 8.451081733720636180e+01 -1.537267635990700114e+02 7.677102016995058875e+01 -2.940434942125789775e+01 -1.685871922557927292e+02 9.428022617702463037e+01 2.447126916732549873e+01 -1.957486207437088979e+02 2.347530904311391566e+02 -5.303585593380026886e-01 1.049500313804185083e+02 -1.203462291026452817e+02 -1.937924589126886588e+02 -9.311947140372035392e+01 2.472309749057044925e+00 1.425998292209430929e+02 3.997222573960943048e+00 -9.536677870344163921e+01 5.029805894303964919e+01 1.367563760058126263e+02 6.484874064785284986e+01 -5.163599083453559047e+01 -5.901543133775653871e+01 8.432965213340692401e+01 3.068556782108891312e+01 -1.951362344068963068e+02 -2.068978270145814591e+01 1.686800699442867426e+02 9.862313133313560343e+01 -5.720059840185012945e+01 -1.115683798091098140e+02 -4.259069343046990497e+01 -4.797918365502535210e+01 -1.142103010245539281e+02 -1.844331558927531134e+01 -4.556683440784377837e+01 -1.133756524902095464e+02 -1.316054405212396432e+02 -2.687194845817803923e+01 -1.253965087409609822e+02 -1.335021832676161466e+02 -3.825055488493739375e+01 -5.523488782541378583e+01 -1.107651731620569961e+02 1.924702791534825792e+02 1.088787708007731148e+01 -2.908982262671892727e+01 -1.758677897338431251e+01 8.133816660448010794e+01 1.616880556034566041e+01 2.589836183917705981e+01 -2.201025051439114932e+01 -4.780257745209316766e+01 2.163029975296238661e+01 -1.502989682940237230e+02 -1.646032993069115662e+02 -9.350348712755615566e+01 -1.973250531282787392e+02 -9.266739357093329943e+01 8.871945903119701882e+01 6.346655123010061317e+01 -2.694781771386653446e+01 6.283342072925043453e+01 -1.618704375393229498e+02 -4.220671895453294553e+01 -1.200708505439592670e+02 -6.902023619353542472e+01 2.181006961112888121e+02 -2.122580052067794725e+02 2.122383674457940117e+02 2.584604968742138453e+01 -5.839377131741984783e+01 9.538415697054797704e+01 1.282987593442841501e+02 -5.365340307789338681e+01 -2.106471642533585396e+02 -1.541635998072396205e+02 1.057409941597442042e+02 8.660740896287690305e+01 -1.401922632302083400e+02 3.304497831927954365e+01 -4.101120552648882267e+01 -8.002967224186436113e+01 -2.938972879401734772e+01 -5.669253525093693469e+01 -8.937931582779806661e+01 -3.519193925246811716e+01 4.628248918907140741e+00 -3.382096716028545558e+01 -4.103390515078266243e-01 -1.484912643196872750e+01 9.510659962496507092e+01 1.313994599162915335e+02 1.361687996160092062e+01 1.735904612184129903e+01 -6.525091389571284139e+01 -2.026821300429187716e+02 3.500459449288599956e+01 -9.485403349709754650e+01 2.670581688459884262e+01 -8.462095745739194541e+00 1.050931142403205287e+00 7.472401743824948994e+01 1.260204787433575433e+02 -7.285549262044966667e+01 3.929014471996363511e+01 -1.993908202288292841e+02 9.996853518419269946e+00 7.239982454753755903e+00 -1.267119901548014411e+02 -3.487425143554342810e+01 -4.583345222407604069e+01 4.934809166098286681e+00 -1.057279417367283827e+02 2.797576778777178674e+01 -1.009703532170241971e+02 5.802720197172740058e+01 7.015018226855526962e+01 3.813200673923309836e+01 -3.000398380661102493e+01 1.110937409543611238e+02 6.313703741427433158e+01 8.270139354519758967e+01 -6.925453700973697835e+01 2.098528150649580226e+01 1.322015227690934012e+02 -6.043708532934794420e+01 -7.144882447799345115e+00 3.306546174498173229e+01 -1.326997089810627131e+02 1.010922340347926820e+02 9.256195522144184906e+01 -1.044981683944486974e+02 -8.508990300138707141e+01 -5.736049612014850396e+01 -4.706266741076940008e+01 -1.655677269774643321e+02 -1.404059764197155573e+02 -1.368260409249053851e+02 1.091262883107905424e+02 6.172474116187691351e+01 1.647179402527546586e+02 7.429502826471107824e+00 -8.852948459923173630e+01 1.933554614050450127e+01 1.427959513203913566e+01 -6.555143978860765230e+01 7.642622339150202038e+01 1.218406814643597471e+02 1.031379120325196297e+01 1.479823372092188265e+02 2.322844941853242773e+01 1.144794983352663849e+02 1.557617204197001470e+01 -2.143359123778565447e+02 2.252504818127620752e+02 -5.047422454636311073e+01 -1.537989080616343642e+02 -6.929021819032740837e+01 -4.426424895859426556e+01 4.244720210084641110e+01 2.625682907243754016e+01 4.691857074323257137e+01 -7.601120219144986834e+01 1.254692930816140972e+02 -8.842033647763010151e+01 -7.184340250873251676e+00 1.459630753374616461e+02 1.122927356405507737e+02 5.938796625622607195e+01 -1.812183762689557511e+02 2.602864479287388022e+01 1.436639592083522246e+02 2.397211510612572027e+01 9.977444234370278764e+01 1.087761143391504817e+02 -2.159702806877235162e+02 7.856094429116755862e+01 -5.896711045199253931e+01 -2.295480501754592524e+02 9.027077317747243512e+01 2.505198395167895598e+01 -1.238378037668627059e+02 -5.935072241478205513e+01 1.404922669974244229e+02 1.491060968153412318e+02 -7.652949937679539971e+01 -1.288545968581541388e+02 -8.404278000976643170e+01 -1.668930614953476947e+02 1.966433704938724958e+01 3.808688569994954065e+01 -1.700220504679803213e+01 -1.240700522131093919e+01 -8.963509525584881033e+01 -8.843106774682958360e+01 -2.464041119019417536e+01 1.334940194866469483e+02 1.356880800945280043e+02 8.073076191907304633e+01 9.652534929483873327e+01 -7.807222940961297297e+01 -1.791818688595033962e+02 -1.312418516019358528e+01 -2.295950951098274828e+01 -7.032360847909180279e+01 1.484334089084998087e+00 7.235890959795473520e+01 -5.240869819351949843e+01 2.439797863975832826e+01 7.840271111085276345e+01 6.940853103813715563e+01 1.094371403568314776e+02 -1.477173791081794434e+02 3.925236423779022488e+01 8.249240380583769650e+01 9.382649929551861590e+01 5.849095601491116270e+01 -1.022232936909679495e+02 1.355896333724904537e+02 1.262039863935721655e+02 9.489172518969498071e+01 1.005307759501961158e+02 -8.339709009116030813e+01 -1.472693838360890339e+01 -1.279856286559123113e+01 7.630282450153532636e+01 6.432790328077547315e+01 5.541499351900849746e+01 9.662509140689434162e+01 1.153282476786601194e+02 1.226558382477954154e+02 -6.426959825013085492e+01 7.980153817898266766e+01 6.460594226705734400e+01 -1.165006551034603461e+02 1.303100506511764536e+02 -9.941506067797254431e+00 -2.764726666953117018e+01 1.973666207090403759e+02 8.763325675399315173e+01 1.229411140426466886e+02 -1.430096630062969894e+02 -1.563603372066446582e+02 -1.523885072426093927e+02 -1.211112871912828837e+02 -4.390650148656550300e+01 1.089017910106597782e+02 -1.672829272045298410e+02 3.227304561814948869e+01 1.432367076404034663e+02 -5.889461636755370222e+01 -9.068102086816648466e+01 -3.486116972934132718e+01 1.349381587705006211e+02 2.257643737357681175e+02 -6.620315700892479072e+01 1.968638190360970697e+01 -2.752410383170439445e+01 6.806747476258186680e+01 5.989891814737872977e+01 -2.119776781532272878e+02 -8.815426019190249463e+01 1.368051786041599200e+02 1.390355125626971926e+02 9.403069019145171126e+01 -4.954478644001398635e+01 -7.542106654502551066e+01 -4.518349794416099741e+01 -1.756614429166585865e+02 7.081826277514390711e+01 -2.555053987726466147e+01 1.656158365205467078e+02 -2.779944792055153258e+01 -3.131656458301318366e+02 1.442517295087059210e+02 5.008665380435616754e+01 -1.174763639221795870e+02 -2.205249378150282524e+01 3.517079119733101322e+01 -2.068473812907662932e+02 -1.138398418283646265e+02 -1.091756732971814330e+02 -5.622468326456446874e+01 6.257564836383777163e+01 -1.642191311716017594e+02 1.075461369330220407e+02 -5.412370312674143236e+01 2.899383795275157549e+00 -1.329595083281504628e+02 -1.032478662134088978e+02 1.752760257305216101e+02 8.638083241303627346e+01 -4.210149300695194796e+01 3.706094644254255144e+01 -2.797401386087535613e+01 4.310309019980653744e+01 -1.043138464857980523e+02 9.856181155588134857e+01 5.037139971483323819e+01 -1.185849222712987086e+02 1.164476024060099206e+02 -4.901284026056083576e+01 9.965947625058636561e+01 -4.928713660872149660e+01 8.817435512130134612e+01 -1.530494505848043048e+02 1.423720535943466245e+02 2.471660083282123566e+01 1.004246924737020805e+02 1.301397896651838266e+02 -1.463503417979765686e+02 -8.572830653182184335e+01 -1.054289233068916474e+02 6.675587031229387946e+01 -1.710418479139065937e+02 1.512240797092718481e+02 1.421602913502830177e+02 5.289991948861249682e+01 -8.476503596561919096e+01 5.696950709798730372e+01 -1.071444263288026804e+02 -1.093879842630998667e+01 3.493973561070133371e+01 -1.835035313415126836e+02 -8.149166734583451444e+01 -1.351908878988015061e+01 1.020972163054466932e+02 -5.015460173774562236e+01 1.085983756681594912e+02 -6.428209086228864066e+01 -2.106436648164904852e+02 -1.070186670152540671e+02 -3.405364900443356646e+01 -6.015557381846559082e+01 3.008416881636557960e+01 5.135618650044995093e+01 6.347787729594472239e+00 2.530190139974809327e+01 -1.172793855228603235e+02 5.382908427510933791e+01 3.262781864035889612e+01 -7.219037480894358794e+01 9.261669084566291232e+00 5.633240545641653796e+01 -9.544194180167669117e+01 -5.509630010179584048e+01 -2.415309373091555045e+01 9.764976122901590827e+01 -1.713921452318815142e+01 4.196056410598045794e+00 -2.282258033423686641e+02 -9.511699152520867528e+01 9.901453141924433510e+01 -8.931446550781663518e+01 3.137080950243434430e+01 3.109714834010268802e+01 3.797884051844435760e+01 6.615710210314098561e+01 -1.776591568041106370e+02 1.441384316155661907e+02 8.157569307184797935e+01 -7.524707792423523500e+00 -8.091087633784805178e+01 1.120669305089604819e+02 6.217893801152408173e+01 -2.013678013340646089e+02 -5.045754939697442154e+01 -8.180504354906364028e+01 -5.191832594704570170e+01 -6.203262902235013598e+01 -9.920593255776707053e+01 -6.046394699708510956e+01 1.917870169393073070e+02 -1.710548044033632777e+02 6.558890850688655405e+01 2.778669179922911781e+01 -7.529953094580041295e+01 1.039946418910997217e+01 -3.948145706129918153e+01 3.433105784548628581e+00 -9.629389351549856713e+01 -1.978930850107281003e+02 1.842535706430650322e+01 4.198759298430503151e+01 -1.282193029028946185e+01 -9.038134697310088228e+00 -3.985316160675984776e+01 -1.902813281802828840e+02 -3.070793277801968912e+01 -6.549034464283474222e+01 1.399534725331022500e+01 -1.564008942414331393e+01 9.072531853630010801e+01 -6.315797671516828160e+01 -1.039070327321489344e+02 -3.581661922775763429e+01 -9.032789120960856621e+00 4.560035691769919453e+01 -2.218834049691609778e+01 -7.389213367938003785e+01 -1.590675838051144098e+01 2.010968611419787067e+01 4.760566122167413283e+01 -1.142647755726694641e+02 -1.393443460052942839e+02 2.308646092853575169e+02 -2.187781246583311940e+02 -7.613084339167457415e+01 -4.645402035585375700e+01 1.401962174674820005e+02 6.343475988300998836e+01 2.294234662095480815e+02 2.453496621908845725e+02 -6.248889337830544122e+01 1.297956381812115012e+02 -5.609436391951792444e+01 -4.091297975390202879e+01 -1.009037499875533683e+02 -8.004626448046560938e+01 -6.974974799970073036e+01 -8.922220434599236683e+01 -2.443997633742361586e+02 -2.715715900943689576e+02 1.350462647690841322e+02 -2.659750954127098765e+01 5.340344551459924105e+01 1.312080279891061139e+02
