# 
#                 ----------------------------------------------------
#                 Data from a 3D direct N-body simulation. 
# 
#                 rows are i-particle; 
#                 coumns are :mass, tag, x ,y, z, vx, vy, vz, ax, ay, az
# 
#                 NTHU, Computational Physics Lab
# 
#                 ----------------------------------------------------
#                 Time = 3.9999999999999587
1.000000000000000000e+00 2.000000000000000000e+00 3.000000000000000000e+00 4.000000000000000000e+00 5.000000000000000000e+00 6.000000000000000000e+00 7.000000000000000000e+00 8.000000000000000000e+00 9.000000000000000000e+00 1.000000000000000000e+01 1.100000000000000000e+01 1.200000000000000000e+01 1.300000000000000000e+01 1.400000000000000000e+01 1.500000000000000000e+01 1.600000000000000000e+01 1.700000000000000000e+01 1.800000000000000000e+01 1.900000000000000000e+01 2.000000000000000000e+01 2.100000000000000000e+01 2.200000000000000000e+01 2.300000000000000000e+01 2.400000000000000000e+01 2.500000000000000000e+01 2.600000000000000000e+01 2.700000000000000000e+01 2.800000000000000000e+01 2.900000000000000000e+01 3.000000000000000000e+01 3.100000000000000000e+01 3.200000000000000000e+01 3.300000000000000000e+01 3.400000000000000000e+01 3.500000000000000000e+01 3.600000000000000000e+01 3.700000000000000000e+01 3.800000000000000000e+01 3.900000000000000000e+01 4.000000000000000000e+01 4.100000000000000000e+01 4.200000000000000000e+01 4.300000000000000000e+01 4.400000000000000000e+01 4.500000000000000000e+01 4.600000000000000000e+01 4.700000000000000000e+01 4.800000000000000000e+01 4.900000000000000000e+01 5.000000000000000000e+01 5.100000000000000000e+01 5.200000000000000000e+01 5.300000000000000000e+01 5.400000000000000000e+01 5.500000000000000000e+01 5.600000000000000000e+01 5.700000000000000000e+01 5.800000000000000000e+01 5.900000000000000000e+01 6.000000000000000000e+01 6.100000000000000000e+01 6.200000000000000000e+01 6.300000000000000000e+01 6.400000000000000000e+01 6.500000000000000000e+01 6.600000000000000000e+01 6.700000000000000000e+01 6.800000000000000000e+01 6.900000000000000000e+01 7.000000000000000000e+01 7.100000000000000000e+01 7.200000000000000000e+01 7.300000000000000000e+01 7.400000000000000000e+01 7.500000000000000000e+01 7.600000000000000000e+01 7.700000000000000000e+01 7.800000000000000000e+01 7.900000000000000000e+01 8.000000000000000000e+01 8.100000000000000000e+01 8.200000000000000000e+01 8.300000000000000000e+01 8.400000000000000000e+01 8.500000000000000000e+01 8.600000000000000000e+01 8.700000000000000000e+01 8.800000000000000000e+01 8.900000000000000000e+01 9.000000000000000000e+01 9.100000000000000000e+01 9.200000000000000000e+01 9.300000000000000000e+01 9.400000000000000000e+01 9.500000000000000000e+01 9.600000000000000000e+01 9.700000000000000000e+01 9.800000000000000000e+01 9.900000000000000000e+01 1.000000000000000000e+02 1.010000000000000000e+02 1.020000000000000000e+02 1.030000000000000000e+02 1.040000000000000000e+02 1.050000000000000000e+02 1.060000000000000000e+02 1.070000000000000000e+02 1.080000000000000000e+02 1.090000000000000000e+02 1.100000000000000000e+02 1.110000000000000000e+02 1.120000000000000000e+02 1.130000000000000000e+02 1.140000000000000000e+02 1.150000000000000000e+02 1.160000000000000000e+02 1.170000000000000000e+02 1.180000000000000000e+02 1.190000000000000000e+02 1.200000000000000000e+02 1.210000000000000000e+02 1.220000000000000000e+02 1.230000000000000000e+02 1.240000000000000000e+02 1.250000000000000000e+02 1.260000000000000000e+02 1.270000000000000000e+02 1.280000000000000000e+02 1.290000000000000000e+02 1.300000000000000000e+02 1.310000000000000000e+02 1.320000000000000000e+02 1.330000000000000000e+02 1.340000000000000000e+02 1.350000000000000000e+02 1.360000000000000000e+02 1.370000000000000000e+02 1.380000000000000000e+02 1.390000000000000000e+02 1.400000000000000000e+02 1.410000000000000000e+02 1.420000000000000000e+02 1.430000000000000000e+02 1.440000000000000000e+02 1.450000000000000000e+02 1.460000000000000000e+02 1.470000000000000000e+02 1.480000000000000000e+02 1.490000000000000000e+02 1.500000000000000000e+02 1.510000000000000000e+02 1.520000000000000000e+02 1.530000000000000000e+02 1.540000000000000000e+02 1.550000000000000000e+02 1.560000000000000000e+02 1.570000000000000000e+02 1.580000000000000000e+02 1.590000000000000000e+02 1.600000000000000000e+02 1.610000000000000000e+02 1.620000000000000000e+02 1.630000000000000000e+02 1.640000000000000000e+02 1.650000000000000000e+02 1.660000000000000000e+02 1.670000000000000000e+02 1.680000000000000000e+02 1.690000000000000000e+02 1.700000000000000000e+02 1.710000000000000000e+02 1.720000000000000000e+02 1.730000000000000000e+02 1.740000000000000000e+02 1.750000000000000000e+02 1.760000000000000000e+02 1.770000000000000000e+02 1.780000000000000000e+02 1.790000000000000000e+02 1.800000000000000000e+02 1.810000000000000000e+02 1.820000000000000000e+02 1.830000000000000000e+02 1.840000000000000000e+02 1.850000000000000000e+02 1.860000000000000000e+02 1.870000000000000000e+02 1.880000000000000000e+02 1.890000000000000000e+02 1.900000000000000000e+02 1.910000000000000000e+02 1.920000000000000000e+02 1.930000000000000000e+02 1.940000000000000000e+02 1.950000000000000000e+02 1.960000000000000000e+02 1.970000000000000000e+02 1.980000000000000000e+02 1.990000000000000000e+02 2.000000000000000000e+02 2.010000000000000000e+02 2.020000000000000000e+02 2.030000000000000000e+02 2.040000000000000000e+02 2.050000000000000000e+02 2.060000000000000000e+02 2.070000000000000000e+02 2.080000000000000000e+02 2.090000000000000000e+02 2.100000000000000000e+02 2.110000000000000000e+02 2.120000000000000000e+02 2.130000000000000000e+02 2.140000000000000000e+02 2.150000000000000000e+02 2.160000000000000000e+02 2.170000000000000000e+02 2.180000000000000000e+02 2.190000000000000000e+02 2.200000000000000000e+02 2.210000000000000000e+02 2.220000000000000000e+02 2.230000000000000000e+02 2.240000000000000000e+02 2.250000000000000000e+02 2.260000000000000000e+02 2.270000000000000000e+02 2.280000000000000000e+02 2.290000000000000000e+02 2.300000000000000000e+02 2.310000000000000000e+02 2.320000000000000000e+02 2.330000000000000000e+02 2.340000000000000000e+02 2.350000000000000000e+02 2.360000000000000000e+02 2.370000000000000000e+02 2.380000000000000000e+02 2.390000000000000000e+02 2.400000000000000000e+02 2.410000000000000000e+02 2.420000000000000000e+02 2.430000000000000000e+02 2.440000000000000000e+02 2.450000000000000000e+02 2.460000000000000000e+02 2.470000000000000000e+02 2.480000000000000000e+02 2.490000000000000000e+02 2.500000000000000000e+02 2.510000000000000000e+02 2.520000000000000000e+02 2.530000000000000000e+02 2.540000000000000000e+02 2.550000000000000000e+02 2.560000000000000000e+02 2.570000000000000000e+02 2.580000000000000000e+02 2.590000000000000000e+02 2.600000000000000000e+02 2.610000000000000000e+02 2.620000000000000000e+02 2.630000000000000000e+02 2.640000000000000000e+02 2.650000000000000000e+02 2.660000000000000000e+02 2.670000000000000000e+02 2.680000000000000000e+02 2.690000000000000000e+02 2.700000000000000000e+02 2.710000000000000000e+02 2.720000000000000000e+02 2.730000000000000000e+02 2.740000000000000000e+02 2.750000000000000000e+02 2.760000000000000000e+02 2.770000000000000000e+02 2.780000000000000000e+02 2.790000000000000000e+02 2.800000000000000000e+02 2.810000000000000000e+02 2.820000000000000000e+02 2.830000000000000000e+02 2.840000000000000000e+02 2.850000000000000000e+02 2.860000000000000000e+02 2.870000000000000000e+02 2.880000000000000000e+02 2.890000000000000000e+02 2.900000000000000000e+02 2.910000000000000000e+02 2.920000000000000000e+02 2.930000000000000000e+02 2.940000000000000000e+02 2.950000000000000000e+02 2.960000000000000000e+02 2.970000000000000000e+02 2.980000000000000000e+02 2.990000000000000000e+02 3.000000000000000000e+02 3.010000000000000000e+02 3.020000000000000000e+02 3.030000000000000000e+02 3.040000000000000000e+02 3.050000000000000000e+02 3.060000000000000000e+02 3.070000000000000000e+02 3.080000000000000000e+02 3.090000000000000000e+02 3.100000000000000000e+02 3.110000000000000000e+02 3.120000000000000000e+02 3.130000000000000000e+02 3.140000000000000000e+02 3.150000000000000000e+02 3.160000000000000000e+02 3.170000000000000000e+02 3.180000000000000000e+02 3.190000000000000000e+02 3.200000000000000000e+02 3.210000000000000000e+02 3.220000000000000000e+02 3.230000000000000000e+02 3.240000000000000000e+02 3.250000000000000000e+02 3.260000000000000000e+02 3.270000000000000000e+02 3.280000000000000000e+02 3.290000000000000000e+02 3.300000000000000000e+02 3.310000000000000000e+02 3.320000000000000000e+02 3.330000000000000000e+02 3.340000000000000000e+02 3.350000000000000000e+02 3.360000000000000000e+02 3.370000000000000000e+02 3.380000000000000000e+02 3.390000000000000000e+02 3.400000000000000000e+02 3.410000000000000000e+02 3.420000000000000000e+02 3.430000000000000000e+02 3.440000000000000000e+02 3.450000000000000000e+02 3.460000000000000000e+02 3.470000000000000000e+02 3.480000000000000000e+02 3.490000000000000000e+02 3.500000000000000000e+02 3.510000000000000000e+02 3.520000000000000000e+02 3.530000000000000000e+02 3.540000000000000000e+02 3.550000000000000000e+02 3.560000000000000000e+02 3.570000000000000000e+02 3.580000000000000000e+02 3.590000000000000000e+02 3.600000000000000000e+02 3.610000000000000000e+02 3.620000000000000000e+02 3.630000000000000000e+02 3.640000000000000000e+02 3.650000000000000000e+02 3.660000000000000000e+02 3.670000000000000000e+02 3.680000000000000000e+02 3.690000000000000000e+02 3.700000000000000000e+02 3.710000000000000000e+02 3.720000000000000000e+02 3.730000000000000000e+02 3.740000000000000000e+02 3.750000000000000000e+02 3.760000000000000000e+02 3.770000000000000000e+02 3.780000000000000000e+02 3.790000000000000000e+02 3.800000000000000000e+02 3.810000000000000000e+02 3.820000000000000000e+02 3.830000000000000000e+02 3.840000000000000000e+02 3.850000000000000000e+02 3.860000000000000000e+02 3.870000000000000000e+02 3.880000000000000000e+02 3.890000000000000000e+02 3.900000000000000000e+02 3.910000000000000000e+02 3.920000000000000000e+02 3.930000000000000000e+02 3.940000000000000000e+02 3.950000000000000000e+02 3.960000000000000000e+02 3.970000000000000000e+02 3.980000000000000000e+02 3.990000000000000000e+02 4.000000000000000000e+02 4.010000000000000000e+02 4.020000000000000000e+02 4.030000000000000000e+02 4.040000000000000000e+02 4.050000000000000000e+02 4.060000000000000000e+02 4.070000000000000000e+02 4.080000000000000000e+02 4.090000000000000000e+02 4.100000000000000000e+02 4.110000000000000000e+02 4.120000000000000000e+02 4.130000000000000000e+02 4.140000000000000000e+02 4.150000000000000000e+02 4.160000000000000000e+02 4.170000000000000000e+02 4.180000000000000000e+02 4.190000000000000000e+02 4.200000000000000000e+02 4.210000000000000000e+02 4.220000000000000000e+02 4.230000000000000000e+02 4.240000000000000000e+02 4.250000000000000000e+02 4.260000000000000000e+02 4.270000000000000000e+02 4.280000000000000000e+02 4.290000000000000000e+02 4.300000000000000000e+02 4.310000000000000000e+02 4.320000000000000000e+02 4.330000000000000000e+02 4.340000000000000000e+02 4.350000000000000000e+02 4.360000000000000000e+02 4.370000000000000000e+02 4.380000000000000000e+02 4.390000000000000000e+02 4.400000000000000000e+02 4.410000000000000000e+02 4.420000000000000000e+02 4.430000000000000000e+02 4.440000000000000000e+02 4.450000000000000000e+02 4.460000000000000000e+02 4.470000000000000000e+02 4.480000000000000000e+02 4.490000000000000000e+02 4.500000000000000000e+02 4.510000000000000000e+02 4.520000000000000000e+02 4.530000000000000000e+02 4.540000000000000000e+02 4.550000000000000000e+02 4.560000000000000000e+02 4.570000000000000000e+02 4.580000000000000000e+02 4.590000000000000000e+02 4.600000000000000000e+02 4.610000000000000000e+02 4.620000000000000000e+02 4.630000000000000000e+02 4.640000000000000000e+02 4.650000000000000000e+02 4.660000000000000000e+02 4.670000000000000000e+02 4.680000000000000000e+02 4.690000000000000000e+02 4.700000000000000000e+02 4.710000000000000000e+02 4.720000000000000000e+02 4.730000000000000000e+02 4.740000000000000000e+02 4.750000000000000000e+02 4.760000000000000000e+02 4.770000000000000000e+02 4.780000000000000000e+02 4.790000000000000000e+02 4.800000000000000000e+02 4.810000000000000000e+02 4.820000000000000000e+02 4.830000000000000000e+02 4.840000000000000000e+02 4.850000000000000000e+02 4.860000000000000000e+02 4.870000000000000000e+02 4.880000000000000000e+02 4.890000000000000000e+02 4.900000000000000000e+02 4.910000000000000000e+02 4.920000000000000000e+02 4.930000000000000000e+02 4.940000000000000000e+02 4.950000000000000000e+02 4.960000000000000000e+02 4.970000000000000000e+02 4.980000000000000000e+02 4.990000000000000000e+02 5.000000000000000000e+02 5.010000000000000000e+02 5.020000000000000000e+02 5.030000000000000000e+02 5.040000000000000000e+02 5.050000000000000000e+02 5.060000000000000000e+02 5.070000000000000000e+02 5.080000000000000000e+02 5.090000000000000000e+02 5.100000000000000000e+02 5.110000000000000000e+02 5.120000000000000000e+02 5.130000000000000000e+02 5.140000000000000000e+02 5.150000000000000000e+02 5.160000000000000000e+02 5.170000000000000000e+02 5.180000000000000000e+02 5.190000000000000000e+02 5.200000000000000000e+02 5.210000000000000000e+02 5.220000000000000000e+02 5.230000000000000000e+02 5.240000000000000000e+02 5.250000000000000000e+02 5.260000000000000000e+02 5.270000000000000000e+02 5.280000000000000000e+02 5.290000000000000000e+02 5.300000000000000000e+02 5.310000000000000000e+02 5.320000000000000000e+02 5.330000000000000000e+02 5.340000000000000000e+02 5.350000000000000000e+02 5.360000000000000000e+02 5.370000000000000000e+02 5.380000000000000000e+02 5.390000000000000000e+02 5.400000000000000000e+02 5.410000000000000000e+02 5.420000000000000000e+02 5.430000000000000000e+02 5.440000000000000000e+02 5.450000000000000000e+02 5.460000000000000000e+02 5.470000000000000000e+02 5.480000000000000000e+02 5.490000000000000000e+02 5.500000000000000000e+02 5.510000000000000000e+02 5.520000000000000000e+02 5.530000000000000000e+02 5.540000000000000000e+02 5.550000000000000000e+02 5.560000000000000000e+02 5.570000000000000000e+02 5.580000000000000000e+02 5.590000000000000000e+02 5.600000000000000000e+02 5.610000000000000000e+02 5.620000000000000000e+02 5.630000000000000000e+02 5.640000000000000000e+02 5.650000000000000000e+02 5.660000000000000000e+02 5.670000000000000000e+02 5.680000000000000000e+02 5.690000000000000000e+02 5.700000000000000000e+02 5.710000000000000000e+02 5.720000000000000000e+02 5.730000000000000000e+02 5.740000000000000000e+02 5.750000000000000000e+02 5.760000000000000000e+02 5.770000000000000000e+02 5.780000000000000000e+02 5.790000000000000000e+02 5.800000000000000000e+02 5.810000000000000000e+02 5.820000000000000000e+02 5.830000000000000000e+02 5.840000000000000000e+02 5.850000000000000000e+02 5.860000000000000000e+02 5.870000000000000000e+02 5.880000000000000000e+02 5.890000000000000000e+02 5.900000000000000000e+02 5.910000000000000000e+02 5.920000000000000000e+02 5.930000000000000000e+02 5.940000000000000000e+02 5.950000000000000000e+02 5.960000000000000000e+02 5.970000000000000000e+02 5.980000000000000000e+02 5.990000000000000000e+02 6.000000000000000000e+02 6.010000000000000000e+02 6.020000000000000000e+02 6.030000000000000000e+02 6.040000000000000000e+02 6.050000000000000000e+02 6.060000000000000000e+02 6.070000000000000000e+02 6.080000000000000000e+02 6.090000000000000000e+02 6.100000000000000000e+02 6.110000000000000000e+02 6.120000000000000000e+02 6.130000000000000000e+02 6.140000000000000000e+02 6.150000000000000000e+02 6.160000000000000000e+02 6.170000000000000000e+02 6.180000000000000000e+02 6.190000000000000000e+02 6.200000000000000000e+02 6.210000000000000000e+02 6.220000000000000000e+02 6.230000000000000000e+02 6.240000000000000000e+02 6.250000000000000000e+02 6.260000000000000000e+02 6.270000000000000000e+02 6.280000000000000000e+02 6.290000000000000000e+02 6.300000000000000000e+02 6.310000000000000000e+02 6.320000000000000000e+02 6.330000000000000000e+02 6.340000000000000000e+02 6.350000000000000000e+02 6.360000000000000000e+02 6.370000000000000000e+02 6.380000000000000000e+02 6.390000000000000000e+02 6.400000000000000000e+02 6.410000000000000000e+02 6.420000000000000000e+02 6.430000000000000000e+02 6.440000000000000000e+02 6.450000000000000000e+02 6.460000000000000000e+02 6.470000000000000000e+02 6.480000000000000000e+02 6.490000000000000000e+02 6.500000000000000000e+02 6.510000000000000000e+02 6.520000000000000000e+02 6.530000000000000000e+02 6.540000000000000000e+02 6.550000000000000000e+02 6.560000000000000000e+02 6.570000000000000000e+02 6.580000000000000000e+02 6.590000000000000000e+02 6.600000000000000000e+02 6.610000000000000000e+02 6.620000000000000000e+02 6.630000000000000000e+02 6.640000000000000000e+02 6.650000000000000000e+02 6.660000000000000000e+02 6.670000000000000000e+02 6.680000000000000000e+02 6.690000000000000000e+02 6.700000000000000000e+02 6.710000000000000000e+02 6.720000000000000000e+02 6.730000000000000000e+02 6.740000000000000000e+02 6.750000000000000000e+02 6.760000000000000000e+02 6.770000000000000000e+02 6.780000000000000000e+02 6.790000000000000000e+02 6.800000000000000000e+02 6.810000000000000000e+02 6.820000000000000000e+02 6.830000000000000000e+02 6.840000000000000000e+02 6.850000000000000000e+02 6.860000000000000000e+02 6.870000000000000000e+02 6.880000000000000000e+02 6.890000000000000000e+02 6.900000000000000000e+02 6.910000000000000000e+02 6.920000000000000000e+02 6.930000000000000000e+02 6.940000000000000000e+02 6.950000000000000000e+02 6.960000000000000000e+02 6.970000000000000000e+02 6.980000000000000000e+02 6.990000000000000000e+02 7.000000000000000000e+02 7.010000000000000000e+02 7.020000000000000000e+02 7.030000000000000000e+02 7.040000000000000000e+02 7.050000000000000000e+02 7.060000000000000000e+02 7.070000000000000000e+02 7.080000000000000000e+02 7.090000000000000000e+02 7.100000000000000000e+02 7.110000000000000000e+02 7.120000000000000000e+02 7.130000000000000000e+02 7.140000000000000000e+02 7.150000000000000000e+02 7.160000000000000000e+02 7.170000000000000000e+02 7.180000000000000000e+02 7.190000000000000000e+02 7.200000000000000000e+02 7.210000000000000000e+02 7.220000000000000000e+02 7.230000000000000000e+02 7.240000000000000000e+02 7.250000000000000000e+02 7.260000000000000000e+02 7.270000000000000000e+02 7.280000000000000000e+02 7.290000000000000000e+02 7.300000000000000000e+02 7.310000000000000000e+02 7.320000000000000000e+02 7.330000000000000000e+02 7.340000000000000000e+02 7.350000000000000000e+02 7.360000000000000000e+02 7.370000000000000000e+02 7.380000000000000000e+02 7.390000000000000000e+02 7.400000000000000000e+02 7.410000000000000000e+02 7.420000000000000000e+02 7.430000000000000000e+02 7.440000000000000000e+02 7.450000000000000000e+02 7.460000000000000000e+02 7.470000000000000000e+02 7.480000000000000000e+02 7.490000000000000000e+02 7.500000000000000000e+02 7.510000000000000000e+02 7.520000000000000000e+02 7.530000000000000000e+02 7.540000000000000000e+02 7.550000000000000000e+02 7.560000000000000000e+02 7.570000000000000000e+02 7.580000000000000000e+02 7.590000000000000000e+02 7.600000000000000000e+02 7.610000000000000000e+02 7.620000000000000000e+02 7.630000000000000000e+02 7.640000000000000000e+02 7.650000000000000000e+02 7.660000000000000000e+02 7.670000000000000000e+02 7.680000000000000000e+02 7.690000000000000000e+02 7.700000000000000000e+02 7.710000000000000000e+02 7.720000000000000000e+02 7.730000000000000000e+02 7.740000000000000000e+02 7.750000000000000000e+02 7.760000000000000000e+02 7.770000000000000000e+02 7.780000000000000000e+02 7.790000000000000000e+02 7.800000000000000000e+02 7.810000000000000000e+02 7.820000000000000000e+02 7.830000000000000000e+02 7.840000000000000000e+02 7.850000000000000000e+02 7.860000000000000000e+02 7.870000000000000000e+02 7.880000000000000000e+02 7.890000000000000000e+02 7.900000000000000000e+02 7.910000000000000000e+02 7.920000000000000000e+02 7.930000000000000000e+02 7.940000000000000000e+02 7.950000000000000000e+02 7.960000000000000000e+02 7.970000000000000000e+02 7.980000000000000000e+02 7.990000000000000000e+02 8.000000000000000000e+02 8.010000000000000000e+02 8.020000000000000000e+02 8.030000000000000000e+02 8.040000000000000000e+02 8.050000000000000000e+02 8.060000000000000000e+02 8.070000000000000000e+02 8.080000000000000000e+02 8.090000000000000000e+02 8.100000000000000000e+02 8.110000000000000000e+02 8.120000000000000000e+02 8.130000000000000000e+02 8.140000000000000000e+02 8.150000000000000000e+02 8.160000000000000000e+02 8.170000000000000000e+02 8.180000000000000000e+02 8.190000000000000000e+02 8.200000000000000000e+02 8.210000000000000000e+02 8.220000000000000000e+02 8.230000000000000000e+02 8.240000000000000000e+02 8.250000000000000000e+02 8.260000000000000000e+02 8.270000000000000000e+02 8.280000000000000000e+02 8.290000000000000000e+02 8.300000000000000000e+02 8.310000000000000000e+02 8.320000000000000000e+02 8.330000000000000000e+02 8.340000000000000000e+02 8.350000000000000000e+02 8.360000000000000000e+02 8.370000000000000000e+02 8.380000000000000000e+02 8.390000000000000000e+02 8.400000000000000000e+02 8.410000000000000000e+02 8.420000000000000000e+02 8.430000000000000000e+02 8.440000000000000000e+02 8.450000000000000000e+02 8.460000000000000000e+02 8.470000000000000000e+02 8.480000000000000000e+02 8.490000000000000000e+02 8.500000000000000000e+02 8.510000000000000000e+02 8.520000000000000000e+02 8.530000000000000000e+02 8.540000000000000000e+02 8.550000000000000000e+02 8.560000000000000000e+02 8.570000000000000000e+02 8.580000000000000000e+02 8.590000000000000000e+02 8.600000000000000000e+02 8.610000000000000000e+02 8.620000000000000000e+02 8.630000000000000000e+02 8.640000000000000000e+02 8.650000000000000000e+02 8.660000000000000000e+02 8.670000000000000000e+02 8.680000000000000000e+02 8.690000000000000000e+02 8.700000000000000000e+02 8.710000000000000000e+02 8.720000000000000000e+02 8.730000000000000000e+02 8.740000000000000000e+02 8.750000000000000000e+02 8.760000000000000000e+02 8.770000000000000000e+02 8.780000000000000000e+02 8.790000000000000000e+02 8.800000000000000000e+02 8.810000000000000000e+02 8.820000000000000000e+02 8.830000000000000000e+02 8.840000000000000000e+02 8.850000000000000000e+02 8.860000000000000000e+02 8.870000000000000000e+02 8.880000000000000000e+02 8.890000000000000000e+02 8.900000000000000000e+02 8.910000000000000000e+02 8.920000000000000000e+02 8.930000000000000000e+02 8.940000000000000000e+02 8.950000000000000000e+02 8.960000000000000000e+02 8.970000000000000000e+02 8.980000000000000000e+02 8.990000000000000000e+02 9.000000000000000000e+02 9.010000000000000000e+02 9.020000000000000000e+02 9.030000000000000000e+02 9.040000000000000000e+02 9.050000000000000000e+02 9.060000000000000000e+02 9.070000000000000000e+02 9.080000000000000000e+02 9.090000000000000000e+02 9.100000000000000000e+02 9.110000000000000000e+02 9.120000000000000000e+02 9.130000000000000000e+02 9.140000000000000000e+02 9.150000000000000000e+02 9.160000000000000000e+02 9.170000000000000000e+02 9.180000000000000000e+02 9.190000000000000000e+02 9.200000000000000000e+02 9.210000000000000000e+02 9.220000000000000000e+02 9.230000000000000000e+02 9.240000000000000000e+02 9.250000000000000000e+02 9.260000000000000000e+02 9.270000000000000000e+02 9.280000000000000000e+02 9.290000000000000000e+02 9.300000000000000000e+02 9.310000000000000000e+02 9.320000000000000000e+02 9.330000000000000000e+02 9.340000000000000000e+02 9.350000000000000000e+02 9.360000000000000000e+02 9.370000000000000000e+02 9.380000000000000000e+02 9.390000000000000000e+02 9.400000000000000000e+02 9.410000000000000000e+02 9.420000000000000000e+02 9.430000000000000000e+02 9.440000000000000000e+02 9.450000000000000000e+02 9.460000000000000000e+02 9.470000000000000000e+02 9.480000000000000000e+02 9.490000000000000000e+02 9.500000000000000000e+02 9.510000000000000000e+02 9.520000000000000000e+02 9.530000000000000000e+02 9.540000000000000000e+02 9.550000000000000000e+02 9.560000000000000000e+02 9.570000000000000000e+02 9.580000000000000000e+02 9.590000000000000000e+02 9.600000000000000000e+02 9.610000000000000000e+02 9.620000000000000000e+02 9.630000000000000000e+02 9.640000000000000000e+02 9.650000000000000000e+02 9.660000000000000000e+02 9.670000000000000000e+02 9.680000000000000000e+02 9.690000000000000000e+02 9.700000000000000000e+02 9.710000000000000000e+02 9.720000000000000000e+02 9.730000000000000000e+02 9.740000000000000000e+02 9.750000000000000000e+02 9.760000000000000000e+02 9.770000000000000000e+02 9.780000000000000000e+02 9.790000000000000000e+02 9.800000000000000000e+02 9.810000000000000000e+02 9.820000000000000000e+02 9.830000000000000000e+02 9.840000000000000000e+02 9.850000000000000000e+02 9.860000000000000000e+02 9.870000000000000000e+02 9.880000000000000000e+02 9.890000000000000000e+02 9.900000000000000000e+02 9.910000000000000000e+02 9.920000000000000000e+02 9.930000000000000000e+02 9.940000000000000000e+02 9.950000000000000000e+02 9.960000000000000000e+02 9.970000000000000000e+02 9.980000000000000000e+02 9.990000000000000000e+02 1.000000000000000000e+03
1.000000000000000021e-02 1.000000000000000021e-02 1.000000000000000021e-02 1.000000000000000021e-02 1.000000000000000021e-02 1.000000000000000021e-02 1.000000000000000021e-02 1.000000000000000021e-02 1.000000000000000021e-02 1.000000000000000021e-02 1.000000000000000021e-02 1.000000000000000021e-02 1.000000000000000021e-02 1.000000000000000021e-02 1.000000000000000021e-02 1.000000000000000021e-02 1.000000000000000021e-02 1.000000000000000021e-02 1.000000000000000021e-02 1.000000000000000021e-02 1.000000000000000021e-02 1.000000000000000021e-02 1.000000000000000021e-02 1.000000000000000021e-02 1.000000000000000021e-02 1.000000000000000021e-02 1.000000000000000021e-02 1.000000000000000021e-02 1.000000000000000021e-02 1.000000000000000021e-02 1.000000000000000021e-02 1.000000000000000021e-02 1.000000000000000021e-02 1.000000000000000021e-02 1.000000000000000021e-02 1.000000000000000021e-02 1.000000000000000021e-02 1.000000000000000021e-02 1.000000000000000021e-02 1.000000000000000021e-02 1.000000000000000021e-02 1.000000000000000021e-02 1.000000000000000021e-02 1.000000000000000021e-02 1.000000000000000021e-02 1.000000000000000021e-02 1.000000000000000021e-02 1.000000000000000021e-02 1.000000000000000021e-02 1.000000000000000021e-02 1.000000000000000021e-02 1.000000000000000021e-02 1.000000000000000021e-02 1.000000000000000021e-02 1.000000000000000021e-02 1.000000000000000021e-02 1.000000000000000021e-02 1.000000000000000021e-02 1.000000000000000021e-02 1.000000000000000021e-02 1.000000000000000021e-02 1.000000000000000021e-02 1.000000000000000021e-02 1.000000000000000021e-02 1.000000000000000021e-02 1.000000000000000021e-02 1.000000000000000021e-02 1.000000000000000021e-02 1.000000000000000021e-02 1.000000000000000021e-02 1.000000000000000021e-02 1.000000000000000021e-02 1.000000000000000021e-02 1.000000000000000021e-02 1.000000000000000021e-02 1.000000000000000021e-02 1.000000000000000021e-02 1.000000000000000021e-02 1.000000000000000021e-02 1.000000000000000021e-02 1.000000000000000021e-02 1.000000000000000021e-02 1.000000000000000021e-02 1.000000000000000021e-02 1.000000000000000021e-02 1.000000000000000021e-02 1.000000000000000021e-02 1.000000000000000021e-02 1.000000000000000021e-02 1.000000000000000021e-02 1.000000000000000021e-02 1.000000000000000021e-02 1.000000000000000021e-02 1.000000000000000021e-02 1.000000000000000021e-02 1.000000000000000021e-02 1.000000000000000021e-02 1.000000000000000021e-02 1.000000000000000021e-02 1.000000000000000021e-02 1.000000000000000021e-02 1.000000000000000021e-02 1.000000000000000021e-02 1.000000000000000021e-02 1.000000000000000021e-02 1.000000000000000021e-02 1.000000000000000021e-02 1.000000000000000021e-02 1.000000000000000021e-02 1.000000000000000021e-02 1.000000000000000021e-02 1.000000000000000021e-02 1.000000000000000021e-02 1.000000000000000021e-02 1.000000000000000021e-02 1.000000000000000021e-02 1.000000000000000021e-02 1.000000000000000021e-02 1.000000000000000021e-02 1.000000000000000021e-02 1.000000000000000021e-02 1.000000000000000021e-02 1.000000000000000021e-02 1.000000000000000021e-02 1.000000000000000021e-02 1.000000000000000021e-02 1.000000000000000021e-02 1.000000000000000021e-02 1.000000000000000021e-02 1.000000000000000021e-02 1.000000000000000021e-02 1.000000000000000021e-02 1.000000000000000021e-02 1.000000000000000021e-02 1.000000000000000021e-02 1.000000000000000021e-02 1.000000000000000021e-02 1.000000000000000021e-02 1.000000000000000021e-02 1.000000000000000021e-02 1.000000000000000021e-02 1.000000000000000021e-02 1.000000000000000021e-02 1.000000000000000021e-02 1.000000000000000021e-02 1.000000000000000021e-02 1.000000000000000021e-02 1.000000000000000021e-02 1.000000000000000021e-02 1.000000000000000021e-02 1.000000000000000021e-02 1.000000000000000021e-02 1.000000000000000021e-02 1.000000000000000021e-02 1.000000000000000021e-02 1.000000000000000021e-02 1.000000000000000021e-02 1.000000000000000021e-02 1.000000000000000021e-02 1.000000000000000021e-02 1.000000000000000021e-02 1.000000000000000021e-02 1.000000000000000021e-02 1.000000000000000021e-02 1.000000000000000021e-02 1.000000000000000021e-02 1.000000000000000021e-02 1.000000000000000021e-02 1.000000000000000021e-02 1.000000000000000021e-02 1.000000000000000021e-02 1.000000000000000021e-02 1.000000000000000021e-02 1.000000000000000021e-02 1.000000000000000021e-02 1.000000000000000021e-02 1.000000000000000021e-02 1.000000000000000021e-02 1.000000000000000021e-02 1.000000000000000021e-02 1.000000000000000021e-02 1.000000000000000021e-02 1.000000000000000021e-02 1.000000000000000021e-02 1.000000000000000021e-02 1.000000000000000021e-02 1.000000000000000021e-02 1.000000000000000021e-02 1.000000000000000021e-02 1.000000000000000021e-02 1.000000000000000021e-02 1.000000000000000021e-02 1.000000000000000021e-02 1.000000000000000021e-02 1.000000000000000021e-02 1.000000000000000021e-02 1.000000000000000021e-02 1.000000000000000021e-02 1.000000000000000021e-02 1.000000000000000021e-02 1.000000000000000021e-02 1.000000000000000021e-02 1.000000000000000021e-02 1.000000000000000021e-02 1.000000000000000021e-02 1.000000000000000021e-02 1.000000000000000021e-02 1.000000000000000021e-02 1.000000000000000021e-02 1.000000000000000021e-02 1.000000000000000021e-02 1.000000000000000021e-02 1.000000000000000021e-02 1.000000000000000021e-02 1.000000000000000021e-02 1.000000000000000021e-02 1.000000000000000021e-02 1.000000000000000021e-02 1.000000000000000021e-02 1.000000000000000021e-02 1.000000000000000021e-02 1.000000000000000021e-02 1.000000000000000021e-02 1.000000000000000021e-02 1.000000000000000021e-02 1.000000000000000021e-02 1.000000000000000021e-02 1.000000000000000021e-02 1.000000000000000021e-02 1.000000000000000021e-02 1.000000000000000021e-02 1.000000000000000021e-02 1.000000000000000021e-02 1.000000000000000021e-02 1.000000000000000021e-02 1.000000000000000021e-02 1.000000000000000021e-02 1.000000000000000021e-02 1.000000000000000021e-02 1.000000000000000021e-02 1.000000000000000021e-02 1.000000000000000021e-02 1.000000000000000021e-02 1.000000000000000021e-02 1.000000000000000021e-02 1.000000000000000021e-02 1.000000000000000021e-02 1.000000000000000021e-02 1.000000000000000021e-02 1.000000000000000021e-02 1.000000000000000021e-02 1.000000000000000021e-02 1.000000000000000021e-02 1.000000000000000021e-02 1.000000000000000021e-02 1.000000000000000021e-02 1.000000000000000021e-02 1.000000000000000021e-02 1.000000000000000021e-02 1.000000000000000021e-02 1.000000000000000021e-02 1.000000000000000021e-02 1.000000000000000021e-02 1.000000000000000021e-02 1.000000000000000021e-02 1.000000000000000021e-02 1.000000000000000021e-02 1.000000000000000021e-02 1.000000000000000021e-02 1.000000000000000021e-02 1.000000000000000021e-02 1.000000000000000021e-02 1.000000000000000021e-02 1.000000000000000021e-02 1.000000000000000021e-02 1.000000000000000021e-02 1.000000000000000021e-02 1.000000000000000021e-02 1.000000000000000021e-02 1.000000000000000021e-02 1.000000000000000021e-02 1.000000000000000021e-02 1.000000000000000021e-02 1.000000000000000021e-02 1.000000000000000021e-02 1.000000000000000021e-02 1.000000000000000021e-02 1.000000000000000021e-02 1.000000000000000021e-02 1.000000000000000021e-02 1.000000000000000021e-02 1.000000000000000021e-02 1.000000000000000021e-02 1.000000000000000021e-02 1.000000000000000021e-02 1.000000000000000021e-02 1.000000000000000021e-02 1.000000000000000021e-02 1.000000000000000021e-02 1.000000000000000021e-02 1.000000000000000021e-02 1.000000000000000021e-02 1.000000000000000021e-02 1.000000000000000021e-02 1.000000000000000021e-02 1.000000000000000021e-02 1.000000000000000021e-02 1.000000000000000021e-02 1.000000000000000021e-02 1.000000000000000021e-02 1.000000000000000021e-02 1.000000000000000021e-02 1.000000000000000021e-02 1.000000000000000021e-02 1.000000000000000021e-02 1.000000000000000021e-02 1.000000000000000021e-02 1.000000000000000021e-02 1.000000000000000021e-02 1.000000000000000021e-02 1.000000000000000021e-02 1.000000000000000021e-02 1.000000000000000021e-02 1.000000000000000021e-02 1.000000000000000021e-02 1.000000000000000021e-02 1.000000000000000021e-02 1.000000000000000021e-02 1.000000000000000021e-02 1.000000000000000021e-02 1.000000000000000021e-02 1.000000000000000021e-02 1.000000000000000021e-02 1.000000000000000021e-02 1.000000000000000021e-02 1.000000000000000021e-02 1.000000000000000021e-02 1.000000000000000021e-02 1.000000000000000021e-02 1.000000000000000021e-02 1.000000000000000021e-02 1.000000000000000021e-02 1.000000000000000021e-02 1.000000000000000021e-02 1.000000000000000021e-02 1.000000000000000021e-02 1.000000000000000021e-02 1.000000000000000021e-02 1.000000000000000021e-02 1.000000000000000021e-02 1.000000000000000021e-02 1.000000000000000021e-02 1.000000000000000021e-02 1.000000000000000021e-02 1.000000000000000021e-02 1.000000000000000021e-02 1.000000000000000021e-02 1.000000000000000021e-02 1.000000000000000021e-02 1.000000000000000021e-02 1.000000000000000021e-02 1.000000000000000021e-02 1.000000000000000021e-02 1.000000000000000021e-02 1.000000000000000021e-02 1.000000000000000021e-02 1.000000000000000021e-02 1.000000000000000021e-02 1.000000000000000021e-02 1.000000000000000021e-02 1.000000000000000021e-02 1.000000000000000021e-02 1.000000000000000021e-02 1.000000000000000021e-02 1.000000000000000021e-02 1.000000000000000021e-02 1.000000000000000021e-02 1.000000000000000021e-02 1.000000000000000021e-02 1.000000000000000021e-02 1.000000000000000021e-02 1.000000000000000021e-02 1.000000000000000021e-02 1.000000000000000021e-02 1.000000000000000021e-02 1.000000000000000021e-02 1.000000000000000021e-02 1.000000000000000021e-02 1.000000000000000021e-02 1.000000000000000021e-02 1.000000000000000021e-02 1.000000000000000021e-02 1.000000000000000021e-02 1.000000000000000021e-02 1.000000000000000021e-02 1.000000000000000021e-02 1.000000000000000021e-02 1.000000000000000021e-02 1.000000000000000021e-02 1.000000000000000021e-02 1.000000000000000021e-02 1.000000000000000021e-02 1.000000000000000021e-02 1.000000000000000021e-02 1.000000000000000021e-02 1.000000000000000021e-02 1.000000000000000021e-02 1.000000000000000021e-02 1.000000000000000021e-02 1.000000000000000021e-02 1.000000000000000021e-02 1.000000000000000021e-02 1.000000000000000021e-02 1.000000000000000021e-02 1.000000000000000021e-02 1.000000000000000021e-02 1.000000000000000021e-02 1.000000000000000021e-02 1.000000000000000021e-02 1.000000000000000021e-02 1.000000000000000021e-02 1.000000000000000021e-02 1.000000000000000021e-02 1.000000000000000021e-02 1.000000000000000021e-02 1.000000000000000021e-02 1.000000000000000021e-02 1.000000000000000021e-02 1.000000000000000021e-02 1.000000000000000021e-02 1.000000000000000021e-02 1.000000000000000021e-02 1.000000000000000021e-02 1.000000000000000021e-02 1.000000000000000021e-02 1.000000000000000021e-02 1.000000000000000021e-02 1.000000000000000021e-02 1.000000000000000021e-02 1.000000000000000021e-02 1.000000000000000021e-02 1.000000000000000021e-02 1.000000000000000021e-02 1.000000000000000021e-02 1.000000000000000021e-02 1.000000000000000021e-02 1.000000000000000021e-02 1.000000000000000021e-02 1.000000000000000021e-02 1.000000000000000021e-02 1.000000000000000021e-02 1.000000000000000021e-02 1.000000000000000021e-02 1.000000000000000021e-02 1.000000000000000021e-02 1.000000000000000021e-02 1.000000000000000021e-02 1.000000000000000021e-02 1.000000000000000021e-02 1.000000000000000021e-02 1.000000000000000021e-02 1.000000000000000021e-02 1.000000000000000021e-02 1.000000000000000021e-02 1.000000000000000021e-02 1.000000000000000021e-02 1.000000000000000021e-02 1.000000000000000021e-02 1.000000000000000021e-02 1.000000000000000021e-02 1.000000000000000021e-02 1.000000000000000021e-02 1.000000000000000021e-02 1.000000000000000021e-02 1.000000000000000021e-02 1.000000000000000021e-02 1.000000000000000021e-02 1.000000000000000021e-02 1.000000000000000021e-02 1.000000000000000021e-02 1.000000000000000021e-02 1.000000000000000021e-02 1.000000000000000021e-02 1.000000000000000021e-02 1.000000000000000021e-02 1.000000000000000021e-02 1.000000000000000021e-02 1.000000000000000021e-02 1.000000000000000021e-02 1.000000000000000021e-02 1.000000000000000021e-02 1.000000000000000021e-02 1.000000000000000021e-02 1.000000000000000021e-02 1.000000000000000021e-02 1.000000000000000021e-02 1.000000000000000021e-02 1.000000000000000021e-02 1.000000000000000021e-02 1.000000000000000021e-02 1.000000000000000021e-02 1.000000000000000021e-02 1.000000000000000021e-02 1.000000000000000021e-02 1.000000000000000021e-02 1.000000000000000021e-02 1.000000000000000021e-02 1.000000000000000021e-02 1.000000000000000021e-02 1.000000000000000021e-02 1.000000000000000021e-02 1.000000000000000021e-02 1.000000000000000021e-02 1.000000000000000021e-02 1.000000000000000021e-02 1.000000000000000021e-02 1.000000000000000021e-02 1.000000000000000021e-02 1.000000000000000021e-02 1.000000000000000021e-02 1.000000000000000021e-02 1.000000000000000021e-02 1.000000000000000021e-02 1.000000000000000021e-02 1.000000000000000021e-02 1.000000000000000021e-02 1.000000000000000021e-02 1.000000000000000021e-02 1.000000000000000021e-02 1.000000000000000021e-02 1.000000000000000021e-02 1.000000000000000021e-02 1.000000000000000021e-02 1.000000000000000021e-02 1.000000000000000021e-02 1.000000000000000021e-02 1.000000000000000021e-02 1.000000000000000021e-02 1.000000000000000021e-02 1.000000000000000021e-02 1.000000000000000021e-02 1.000000000000000021e-02 1.000000000000000021e-02 1.000000000000000021e-02 1.000000000000000021e-02 1.000000000000000021e-02 1.000000000000000021e-02 1.000000000000000021e-02 1.000000000000000021e-02 1.000000000000000021e-02 1.000000000000000021e-02 1.000000000000000021e-02 1.000000000000000021e-02 1.000000000000000021e-02 1.000000000000000021e-02 1.000000000000000021e-02 1.000000000000000021e-02 1.000000000000000021e-02 1.000000000000000021e-02 1.000000000000000021e-02 1.000000000000000021e-02 1.000000000000000021e-02 1.000000000000000021e-02 1.000000000000000021e-02 1.000000000000000021e-02 1.000000000000000021e-02 1.000000000000000021e-02 1.000000000000000021e-02 1.000000000000000021e-02 1.000000000000000021e-02 1.000000000000000021e-02 1.000000000000000021e-02 1.000000000000000021e-02 1.000000000000000021e-02 1.000000000000000021e-02 1.000000000000000021e-02 1.000000000000000021e-02 1.000000000000000021e-02 1.000000000000000021e-02 1.000000000000000021e-02 1.000000000000000021e-02 1.000000000000000021e-02 1.000000000000000021e-02 1.000000000000000021e-02 1.000000000000000021e-02 1.000000000000000021e-02 1.000000000000000021e-02 1.000000000000000021e-02 1.000000000000000021e-02 1.000000000000000021e-02 1.000000000000000021e-02 1.000000000000000021e-02 1.000000000000000021e-02 1.000000000000000021e-02 1.000000000000000021e-02 1.000000000000000021e-02 1.000000000000000021e-02 1.000000000000000021e-02 1.000000000000000021e-02 1.000000000000000021e-02 1.000000000000000021e-02 1.000000000000000021e-02 1.000000000000000021e-02 1.000000000000000021e-02 1.000000000000000021e-02 1.000000000000000021e-02 1.000000000000000021e-02 1.000000000000000021e-02 1.000000000000000021e-02 1.000000000000000021e-02 1.000000000000000021e-02 1.000000000000000021e-02 1.000000000000000021e-02 1.000000000000000021e-02 1.000000000000000021e-02 1.000000000000000021e-02 1.000000000000000021e-02 1.000000000000000021e-02 1.000000000000000021e-02 1.000000000000000021e-02 1.000000000000000021e-02 1.000000000000000021e-02 1.000000000000000021e-02 1.000000000000000021e-02 1.000000000000000021e-02 1.000000000000000021e-02 1.000000000000000021e-02 1.000000000000000021e-02 1.000000000000000021e-02 1.000000000000000021e-02 1.000000000000000021e-02 1.000000000000000021e-02 1.000000000000000021e-02 1.000000000000000021e-02 1.000000000000000021e-02 1.000000000000000021e-02 1.000000000000000021e-02 1.000000000000000021e-02 1.000000000000000021e-02 1.000000000000000021e-02 1.000000000000000021e-02 1.000000000000000021e-02 1.000000000000000021e-02 1.000000000000000021e-02 1.000000000000000021e-02 1.000000000000000021e-02 1.000000000000000021e-02 1.000000000000000021e-02 1.000000000000000021e-02 1.000000000000000021e-02 1.000000000000000021e-02 1.000000000000000021e-02 1.000000000000000021e-02 1.000000000000000021e-02 1.000000000000000021e-02 1.000000000000000021e-02 1.000000000000000021e-02 1.000000000000000021e-02 1.000000000000000021e-02 1.000000000000000021e-02 1.000000000000000021e-02 1.000000000000000021e-02 1.000000000000000021e-02 1.000000000000000021e-02 1.000000000000000021e-02 1.000000000000000021e-02 1.000000000000000021e-02 1.000000000000000021e-02 1.000000000000000021e-02 1.000000000000000021e-02 1.000000000000000021e-02 1.000000000000000021e-02 1.000000000000000021e-02 1.000000000000000021e-02 1.000000000000000021e-02 1.000000000000000021e-02 1.000000000000000021e-02 1.000000000000000021e-02 1.000000000000000021e-02 1.000000000000000021e-02 1.000000000000000021e-02 1.000000000000000021e-02 1.000000000000000021e-02 1.000000000000000021e-02 1.000000000000000021e-02 1.000000000000000021e-02 1.000000000000000021e-02 1.000000000000000021e-02 1.000000000000000021e-02 1.000000000000000021e-02 1.000000000000000021e-02 1.000000000000000021e-02 1.000000000000000021e-02 1.000000000000000021e-02 1.000000000000000021e-02 1.000000000000000021e-02 1.000000000000000021e-02 1.000000000000000021e-02 1.000000000000000021e-02 1.000000000000000021e-02 1.000000000000000021e-02 1.000000000000000021e-02 1.000000000000000021e-02 1.000000000000000021e-02 1.000000000000000021e-02 1.000000000000000021e-02 1.000000000000000021e-02 1.000000000000000021e-02 1.000000000000000021e-02 1.000000000000000021e-02 1.000000000000000021e-02 1.000000000000000021e-02 1.000000000000000021e-02 1.000000000000000021e-02 1.000000000000000021e-02 1.000000000000000021e-02 1.000000000000000021e-02 1.000000000000000021e-02 1.000000000000000021e-02 1.000000000000000021e-02 1.000000000000000021e-02 1.000000000000000021e-02 1.000000000000000021e-02 1.000000000000000021e-02 1.000000000000000021e-02 1.000000000000000021e-02 1.000000000000000021e-02 1.000000000000000021e-02 1.000000000000000021e-02 1.000000000000000021e-02 1.000000000000000021e-02 1.000000000000000021e-02 1.000000000000000021e-02 1.000000000000000021e-02 1.000000000000000021e-02 1.000000000000000021e-02 1.000000000000000021e-02 1.000000000000000021e-02 1.000000000000000021e-02 1.000000000000000021e-02 1.000000000000000021e-02 1.000000000000000021e-02 1.000000000000000021e-02 1.000000000000000021e-02 1.000000000000000021e-02 1.000000000000000021e-02 1.000000000000000021e-02 1.000000000000000021e-02 1.000000000000000021e-02 1.000000000000000021e-02 1.000000000000000021e-02 1.000000000000000021e-02 1.000000000000000021e-02 1.000000000000000021e-02 1.000000000000000021e-02 1.000000000000000021e-02 1.000000000000000021e-02 1.000000000000000021e-02 1.000000000000000021e-02 1.000000000000000021e-02 1.000000000000000021e-02 1.000000000000000021e-02 1.000000000000000021e-02 1.000000000000000021e-02 1.000000000000000021e-02 1.000000000000000021e-02 1.000000000000000021e-02 1.000000000000000021e-02 1.000000000000000021e-02 1.000000000000000021e-02 1.000000000000000021e-02 1.000000000000000021e-02 1.000000000000000021e-02 1.000000000000000021e-02 1.000000000000000021e-02 1.000000000000000021e-02 1.000000000000000021e-02 1.000000000000000021e-02 1.000000000000000021e-02 1.000000000000000021e-02 1.000000000000000021e-02 1.000000000000000021e-02 1.000000000000000021e-02 1.000000000000000021e-02 1.000000000000000021e-02 1.000000000000000021e-02 1.000000000000000021e-02 1.000000000000000021e-02 1.000000000000000021e-02 1.000000000000000021e-02 1.000000000000000021e-02 1.000000000000000021e-02 1.000000000000000021e-02 1.000000000000000021e-02 1.000000000000000021e-02 1.000000000000000021e-02 1.000000000000000021e-02 1.000000000000000021e-02 1.000000000000000021e-02 1.000000000000000021e-02 1.000000000000000021e-02 1.000000000000000021e-02 1.000000000000000021e-02 1.000000000000000021e-02 1.000000000000000021e-02 1.000000000000000021e-02 1.000000000000000021e-02 1.000000000000000021e-02 1.000000000000000021e-02 1.000000000000000021e-02 1.000000000000000021e-02 1.000000000000000021e-02 1.000000000000000021e-02 1.000000000000000021e-02 1.000000000000000021e-02 1.000000000000000021e-02 1.000000000000000021e-02 1.000000000000000021e-02 1.000000000000000021e-02 1.000000000000000021e-02 1.000000000000000021e-02 1.000000000000000021e-02 1.000000000000000021e-02 1.000000000000000021e-02 1.000000000000000021e-02 1.000000000000000021e-02 1.000000000000000021e-02 1.000000000000000021e-02 1.000000000000000021e-02 1.000000000000000021e-02 1.000000000000000021e-02 1.000000000000000021e-02 1.000000000000000021e-02 1.000000000000000021e-02 1.000000000000000021e-02 1.000000000000000021e-02 1.000000000000000021e-02 1.000000000000000021e-02 1.000000000000000021e-02 1.000000000000000021e-02 1.000000000000000021e-02 1.000000000000000021e-02 1.000000000000000021e-02 1.000000000000000021e-02 1.000000000000000021e-02 1.000000000000000021e-02 1.000000000000000021e-02 1.000000000000000021e-02 1.000000000000000021e-02 1.000000000000000021e-02 1.000000000000000021e-02 1.000000000000000021e-02 1.000000000000000021e-02 1.000000000000000021e-02 1.000000000000000021e-02 1.000000000000000021e-02 1.000000000000000021e-02 1.000000000000000021e-02 1.000000000000000021e-02 1.000000000000000021e-02 1.000000000000000021e-02 1.000000000000000021e-02 1.000000000000000021e-02 1.000000000000000021e-02 1.000000000000000021e-02 1.000000000000000021e-02 1.000000000000000021e-02 1.000000000000000021e-02 1.000000000000000021e-02 1.000000000000000021e-02 1.000000000000000021e-02 1.000000000000000021e-02 1.000000000000000021e-02 1.000000000000000021e-02 1.000000000000000021e-02 1.000000000000000021e-02 1.000000000000000021e-02 1.000000000000000021e-02 1.000000000000000021e-02 1.000000000000000021e-02 1.000000000000000021e-02 1.000000000000000021e-02 1.000000000000000021e-02 1.000000000000000021e-02 1.000000000000000021e-02 1.000000000000000021e-02 1.000000000000000021e-02 1.000000000000000021e-02 1.000000000000000021e-02 1.000000000000000021e-02 1.000000000000000021e-02 1.000000000000000021e-02 1.000000000000000021e-02 1.000000000000000021e-02 1.000000000000000021e-02 1.000000000000000021e-02 1.000000000000000021e-02 1.000000000000000021e-02 1.000000000000000021e-02 1.000000000000000021e-02 1.000000000000000021e-02 1.000000000000000021e-02 1.000000000000000021e-02 1.000000000000000021e-02 1.000000000000000021e-02 1.000000000000000021e-02 1.000000000000000021e-02 1.000000000000000021e-02 1.000000000000000021e-02 1.000000000000000021e-02 1.000000000000000021e-02 1.000000000000000021e-02 1.000000000000000021e-02 1.000000000000000021e-02 1.000000000000000021e-02 1.000000000000000021e-02 1.000000000000000021e-02 1.000000000000000021e-02 1.000000000000000021e-02 1.000000000000000021e-02 1.000000000000000021e-02 1.000000000000000021e-02 1.000000000000000021e-02 1.000000000000000021e-02 1.000000000000000021e-02 1.000000000000000021e-02 1.000000000000000021e-02 1.000000000000000021e-02 1.000000000000000021e-02 1.000000000000000021e-02 1.000000000000000021e-02 1.000000000000000021e-02 1.000000000000000021e-02 1.000000000000000021e-02 1.000000000000000021e-02 1.000000000000000021e-02 1.000000000000000021e-02 1.000000000000000021e-02 1.000000000000000021e-02 1.000000000000000021e-02 1.000000000000000021e-02 1.000000000000000021e-02 1.000000000000000021e-02 1.000000000000000021e-02 1.000000000000000021e-02 1.000000000000000021e-02 1.000000000000000021e-02 1.000000000000000021e-02 1.000000000000000021e-02 1.000000000000000021e-02 1.000000000000000021e-02 1.000000000000000021e-02 1.000000000000000021e-02 1.000000000000000021e-02 1.000000000000000021e-02 1.000000000000000021e-02 1.000000000000000021e-02 1.000000000000000021e-02 1.000000000000000021e-02 1.000000000000000021e-02 1.000000000000000021e-02 1.000000000000000021e-02 1.000000000000000021e-02 1.000000000000000021e-02 1.000000000000000021e-02 1.000000000000000021e-02 1.000000000000000021e-02 1.000000000000000021e-02 1.000000000000000021e-02 1.000000000000000021e-02 1.000000000000000021e-02 1.000000000000000021e-02 1.000000000000000021e-02 1.000000000000000021e-02 1.000000000000000021e-02 1.000000000000000021e-02 1.000000000000000021e-02 1.000000000000000021e-02 1.000000000000000021e-02 1.000000000000000021e-02 1.000000000000000021e-02 1.000000000000000021e-02 1.000000000000000021e-02 1.000000000000000021e-02 1.000000000000000021e-02 1.000000000000000021e-02 1.000000000000000021e-02 1.000000000000000021e-02 1.000000000000000021e-02 1.000000000000000021e-02 1.000000000000000021e-02 1.000000000000000021e-02 1.000000000000000021e-02 1.000000000000000021e-02 1.000000000000000021e-02 1.000000000000000021e-02 1.000000000000000021e-02 1.000000000000000021e-02 1.000000000000000021e-02 1.000000000000000021e-02
-1.090480238733138805e+02 1.658352138966173470e+02 3.842691472049867940e+01 -8.632168614920367133e+00 -8.590068150984208728e+01 -1.308830064018787454e+01 -2.032740623084342246e+02 6.861748504538257576e-01 -8.280480102941970699e+01 -1.380287501952633278e+01 -1.940040608818048895e+01 6.394030646766813319e+00 -1.742517181321693531e+00 1.640324977579012113e+02 8.273209153421068152e+01 -3.794024463579643225e+01 -5.164719898139837539e+01 7.744535041700169131e+01 3.209512289377771310e+01 -2.481294917357924490e+01 -7.707506943676214917e+01 -7.214225151131556402e+01 -1.348721615489622749e+01 2.828675231776274046e+01 -1.905573317859234805e+02 -9.651185133325857635e+01 -2.551010822179959447e+01 1.971140250130656284e+02 6.918204297047283546e+01 7.503505928463188468e+01 7.850733899286493056e+01 1.155063878436343616e+00 -7.752788457688602364e+01 2.028551696831486311e+02 -2.394216963180207358e+02 5.755520650662305826e+01 -1.174305147646036858e+02 -3.391605774802149398e+01 3.947270895510897049e+00 1.238916257224412760e+02 -1.201516322579820581e+02 -1.332588448638243861e+01 7.561660275625143868e+01 1.697448095281298208e+02 6.974769681843537228e+01 -6.686291152676952265e+01 4.026940277491990372e+01 -2.776250263057477596e+01 -6.459337846823780183e+01 1.531004790253932697e+02 -6.894523578757915061e+01 -5.093768757014896664e+01 -1.362699469664048308e+02 5.671996877391213054e+00 -4.939941767257717231e+01 3.781651697637950349e+01 -8.676049281604566943e+01 -4.893996177387585789e+01 -9.915856158653789976e+01 -1.520070294275009815e+02 1.899754663948452205e+01 4.438528286739956741e+01 -1.204019723953964416e+02 1.256691069011851702e+01 -7.751351131054420307e+01 4.803581303881132669e+01 1.629756237606540026e+02 -1.410830078469213333e+02 -4.233936345223806796e+01 7.054633402487452187e+00 2.872160050439103607e+00 4.145259185807136504e+01 8.212625075300549327e+01 8.045477404790180032e-01 -8.631385331705168085e+00 -6.846674124831179142e+01 7.652172829249070674e+01 -3.200995846894203822e+01 2.572465972524091882e+01 1.017277516337218373e+02 8.625642144042454618e+01 -4.182397079353437164e+01 5.649493965880535029e+01 1.441774525575657435e+02 1.136525744180432582e+02 -3.914293636812860466e+00 1.703487062425249690e+02 -1.090675311877516407e+02 4.084144624882322105e+00 -4.101422348359884040e+01 2.022614438480927959e+02 -2.075569189619189103e+01 2.831786626385069283e+00 -7.509120721486115713e+01 -6.989677144103208839e+00 -6.241610952206567475e+01 6.628942860243738266e+01 -9.247481479433056961e+01 6.710708205501586576e+01 -4.671309215556726002e+01 -4.865303147650150351e+01 -8.964676833135027323e+01 5.189864312206355379e+01 -5.348443405556220398e+01 -1.460392484633302956e+02 -7.770471527676875212e+01 -1.023014319149533407e+02 -1.537633886427981622e+02 1.329341229859134046e+02 -2.685431850742714133e+01 3.133602798641747356e+01 8.769149122849660216e+01 -1.017542109928855893e+02 5.569710652559112418e+01 -4.236274202614186635e+01 -6.786130021096356302e+01 -8.813945823405273927e+01 1.987447277004833950e+02 -5.548869850484886967e+01 -4.842456005559276377e+01 -4.613862366266020842e+01 7.862533726864424466e+01 -4.050761139398926503e+01 1.349275819843410318e+02 -4.881792296658699115e+01 5.391304238672749705e+01 4.443078049390275730e+00 -7.930927775762742726e+01 6.727404436246108332e+01 2.712963604636255468e+02 -9.003518218536713391e+01 4.643207607673927129e+01 -7.459555384439325110e+01 4.425204215491320525e+01 1.283316162102573230e+02 -5.029600151218282633e+01 1.429397862998382962e+01 -2.635599939390072066e+01 -9.973671347064481552e+01 -1.696655010924834173e+01 4.208518228032506414e+00 -7.641705404876948826e+00 -1.461827319792721269e+01 1.156464950682597959e+02 1.275720216869162300e+02 1.824585855416492848e+02 -2.978203864534243621e+02 3.738389061704876326e+01 -1.543323878968541329e+01 -6.101083640070115877e+01 1.765101071773540582e+02 7.453911918734628728e+01 -2.556142388363069617e+00 -1.134889219408519807e+02 -1.065217724011343314e+01 9.798664543341163835e+01 -1.315459083253566064e+02 -1.650791284146696114e+02 1.051280377478285466e+01 4.153412519214512599e+01 -5.976389862070882941e+01 4.116727143247129561e+01 -1.048602285221845136e+02 -1.481822106533597889e+02 2.065740095821469424e+01 4.758037979177901633e+01 4.722431142006608518e+00 -8.174412278474588334e+01 -9.168422456423475353e+01 -8.258136209255928861e+01 -8.579007161530545034e+01 1.240472279466571592e+01 5.568953734287855895e+01 1.142075429473611337e+02 7.785794943757595377e+01 8.776916579712526811e+01 1.053974382473325306e+02 -7.334137688603350114e+01 -8.092479904011685221e+01 6.918130670663460080e+01 6.724462092431322446e+01 5.812103180261664193e+01 -9.209134868891304393e+00 -8.939913312906283238e+01 5.301108716447150471e+01 -1.758431702533188457e+02 6.598165153944391648e+01 -4.373168890714751456e+01 -9.474243469483650415e+01 7.292760224419076565e+01 -1.686601011159223518e+01 -7.580151840824107978e+01 -5.648158626772651303e+01 -9.017150178695784390e+00 2.387408852143688875e+02 7.567409969371463774e+01 5.397137302871703213e+01 -1.022383850705111996e+02 1.459791943349862038e+02 1.049593980031446439e+00 -8.900269560424570159e+01 1.535049604309853635e+02 -1.518703516520095604e+02 1.554880798807663211e+01 -3.205479389085013509e+01 -2.190181976377571118e+02 -1.328922002301528096e+02 -8.691961245924481716e+01 -2.926642440273742451e+01 -1.187966461688324955e+02 5.744103278939426360e+01 6.477103078662804592e+01 -2.750169474199236674e+01 -9.942430672788219681e+01 1.127018730094229682e+02 1.177694780212494408e+02 4.605391184847084673e+01 1.744089450746538361e+01 2.605795857499212502e+02 4.352131238682427750e+01 -1.191401226617005875e+02 -4.494823844703509508e+01 -1.683606091539010947e+02 3.178637649083332661e+01 1.528870187167334507e+02 -1.479270293383370927e+02 1.314090340116399318e+02 -9.074753378765250034e+01 -1.888538827080821747e+01 -7.959946362786305407e-01 5.276106710367339048e+01 -1.155408230643402057e+01 -2.277192476973156232e+01 -1.879628884194472960e+01 -1.265126014328564708e+02 4.631365410731544330e+01 -3.028616248638888209e+01 -1.291037508670897083e+01 -1.070273112346478683e+01 2.255956982831291384e+02 1.739694092201630724e+02 2.322638667213401504e+02 1.315972662797394435e+02 -8.644393147187102500e+01 7.505072036311719330e+01 2.111131869435925879e+01 4.746829860931200074e+01 -3.962344275931486948e+01 2.550615510072150016e+02 -2.328467366226820445e+01 -1.365590927620256139e+02 -1.492469376464404007e+01 -4.578339129834117216e+01 -7.729021865283527859e+01 4.310452192146551909e+01 -1.169876940901155926e+01 1.817100403284484003e+02 9.224975737278123233e+01 4.083404280303069100e+01 9.789279877165510868e+01 9.450484285542430030e+01 -2.296390947151778761e+01 1.395020764750819353e+02 2.650027844023903612e+01 8.952641635662838837e+01 4.764208139229834416e+01 6.920466193166264546e+00 -1.156629322166428011e+02 -1.157755435844898386e+02 -8.997280986274824954e+01 -1.555428336816352974e+01 8.663605067907768387e+01 -3.061094650063493816e+01 9.881963431131340769e+01 4.379366622734675474e+01 -7.267635777887394966e+01 -2.992824176257050084e+01 -5.854955851908814424e+01 1.755693377607651584e+01 -4.627078468757190421e+01 -1.119725693985065504e+02 1.214358732466838120e+02 1.212693305573559854e+02 -7.892252769081346742e+01 5.404486265956980340e+00 -4.529771018789088544e+01 -3.255073258377173318e+01 -1.133435268106938310e+01 -3.121977192724952133e+01 4.446026497636031394e+01 -1.404741617389634314e+02 -5.281717552251637215e+01 -1.517344339655057865e+02 1.739563151340501577e+02 -2.017140687172494751e+01 5.884725007600304991e+01 1.189643338165855191e+01 1.442018135367926277e+02 4.454966426817647829e+01 3.565199455450759558e+01 1.541278449312636383e+02 -4.917852535431169514e+01 -9.745187358004855582e+01 2.715816365367955143e+01 -1.577026013752330300e+02 -5.329785671308074768e+01 1.021096708200595629e+02 -1.273064851405177649e+02 -3.627559985260115383e+01 9.107098443536348498e+01 -9.421919369999352512e+01 -8.924155227974809179e+01 -8.242324473686291242e+01 -6.362360165882884644e+01 2.484158649624002635e+02 1.976503336449512460e+02 1.026850494740669859e+02 -1.018981682611495359e+02 7.461500740942737764e+01 -6.599246111162347006e+01 -3.128481167712226707e+01 1.656073657787799647e+01 -3.214846349421706861e+01 -9.340405709383544774e+01 -2.781607283811814213e+00 1.470391195801300022e+01 1.083751296951014069e+02 -1.279706095823277252e+02 4.177995811127641446e+01 6.349068660991281376e+01 3.436150850891998942e+01 -9.019638034180516684e+01 -1.478210424011815576e+02 1.922093432231722829e+02 -1.771428174445239279e+01 2.505740589156718201e+01 1.557452436708366292e+02 2.651706943374396985e+01 2.757728040668460068e+01 -4.429206835939054798e+01 8.809236160921878422e+01 -1.355233219591821126e+02 -3.061135613531689614e+01 -6.099846548039574934e+00 -5.306122965584835782e+01 6.243681759855754798e+00 2.112478145887283887e+01 -3.555588656762887467e+01 1.357626460536272361e+01 2.122975142742169510e+02 -2.721593541461312782e+01 -2.780989616230711192e+01 -1.009605495542749054e+02 -1.627242758494215513e+00 -8.017656771283731132e+01 6.334752791860553067e+00 1.112895045111280581e+02 -5.164942494325524081e+01 5.999256952222285832e+00 -5.391467240642249692e+01 3.292510859434051973e+00 8.655692870384687865e+01 -1.149961217680912284e+02 -9.611902261847141915e+01 -1.018181987939995423e+02 7.082349534968315652e+01 8.590941798363142823e+01 -9.154868435825660811e+01 6.216657632171790482e+01 2.563921193392750908e+01 3.839478593448164645e+01 -1.760984620932507738e+01 9.065952731140082221e+01 7.909271127638221799e+01 -7.666243481887751443e+01 1.171476947583187922e+01 8.025297656095183640e+01 7.228065698723311527e+01 -1.975085920270028694e+01 2.477216608252049213e+01 -1.315629804714766635e+02 4.815713787600041229e+01 -3.252327629409069942e+01 -3.242367307463075576e+01 1.718283548112544281e+02 4.704956242417841139e+01 1.192577602202410390e+02 1.894695937486315813e+02 -1.365961572039356042e+02 1.479189449509698306e+02 -6.294120381644191298e+01 -1.340798537493911340e+02 8.166684158170920682e+01 -1.329979614121186842e+02 -2.848679296378676185e+01 5.595673361796426093e+01 7.990191880100547372e+00 -1.668378841917624698e+02 8.359692454404503792e+01 2.503528458417040881e+01 6.854288968644284807e+01 3.601454133746279496e+01 9.392806063083638080e+00 -6.658384372292189823e+01 1.147954275128735162e+02 5.406073328846025561e+01 -6.162558123317192127e+01 -1.004402710559600820e+02 3.860828182730288916e+01 2.551365052353196106e+01 8.174743716453055242e+01 1.823276656606878987e+02 -2.442419943364816959e+01 -1.092818131885504300e+02 -8.401602719102817218e+01 -5.090824623227489809e+01 -4.398309234175683002e+01 -1.455495585873592006e+02 -2.234128452961194355e+01 1.284826749719759391e+02 7.393375683516916297e+01 -1.213865272282432812e+02 -1.487065423668715312e+02 -6.753853608746709369e+01 -7.570903958329448358e+01 1.456235422102379573e+02 -1.690923339153362406e+02 8.586458647895484830e+01 -4.569833446468523519e+00 -4.268760983421396560e+01 1.318334886792005989e+01 9.041041861989219797e+01 4.915993044043140259e+01 1.370828625153507971e+02 -1.578451929220899217e+02 -8.031112750293853253e+01 2.516123334879345919e+01 4.158729045016229264e+01 2.044374659848195961e+02 1.442742209478671498e+02 6.500865343286244524e+01 7.151385384683507596e+01 -3.381268317473755758e+01 1.505588217269880715e+02 -1.778923469876951060e+02 -6.289958248961708165e+01 -5.324030029448508827e+01 -5.136645648487036908e+01 -1.024113718946538683e+02 -1.487053238194709870e+01 -6.806649384701077565e+01 7.057743087003285609e+01 -9.071081134414107794e+00 -5.758527831055167212e+01 -6.172618081501095588e+01 1.786915446203186377e+02 5.854031922413690836e+01 -1.361553683102869172e+01 2.071460720368395414e+02 -1.074446101020907633e+02 -3.503303132542017551e+01 6.640258757867349004e+01 -1.344992222144129890e-01 1.484290225855071021e+01 -1.240573557195508556e+02 1.747028444630778665e+02 -4.854327686818554355e+01 -2.668058473680980569e+01 -1.087521193097754377e+02 1.247501068062287573e+02 9.500977290601400682e+01 -7.682257768263669107e+01 -3.727682038452551438e+01 3.860848077074468421e+01 -1.500115867019600273e+02 -1.808313442776311453e-01 -7.401629629273392652e+01 7.617830224820282936e+00 -1.070932277725223827e+02 -1.570448978999872907e+02 -7.001699907228915265e+01 1.467679979553849705e+02 5.601175741938417474e+01 -8.876570314243376458e+01 8.829307290329830948e+01 3.388009823245275243e+01 8.746324394824088699e+01 -4.169723820335799047e+01 -8.322921364885594642e+01 1.692946677543003204e+02 4.121232120386602560e+01 2.864837363027562489e+01 -7.223054959565904198e+01 -4.186800828155290333e+01 9.424964906493199734e+00 -7.093932173128552954e+00 -1.709836876087311737e+02 -3.424289941968858386e+01 6.370778467806248813e+01 1.103651953630475191e+02 1.540066535250923039e+02 -1.313409495411589489e+01 8.861231079475541605e+01 1.559409841889438724e+02 6.268314830294914941e+01 1.459935673325380492e+02 1.587679891149559808e+01 1.297468778166715992e+02 -8.293236530214973357e+01 5.269169259227589208e+01 2.895065387771447973e+01 7.490330826111946294e+01 -1.048549189775715149e+02 1.954873646037674462e+02 -1.270285084753206348e+02 8.714091383795350509e+01 -1.059407708316634711e+02 4.553020811692987735e+01 1.361504387703301866e+01 8.942463357793346290e+01 -7.261015892828334017e+01 -7.442698281398088511e+01 -1.098177002519360990e+01 8.778520052253675487e+01 -2.915168792704760037e+01 -1.605626887701041738e+01 -1.933413490302269011e+01 4.663330639778667575e+00 9.659820264362370779e+01 -6.155379070594209878e+01 -2.663363345314094577e+00 -1.905368277658640466e+02 1.198224294911672416e+02 -1.225904059948056073e+02 -7.251482909300864321e+01 -2.309553648166904338e+01 -1.059577677942105112e+02 -5.217116540105920564e+01 -5.750235634224191728e+01 -1.932360327677859857e+01 1.337162071178619271e+02 5.305816728351960876e+01 9.855412752940988241e+01 -1.335681665147606623e+02 -1.359960477380493842e+02 -2.813120651291752665e+02 1.002794516888289280e+02 1.023000243700823972e+02 4.152470323983165201e+01 -4.167049947095817686e+01 -3.648958537306484118e+01 -1.802539341029496711e+02 1.433859865476505604e+02 -1.054168589990015192e+02 1.049771215253890801e+02 -1.562455023207937188e+02 -1.405216835841555323e+01 -5.435122968090580287e+01 -1.170530538280774238e+02 -4.525117750229350833e+01 -1.229891026770116014e+01 -9.096312973715886585e+01 -1.015657521104831602e+02 -1.213213736846200952e+01 6.987929461752707994e+01 -1.223261549818131471e+02 -1.536627016816442648e+01 -7.239895031463825603e+01 -1.290051666582412793e+02 6.494544645023827556e+00 9.338309457975390160e+01 1.625238824655909866e+02 -1.871515593439536929e+01 -4.521737560309685477e+01 -1.219321069845123873e+02 -1.606876350296629141e+02 1.019432535159132840e+02 -7.144522106205080547e+01 7.759528173725004763e+01 9.233333508781967680e+00 2.870791086668394243e+01 7.254734894510852428e+01 -8.327349463622543624e+01 8.124006941918763403e+01 1.132784237918288710e+02 1.547588774638353186e+02 -1.145247959055771645e+02 1.021642330991923160e+02 -4.695958870384436068e+01 -8.924120558325718378e+01 2.109139256543964223e+02 4.837903909486639265e+01 8.204096062369076492e+01 2.086844982760833744e+01 -6.217199932801280937e+01 -3.433786353006298242e+01 -2.067893905041205471e+02 1.038330359544602430e+02 8.009772802463113806e+01 -7.440465340711197939e+01 -7.187439655894141310e+01 1.427100968957391842e+02 9.933903088626748001e+01 5.024585726084406900e+01 7.477058353678209812e+01 -7.727494734029543011e+00 1.014297623345870392e+02 -1.018033604896492932e+02 1.831835417977268605e+02 -3.880921825073645692e+01 -1.199216181895359910e+02 -3.705448256931482121e+01 7.051815311786067753e+01 1.448203945047210368e+02 1.265054748311326094e+01 1.708586762914437429e+02 5.130060418242418052e+01 3.305740382157631529e+01 -1.094112552111752734e+02 4.402551193575580157e+01 -1.228703749070472639e+02 4.689783842419769400e+01 3.793672880051292395e+01 -1.212668356200876616e+02 -8.358937112365514110e+01 3.917409082908751827e+01 8.576684394712209780e+00 -2.282016949196599143e+01 4.116389111662053324e+01 -2.103717357701579971e+01 -6.201513164738558714e+01 -2.576540063378946854e+01 -2.204696338773443998e+01 -3.914330055052025159e+01 1.844801000067806385e+01 -7.914914690064171054e+01 1.169165928371175340e+02 -7.302295741674249996e+01 -4.155491053471976670e+00 6.447697110809876619e+01 3.814943126734884782e+00 1.568759059657019250e+01 1.569497515988726377e+01 -1.151205841294874830e+02 -4.334832074858385731e+00 6.393594584264459257e+01 -2.274745155132110881e+02 -8.342805992199016885e+01 -1.107727581292772925e+02 4.304734430423903291e+01 9.456750193908568747e+01 -9.018897592282606013e+01 -1.650053346461347132e+02 -1.819984024315365900e+02 1.961652805928088483e+01 -1.424200522091610992e+02 -6.215598128963105040e+00 1.449941768080421980e+02 -6.956007576755254718e+00 3.645683118213686669e+01 -9.704237918190619894e+01 7.831843193995224794e+01 -1.162142482873223059e+02 -1.511930263740138791e+01 -2.967528433165684021e+01 5.640590545393186517e+01 -8.666035559287129431e+00 1.034496501563614430e+02 -1.194748502085497250e+02 -4.900360037095276056e+01 8.474036971804999041e+01 6.469010734679038421e+01 -8.049024731046507952e+01 -5.318609369116317254e+01 -4.825363503647840702e+01 -2.827351549075064554e+02 1.890357600959505646e+02 7.429514838371824226e+01 -2.301938595737475168e+01 -2.896137675080785456e+01 4.053063745412480046e+01 -8.207289261744494979e+01 9.707273090816522654e+01 5.898210600331277220e+01 7.990354791955272162e+01 -8.198190198220278546e+01 -2.584704779266555263e+01 3.247706388938020439e+01 1.693746348314742534e+01 -4.174304476660572050e+01 1.538860316067644476e+02 -1.683745621130224990e+01 3.448845574517696377e+01 -2.238737112300833871e+02 -8.245373486920701112e+01 -7.122913293279155766e+01 2.242015507015974762e+01 1.063048256340353532e+02 -2.256225343430829469e+02 -1.820996461260072863e+02 2.157773781204693648e+02 -1.028619078313677448e+01 9.350483478297191198e+01 6.100073341016378237e+01 -5.387965456649746443e+01 -1.275235002727521447e+02 -9.263474174932306937e+01 -4.891788713141976075e+01 -3.642435138195128985e+01 -3.812005488070107617e+01 1.571461619381293850e+01 3.620462681680078987e+01 1.624209707858409217e+02 1.199648166681541142e+02 6.790535474255482207e+00 -4.286098416071853379e+00 -1.545406098352343633e+02 1.164731970272329420e+02 1.550720387939946363e+02 -1.007020488631545447e+02 7.176550174330488119e+01 1.671026250025245297e+00 5.346765318986439297e+01 1.220628278588316391e+02 6.905902382227037606e+01 -1.304889988189535472e+02 1.569741905070095100e+01 -2.860942470784694081e+01 1.084976857051338861e+01 -2.250819756865348609e+01 4.414655935921287977e+01 -2.537859260671434072e+02 1.764487106190616714e+02 7.087419723969992091e+00 1.552920104531405627e+02 -1.026034779324138313e+01 1.034462757116158969e+02 6.980606727728066119e+01 -4.091669647386629549e+01 2.918104715365821988e+01 -7.099884820926666862e+01 -8.677970343643205808e+01 -7.027078614583416538e+01 -3.126682082952145336e+01 4.406451477920049342e+01 1.074759929352810275e+02 2.778320111478211274e+01 6.065029532504811982e+01 -1.023105262044197445e+02 -1.338572902596021379e+02 -1.316229225293560923e+01 4.528423745677872603e+01 -4.438486146378859587e+01 9.235149220313392959e+01 5.423553732206480049e+01 -2.699493082485933471e+01 2.924548630813161765e+01 5.995841237900601328e+01 -7.042464016841289265e+01 -1.306239373577465415e+02 1.387872114990477712e+02 7.633639289339503975e+00 4.899566814045716967e+01 -1.459286814098939828e+02 -5.220861829725864567e+01 -4.328755596660466276e-01 -6.432540890889372065e+01 4.169432754344676084e+00 5.506244754312977818e+01 1.823919776634035941e+02 3.828515463039686750e+01 -1.072401755472975715e+01 7.069845483023689781e+01 -4.450736234658351975e+01 -1.066798896433250547e+02 -1.352914763220964005e+02 9.170711008484749627e+00 2.459322023259369061e+01 2.333523441788842945e+01 -5.572337973924833676e+01 1.183755042234180621e+02 -7.920562700433795555e+01 1.257654275718238068e+02 8.556397247011588547e+01 -6.376082401186147308e+01 -8.308859026494229738e+01 8.257614225243821693e+01 2.004262257529586577e+01 -5.150973706796201412e+01 -5.281599280902975835e+01 1.341526876951959366e+02 5.625284772175428571e+01 7.842596396910273882e+01 2.566382672426913203e+01 -4.128453135409200314e+01 1.054717945607119560e+02 -5.358233359911178439e+01 5.497433627920501609e-01 7.518120061308410129e+01 9.783079655964878896e+01 2.510285614245026409e+02 -1.721376843427864287e+02 1.581475004477296409e+02 -6.640306975894249319e+01 -1.497198701757848482e+01 -2.468221584105863187e+01 -2.038475563219180486e+01 -5.421917362385695327e+01 9.146086417274216274e+01 1.810782656115708562e+02 -1.168945012501574610e+02 3.044801277269358764e+01 -1.249497850197295463e+02 6.913132375388205730e+01 -4.381453720548125830e+01 -7.983705497809070550e+01 -5.313400274766861742e+01 4.061631905002773379e+01 1.910724674028835679e+01 -8.066731892946060611e+01 -1.391857299522246763e+02 2.049656794809914473e+01 1.556151860763467596e+02 1.410942179502235483e+01 1.802578512632823617e+02 7.369377628161600136e+00 1.330489443764537043e+02 -3.419357364487931505e+01 8.972271017847410235e+01 -7.065212950393927827e+01 -1.116885755575379591e+02 4.891392105712647265e+01 -5.740681292870146990e+01 -7.773993829013325296e+01 7.215310130030172786e+01 6.402269769809760369e+00 -9.339266401364365322e+01 -1.491951209556288518e+02 1.466051423367279369e+02 -8.840461200305462341e+01 -2.342149566061161536e+00 1.191113059020195948e+02 5.755633812292144569e+01 -9.745278502679055066e+01 1.056343813996013559e+01 2.799815999415528154e+02 5.292782980975412954e+01 -1.566402468170796851e+02 -4.740615216059796921e+01 -6.110657284763566821e+01 9.560530759155870584e+00 1.069084800298358857e+02 -1.028786814042127986e+02 2.145884586883270373e+01 1.297533376127709346e+02 1.867216123883710566e+01 -2.101482671696550710e+02 4.805828268398099823e+01 7.509995104974869662e+01 -1.351987163723174845e+01 3.262789592228068614e+01 1.603682208506453377e-01 2.242857322498111472e+01 2.760053799527543106e+01 1.152745515949850414e+02 9.757055659164187489e+01 1.552704589802567092e+01 1.483147396760333834e+02 -6.371863258348977865e+01 2.454959291895573870e+02 6.473507704744052660e+01 1.410692055415187554e+02 -2.186713882029604150e+01 8.966774849148009707e+01 -4.874950583667389026e+01 -1.457292863220240520e+02 2.605665742656618278e+01 9.460316328071156988e+01 -8.720268307324238322e+01 -1.042915972672386005e+02 -6.625508473773572859e+01 3.645385627427353370e+01 -1.137205645668721132e+02 7.439461633088411929e+01 2.793368285041058741e+01 -9.720436032360943557e+01 1.891334340059687804e+02 -1.171293054314460491e+01 -1.013446781476955607e+02 -1.334738497304764770e+01 -2.035159379877038077e+01 -1.396481251564720480e+02 -3.986112809278522207e+01 6.125877342784191626e+01 1.312524383474990088e+02 2.891757731865368442e+01 2.664205423039663501e+01 4.460696811841069120e+01 -3.558533618762874084e+01 -1.450228805996510459e+02 1.581540729328303918e+01 3.084347115520419891e+01 1.325801125078104405e+02 -9.866662941504184658e+00 -7.582816402739143768e+01 7.291259167370373007e+01 9.791409188411408504e-01 3.172934561636078499e+01 1.386928621188169473e+02 -1.768035275429102171e+02 -9.249451536883935887e+01 1.242471528501542934e+02 -2.088151954393199503e+02 -1.780071793109100042e+02 8.809521887110297200e+01 1.490542347237102092e+02 6.137374708194562345e+01 -4.324092956231981866e+00 1.507449764488076482e+02 -2.124740876627390094e+02 1.037176719604207591e+02 4.101859769087579366e+01 1.229975859878327213e+02 -1.825400444890861991e+02 1.031015401254705353e+02 -2.734032879817034356e+01 -1.294035595360249715e+02 -5.152636871594319601e+00 -8.943030741930772365e+01 -1.573097294625741149e+01 -4.187306311203640163e+00 -1.192406074070889019e+02 -1.193615624751393796e+02 -6.056109693137328520e+01 -1.247757618255770922e+02 1.945357460856187686e+02 -1.559175432977509388e+02 -4.856683846452561681e+01 1.670039567858893292e+02 3.284099460958815087e+01 -2.864938822034669670e+02 -1.230372485523226516e+02 3.436908861032875251e+01 5.290367838599598826e+01 8.286976031119761998e+00 -1.496433703203337018e+02 3.454098545111586560e+01 7.252563575660377460e+00 -7.194390410350717957e+01 1.962224508623590395e+02 1.960779592323056590e+02 4.203132099983756476e+00 -2.018506633596366839e+02 1.219390354430042862e+02 2.976967571372215815e+01 3.670862074662754271e+00 7.414063929447436863e+01 -2.008224160051983915e+02 -1.335936914850948938e+02 1.364979177817268123e+02 1.061303497000660911e+02 5.121370725276029390e+01 1.385975193957528973e+02 -1.725400296747763775e+02 -1.979819494512289424e+01 -1.262237815649811523e+02 4.223822474869714227e+01 -1.005356833438317352e+02 8.426770288052433955e+01 -3.281786815076638675e+01 1.198666299733645957e+01 1.717389012695617794e+02 2.761444063631930845e+01 -2.551056044236653122e+02 -1.223213255927105507e+02 -8.066885822069076539e+01 1.530294341955999471e+02 1.213566390421353169e+01 -5.213427340621421990e+01 2.936743611454913960e+01 6.048858762276092449e+01 -3.828794452822882022e+01 1.040583744133790560e+02 -9.750682701573838074e+01 4.763224794763692671e+01 1.083352810866345948e+02 -3.435559200267697832e+01 -9.497270775969423084e+01 -1.098016544361297804e+02 1.159133987652978561e+02 -4.808001124606977328e+01 1.902363091161828663e+02 5.536726358658565061e+01 1.073833280215012849e+02 1.785495456595347434e+02 8.282666773061102106e+00 -1.203069318984178580e+02 -1.604134171594697307e+02 -1.105047593758792459e+02 4.113223593813884804e+01
-1.285776182934850631e+01 -4.572024367827466129e+00 9.789339953223017687e+01 -2.165271141105312438e+02 1.469311818188693906e+02 6.003051043994359759e+01 1.438332625319721103e+02 -1.221084530315686436e+02 -2.619561401107377119e+00 -2.274958324204388660e+01 -2.074971090982673729e+02 3.092790028202018604e+01 -1.731870853613247974e+01 1.156229844223107222e+02 -1.182577775271118270e+02 5.833958590872169481e+01 1.184341387596412432e+02 -4.344033105021745911e+01 -4.689458297829190059e+01 -2.552369287756143734e+01 5.834829168891759110e+01 5.962834415879466832e+01 3.065712106864832620e+01 -2.197886894157323354e+02 -4.875490723362488410e+01 8.652908920764161849e+01 9.368709103509585745e+00 -9.804909786838249985e+00 -6.288233333755242427e+01 -1.464167382746193269e+01 6.932204271495095327e+01 -1.374394288378499880e+02 -5.855015025719117716e+01 8.484157446912492517e+00 1.961924796292129543e+02 2.004365993132818460e+02 -3.036493635206535302e+01 5.282219210147341215e+01 -2.492108406838504653e-01 -1.319925236576127077e+02 9.071019015614766090e+01 1.013445593607758042e+02 1.025619057835403822e+02 1.103895100520443329e+01 5.848941261435323469e+01 4.547970359245568517e+01 3.674601582998223392e+01 2.774379544173112677e+01 1.042298880774355894e+02 8.478636947399662915e+01 6.198371879627908498e+01 1.540482885130125510e+02 2.341826836086306400e+02 1.848518128287527134e+02 -5.589203601649911946e+01 4.656363804279511243e+01 -6.074292482516631253e+01 5.329890214546481531e+01 -1.816414900026492774e+02 5.339847848294363786e+01 -1.935143979457258183e+02 -1.594589173474317363e+02 1.224001639303811650e+01 -8.751214093598040478e+00 1.602210955554368468e+02 -1.965610108345021843e+02 7.114596089733139195e+01 2.172382891362049691e+02 -6.973193038865997728e+00 -1.841072821201471186e+02 3.359512453283593914e+01 1.863858414298729258e+02 -5.776235506332601233e+01 -2.519565289027849246e+02 -9.695316994846449177e+01 8.405991710285585228e+00 -2.175126496747962506e+02 3.032317890881088474e+01 -1.696662584034453403e+02 -1.754546487310795442e+02 -5.405247203818700541e+01 1.441586867911746026e+02 6.569407949588423890e+01 1.004001963519556639e+01 -8.386592876747782555e+01 -4.029855223861424918e+01 6.029767375702454046e+01 -2.196284351054909507e+02 5.119015459168965521e+01 -7.092747876875714041e+01 -7.394141851617715133e+01 -1.673189462374845959e+02 6.155906263287128155e+01 8.774968148145069335e+01 -1.536356835806742538e+02 1.635588654525486447e+02 -3.775337441983266729e+01 -1.601769055840482636e+01 8.296068384575922039e+01 1.480160163498167094e+02 2.057722113283294618e+01 1.434095829138761644e+02 -1.751685924581894582e+01 -8.589342964445144446e+01 -1.856914772407977310e+01 9.571339818340341310e+01 4.379274254200421268e+01 9.526382400618098245e+01 9.191300483356751272e+01 -8.090960278218219059e+01 -1.654681813024016606e+02 1.198331800027023775e+02 5.282752370090941696e+01 1.579604594293993181e+01 2.977600719301583254e+01 -6.615596712342924945e+01 9.353255972679394858e+01 8.752541964162011823e+01 -1.335987257666373651e+01 -6.940975514752935283e+01 2.992268745377305095e+01 6.120810928498810810e+00 -5.991156148362948386e+01 1.652164903567473289e+02 -3.200666714619694631e+01 1.184923678842535253e+02 -6.830889900441981410e+01 3.741103364888842009e+01 -3.516326757135505687e+01 8.721533878093254089e+01 2.288155276978468322e+01 1.126699621856078437e+02 -1.131077560020612509e+02 7.248402766005470710e+01 1.203855970328908569e+02 -4.358278763745904172e+01 7.445336952146967668e+00 -1.243581596363436148e+01 1.139205726664213500e+02 3.537109432730197067e+00 1.644858697337457443e+02 -1.379516006600788671e+02 1.138076373041364207e+02 -8.907092161641585903e+01 9.347436183427772960e+01 -1.337504219407718722e+02 2.880195100509338957e+01 2.415935427579156070e+01 1.745890876127164315e+00 3.544903142023228781e+01 4.488710213492242929e+01 -1.209893575911698704e+01 1.061691755363214540e+01 1.055480783842912160e+02 1.242587575199915761e+02 -8.467457601987420901e+01 -5.291888387864463539e+01 4.623437662127149395e+01 1.486831802755052667e+00 -1.338132648272464564e+02 -5.385912336170827075e+01 -3.460892988619144717e+01 4.778061850732542126e+01 -6.403727818145546280e+01 2.239574296379995388e+01 1.567626664676170947e+02 -7.767478313204622964e+01 7.902767341252284439e+01 8.220801731090639919e+01 1.101800957771805400e+01 1.207472843777625826e+02 6.152007948540024529e+01 1.644266993853659926e+02 -3.386118980839103898e+01 1.100618870897155830e+02 5.438963389920960623e+01 -1.572991413354541912e+01 1.999093332733319528e+02 -1.359430706260457669e+02 4.789878271096637263e+01 -1.838076932442462805e+02 -8.249551583847824077e+01 4.023018713106942101e+01 -7.080012640836466176e+01 -1.527874552037825424e+02 1.954922328391644442e+02 -8.413875981264658321e+01 -4.659108291705102545e+01 -4.540128302461021548e+01 1.194549296594841081e+02 1.911161316723715231e+02 6.353830621826534042e+01 1.435208389617987166e+02 2.153901015829810035e+02 -1.574548987074994910e+00 1.598677826559792834e+02 6.957502758855433456e+01 1.868800428850217372e+02 -1.234801005647878185e+02 -1.162476794529704804e+01 6.235687277639938131e+00 1.864399988765187857e+02 -8.919046197253656771e+01 -5.939711875518689510e+01 -5.196266419663452041e+01 -1.315434582105003756e+02 4.584316669747192208e+00 -9.907170782867108016e+01 1.513225666963439551e+02 2.311757117225243974e+01 1.177365956901599908e+01 7.097601018402727391e+01 -4.827146267261274382e+00 1.148404143794637804e+02 -1.559524375365808169e+02 4.458790460744668138e+01 -1.676665084545824413e+02 1.152670835998584806e+02 9.431806399975840804e+01 -6.605478798886244363e+01 4.593350820022619274e+01 2.337678815531430416e+02 -2.991097441426715164e+01 4.088739009390524615e+01 -3.207862345710914553e+01 5.687862754117592345e+01 6.308635829393035266e+01 -6.166942931977422049e+00 1.000241464412711423e+02 9.959604379574349764e+01 -1.902894020743219698e+02 -1.504046572546341167e+02 -1.176199449448763374e+02 -9.258388580304915294e+00 -1.469933136871037789e+02 1.134061334780225252e+02 1.082842018551061329e+02 5.790120403020677742e+01 1.095646287727758228e+01 1.547385518165909843e+02 8.239370991633835217e+01 6.624763060153472338e+01 -9.970542853758387025e+01 1.495539274546491129e+02 -3.530855016387861145e+00 1.072996462259025066e+02 8.654937574491723851e+00 3.605112863181162197e+01 -7.425821056633233752e+01 -8.902061206609783994e+01 7.022657063041845049e+01 -3.784627876763588805e+00 1.434119628453558448e+02 -1.231952986493064195e+01 -2.791911194331309520e+00 4.496997762745661475e+01 2.219062632965595938e+01 1.386640209717791379e+02 1.439258418404335949e+01 3.514870927601208450e+01 -1.516373991632427192e+02 6.451987682957697245e+01 1.309814072151933431e+02 -1.725639016074535803e+01 -2.233803361616289749e+02 8.267165071403356080e+01 1.332702463697546591e+02 1.991973793518068092e+01 1.848286635823144763e+02 -4.144222669263047720e+00 4.189700843690737742e+01 -4.260139445370328559e+01 -1.353446172955161160e+02 5.467398493844405039e+01 -4.632644483143350556e+01 -7.902086936338862699e+01 4.020200886452950328e+01 -1.801539328214282989e+02 6.986045541698747741e+01 1.602535082103789250e+02 -9.863093830088746472e+01 1.685403769790721071e+02 -9.508238103181977863e+01 -5.812197754094910351e+00 -1.026281468229532301e+01 7.461277664183506886e+01 -4.537210059282168118e+01 -1.048954145070954809e+02 -8.619021769329152960e+01 1.418229106996584221e+02 5.749150857399015280e+01 -1.281708086258100252e+02 4.300943830118675315e+00 4.220532928695691766e+01 8.024126856607857405e+01 -3.919277729380348063e+01 5.826006890502356583e+01 -6.701148224720061819e+01 -1.576950095484003782e+02 -3.363595218637873785e+01 1.369133127126343936e+02 -1.101306520158901634e+02 -6.209229993254382407e+00 -1.581464296897824227e+02 -4.688531358343706046e+00 -1.416253258285351535e+02 3.196929620851877729e+01 5.843999499218111993e+01 -4.884335747930141736e+01 -7.993736800709228874e+01 5.472185671729526746e+00 7.218515179445945762e+01 -6.574475656007621183e+01 1.306400871869430489e+02 1.023717333584927047e+02 -1.237793804389772276e+02 -1.022565967453669913e+02 1.309555912834977391e+02 6.912702410632611816e+01 1.455766537015342408e+02 9.696089855768224197e+01 7.861839034749434063e+01 -5.838921807963322408e+01 -7.917984905641993976e+01 -7.461867653800236155e+01 1.979948904456253160e+02 2.961048681411249817e+01 -2.411404480502741876e+01 -6.628882684166958938e+01 -4.832810024166338536e+01 -1.269473478003740325e+02 -1.593203205238770082e+01 -1.691343582971971102e+02 1.205168369878702777e+02 4.432558345628927299e+01 -1.110547368791924612e+02 -4.665082043001785195e+01 1.154049767466826069e+02 -9.341936904780048678e+01 9.910865788336293747e+01 -1.141776226937056720e+02 -1.134867065000622510e+01 -9.203690856432561418e+01 8.647748697187100220e+01 -4.092937161438991467e+01 9.903172638783901860e+00 2.827890185794069922e+01 -1.220212431845718726e+02 1.204225925236042904e+01 4.659670342116550046e+01 -2.154110576427567381e+01 -6.622461526842803892e+01 1.951445010875938806e+02 8.328326786845256891e+01 4.537552516556981175e+01 -3.025602684600450232e+01 7.725795570411654012e+01 1.614320790730943429e+02 -8.884053921531015874e+01 2.017491788433817419e+02 -1.281939129044528443e+02 -1.771189208527342771e+02 1.461891531278260459e+02 -2.253226694012909945e+02 -9.206379685804721991e-01 -2.358746907334076468e+02 -1.472347843835593153e+02 6.911591670174317414e+01 -1.402186802504793945e+02 5.621040880342223289e+01 1.058781127054660942e+02 -1.544029268618842821e+02 -2.898581197444453394e+01 7.262412177210771347e+01 1.289562701281500097e+02 -1.792281319773025245e+02 8.425300173307968521e+01 -9.433985315574749109e+01 -9.488969569116713743e+00 -1.334536157661437628e+01 -7.662003381654919565e+01 -8.694748576631685921e+01 1.746550574013434414e+02 -2.090276001327758948e+01 1.298321841669727306e+00 1.254355702745971968e+02 -8.353828368471313581e+01 -3.316610852853084168e+01 -1.037530653265949496e+02 -4.705005207196158779e+01 4.966511095518933772e+00 5.721949915459387626e+01 -1.302792489107064569e+02 2.288709955973838817e+02 -5.202019542750485215e+01 1.184214418632830927e+02 -4.716158603888701606e+01 1.157197002146543525e+02 1.344718389576483446e+02 4.634931221182887384e+01 1.180075261676695391e+02 -4.179195415962592364e+01 1.353399627654478081e+02 -1.513325654563932403e+02 -6.325008940668959667e+01 -6.090906057032766086e+01 2.473379443002130174e+01 -1.569997856962804690e+02 7.017851672322358070e+01 -2.983861008612413457e+01 -7.995540785892194435e+01 8.667590764184382124e+01 -1.462044133046067032e+02 -8.827143114941932822e+01 -5.093979014417792683e+01 3.200248572967055338e+01 1.256041328549082579e+02 1.130524724930027247e+02 6.686026449855417297e+01 -1.516331896182598449e+00 1.692407667356778802e+02 1.185593348142959513e+02 -9.141845664573428110e+01 -7.558694155859002706e+01 5.340368911844554844e+01 9.628787632012796749e+00 9.480219444122717221e+01 1.613281457371353724e+02 6.830651847563875378e+01 2.364433814125564126e+01 -9.889828575335310745e+01 1.661911209343840312e+02 -1.099649178711340340e+02 -1.598780506765901350e+02 6.357935910119026346e+01 1.078477662749073858e+02 1.900409418548769125e+01 -1.342808857242967520e+02 2.873378167762101754e+01 4.100787505696825264e+01 -3.448511438962769127e-01 1.265888041137966411e+02 9.449011304991550730e+01 1.654148486398440454e+01 7.572549015295615504e+01 -1.033733091895496727e+02 -6.145048151665273295e+00 9.503944602319124613e+01 2.869337146000427907e+01 -6.283530835257314351e+01 1.913649133381832428e+02 2.232870639286918504e+02 -1.212145788698971245e+02 -2.668916045289880046e+01 -2.030020114316448598e+02 -6.971364834360660723e+01 1.512045371047318838e+02 3.254960373864008272e+00 -6.854881868023441882e+01 1.581273552255262871e+02 -6.033256642277226689e+01 -1.550617746322185155e+02 1.318326316313013820e+02 -6.485868649415348841e+01 3.331118185297437151e+01 8.332894348105115512e+01 1.331068467859009807e+01 -2.299315311183667632e+02 4.084087223610683282e+01 -5.953307187424901059e+00 8.695933091081042221e+01 -2.274052743517004416e+01 9.756242408952535072e+01 1.639827107966173969e+01 -8.172161970220976457e+01 -1.976567527858063400e+01 -1.690837357244884913e+02 1.109371368466005094e+02 2.439301936393458803e+01 -4.015212600758455608e+01 -4.997712884544765188e+01 -6.069965795192687352e+01 3.967823121110875917e+01 1.550382660851813057e+02 1.280205346616650388e+02 4.152897280020349768e+01 -1.908942198716796668e+02 -3.742808129124325234e+01 4.227814221754741197e+01 1.131872947261373668e+02 8.411729240278144459e+01 1.489381553982845041e+01 -1.794592293851589204e+02 1.270299048461898792e+02 -2.158524913338447959e+02 -1.985500123212260348e+02 -1.765034726275476196e+00 -7.116584148988684433e+01 -2.326853716497784319e+01 8.404509468475865219e+01 5.394543876671612281e+01 -1.072650070341566391e+02 -1.461234162928278693e+02 1.406734391563145259e+01 1.193233879024115538e+02 1.994272357226200043e+01 -5.470775602935310644e+01 -4.982902091069789208e+01 -1.130124403014807655e+01 1.556802336526569377e+02 2.157554904037467836e+01 -1.706046853071530052e+02 1.260451263165786173e+02 -6.563806350721107208e+01 -4.099233290638837346e+00 1.512442699795651038e+02 -5.134833410202052306e+01 -1.924329454235075687e+01 -1.078908792528915370e+02 -5.893844673443460636e+00 -2.342206212510134122e+01 1.293287742458602168e+02 1.179242510377498405e+02 6.637511427322539248e+01 6.427817227943349110e+01 -1.837337753916696670e+01 1.327592143176385946e+02 -1.107557284944913789e+02 -4.179017398118626048e+00 -8.942585738723552424e+01 1.542859871462443948e+02 7.162936264743336778e+01 5.074666952453756608e+01 8.106754205357937337e+00 -5.234873779677049299e+01 3.376565836582447133e+01 6.607319916695384876e+00 3.584421318672223578e+00 2.366913892619933080e+01 5.870194082068593389e+01 1.672000367341953790e+02 -3.816014095770663772e+01 -5.103997956728563423e+01 6.559018050533320832e+01 1.135825240755926018e+02 -1.258417011775515526e+01 9.029468122217087966e+01 1.022125030897119018e+02 2.069853793316916324e+02 -8.497676915218065119e+01 -1.204550459206502353e+02 -2.812667686764238084e+01 6.103716529830983006e+01 -9.964257490451647215e+00 1.054593286853921796e+02 3.656944604699786083e+01 -1.596544598650379214e+02 4.422991528523008498e+01 -8.781661852212627650e+01 -1.328027199856433924e+02 1.320199266899884663e+02 -7.463833196106675416e+01 5.807597921098923877e+01 1.090923839120791570e+02 -9.714015950544943223e+01 2.305698669088595665e+01 -7.077686697442598529e+01 3.951938259228483474e+01 -1.124515499204787972e+02 6.041818573134798953e+01 5.363214555171540354e+01 3.804104767769443729e+00 8.240736144352121073e+01 -1.499150464699458496e+02 7.487777932423692562e+01 -2.873092882591905095e+01 -1.644521628215015880e+02 9.199487268637555815e+01 2.389387149315549053e+01 -1.909090483750148053e+02 2.290254082884831632e+02 -5.232322034674388167e-01 1.023658363555131388e+02 -1.173874948061670835e+02 -1.890316267341911214e+02 -9.083618500760304926e+01 2.430777222209837607e+00 1.390744501412624174e+02 3.866408078672260107e+00 -9.303378989276701816e+01 4.902259981636083097e+01 1.333969086302693086e+02 6.323936369733219465e+01 -5.034899396309931774e+01 -5.757261236374078806e+01 8.225569860727304672e+01 2.990628125898049561e+01 -1.903767034150558572e+02 -2.017925575659004878e+01 1.645280268484191879e+02 9.617185687312863251e+01 -5.581110010054985082e+01 -1.088286482210593960e+02 -4.153692556858840845e+01 -4.680199159664743291e+01 -1.114029399414568644e+02 -1.795507287603060220e+01 -4.444395820074995385e+01 -1.105954743050937026e+02 -1.284083339579177618e+02 -2.623568670599468788e+01 -1.223321456190328291e+02 -1.302677390284357273e+02 -3.731182035551088205e+01 -5.385933639150886876e+01 -1.080712648914417144e+02 1.877241816523441855e+02 1.061226755378859998e+01 -2.836630142859328885e+01 -1.714403360259976949e+01 7.933318630037676655e+01 1.577862809133887545e+01 2.525887525419667767e+01 -2.143051059853108242e+01 -4.666592797993450148e+01 2.108857032435810197e+01 -1.466065702330913041e+02 -1.605302396561897353e+02 -9.115442940710785535e+01 -1.924556307555405965e+02 -9.036752731184724041e+01 8.649616575557271858e+01 6.190605756820820460e+01 -2.627187652554103892e+01 6.127977551132111245e+01 -1.578982255851790910e+02 -4.121279786635535913e+01 -1.171215105567611801e+02 -6.731103718926246415e+01 2.127611731672110693e+02 -2.070177578796047726e+02 2.069945987964951257e+02 2.518193584399884344e+01 -5.692876821796209441e+01 9.299226424586682072e+01 1.251268566104714210e+02 -5.232482789710164894e+01 -2.054768420085979699e+02 -1.503537030756962167e+02 1.031430054773160521e+02 8.446546709860473356e+01 -1.367141853837196663e+02 3.220945523253914189e+01 -4.001817140392358851e+01 -7.805504004371907456e+01 -2.866672569647711555e+01 -5.528013983900287798e+01 -8.715514835644100344e+01 -3.434350282526080633e+01 4.549917480059255226e+00 -3.294885521485920066e+01 -3.796734282853297393e-01 -1.444948527001121796e+01 9.272607171135760495e+01 1.281817424104817178e+02 1.327283985440992531e+01 1.694141078946435996e+01 -6.366876343923440373e+01 -1.977130873498259405e+02 3.413571065703745688e+01 -9.249618691308333496e+01 2.605706383924536240e+01 -8.208797398708298942e+00 1.056808095144611714e+00 7.295662090794834853e+01 1.229208351869633304e+02 -7.107735279666975714e+01 3.832071160739962323e+01 -1.945205402634192353e+02 9.764139029919444823e+00 7.011646323493581079e+00 -1.235979020152713872e+02 -3.400046309010867418e+01 -4.470367465167808518e+01 4.806204877876547599e+00 -1.031110491870686872e+02 2.728111766325530851e+01 -9.847128644834404554e+01 5.654757138955165630e+01 6.843994811605084294e+01 3.720554692619123927e+01 -2.926122426602411863e+01 1.083766442909651175e+02 6.160322059882481227e+01 8.067258598803508107e+01 -6.756289641656945832e+01 2.043475966333074467e+01 1.289364405328347232e+02 -5.896757924850727761e+01 -6.973352336152514930e+00 3.224678236486341376e+01 -1.294554955206957345e+02 9.859338147323234125e+01 9.028708564844930606e+01 -1.019630081364027916e+02 -8.299429027465319564e+01 -5.596432873166959610e+01 -4.596230650188161349e+01 -1.614640459342618612e+02 -1.369389789221463332e+02 -1.334802427379063658e+02 1.064497097648076505e+02 6.023694657195792246e+01 1.606936893787658391e+02 7.255730607733925197e+00 -8.631741118171142091e+01 1.888171159340242866e+01 1.392540898779779290e+01 -6.398473984865684372e+01 7.455414575492049778e+01 1.188517395629912556e+02 1.003632851980674445e+01 1.443135775097713918e+02 2.264254351101898521e+01 1.116607440273782430e+02 1.517378467391099406e+01 -2.090836166589743357e+02 2.197274887001749164e+02 -4.923532398480281813e+01 -1.499851289491750492e+02 -6.758949922850564462e+01 -4.313046707850775618e+01 4.144597115782668340e+01 2.562441082191609354e+01 4.579575066978093645e+01 -7.413301085406325797e+01 1.224153029371484536e+02 -8.626683449852657759e+01 -7.011073492638012716e+00 1.423641395938419976e+02 1.095159620663504398e+02 5.796039261671947429e+01 -1.767847022490273901e+02 2.539019162390007622e+01 1.401212548190598284e+02 2.337601429275007447e+01 9.732610998213168330e+01 1.060960056786311583e+02 -2.107218502052591589e+02 7.663120898664251968e+01 -5.751692655303251911e+01 -2.239280415299243430e+02 8.805617824016050577e+01 2.442650938190565313e+01 -1.207849312641875628e+02 -5.788359295899903856e+01 1.369996603919598215e+02 1.454551186852929732e+02 -7.467822236921371370e+01 -1.256925593256233213e+02 -8.196707843182065290e+01 -1.627741782453761061e+02 1.918905261659340411e+01 3.717241357531334245e+01 -1.662141688785593985e+01 -1.210876346779702573e+01 -8.746468090221468117e+01 -8.622329950308605362e+01 -2.404821499762583770e+01 1.302214342345902480e+02 1.323127291786437354e+02 7.872971798035693780e+01 9.416465659975703772e+01 -7.610034352469622831e+01 -1.748050971378332861e+02 -1.277432808877177806e+01 -2.235787406678040057e+01 -6.861137081355576584e+01 1.438255310174024970e+00 7.055786910259672595e+01 -5.110379984410855769e+01 2.383812646342903818e+01 7.647229591121842418e+01 6.770030095561914152e+01 1.067517104532060017e+02 -1.440527398882871637e+02 3.827709831147685549e+01 8.045468053614754922e+01 9.150723709480830337e+01 5.702901898149368520e+01 -9.969386532971468284e+01 1.322289344418710471e+02 1.231020609744624039e+02 9.255744364837039484e+01 9.805102282371133526e+01 -8.132505389845013610e+01 -1.435362241358594915e+01 -1.249792971764221861e+01 7.440150975064895533e+01 6.274253246127756256e+01 5.407940587947700806e+01 9.422123732878952751e+01 1.125000528934977950e+02 1.196761727558065616e+02 -6.263487911759646920e+01 7.784112973968436222e+01 6.299742508375840799e+01 -1.136255958039644582e+02 1.270939001236408785e+02 -9.685526538878947989e+00 -2.697244273483316235e+01 1.925271813057981376e+02 8.550064289385758798e+01 1.199365568756835643e+02 -1.395110073066235543e+02 -1.525330478613255991e+02 -1.486002252635631748e+02 -1.181222902296855466e+02 -4.282870398483900232e+01 1.061932998882012242e+02 -1.631919991126774789e+02 3.146322521793695870e+01 1.397168850770316908e+02 -5.745959156167766224e+01 -8.844835828761564755e+01 -3.402127266742365919e+01 1.316065118251014496e+02 2.202111891241422086e+02 -6.461782636632345600e+01 1.921051674045105528e+01 -2.683535131928557860e+01 6.640469379471427658e+01 5.841418852801413664e+01 -2.067896333589394544e+02 -8.600177385889409720e+01 1.334682790250163578e+02 1.356272392143844456e+02 9.172725656717102538e+01 -4.835566874898432133e+01 -7.356032794114594253e+01 -4.405457678344232164e+01 -1.713958533441288523e+02 6.906613986770224756e+01 -2.490921034927527344e+01 1.615532284791686948e+02 -2.713090060959809335e+01 -3.055384522957761533e+02 1.407100059931464955e+02 4.880809254075661130e+01 -1.145823449343127152e+02 -2.153757849054098017e+01 3.429949843634124562e+01 -2.017909199519152992e+02 -1.110332993345571566e+02 -1.065334958465805784e+02 -5.481555295692529484e+01 6.102356777263818799e+01 -1.602137494767448516e+02 1.048796402705504391e+02 -5.280029041788936439e+01 2.840358698497380541e+00 -1.296977135694119170e+02 -1.007633796205062140e+02 1.709660422359178256e+02 8.426390229884373184e+01 -4.106584762330397353e+01 3.613011166896582438e+01 -2.727758103611692064e+01 4.209400882363173935e+01 -1.017550923657646393e+02 9.619580822315379010e+01 4.911978997043443229e+01 -1.156627494390977660e+02 1.135797387696075020e+02 -4.778640533340925600e+01 9.720024266571076055e+01 -4.806514264893564814e+01 8.598998887913364797e+01 -1.492700593927271484e+02 1.388868977332460020e+02 2.410054397890719002e+01 9.796859557104497185e+01 1.269460660591615806e+02 -1.427564319008072573e+02 -8.362408698081414116e+01 -1.028389179495005266e+02 6.510374313622772036e+01 -1.668361892595926861e+02 1.475458567650134682e+02 1.386303929848291148e+02 5.158897123343056990e+01 -8.267882554967363262e+01 5.557481868333009345e+01 -1.045328346166772775e+02 -1.064978061734960768e+01 3.406559939941662662e+01 -1.789811762839582059e+02 -7.946370828270467257e+01 -1.318516248419684977e+01 9.956196897329584772e+01 -4.892626398205406701e+01 1.059529877265151043e+02 -6.268332029359753932e+01 -2.054278643159351248e+02 -1.043746405288656547e+02 -3.318089194317835222e+01 -5.866120575806434800e+01 2.933049611904568010e+01 5.012142503476550104e+01 6.180414547064794206e+00 2.473422440531723865e+01 -1.144298387785265163e+02 5.253810516507557082e+01 3.183081991260217336e+01 -7.038932170784397613e+01 9.050168089145378403e+00 5.499176377861839882e+01 -9.308705403610616713e+01 -5.375856744490828021e+01 -2.358206095641281408e+01 9.523229740199454341e+01 -1.672040188840821529e+01 4.094879213277214269e+00 -2.226738012914649971e+02 -9.276800512186537162e+01 9.659546950695484213e+01 -8.707594261722684337e+01 3.059711066357199272e+01 3.032760745847676276e+01 3.702069014096475286e+01 6.452967279816982682e+01 -1.732981094836004274e+02 1.406136734160251649e+02 7.962572309426059292e+01 -7.357435251187519398e+00 -7.892322929992174352e+01 1.092794976643100711e+02 6.065612247256138545e+01 -1.964549096581909566e+02 -4.921014536338567780e+01 -7.981657963921978194e+01 -5.061745277571681356e+01 -6.048598078347998808e+01 -9.673620649020206486e+01 -5.897054531591036408e+01 1.871102507403538198e+02 -1.668278805455741747e+02 6.396643101655899244e+01 2.710818915947442775e+01 -7.346267361635831605e+01 1.015550033298236343e+01 -3.852855111174294933e+01 3.357229766506235169e+00 -9.394771393094579537e+01 -1.930578956628399681e+02 1.797528244938961706e+01 4.094430373723814398e+01 -1.250460997425382814e+01 -8.774266918603712995e+00 -3.887414649797366906e+01 -1.855932575630793337e+02 -2.994124243751705450e+01 -6.387560986648480821e+01 1.362919799780303798e+01 -1.526140473838793632e+01 8.853187088272343885e+01 -6.161224928795300571e+01 -1.013471003679794933e+02 -3.490354480425035888e+01 -8.785598657169744641e+00 4.443386566942090354e+01 -2.162636698549649594e+01 -7.213764089224845577e+01 -1.552299350626838681e+01 1.959923149344728799e+01 4.643688633317697878e+01 -1.114398912038642919e+02 -1.359159359905924020e+02 2.252084464500696015e+02 -2.134228655637437839e+02 -7.424289074573661651e+01 -4.529596751125528442e+01 1.367453194227751681e+02 6.187314567166515644e+01 2.238417304306014444e+02 2.393420472895728324e+02 -6.097606293765889518e+01 1.265900729909576796e+02 -5.477464609149247821e+01 -3.991821843526626878e+01 -9.840484437433916298e+01 -7.807870097415116106e+01 -6.801615316327935545e+01 -8.705485288201457195e+01 -2.384125364635722235e+02 -2.648849642642706499e+02 1.317182802940740771e+02 -2.595491785925749184e+01 5.209761148362428429e+01 1.280244227839125699e+02
