# 
#                 ----------------------------------------------------
#                 Data from a 3D direct N-body simulation. 
# 
#                 rows are i-particle; 
#                 coumns are :mass, tag, x ,y, z, vx, vy, vz, ax, ay, az
# 
#                 NTHU, Computational Physics Lab
# 
#                 ----------------------------------------------------
#                 Time = 7.999999999999874
1.000000000000000000e+00 2.000000000000000000e+00 3.000000000000000000e+00 4.000000000000000000e+00 5.000000000000000000e+00 6.000000000000000000e+00 7.000000000000000000e+00 8.000000000000000000e+00 9.000000000000000000e+00 1.000000000000000000e+01 1.100000000000000000e+01 1.200000000000000000e+01 1.300000000000000000e+01 1.400000000000000000e+01 1.500000000000000000e+01 1.600000000000000000e+01 1.700000000000000000e+01 1.800000000000000000e+01 1.900000000000000000e+01 2.000000000000000000e+01 2.100000000000000000e+01 2.200000000000000000e+01 2.300000000000000000e+01 2.400000000000000000e+01 2.500000000000000000e+01 2.600000000000000000e+01 2.700000000000000000e+01 2.800000000000000000e+01 2.900000000000000000e+01 3.000000000000000000e+01 3.100000000000000000e+01 3.200000000000000000e+01 3.300000000000000000e+01 3.400000000000000000e+01 3.500000000000000000e+01 3.600000000000000000e+01 3.700000000000000000e+01 3.800000000000000000e+01 3.900000000000000000e+01 4.000000000000000000e+01 4.100000000000000000e+01 4.200000000000000000e+01 4.300000000000000000e+01 4.400000000000000000e+01 4.500000000000000000e+01 4.600000000000000000e+01 4.700000000000000000e+01 4.800000000000000000e+01 4.900000000000000000e+01 5.000000000000000000e+01 5.100000000000000000e+01 5.200000000000000000e+01 5.300000000000000000e+01 5.400000000000000000e+01 5.500000000000000000e+01 5.600000000000000000e+01 5.700000000000000000e+01 5.800000000000000000e+01 5.900000000000000000e+01 6.000000000000000000e+01 6.100000000000000000e+01 6.200000000000000000e+01 6.300000000000000000e+01 6.400000000000000000e+01 6.500000000000000000e+01 6.600000000000000000e+01 6.700000000000000000e+01 6.800000000000000000e+01 6.900000000000000000e+01 7.000000000000000000e+01 7.100000000000000000e+01 7.200000000000000000e+01 7.300000000000000000e+01 7.400000000000000000e+01 7.500000000000000000e+01 7.600000000000000000e+01 7.700000000000000000e+01 7.800000000000000000e+01 7.900000000000000000e+01 8.000000000000000000e+01 8.100000000000000000e+01 8.200000000000000000e+01 8.300000000000000000e+01 8.400000000000000000e+01 8.500000000000000000e+01 8.600000000000000000e+01 8.700000000000000000e+01 8.800000000000000000e+01 8.900000000000000000e+01 9.000000000000000000e+01 9.100000000000000000e+01 9.200000000000000000e+01 9.300000000000000000e+01 9.400000000000000000e+01 9.500000000000000000e+01 9.600000000000000000e+01 9.700000000000000000e+01 9.800000000000000000e+01 9.900000000000000000e+01 1.000000000000000000e+02 1.010000000000000000e+02 1.020000000000000000e+02 1.030000000000000000e+02 1.040000000000000000e+02 1.050000000000000000e+02 1.060000000000000000e+02 1.070000000000000000e+02 1.080000000000000000e+02 1.090000000000000000e+02 1.100000000000000000e+02 1.110000000000000000e+02 1.120000000000000000e+02 1.130000000000000000e+02 1.140000000000000000e+02 1.150000000000000000e+02 1.160000000000000000e+02 1.170000000000000000e+02 1.180000000000000000e+02 1.190000000000000000e+02 1.200000000000000000e+02 1.210000000000000000e+02 1.220000000000000000e+02 1.230000000000000000e+02 1.240000000000000000e+02 1.250000000000000000e+02 1.260000000000000000e+02 1.270000000000000000e+02 1.280000000000000000e+02 1.290000000000000000e+02 1.300000000000000000e+02 1.310000000000000000e+02 1.320000000000000000e+02 1.330000000000000000e+02 1.340000000000000000e+02 1.350000000000000000e+02 1.360000000000000000e+02 1.370000000000000000e+02 1.380000000000000000e+02 1.390000000000000000e+02 1.400000000000000000e+02 1.410000000000000000e+02 1.420000000000000000e+02 1.430000000000000000e+02 1.440000000000000000e+02 1.450000000000000000e+02 1.460000000000000000e+02 1.470000000000000000e+02 1.480000000000000000e+02 1.490000000000000000e+02 1.500000000000000000e+02 1.510000000000000000e+02 1.520000000000000000e+02 1.530000000000000000e+02 1.540000000000000000e+02 1.550000000000000000e+02 1.560000000000000000e+02 1.570000000000000000e+02 1.580000000000000000e+02 1.590000000000000000e+02 1.600000000000000000e+02 1.610000000000000000e+02 1.620000000000000000e+02 1.630000000000000000e+02 1.640000000000000000e+02 1.650000000000000000e+02 1.660000000000000000e+02 1.670000000000000000e+02 1.680000000000000000e+02 1.690000000000000000e+02 1.700000000000000000e+02 1.710000000000000000e+02 1.720000000000000000e+02 1.730000000000000000e+02 1.740000000000000000e+02 1.750000000000000000e+02 1.760000000000000000e+02 1.770000000000000000e+02 1.780000000000000000e+02 1.790000000000000000e+02 1.800000000000000000e+02 1.810000000000000000e+02 1.820000000000000000e+02 1.830000000000000000e+02 1.840000000000000000e+02 1.850000000000000000e+02 1.860000000000000000e+02 1.870000000000000000e+02 1.880000000000000000e+02 1.890000000000000000e+02 1.900000000000000000e+02 1.910000000000000000e+02 1.920000000000000000e+02 1.930000000000000000e+02 1.940000000000000000e+02 1.950000000000000000e+02 1.960000000000000000e+02 1.970000000000000000e+02 1.980000000000000000e+02 1.990000000000000000e+02 2.000000000000000000e+02 2.010000000000000000e+02 2.020000000000000000e+02 2.030000000000000000e+02 2.040000000000000000e+02 2.050000000000000000e+02 2.060000000000000000e+02 2.070000000000000000e+02 2.080000000000000000e+02 2.090000000000000000e+02 2.100000000000000000e+02 2.110000000000000000e+02 2.120000000000000000e+02 2.130000000000000000e+02 2.140000000000000000e+02 2.150000000000000000e+02 2.160000000000000000e+02 2.170000000000000000e+02 2.180000000000000000e+02 2.190000000000000000e+02 2.200000000000000000e+02 2.210000000000000000e+02 2.220000000000000000e+02 2.230000000000000000e+02 2.240000000000000000e+02 2.250000000000000000e+02 2.260000000000000000e+02 2.270000000000000000e+02 2.280000000000000000e+02 2.290000000000000000e+02 2.300000000000000000e+02 2.310000000000000000e+02 2.320000000000000000e+02 2.330000000000000000e+02 2.340000000000000000e+02 2.350000000000000000e+02 2.360000000000000000e+02 2.370000000000000000e+02 2.380000000000000000e+02 2.390000000000000000e+02 2.400000000000000000e+02 2.410000000000000000e+02 2.420000000000000000e+02 2.430000000000000000e+02 2.440000000000000000e+02 2.450000000000000000e+02 2.460000000000000000e+02 2.470000000000000000e+02 2.480000000000000000e+02 2.490000000000000000e+02 2.500000000000000000e+02 2.510000000000000000e+02 2.520000000000000000e+02 2.530000000000000000e+02 2.540000000000000000e+02 2.550000000000000000e+02 2.560000000000000000e+02 2.570000000000000000e+02 2.580000000000000000e+02 2.590000000000000000e+02 2.600000000000000000e+02 2.610000000000000000e+02 2.620000000000000000e+02 2.630000000000000000e+02 2.640000000000000000e+02 2.650000000000000000e+02 2.660000000000000000e+02 2.670000000000000000e+02 2.680000000000000000e+02 2.690000000000000000e+02 2.700000000000000000e+02 2.710000000000000000e+02 2.720000000000000000e+02 2.730000000000000000e+02 2.740000000000000000e+02 2.750000000000000000e+02 2.760000000000000000e+02 2.770000000000000000e+02 2.780000000000000000e+02 2.790000000000000000e+02 2.800000000000000000e+02 2.810000000000000000e+02 2.820000000000000000e+02 2.830000000000000000e+02 2.840000000000000000e+02 2.850000000000000000e+02 2.860000000000000000e+02 2.870000000000000000e+02 2.880000000000000000e+02 2.890000000000000000e+02 2.900000000000000000e+02 2.910000000000000000e+02 2.920000000000000000e+02 2.930000000000000000e+02 2.940000000000000000e+02 2.950000000000000000e+02 2.960000000000000000e+02 2.970000000000000000e+02 2.980000000000000000e+02 2.990000000000000000e+02 3.000000000000000000e+02 3.010000000000000000e+02 3.020000000000000000e+02 3.030000000000000000e+02 3.040000000000000000e+02 3.050000000000000000e+02 3.060000000000000000e+02 3.070000000000000000e+02 3.080000000000000000e+02 3.090000000000000000e+02 3.100000000000000000e+02 3.110000000000000000e+02 3.120000000000000000e+02 3.130000000000000000e+02 3.140000000000000000e+02 3.150000000000000000e+02 3.160000000000000000e+02 3.170000000000000000e+02 3.180000000000000000e+02 3.190000000000000000e+02 3.200000000000000000e+02 3.210000000000000000e+02 3.220000000000000000e+02 3.230000000000000000e+02 3.240000000000000000e+02 3.250000000000000000e+02 3.260000000000000000e+02 3.270000000000000000e+02 3.280000000000000000e+02 3.290000000000000000e+02 3.300000000000000000e+02 3.310000000000000000e+02 3.320000000000000000e+02 3.330000000000000000e+02 3.340000000000000000e+02 3.350000000000000000e+02 3.360000000000000000e+02 3.370000000000000000e+02 3.380000000000000000e+02 3.390000000000000000e+02 3.400000000000000000e+02 3.410000000000000000e+02 3.420000000000000000e+02 3.430000000000000000e+02 3.440000000000000000e+02 3.450000000000000000e+02 3.460000000000000000e+02 3.470000000000000000e+02 3.480000000000000000e+02 3.490000000000000000e+02 3.500000000000000000e+02 3.510000000000000000e+02 3.520000000000000000e+02 3.530000000000000000e+02 3.540000000000000000e+02 3.550000000000000000e+02 3.560000000000000000e+02 3.570000000000000000e+02 3.580000000000000000e+02 3.590000000000000000e+02 3.600000000000000000e+02 3.610000000000000000e+02 3.620000000000000000e+02 3.630000000000000000e+02 3.640000000000000000e+02 3.650000000000000000e+02 3.660000000000000000e+02 3.670000000000000000e+02 3.680000000000000000e+02 3.690000000000000000e+02 3.700000000000000000e+02 3.710000000000000000e+02 3.720000000000000000e+02 3.730000000000000000e+02 3.740000000000000000e+02 3.750000000000000000e+02 3.760000000000000000e+02 3.770000000000000000e+02 3.780000000000000000e+02 3.790000000000000000e+02 3.800000000000000000e+02 3.810000000000000000e+02 3.820000000000000000e+02 3.830000000000000000e+02 3.840000000000000000e+02 3.850000000000000000e+02 3.860000000000000000e+02 3.870000000000000000e+02 3.880000000000000000e+02 3.890000000000000000e+02 3.900000000000000000e+02 3.910000000000000000e+02 3.920000000000000000e+02 3.930000000000000000e+02 3.940000000000000000e+02 3.950000000000000000e+02 3.960000000000000000e+02 3.970000000000000000e+02 3.980000000000000000e+02 3.990000000000000000e+02 4.000000000000000000e+02 4.010000000000000000e+02 4.020000000000000000e+02 4.030000000000000000e+02 4.040000000000000000e+02 4.050000000000000000e+02 4.060000000000000000e+02 4.070000000000000000e+02 4.080000000000000000e+02 4.090000000000000000e+02 4.100000000000000000e+02 4.110000000000000000e+02 4.120000000000000000e+02 4.130000000000000000e+02 4.140000000000000000e+02 4.150000000000000000e+02 4.160000000000000000e+02 4.170000000000000000e+02 4.180000000000000000e+02 4.190000000000000000e+02 4.200000000000000000e+02 4.210000000000000000e+02 4.220000000000000000e+02 4.230000000000000000e+02 4.240000000000000000e+02 4.250000000000000000e+02 4.260000000000000000e+02 4.270000000000000000e+02 4.280000000000000000e+02 4.290000000000000000e+02 4.300000000000000000e+02 4.310000000000000000e+02 4.320000000000000000e+02 4.330000000000000000e+02 4.340000000000000000e+02 4.350000000000000000e+02 4.360000000000000000e+02 4.370000000000000000e+02 4.380000000000000000e+02 4.390000000000000000e+02 4.400000000000000000e+02 4.410000000000000000e+02 4.420000000000000000e+02 4.430000000000000000e+02 4.440000000000000000e+02 4.450000000000000000e+02 4.460000000000000000e+02 4.470000000000000000e+02 4.480000000000000000e+02 4.490000000000000000e+02 4.500000000000000000e+02 4.510000000000000000e+02 4.520000000000000000e+02 4.530000000000000000e+02 4.540000000000000000e+02 4.550000000000000000e+02 4.560000000000000000e+02 4.570000000000000000e+02 4.580000000000000000e+02 4.590000000000000000e+02 4.600000000000000000e+02 4.610000000000000000e+02 4.620000000000000000e+02 4.630000000000000000e+02 4.640000000000000000e+02 4.650000000000000000e+02 4.660000000000000000e+02 4.670000000000000000e+02 4.680000000000000000e+02 4.690000000000000000e+02 4.700000000000000000e+02 4.710000000000000000e+02 4.720000000000000000e+02 4.730000000000000000e+02 4.740000000000000000e+02 4.750000000000000000e+02 4.760000000000000000e+02 4.770000000000000000e+02 4.780000000000000000e+02 4.790000000000000000e+02 4.800000000000000000e+02 4.810000000000000000e+02 4.820000000000000000e+02 4.830000000000000000e+02 4.840000000000000000e+02 4.850000000000000000e+02 4.860000000000000000e+02 4.870000000000000000e+02 4.880000000000000000e+02 4.890000000000000000e+02 4.900000000000000000e+02 4.910000000000000000e+02 4.920000000000000000e+02 4.930000000000000000e+02 4.940000000000000000e+02 4.950000000000000000e+02 4.960000000000000000e+02 4.970000000000000000e+02 4.980000000000000000e+02 4.990000000000000000e+02 5.000000000000000000e+02 5.010000000000000000e+02 5.020000000000000000e+02 5.030000000000000000e+02 5.040000000000000000e+02 5.050000000000000000e+02 5.060000000000000000e+02 5.070000000000000000e+02 5.080000000000000000e+02 5.090000000000000000e+02 5.100000000000000000e+02 5.110000000000000000e+02 5.120000000000000000e+02 5.130000000000000000e+02 5.140000000000000000e+02 5.150000000000000000e+02 5.160000000000000000e+02 5.170000000000000000e+02 5.180000000000000000e+02 5.190000000000000000e+02 5.200000000000000000e+02 5.210000000000000000e+02 5.220000000000000000e+02 5.230000000000000000e+02 5.240000000000000000e+02 5.250000000000000000e+02 5.260000000000000000e+02 5.270000000000000000e+02 5.280000000000000000e+02 5.290000000000000000e+02 5.300000000000000000e+02 5.310000000000000000e+02 5.320000000000000000e+02 5.330000000000000000e+02 5.340000000000000000e+02 5.350000000000000000e+02 5.360000000000000000e+02 5.370000000000000000e+02 5.380000000000000000e+02 5.390000000000000000e+02 5.400000000000000000e+02 5.410000000000000000e+02 5.420000000000000000e+02 5.430000000000000000e+02 5.440000000000000000e+02 5.450000000000000000e+02 5.460000000000000000e+02 5.470000000000000000e+02 5.480000000000000000e+02 5.490000000000000000e+02 5.500000000000000000e+02 5.510000000000000000e+02 5.520000000000000000e+02 5.530000000000000000e+02 5.540000000000000000e+02 5.550000000000000000e+02 5.560000000000000000e+02 5.570000000000000000e+02 5.580000000000000000e+02 5.590000000000000000e+02 5.600000000000000000e+02 5.610000000000000000e+02 5.620000000000000000e+02 5.630000000000000000e+02 5.640000000000000000e+02 5.650000000000000000e+02 5.660000000000000000e+02 5.670000000000000000e+02 5.680000000000000000e+02 5.690000000000000000e+02 5.700000000000000000e+02 5.710000000000000000e+02 5.720000000000000000e+02 5.730000000000000000e+02 5.740000000000000000e+02 5.750000000000000000e+02 5.760000000000000000e+02 5.770000000000000000e+02 5.780000000000000000e+02 5.790000000000000000e+02 5.800000000000000000e+02 5.810000000000000000e+02 5.820000000000000000e+02 5.830000000000000000e+02 5.840000000000000000e+02 5.850000000000000000e+02 5.860000000000000000e+02 5.870000000000000000e+02 5.880000000000000000e+02 5.890000000000000000e+02 5.900000000000000000e+02 5.910000000000000000e+02 5.920000000000000000e+02 5.930000000000000000e+02 5.940000000000000000e+02 5.950000000000000000e+02 5.960000000000000000e+02 5.970000000000000000e+02 5.980000000000000000e+02 5.990000000000000000e+02 6.000000000000000000e+02 6.010000000000000000e+02 6.020000000000000000e+02 6.030000000000000000e+02 6.040000000000000000e+02 6.050000000000000000e+02 6.060000000000000000e+02 6.070000000000000000e+02 6.080000000000000000e+02 6.090000000000000000e+02 6.100000000000000000e+02 6.110000000000000000e+02 6.120000000000000000e+02 6.130000000000000000e+02 6.140000000000000000e+02 6.150000000000000000e+02 6.160000000000000000e+02 6.170000000000000000e+02 6.180000000000000000e+02 6.190000000000000000e+02 6.200000000000000000e+02 6.210000000000000000e+02 6.220000000000000000e+02 6.230000000000000000e+02 6.240000000000000000e+02 6.250000000000000000e+02 6.260000000000000000e+02 6.270000000000000000e+02 6.280000000000000000e+02 6.290000000000000000e+02 6.300000000000000000e+02 6.310000000000000000e+02 6.320000000000000000e+02 6.330000000000000000e+02 6.340000000000000000e+02 6.350000000000000000e+02 6.360000000000000000e+02 6.370000000000000000e+02 6.380000000000000000e+02 6.390000000000000000e+02 6.400000000000000000e+02 6.410000000000000000e+02 6.420000000000000000e+02 6.430000000000000000e+02 6.440000000000000000e+02 6.450000000000000000e+02 6.460000000000000000e+02 6.470000000000000000e+02 6.480000000000000000e+02 6.490000000000000000e+02 6.500000000000000000e+02 6.510000000000000000e+02 6.520000000000000000e+02 6.530000000000000000e+02 6.540000000000000000e+02 6.550000000000000000e+02 6.560000000000000000e+02 6.570000000000000000e+02 6.580000000000000000e+02 6.590000000000000000e+02 6.600000000000000000e+02 6.610000000000000000e+02 6.620000000000000000e+02 6.630000000000000000e+02 6.640000000000000000e+02 6.650000000000000000e+02 6.660000000000000000e+02 6.670000000000000000e+02 6.680000000000000000e+02 6.690000000000000000e+02 6.700000000000000000e+02 6.710000000000000000e+02 6.720000000000000000e+02 6.730000000000000000e+02 6.740000000000000000e+02 6.750000000000000000e+02 6.760000000000000000e+02 6.770000000000000000e+02 6.780000000000000000e+02 6.790000000000000000e+02 6.800000000000000000e+02 6.810000000000000000e+02 6.820000000000000000e+02 6.830000000000000000e+02 6.840000000000000000e+02 6.850000000000000000e+02 6.860000000000000000e+02 6.870000000000000000e+02 6.880000000000000000e+02 6.890000000000000000e+02 6.900000000000000000e+02 6.910000000000000000e+02 6.920000000000000000e+02 6.930000000000000000e+02 6.940000000000000000e+02 6.950000000000000000e+02 6.960000000000000000e+02 6.970000000000000000e+02 6.980000000000000000e+02 6.990000000000000000e+02 7.000000000000000000e+02 7.010000000000000000e+02 7.020000000000000000e+02 7.030000000000000000e+02 7.040000000000000000e+02 7.050000000000000000e+02 7.060000000000000000e+02 7.070000000000000000e+02 7.080000000000000000e+02 7.090000000000000000e+02 7.100000000000000000e+02 7.110000000000000000e+02 7.120000000000000000e+02 7.130000000000000000e+02 7.140000000000000000e+02 7.150000000000000000e+02 7.160000000000000000e+02 7.170000000000000000e+02 7.180000000000000000e+02 7.190000000000000000e+02 7.200000000000000000e+02 7.210000000000000000e+02 7.220000000000000000e+02 7.230000000000000000e+02 7.240000000000000000e+02 7.250000000000000000e+02 7.260000000000000000e+02 7.270000000000000000e+02 7.280000000000000000e+02 7.290000000000000000e+02 7.300000000000000000e+02 7.310000000000000000e+02 7.320000000000000000e+02 7.330000000000000000e+02 7.340000000000000000e+02 7.350000000000000000e+02 7.360000000000000000e+02 7.370000000000000000e+02 7.380000000000000000e+02 7.390000000000000000e+02 7.400000000000000000e+02 7.410000000000000000e+02 7.420000000000000000e+02 7.430000000000000000e+02 7.440000000000000000e+02 7.450000000000000000e+02 7.460000000000000000e+02 7.470000000000000000e+02 7.480000000000000000e+02 7.490000000000000000e+02 7.500000000000000000e+02 7.510000000000000000e+02 7.520000000000000000e+02 7.530000000000000000e+02 7.540000000000000000e+02 7.550000000000000000e+02 7.560000000000000000e+02 7.570000000000000000e+02 7.580000000000000000e+02 7.590000000000000000e+02 7.600000000000000000e+02 7.610000000000000000e+02 7.620000000000000000e+02 7.630000000000000000e+02 7.640000000000000000e+02 7.650000000000000000e+02 7.660000000000000000e+02 7.670000000000000000e+02 7.680000000000000000e+02 7.690000000000000000e+02 7.700000000000000000e+02 7.710000000000000000e+02 7.720000000000000000e+02 7.730000000000000000e+02 7.740000000000000000e+02 7.750000000000000000e+02 7.760000000000000000e+02 7.770000000000000000e+02 7.780000000000000000e+02 7.790000000000000000e+02 7.800000000000000000e+02 7.810000000000000000e+02 7.820000000000000000e+02 7.830000000000000000e+02 7.840000000000000000e+02 7.850000000000000000e+02 7.860000000000000000e+02 7.870000000000000000e+02 7.880000000000000000e+02 7.890000000000000000e+02 7.900000000000000000e+02 7.910000000000000000e+02 7.920000000000000000e+02 7.930000000000000000e+02 7.940000000000000000e+02 7.950000000000000000e+02 7.960000000000000000e+02 7.970000000000000000e+02 7.980000000000000000e+02 7.990000000000000000e+02 8.000000000000000000e+02 8.010000000000000000e+02 8.020000000000000000e+02 8.030000000000000000e+02 8.040000000000000000e+02 8.050000000000000000e+02 8.060000000000000000e+02 8.070000000000000000e+02 8.080000000000000000e+02 8.090000000000000000e+02 8.100000000000000000e+02 8.110000000000000000e+02 8.120000000000000000e+02 8.130000000000000000e+02 8.140000000000000000e+02 8.150000000000000000e+02 8.160000000000000000e+02 8.170000000000000000e+02 8.180000000000000000e+02 8.190000000000000000e+02 8.200000000000000000e+02 8.210000000000000000e+02 8.220000000000000000e+02 8.230000000000000000e+02 8.240000000000000000e+02 8.250000000000000000e+02 8.260000000000000000e+02 8.270000000000000000e+02 8.280000000000000000e+02 8.290000000000000000e+02 8.300000000000000000e+02 8.310000000000000000e+02 8.320000000000000000e+02 8.330000000000000000e+02 8.340000000000000000e+02 8.350000000000000000e+02 8.360000000000000000e+02 8.370000000000000000e+02 8.380000000000000000e+02 8.390000000000000000e+02 8.400000000000000000e+02 8.410000000000000000e+02 8.420000000000000000e+02 8.430000000000000000e+02 8.440000000000000000e+02 8.450000000000000000e+02 8.460000000000000000e+02 8.470000000000000000e+02 8.480000000000000000e+02 8.490000000000000000e+02 8.500000000000000000e+02 8.510000000000000000e+02 8.520000000000000000e+02 8.530000000000000000e+02 8.540000000000000000e+02 8.550000000000000000e+02 8.560000000000000000e+02 8.570000000000000000e+02 8.580000000000000000e+02 8.590000000000000000e+02 8.600000000000000000e+02 8.610000000000000000e+02 8.620000000000000000e+02 8.630000000000000000e+02 8.640000000000000000e+02 8.650000000000000000e+02 8.660000000000000000e+02 8.670000000000000000e+02 8.680000000000000000e+02 8.690000000000000000e+02 8.700000000000000000e+02 8.710000000000000000e+02 8.720000000000000000e+02 8.730000000000000000e+02 8.740000000000000000e+02 8.750000000000000000e+02 8.760000000000000000e+02 8.770000000000000000e+02 8.780000000000000000e+02 8.790000000000000000e+02 8.800000000000000000e+02 8.810000000000000000e+02 8.820000000000000000e+02 8.830000000000000000e+02 8.840000000000000000e+02 8.850000000000000000e+02 8.860000000000000000e+02 8.870000000000000000e+02 8.880000000000000000e+02 8.890000000000000000e+02 8.900000000000000000e+02 8.910000000000000000e+02 8.920000000000000000e+02 8.930000000000000000e+02 8.940000000000000000e+02 8.950000000000000000e+02 8.960000000000000000e+02 8.970000000000000000e+02 8.980000000000000000e+02 8.990000000000000000e+02 9.000000000000000000e+02 9.010000000000000000e+02 9.020000000000000000e+02 9.030000000000000000e+02 9.040000000000000000e+02 9.050000000000000000e+02 9.060000000000000000e+02 9.070000000000000000e+02 9.080000000000000000e+02 9.090000000000000000e+02 9.100000000000000000e+02 9.110000000000000000e+02 9.120000000000000000e+02 9.130000000000000000e+02 9.140000000000000000e+02 9.150000000000000000e+02 9.160000000000000000e+02 9.170000000000000000e+02 9.180000000000000000e+02 9.190000000000000000e+02 9.200000000000000000e+02 9.210000000000000000e+02 9.220000000000000000e+02 9.230000000000000000e+02 9.240000000000000000e+02 9.250000000000000000e+02 9.260000000000000000e+02 9.270000000000000000e+02 9.280000000000000000e+02 9.290000000000000000e+02 9.300000000000000000e+02 9.310000000000000000e+02 9.320000000000000000e+02 9.330000000000000000e+02 9.340000000000000000e+02 9.350000000000000000e+02 9.360000000000000000e+02 9.370000000000000000e+02 9.380000000000000000e+02 9.390000000000000000e+02 9.400000000000000000e+02 9.410000000000000000e+02 9.420000000000000000e+02 9.430000000000000000e+02 9.440000000000000000e+02 9.450000000000000000e+02 9.460000000000000000e+02 9.470000000000000000e+02 9.480000000000000000e+02 9.490000000000000000e+02 9.500000000000000000e+02 9.510000000000000000e+02 9.520000000000000000e+02 9.530000000000000000e+02 9.540000000000000000e+02 9.550000000000000000e+02 9.560000000000000000e+02 9.570000000000000000e+02 9.580000000000000000e+02 9.590000000000000000e+02 9.600000000000000000e+02 9.610000000000000000e+02 9.620000000000000000e+02 9.630000000000000000e+02 9.640000000000000000e+02 9.650000000000000000e+02 9.660000000000000000e+02 9.670000000000000000e+02 9.680000000000000000e+02 9.690000000000000000e+02 9.700000000000000000e+02 9.710000000000000000e+02 9.720000000000000000e+02 9.730000000000000000e+02 9.740000000000000000e+02 9.750000000000000000e+02 9.760000000000000000e+02 9.770000000000000000e+02 9.780000000000000000e+02 9.790000000000000000e+02 9.800000000000000000e+02 9.810000000000000000e+02 9.820000000000000000e+02 9.830000000000000000e+02 9.840000000000000000e+02 9.850000000000000000e+02 9.860000000000000000e+02 9.870000000000000000e+02 9.880000000000000000e+02 9.890000000000000000e+02 9.900000000000000000e+02 9.910000000000000000e+02 9.920000000000000000e+02 9.930000000000000000e+02 9.940000000000000000e+02 9.950000000000000000e+02 9.960000000000000000e+02 9.970000000000000000e+02 9.980000000000000000e+02 9.990000000000000000e+02 1.000000000000000000e+03
1.000000000000000021e-02 1.000000000000000021e-02 1.000000000000000021e-02 1.000000000000000021e-02 1.000000000000000021e-02 1.000000000000000021e-02 1.000000000000000021e-02 1.000000000000000021e-02 1.000000000000000021e-02 1.000000000000000021e-02 1.000000000000000021e-02 1.000000000000000021e-02 1.000000000000000021e-02 1.000000000000000021e-02 1.000000000000000021e-02 1.000000000000000021e-02 1.000000000000000021e-02 1.000000000000000021e-02 1.000000000000000021e-02 1.000000000000000021e-02 1.000000000000000021e-02 1.000000000000000021e-02 1.000000000000000021e-02 1.000000000000000021e-02 1.000000000000000021e-02 1.000000000000000021e-02 1.000000000000000021e-02 1.000000000000000021e-02 1.000000000000000021e-02 1.000000000000000021e-02 1.000000000000000021e-02 1.000000000000000021e-02 1.000000000000000021e-02 1.000000000000000021e-02 1.000000000000000021e-02 1.000000000000000021e-02 1.000000000000000021e-02 1.000000000000000021e-02 1.000000000000000021e-02 1.000000000000000021e-02 1.000000000000000021e-02 1.000000000000000021e-02 1.000000000000000021e-02 1.000000000000000021e-02 1.000000000000000021e-02 1.000000000000000021e-02 1.000000000000000021e-02 1.000000000000000021e-02 1.000000000000000021e-02 1.000000000000000021e-02 1.000000000000000021e-02 1.000000000000000021e-02 1.000000000000000021e-02 1.000000000000000021e-02 1.000000000000000021e-02 1.000000000000000021e-02 1.000000000000000021e-02 1.000000000000000021e-02 1.000000000000000021e-02 1.000000000000000021e-02 1.000000000000000021e-02 1.000000000000000021e-02 1.000000000000000021e-02 1.000000000000000021e-02 1.000000000000000021e-02 1.000000000000000021e-02 1.000000000000000021e-02 1.000000000000000021e-02 1.000000000000000021e-02 1.000000000000000021e-02 1.000000000000000021e-02 1.000000000000000021e-02 1.000000000000000021e-02 1.000000000000000021e-02 1.000000000000000021e-02 1.000000000000000021e-02 1.000000000000000021e-02 1.000000000000000021e-02 1.000000000000000021e-02 1.000000000000000021e-02 1.000000000000000021e-02 1.000000000000000021e-02 1.000000000000000021e-02 1.000000000000000021e-02 1.000000000000000021e-02 1.000000000000000021e-02 1.000000000000000021e-02 1.000000000000000021e-02 1.000000000000000021e-02 1.000000000000000021e-02 1.000000000000000021e-02 1.000000000000000021e-02 1.000000000000000021e-02 1.000000000000000021e-02 1.000000000000000021e-02 1.000000000000000021e-02 1.000000000000000021e-02 1.000000000000000021e-02 1.000000000000000021e-02 1.000000000000000021e-02 1.000000000000000021e-02 1.000000000000000021e-02 1.000000000000000021e-02 1.000000000000000021e-02 1.000000000000000021e-02 1.000000000000000021e-02 1.000000000000000021e-02 1.000000000000000021e-02 1.000000000000000021e-02 1.000000000000000021e-02 1.000000000000000021e-02 1.000000000000000021e-02 1.000000000000000021e-02 1.000000000000000021e-02 1.000000000000000021e-02 1.000000000000000021e-02 1.000000000000000021e-02 1.000000000000000021e-02 1.000000000000000021e-02 1.000000000000000021e-02 1.000000000000000021e-02 1.000000000000000021e-02 1.000000000000000021e-02 1.000000000000000021e-02 1.000000000000000021e-02 1.000000000000000021e-02 1.000000000000000021e-02 1.000000000000000021e-02 1.000000000000000021e-02 1.000000000000000021e-02 1.000000000000000021e-02 1.000000000000000021e-02 1.000000000000000021e-02 1.000000000000000021e-02 1.000000000000000021e-02 1.000000000000000021e-02 1.000000000000000021e-02 1.000000000000000021e-02 1.000000000000000021e-02 1.000000000000000021e-02 1.000000000000000021e-02 1.000000000000000021e-02 1.000000000000000021e-02 1.000000000000000021e-02 1.000000000000000021e-02 1.000000000000000021e-02 1.000000000000000021e-02 1.000000000000000021e-02 1.000000000000000021e-02 1.000000000000000021e-02 1.000000000000000021e-02 1.000000000000000021e-02 1.000000000000000021e-02 1.000000000000000021e-02 1.000000000000000021e-02 1.000000000000000021e-02 1.000000000000000021e-02 1.000000000000000021e-02 1.000000000000000021e-02 1.000000000000000021e-02 1.000000000000000021e-02 1.000000000000000021e-02 1.000000000000000021e-02 1.000000000000000021e-02 1.000000000000000021e-02 1.000000000000000021e-02 1.000000000000000021e-02 1.000000000000000021e-02 1.000000000000000021e-02 1.000000000000000021e-02 1.000000000000000021e-02 1.000000000000000021e-02 1.000000000000000021e-02 1.000000000000000021e-02 1.000000000000000021e-02 1.000000000000000021e-02 1.000000000000000021e-02 1.000000000000000021e-02 1.000000000000000021e-02 1.000000000000000021e-02 1.000000000000000021e-02 1.000000000000000021e-02 1.000000000000000021e-02 1.000000000000000021e-02 1.000000000000000021e-02 1.000000000000000021e-02 1.000000000000000021e-02 1.000000000000000021e-02 1.000000000000000021e-02 1.000000000000000021e-02 1.000000000000000021e-02 1.000000000000000021e-02 1.000000000000000021e-02 1.000000000000000021e-02 1.000000000000000021e-02 1.000000000000000021e-02 1.000000000000000021e-02 1.000000000000000021e-02 1.000000000000000021e-02 1.000000000000000021e-02 1.000000000000000021e-02 1.000000000000000021e-02 1.000000000000000021e-02 1.000000000000000021e-02 1.000000000000000021e-02 1.000000000000000021e-02 1.000000000000000021e-02 1.000000000000000021e-02 1.000000000000000021e-02 1.000000000000000021e-02 1.000000000000000021e-02 1.000000000000000021e-02 1.000000000000000021e-02 1.000000000000000021e-02 1.000000000000000021e-02 1.000000000000000021e-02 1.000000000000000021e-02 1.000000000000000021e-02 1.000000000000000021e-02 1.000000000000000021e-02 1.000000000000000021e-02 1.000000000000000021e-02 1.000000000000000021e-02 1.000000000000000021e-02 1.000000000000000021e-02 1.000000000000000021e-02 1.000000000000000021e-02 1.000000000000000021e-02 1.000000000000000021e-02 1.000000000000000021e-02 1.000000000000000021e-02 1.000000000000000021e-02 1.000000000000000021e-02 1.000000000000000021e-02 1.000000000000000021e-02 1.000000000000000021e-02 1.000000000000000021e-02 1.000000000000000021e-02 1.000000000000000021e-02 1.000000000000000021e-02 1.000000000000000021e-02 1.000000000000000021e-02 1.000000000000000021e-02 1.000000000000000021e-02 1.000000000000000021e-02 1.000000000000000021e-02 1.000000000000000021e-02 1.000000000000000021e-02 1.000000000000000021e-02 1.000000000000000021e-02 1.000000000000000021e-02 1.000000000000000021e-02 1.000000000000000021e-02 1.000000000000000021e-02 1.000000000000000021e-02 1.000000000000000021e-02 1.000000000000000021e-02 1.000000000000000021e-02 1.000000000000000021e-02 1.000000000000000021e-02 1.000000000000000021e-02 1.000000000000000021e-02 1.000000000000000021e-02 1.000000000000000021e-02 1.000000000000000021e-02 1.000000000000000021e-02 1.000000000000000021e-02 1.000000000000000021e-02 1.000000000000000021e-02 1.000000000000000021e-02 1.000000000000000021e-02 1.000000000000000021e-02 1.000000000000000021e-02 1.000000000000000021e-02 1.000000000000000021e-02 1.000000000000000021e-02 1.000000000000000021e-02 1.000000000000000021e-02 1.000000000000000021e-02 1.000000000000000021e-02 1.000000000000000021e-02 1.000000000000000021e-02 1.000000000000000021e-02 1.000000000000000021e-02 1.000000000000000021e-02 1.000000000000000021e-02 1.000000000000000021e-02 1.000000000000000021e-02 1.000000000000000021e-02 1.000000000000000021e-02 1.000000000000000021e-02 1.000000000000000021e-02 1.000000000000000021e-02 1.000000000000000021e-02 1.000000000000000021e-02 1.000000000000000021e-02 1.000000000000000021e-02 1.000000000000000021e-02 1.000000000000000021e-02 1.000000000000000021e-02 1.000000000000000021e-02 1.000000000000000021e-02 1.000000000000000021e-02 1.000000000000000021e-02 1.000000000000000021e-02 1.000000000000000021e-02 1.000000000000000021e-02 1.000000000000000021e-02 1.000000000000000021e-02 1.000000000000000021e-02 1.000000000000000021e-02 1.000000000000000021e-02 1.000000000000000021e-02 1.000000000000000021e-02 1.000000000000000021e-02 1.000000000000000021e-02 1.000000000000000021e-02 1.000000000000000021e-02 1.000000000000000021e-02 1.000000000000000021e-02 1.000000000000000021e-02 1.000000000000000021e-02 1.000000000000000021e-02 1.000000000000000021e-02 1.000000000000000021e-02 1.000000000000000021e-02 1.000000000000000021e-02 1.000000000000000021e-02 1.000000000000000021e-02 1.000000000000000021e-02 1.000000000000000021e-02 1.000000000000000021e-02 1.000000000000000021e-02 1.000000000000000021e-02 1.000000000000000021e-02 1.000000000000000021e-02 1.000000000000000021e-02 1.000000000000000021e-02 1.000000000000000021e-02 1.000000000000000021e-02 1.000000000000000021e-02 1.000000000000000021e-02 1.000000000000000021e-02 1.000000000000000021e-02 1.000000000000000021e-02 1.000000000000000021e-02 1.000000000000000021e-02 1.000000000000000021e-02 1.000000000000000021e-02 1.000000000000000021e-02 1.000000000000000021e-02 1.000000000000000021e-02 1.000000000000000021e-02 1.000000000000000021e-02 1.000000000000000021e-02 1.000000000000000021e-02 1.000000000000000021e-02 1.000000000000000021e-02 1.000000000000000021e-02 1.000000000000000021e-02 1.000000000000000021e-02 1.000000000000000021e-02 1.000000000000000021e-02 1.000000000000000021e-02 1.000000000000000021e-02 1.000000000000000021e-02 1.000000000000000021e-02 1.000000000000000021e-02 1.000000000000000021e-02 1.000000000000000021e-02 1.000000000000000021e-02 1.000000000000000021e-02 1.000000000000000021e-02 1.000000000000000021e-02 1.000000000000000021e-02 1.000000000000000021e-02 1.000000000000000021e-02 1.000000000000000021e-02 1.000000000000000021e-02 1.000000000000000021e-02 1.000000000000000021e-02 1.000000000000000021e-02 1.000000000000000021e-02 1.000000000000000021e-02 1.000000000000000021e-02 1.000000000000000021e-02 1.000000000000000021e-02 1.000000000000000021e-02 1.000000000000000021e-02 1.000000000000000021e-02 1.000000000000000021e-02 1.000000000000000021e-02 1.000000000000000021e-02 1.000000000000000021e-02 1.000000000000000021e-02 1.000000000000000021e-02 1.000000000000000021e-02 1.000000000000000021e-02 1.000000000000000021e-02 1.000000000000000021e-02 1.000000000000000021e-02 1.000000000000000021e-02 1.000000000000000021e-02 1.000000000000000021e-02 1.000000000000000021e-02 1.000000000000000021e-02 1.000000000000000021e-02 1.000000000000000021e-02 1.000000000000000021e-02 1.000000000000000021e-02 1.000000000000000021e-02 1.000000000000000021e-02 1.000000000000000021e-02 1.000000000000000021e-02 1.000000000000000021e-02 1.000000000000000021e-02 1.000000000000000021e-02 1.000000000000000021e-02 1.000000000000000021e-02 1.000000000000000021e-02 1.000000000000000021e-02 1.000000000000000021e-02 1.000000000000000021e-02 1.000000000000000021e-02 1.000000000000000021e-02 1.000000000000000021e-02 1.000000000000000021e-02 1.000000000000000021e-02 1.000000000000000021e-02 1.000000000000000021e-02 1.000000000000000021e-02 1.000000000000000021e-02 1.000000000000000021e-02 1.000000000000000021e-02 1.000000000000000021e-02 1.000000000000000021e-02 1.000000000000000021e-02 1.000000000000000021e-02 1.000000000000000021e-02 1.000000000000000021e-02 1.000000000000000021e-02 1.000000000000000021e-02 1.000000000000000021e-02 1.000000000000000021e-02 1.000000000000000021e-02 1.000000000000000021e-02 1.000000000000000021e-02 1.000000000000000021e-02 1.000000000000000021e-02 1.000000000000000021e-02 1.000000000000000021e-02 1.000000000000000021e-02 1.000000000000000021e-02 1.000000000000000021e-02 1.000000000000000021e-02 1.000000000000000021e-02 1.000000000000000021e-02 1.000000000000000021e-02 1.000000000000000021e-02 1.000000000000000021e-02 1.000000000000000021e-02 1.000000000000000021e-02 1.000000000000000021e-02 1.000000000000000021e-02 1.000000000000000021e-02 1.000000000000000021e-02 1.000000000000000021e-02 1.000000000000000021e-02 1.000000000000000021e-02 1.000000000000000021e-02 1.000000000000000021e-02 1.000000000000000021e-02 1.000000000000000021e-02 1.000000000000000021e-02 1.000000000000000021e-02 1.000000000000000021e-02 1.000000000000000021e-02 1.000000000000000021e-02 1.000000000000000021e-02 1.000000000000000021e-02 1.000000000000000021e-02 1.000000000000000021e-02 1.000000000000000021e-02 1.000000000000000021e-02 1.000000000000000021e-02 1.000000000000000021e-02 1.000000000000000021e-02 1.000000000000000021e-02 1.000000000000000021e-02 1.000000000000000021e-02 1.000000000000000021e-02 1.000000000000000021e-02 1.000000000000000021e-02 1.000000000000000021e-02 1.000000000000000021e-02 1.000000000000000021e-02 1.000000000000000021e-02 1.000000000000000021e-02 1.000000000000000021e-02 1.000000000000000021e-02 1.000000000000000021e-02 1.000000000000000021e-02 1.000000000000000021e-02 1.000000000000000021e-02 1.000000000000000021e-02 1.000000000000000021e-02 1.000000000000000021e-02 1.000000000000000021e-02 1.000000000000000021e-02 1.000000000000000021e-02 1.000000000000000021e-02 1.000000000000000021e-02 1.000000000000000021e-02 1.000000000000000021e-02 1.000000000000000021e-02 1.000000000000000021e-02 1.000000000000000021e-02 1.000000000000000021e-02 1.000000000000000021e-02 1.000000000000000021e-02 1.000000000000000021e-02 1.000000000000000021e-02 1.000000000000000021e-02 1.000000000000000021e-02 1.000000000000000021e-02 1.000000000000000021e-02 1.000000000000000021e-02 1.000000000000000021e-02 1.000000000000000021e-02 1.000000000000000021e-02 1.000000000000000021e-02 1.000000000000000021e-02 1.000000000000000021e-02 1.000000000000000021e-02 1.000000000000000021e-02 1.000000000000000021e-02 1.000000000000000021e-02 1.000000000000000021e-02 1.000000000000000021e-02 1.000000000000000021e-02 1.000000000000000021e-02 1.000000000000000021e-02 1.000000000000000021e-02 1.000000000000000021e-02 1.000000000000000021e-02 1.000000000000000021e-02 1.000000000000000021e-02 1.000000000000000021e-02 1.000000000000000021e-02 1.000000000000000021e-02 1.000000000000000021e-02 1.000000000000000021e-02 1.000000000000000021e-02 1.000000000000000021e-02 1.000000000000000021e-02 1.000000000000000021e-02 1.000000000000000021e-02 1.000000000000000021e-02 1.000000000000000021e-02 1.000000000000000021e-02 1.000000000000000021e-02 1.000000000000000021e-02 1.000000000000000021e-02 1.000000000000000021e-02 1.000000000000000021e-02 1.000000000000000021e-02 1.000000000000000021e-02 1.000000000000000021e-02 1.000000000000000021e-02 1.000000000000000021e-02 1.000000000000000021e-02 1.000000000000000021e-02 1.000000000000000021e-02 1.000000000000000021e-02 1.000000000000000021e-02 1.000000000000000021e-02 1.000000000000000021e-02 1.000000000000000021e-02 1.000000000000000021e-02 1.000000000000000021e-02 1.000000000000000021e-02 1.000000000000000021e-02 1.000000000000000021e-02 1.000000000000000021e-02 1.000000000000000021e-02 1.000000000000000021e-02 1.000000000000000021e-02 1.000000000000000021e-02 1.000000000000000021e-02 1.000000000000000021e-02 1.000000000000000021e-02 1.000000000000000021e-02 1.000000000000000021e-02 1.000000000000000021e-02 1.000000000000000021e-02 1.000000000000000021e-02 1.000000000000000021e-02 1.000000000000000021e-02 1.000000000000000021e-02 1.000000000000000021e-02 1.000000000000000021e-02 1.000000000000000021e-02 1.000000000000000021e-02 1.000000000000000021e-02 1.000000000000000021e-02 1.000000000000000021e-02 1.000000000000000021e-02 1.000000000000000021e-02 1.000000000000000021e-02 1.000000000000000021e-02 1.000000000000000021e-02 1.000000000000000021e-02 1.000000000000000021e-02 1.000000000000000021e-02 1.000000000000000021e-02 1.000000000000000021e-02 1.000000000000000021e-02 1.000000000000000021e-02 1.000000000000000021e-02 1.000000000000000021e-02 1.000000000000000021e-02 1.000000000000000021e-02 1.000000000000000021e-02 1.000000000000000021e-02 1.000000000000000021e-02 1.000000000000000021e-02 1.000000000000000021e-02 1.000000000000000021e-02 1.000000000000000021e-02 1.000000000000000021e-02 1.000000000000000021e-02 1.000000000000000021e-02 1.000000000000000021e-02 1.000000000000000021e-02 1.000000000000000021e-02 1.000000000000000021e-02 1.000000000000000021e-02 1.000000000000000021e-02 1.000000000000000021e-02 1.000000000000000021e-02 1.000000000000000021e-02 1.000000000000000021e-02 1.000000000000000021e-02 1.000000000000000021e-02 1.000000000000000021e-02 1.000000000000000021e-02 1.000000000000000021e-02 1.000000000000000021e-02 1.000000000000000021e-02 1.000000000000000021e-02 1.000000000000000021e-02 1.000000000000000021e-02 1.000000000000000021e-02 1.000000000000000021e-02 1.000000000000000021e-02 1.000000000000000021e-02 1.000000000000000021e-02 1.000000000000000021e-02 1.000000000000000021e-02 1.000000000000000021e-02 1.000000000000000021e-02 1.000000000000000021e-02 1.000000000000000021e-02 1.000000000000000021e-02 1.000000000000000021e-02 1.000000000000000021e-02 1.000000000000000021e-02 1.000000000000000021e-02 1.000000000000000021e-02 1.000000000000000021e-02 1.000000000000000021e-02 1.000000000000000021e-02 1.000000000000000021e-02 1.000000000000000021e-02 1.000000000000000021e-02 1.000000000000000021e-02 1.000000000000000021e-02 1.000000000000000021e-02 1.000000000000000021e-02 1.000000000000000021e-02 1.000000000000000021e-02 1.000000000000000021e-02 1.000000000000000021e-02 1.000000000000000021e-02 1.000000000000000021e-02 1.000000000000000021e-02 1.000000000000000021e-02 1.000000000000000021e-02 1.000000000000000021e-02 1.000000000000000021e-02 1.000000000000000021e-02 1.000000000000000021e-02 1.000000000000000021e-02 1.000000000000000021e-02 1.000000000000000021e-02 1.000000000000000021e-02 1.000000000000000021e-02 1.000000000000000021e-02 1.000000000000000021e-02 1.000000000000000021e-02 1.000000000000000021e-02 1.000000000000000021e-02 1.000000000000000021e-02 1.000000000000000021e-02 1.000000000000000021e-02 1.000000000000000021e-02 1.000000000000000021e-02 1.000000000000000021e-02 1.000000000000000021e-02 1.000000000000000021e-02 1.000000000000000021e-02 1.000000000000000021e-02 1.000000000000000021e-02 1.000000000000000021e-02 1.000000000000000021e-02 1.000000000000000021e-02 1.000000000000000021e-02 1.000000000000000021e-02 1.000000000000000021e-02 1.000000000000000021e-02 1.000000000000000021e-02 1.000000000000000021e-02 1.000000000000000021e-02 1.000000000000000021e-02 1.000000000000000021e-02 1.000000000000000021e-02 1.000000000000000021e-02 1.000000000000000021e-02 1.000000000000000021e-02 1.000000000000000021e-02 1.000000000000000021e-02 1.000000000000000021e-02 1.000000000000000021e-02 1.000000000000000021e-02 1.000000000000000021e-02 1.000000000000000021e-02 1.000000000000000021e-02 1.000000000000000021e-02 1.000000000000000021e-02 1.000000000000000021e-02 1.000000000000000021e-02 1.000000000000000021e-02 1.000000000000000021e-02 1.000000000000000021e-02 1.000000000000000021e-02 1.000000000000000021e-02 1.000000000000000021e-02 1.000000000000000021e-02 1.000000000000000021e-02 1.000000000000000021e-02 1.000000000000000021e-02 1.000000000000000021e-02 1.000000000000000021e-02 1.000000000000000021e-02 1.000000000000000021e-02 1.000000000000000021e-02 1.000000000000000021e-02 1.000000000000000021e-02 1.000000000000000021e-02 1.000000000000000021e-02 1.000000000000000021e-02 1.000000000000000021e-02 1.000000000000000021e-02 1.000000000000000021e-02 1.000000000000000021e-02 1.000000000000000021e-02 1.000000000000000021e-02 1.000000000000000021e-02 1.000000000000000021e-02 1.000000000000000021e-02 1.000000000000000021e-02 1.000000000000000021e-02 1.000000000000000021e-02 1.000000000000000021e-02 1.000000000000000021e-02 1.000000000000000021e-02 1.000000000000000021e-02 1.000000000000000021e-02 1.000000000000000021e-02 1.000000000000000021e-02 1.000000000000000021e-02 1.000000000000000021e-02 1.000000000000000021e-02 1.000000000000000021e-02 1.000000000000000021e-02 1.000000000000000021e-02 1.000000000000000021e-02 1.000000000000000021e-02 1.000000000000000021e-02 1.000000000000000021e-02 1.000000000000000021e-02 1.000000000000000021e-02 1.000000000000000021e-02 1.000000000000000021e-02 1.000000000000000021e-02 1.000000000000000021e-02 1.000000000000000021e-02 1.000000000000000021e-02 1.000000000000000021e-02 1.000000000000000021e-02 1.000000000000000021e-02 1.000000000000000021e-02 1.000000000000000021e-02 1.000000000000000021e-02 1.000000000000000021e-02 1.000000000000000021e-02 1.000000000000000021e-02 1.000000000000000021e-02 1.000000000000000021e-02 1.000000000000000021e-02 1.000000000000000021e-02 1.000000000000000021e-02 1.000000000000000021e-02 1.000000000000000021e-02 1.000000000000000021e-02 1.000000000000000021e-02 1.000000000000000021e-02 1.000000000000000021e-02 1.000000000000000021e-02 1.000000000000000021e-02 1.000000000000000021e-02 1.000000000000000021e-02 1.000000000000000021e-02 1.000000000000000021e-02 1.000000000000000021e-02 1.000000000000000021e-02 1.000000000000000021e-02 1.000000000000000021e-02 1.000000000000000021e-02 1.000000000000000021e-02 1.000000000000000021e-02 1.000000000000000021e-02 1.000000000000000021e-02 1.000000000000000021e-02 1.000000000000000021e-02 1.000000000000000021e-02 1.000000000000000021e-02 1.000000000000000021e-02 1.000000000000000021e-02 1.000000000000000021e-02 1.000000000000000021e-02 1.000000000000000021e-02 1.000000000000000021e-02 1.000000000000000021e-02 1.000000000000000021e-02 1.000000000000000021e-02 1.000000000000000021e-02 1.000000000000000021e-02 1.000000000000000021e-02 1.000000000000000021e-02 1.000000000000000021e-02 1.000000000000000021e-02 1.000000000000000021e-02 1.000000000000000021e-02 1.000000000000000021e-02 1.000000000000000021e-02 1.000000000000000021e-02 1.000000000000000021e-02 1.000000000000000021e-02 1.000000000000000021e-02 1.000000000000000021e-02 1.000000000000000021e-02 1.000000000000000021e-02 1.000000000000000021e-02 1.000000000000000021e-02 1.000000000000000021e-02 1.000000000000000021e-02 1.000000000000000021e-02 1.000000000000000021e-02 1.000000000000000021e-02 1.000000000000000021e-02 1.000000000000000021e-02 1.000000000000000021e-02 1.000000000000000021e-02 1.000000000000000021e-02 1.000000000000000021e-02 1.000000000000000021e-02 1.000000000000000021e-02 1.000000000000000021e-02 1.000000000000000021e-02 1.000000000000000021e-02 1.000000000000000021e-02 1.000000000000000021e-02 1.000000000000000021e-02 1.000000000000000021e-02 1.000000000000000021e-02 1.000000000000000021e-02 1.000000000000000021e-02 1.000000000000000021e-02 1.000000000000000021e-02 1.000000000000000021e-02 1.000000000000000021e-02 1.000000000000000021e-02 1.000000000000000021e-02 1.000000000000000021e-02 1.000000000000000021e-02 1.000000000000000021e-02 1.000000000000000021e-02 1.000000000000000021e-02 1.000000000000000021e-02 1.000000000000000021e-02 1.000000000000000021e-02 1.000000000000000021e-02 1.000000000000000021e-02 1.000000000000000021e-02 1.000000000000000021e-02 1.000000000000000021e-02 1.000000000000000021e-02 1.000000000000000021e-02 1.000000000000000021e-02 1.000000000000000021e-02 1.000000000000000021e-02 1.000000000000000021e-02 1.000000000000000021e-02 1.000000000000000021e-02 1.000000000000000021e-02 1.000000000000000021e-02 1.000000000000000021e-02 1.000000000000000021e-02 1.000000000000000021e-02 1.000000000000000021e-02 1.000000000000000021e-02 1.000000000000000021e-02 1.000000000000000021e-02 1.000000000000000021e-02 1.000000000000000021e-02 1.000000000000000021e-02 1.000000000000000021e-02 1.000000000000000021e-02 1.000000000000000021e-02 1.000000000000000021e-02 1.000000000000000021e-02 1.000000000000000021e-02 1.000000000000000021e-02 1.000000000000000021e-02 1.000000000000000021e-02 1.000000000000000021e-02 1.000000000000000021e-02 1.000000000000000021e-02 1.000000000000000021e-02 1.000000000000000021e-02 1.000000000000000021e-02 1.000000000000000021e-02 1.000000000000000021e-02 1.000000000000000021e-02 1.000000000000000021e-02 1.000000000000000021e-02 1.000000000000000021e-02 1.000000000000000021e-02 1.000000000000000021e-02 1.000000000000000021e-02 1.000000000000000021e-02 1.000000000000000021e-02 1.000000000000000021e-02 1.000000000000000021e-02 1.000000000000000021e-02 1.000000000000000021e-02 1.000000000000000021e-02 1.000000000000000021e-02 1.000000000000000021e-02 1.000000000000000021e-02 1.000000000000000021e-02 1.000000000000000021e-02 1.000000000000000021e-02 1.000000000000000021e-02 1.000000000000000021e-02 1.000000000000000021e-02 1.000000000000000021e-02 1.000000000000000021e-02 1.000000000000000021e-02 1.000000000000000021e-02 1.000000000000000021e-02 1.000000000000000021e-02 1.000000000000000021e-02 1.000000000000000021e-02 1.000000000000000021e-02 1.000000000000000021e-02 1.000000000000000021e-02 1.000000000000000021e-02 1.000000000000000021e-02 1.000000000000000021e-02 1.000000000000000021e-02 1.000000000000000021e-02 1.000000000000000021e-02 1.000000000000000021e-02 1.000000000000000021e-02 1.000000000000000021e-02 1.000000000000000021e-02 1.000000000000000021e-02 1.000000000000000021e-02 1.000000000000000021e-02 1.000000000000000021e-02 1.000000000000000021e-02 1.000000000000000021e-02 1.000000000000000021e-02 1.000000000000000021e-02 1.000000000000000021e-02 1.000000000000000021e-02 1.000000000000000021e-02 1.000000000000000021e-02
-1.143354210802468742e+02 1.737055597819345394e+02 4.033007487723251927e+01 -9.069338759641695447e+00 -9.003979446102664497e+01 -1.372183338954803311e+01 -2.129730637813784710e+02 6.904713742367047935e-01 -8.682387314221872998e+01 -1.431136875516392237e+01 -2.030685063978489779e+01 6.656885860563471091e+00 -1.824076380918884910e+00 1.719109115622227648e+02 8.669108786201915962e+01 -3.970532020259376793e+01 -5.405436020242655815e+01 8.116339340628138643e+01 3.362164486841108157e+01 -2.598313221434854370e+01 -8.079918483413669605e+01 -7.563937528232484908e+01 -1.415545510572825272e+01 2.964425289827924104e+01 -1.997194239983116688e+02 -1.011767358774622210e+02 -2.672514975781747637e+01 2.066063219566428870e+02 7.250363272391324188e+01 7.858105460000341225e+01 8.226094455327948651e+01 1.217306174377180472e+00 -8.111864449801409194e+01 2.124875477950987204e+02 -2.508182817346216211e+02 6.023494604204861247e+01 -1.231418317946896792e+02 -3.552627455278405932e+01 4.129386516624452774e+00 1.298261924116206671e+02 -1.259393310095458389e+02 -1.400522619296038052e+01 7.928367263511277940e+01 1.778576095028103907e+02 7.313336113422126061e+01 -7.013548311657211798e+01 4.227709178963009862e+01 -2.906803958245887642e+01 -6.769216738436480796e+01 1.604552590520372632e+02 -7.235997979081611220e+01 -5.341563537021160357e+01 -1.427126750158070365e+02 5.846020352107834661e+00 -5.179923208087749487e+01 3.960992453662563406e+01 -9.091295846647088297e+01 -5.130592515859156322e+01 -1.039110335351521570e+02 -1.592740380357643630e+02 1.996474156345705708e+01 4.644340335268447717e+01 -1.261598121775363950e+02 1.318180976076679833e+01 -8.128095935101698899e+01 5.033025288316959234e+01 1.707076661122448229e+02 -1.478194142397640292e+02 -4.439673600690472455e+01 7.354586074565683695e+00 2.994047121009355994e+00 4.342297792229669540e+01 8.606408462466913534e+01 9.562837800135191024e-01 -8.993364526835206263e+00 -7.177844520127965211e+01 8.021457628885947599e+01 -3.361553139581011607e+01 2.693556805409267341e+01 1.065854599291266709e+02 9.043637846571340333e+01 -4.380367955257636936e+01 5.927241975072373492e+01 1.511026267750907550e+02 1.190860622141601795e+02 -4.143669862105234358e+00 1.785543015163148652e+02 -1.142772701932903345e+02 4.327494549689055781e+00 -4.297971746161263695e+01 2.119923441708493783e+02 -2.175046823790822970e+01 2.939721650668538633e+00 -7.869121070988585132e+01 -7.303459039397578678e+00 -6.545440067062443745e+01 6.944421853666725042e+01 -9.689350539690649100e+01 7.023427088229102822e+01 -4.891906762351175786e+01 -5.101210499139135379e+01 -9.393368026329429199e+01 5.443485780411293717e+01 -5.610356416573541338e+01 -1.530538209971453796e+02 -8.146192847324047648e+01 -1.072271819631632752e+02 -1.611473917104071347e+02 1.393396189766867508e+02 -2.821549677003330459e+01 3.281853870596816591e+01 9.190246008746355244e+01 -1.066890404016551912e+02 5.840453565168844108e+01 -4.440468316841027274e+01 -7.101096351777336224e+01 -9.229729937016844588e+01 2.083839504171198200e+02 -5.816122854818895149e+01 -5.070651821553452976e+01 -4.842042022306583249e+01 8.241213609401299323e+01 -4.243092742640400417e+01 1.414486530790761378e+02 -5.108205809411729348e+01 5.644002388512392088e+01 4.654938022319162094e+00 -8.319926807791013346e+01 7.055813432209959046e+01 2.842964442028007852e+02 -9.429317806913726940e+01 4.869412290307308666e+01 -7.811634354698162497e+01 4.636347505031947946e+01 1.344667462705893399e+02 -5.263841745706290709e+01 1.493921832991699716e+01 -2.758659814493655205e+01 -1.044844051612217868e+02 -1.769667449010001548e+01 4.364747678071406511e+00 -8.024065160083964088e+00 -1.533875773689130639e+01 1.212418644071752993e+02 1.336151260080789314e+02 1.911504662799992218e+02 -3.119878048816038358e+02 3.918647761829561915e+01 -1.613857190330541158e+01 -6.394443612279238209e+01 1.849281737155322958e+02 7.818956365026350852e+01 -2.626085978930273512e+00 -1.189510001849188114e+02 -1.119770572067557346e+01 1.026637686734001704e+02 -1.378871271774996217e+02 -1.730065050315601809e+02 1.101326226167174838e+01 4.354675730483781848e+01 -6.259743527267287533e+01 4.313087861544351398e+01 -1.098910411013521582e+02 -1.553099307139939356e+02 2.168296423423784347e+01 4.986533910961826876e+01 4.920259537688058238e+00 -8.573339970478552630e+01 -9.609462943987304584e+01 -8.660728860041332666e+01 -8.989928010755706111e+01 1.295380767540727796e+01 5.838940709933827122e+01 1.196719255536795856e+02 8.161969922857176130e+01 9.196266720355239954e+01 1.104010078324025557e+02 -7.687990828883194183e+01 -8.482791608260359340e+01 7.250112320008793176e+01 7.035706339356234196e+01 6.091397717912541765e+01 -9.665551201516541013e+00 -9.369581925796970268e+01 5.553886971376631010e+01 -1.841364558316529099e+02 6.911190211836013475e+01 -4.587226572380660627e+01 -9.931064979685579885e+01 7.641648271209160725e+01 -1.763278262054882006e+01 -7.948060141747322405e+01 -5.923219497788871024e+01 -9.416208432113235105e+00 2.501317452803681931e+02 7.917358150472045963e+01 5.654143591230374000e+01 -1.071817911302167659e+02 1.529435815191492622e+02 1.064953513707008526e+00 -9.329524042894840363e+01 1.608068168837078247e+02 -1.591496852652697385e+02 1.628747158231279712e+01 -3.363087900286936360e+01 -2.294666156228422267e+02 -1.393425214240279786e+02 -9.111233707196589648e+01 -3.054745980693044416e+01 -1.245455027850148895e+02 6.022832189532913816e+01 6.785912343546107195e+01 -2.877801539859783375e+01 -1.041197307438943938e+02 1.181137921597046159e+02 1.234840846637558656e+02 4.827207296393576286e+01 1.822324331709012668e+01 2.730052214539512079e+02 4.563448205720857942e+01 -1.247405496572023793e+02 -4.705917122579935352e+01 -1.764771326289000228e+02 3.330664350511539595e+01 1.602682689166252601e+02 -1.551416363257324349e+02 1.377114852146746102e+02 -9.509901603801567660e+01 -1.974800382615160999e+01 -7.635104658425948543e-01 5.526287989759255481e+01 -1.214519444475448928e+01 -2.381955409138260293e+01 -1.981089104031268633e+01 -1.324685699989668137e+02 4.856725154503436670e+01 -3.176754946889996489e+01 -1.360167718486519384e+01 -1.120359328541417021e+01 2.363801711383474924e+02 1.822196769556161655e+02 2.433725181697311939e+02 1.378927327318733944e+02 -9.057714951138257220e+01 7.869152692409804217e+01 2.208032909395145182e+01 4.982707905622909550e+01 -4.159735382720136698e+01 2.672929365293538808e+02 -2.437196811486036907e+01 -1.430884333528880461e+02 -1.565958228099854033e+01 -4.795378233027358306e+01 -8.102563515953711715e+01 4.517758809536970688e+01 -1.226094416082701066e+01 1.904207830073815444e+02 9.676375106680525562e+01 4.280624311254817371e+01 1.026488256790630942e+02 9.888377901127674363e+01 -2.406913744758541895e+01 1.461995238860125141e+02 2.771670952729366988e+01 9.377330397597528133e+01 4.988072848082340727e+01 7.266419500597457670e+00 -1.212307186772908381e+02 -1.212762264610124561e+02 -9.425060223649863644e+01 -1.631259132820290247e+01 9.076731000837108354e+01 -3.212103623471306690e+01 1.035602129245730083e+02 4.586803881395295690e+01 -7.615824298972077600e+01 -3.139181145024070219e+01 -6.136856651878370883e+01 1.838985068632698727e+01 -4.853634193035187394e+01 -1.173370979102193559e+02 1.272871196409196699e+02 1.270610798604087250e+02 -8.266367094715215558e+01 5.729899933228680631e+00 -4.744305842148963137e+01 -3.417286667267182310e+01 -1.187836381099500827e+01 -3.268499086255837227e+01 4.652936809726880796e+01 -1.471332435426819814e+02 -5.531310188263459082e+01 -1.590393795503215699e+02 1.822941740531687742e+02 -2.120276362992222730e+01 6.171835125869836247e+01 1.249617534729829416e+01 1.511321797552069199e+02 4.674048459199594419e+01 3.741004944205097615e+01 1.614822761227232775e+02 -5.154173531403885988e+01 -1.020758585072649680e+02 2.839460159785983606e+01 -1.652647586783118641e+02 -5.584049581471609969e+01 1.069605516204916427e+02 -1.335939175603697038e+02 -3.802649907624810055e+01 9.545707223033251410e+01 -9.880869164212846556e+01 -9.358881575388100771e+01 -8.641118100254918488e+01 -6.674628131701955169e+01 2.602931089331934800e+02 2.071415391579550942e+02 1.076668890752384442e+02 -1.068060264459316500e+02 7.823686550833730280e+01 -6.907485961642646544e+01 -3.258055320688611545e+01 1.733800594513505189e+01 -3.359741730161363193e+01 -9.791932339707547328e+01 -2.816400765932176142e+00 1.546440697264824138e+01 1.135324427630437896e+02 -1.340926413232382686e+02 4.368052634899713382e+01 6.651334090172700542e+01 3.605707227617076427e+01 -9.450452783758053954e+01 -1.548489481961939305e+02 2.014816315284392658e+02 -1.857898263854404419e+01 2.626114027857510180e+01 1.631220521521112232e+02 2.779604086785743533e+01 2.891629615323857294e+01 -4.639104976240935230e+01 9.228543411108044836e+01 -1.420314858625942520e+02 -3.209343556734079073e+01 -6.387946042531140733e+00 -5.563536068224613729e+01 6.410523779809218503e+00 2.220002073757224892e+01 -3.726072190237977111e+01 1.422778300823089026e+01 2.224667779421959608e+02 -2.850328756638823435e+01 -2.909662547913785957e+01 -1.058022256392622609e+02 -1.726935053964025357e+00 -8.404567943384344630e+01 6.675718843132434799e+00 1.166063572092269283e+02 -5.414183790637964222e+01 6.297734157225525209e+00 -5.652723166886362094e+01 3.474133945798418388e+00 9.073799168071157339e+01 -1.205320561916957303e+02 -1.006990612418913571e+02 -1.066752979472623508e+02 7.428097920440458779e+01 9.004396776054215934e+01 -9.603404620887187093e+01 6.510475589763396442e+01 2.684182752442011122e+01 4.023982251042387048e+01 -1.847385677547023519e+01 9.499112059402206398e+01 8.293976087649400597e+01 -8.038474397788904469e+01 1.234886256333981081e+01 8.414658267825490157e+01 7.578626588576793210e+01 -2.066595435719087348e+01 2.599184060239935690e+01 -1.378834265257117409e+02 5.044210674650592807e+01 -3.407122941837252483e+01 -3.393784702577712409e+01 1.800973988940330628e+02 4.934163874111613524e+01 1.250207019323033393e+02 1.985506947729671481e+02 -1.431931226845979950e+02 1.549949643145568814e+02 -6.589064751030460343e+01 -1.405092050560487564e+02 8.560444625892192505e+01 -1.394347830249700735e+02 -2.984300286924603540e+01 5.867662877876614402e+01 8.423069211402504308e+00 -1.747755473132618818e+02 8.756114185195986011e+01 2.620997506494225249e+01 7.185348088471278061e+01 3.770596369817944549e+01 9.856696649125991527e+00 -6.979139491422502317e+01 1.203593395483735549e+02 5.665119758781060710e+01 -6.460196336288386476e+01 -1.052660569469692291e+02 4.051622286730462719e+01 2.666549031887995369e+01 8.565210183869020000e+01 1.910127507643123010e+02 -2.562663970303843897e+01 -1.145159622419105148e+02 -8.813220825842567763e+01 -5.336275198721956770e+01 -4.616877991955832528e+01 -1.525711567641317856e+02 -2.338202129252595540e+01 1.346131106158663044e+02 7.751216650377455153e+01 -1.272299392431358314e+02 -1.557424926722628129e+02 -7.082189618249265095e+01 -7.942380049923013985e+01 1.525334452711236111e+02 -1.772040534682864177e+02 8.994222149277872802e+01 -4.791150963048794509e+00 -4.471693078692147338e+01 1.384184643728275965e+01 9.480281634789307077e+01 5.158197884457582205e+01 1.436740854669823761e+02 -1.654176909206438495e+02 -8.417329235694759859e+01 2.632007217755761985e+01 4.359763470553470199e+01 2.143110191942152198e+02 1.511849597694205443e+02 6.809601769796526582e+01 7.495260895711484750e+01 -3.562597014844728704e+01 1.578408892096705642e+02 -1.863745008734539397e+02 -6.588167780224431169e+01 -5.580744660184296180e+01 -5.383740906218574196e+01 -1.073773378241239413e+02 -1.556697466153964093e+01 -7.135552631299815118e+01 7.400023167889122533e+01 -9.533541897941994137e+00 -6.041647125679133268e+01 -6.479707878402145127e+01 1.872899351781202881e+02 6.128863891986176782e+01 -1.422405019744289234e+01 2.170854210799274142e+02 -1.125684842252261149e+02 -3.673215575891349971e+01 6.958297895239854824e+01 -1.308133886691008052e-01 1.550606578540046065e+01 -1.299324224681529358e+02 1.830838681065784783e+02 -5.093574304331047387e+01 -2.802413012683906501e+01 -1.139916948579997609e+02 1.307474728471908918e+02 9.964041445174143519e+01 -8.054027257878998114e+01 -3.898854119090696457e+01 4.043057421427275244e+01 -1.572509390804577265e+02 -1.277238517080963309e-01 -7.757352768464896542e+01 8.012047657672823675e+00 -1.122798844757437422e+02 -1.645983749440420638e+02 -7.336868746847132172e+01 1.537978536404800991e+02 5.875780810931441067e+01 -9.299777560961781830e+01 9.257174928327115992e+01 3.555142413663047307e+01 9.159982688017937846e+01 -4.369424331974577314e+01 -8.726079131017178270e+01 1.774001682568330125e+02 4.323075507664032102e+01 3.003756149633879602e+01 -7.573155044606276931e+01 -4.387385328962874098e+01 9.931739125122152956e+00 -7.415387631099824794e+00 -1.791713869953859160e+02 -3.586318529179443715e+01 6.678329674290085904e+01 1.157083749241302968e+02 1.613549501090149079e+02 -1.374006504349982016e+01 9.285652954289781746e+01 1.633787172647400041e+02 6.570954451457191681e+01 1.531168253430067523e+02 1.663364777105565295e+01 1.359530667595114153e+02 -8.690428437266375283e+01 5.525809115887637546e+01 3.038696932697061115e+01 7.851580179190717956e+01 -1.098761422424941259e+02 2.048060967057557491e+02 -1.332374930313076220e+02 9.128474463426481122e+01 -1.111062134137563930e+02 4.767977701141449387e+01 1.425604470936462320e+01 9.374970752220157522e+01 -7.613864006095758441e+01 -7.801066871319203244e+01 -1.154905161541844905e+01 9.201221504964476594e+01 -3.054724133252450358e+01 -1.684756413232116046e+01 -2.026818296256533714e+01 4.890698633748586488e+00 1.012771334785834227e+02 -6.456400139901911928e+01 -2.805868836898320229e+00 -1.997009728113071390e+02 1.254923907972805068e+02 -1.284722760821242957e+02 -7.602207679159674569e+01 -2.423337735412867389e+01 -1.110253962004447601e+02 -5.469895919307166565e+01 -6.024206595288471533e+01 -2.022205924348179451e+01 1.401974923740124837e+02 5.561110078506324328e+01 1.033252315129225565e+02 -1.399978285889567644e+02 -1.425619248056889603e+02 -2.946951317456295101e+02 1.050562098477300879e+02 1.072867194980212133e+02 4.346973712105905463e+01 -4.361336037690884382e+01 -3.830847714864007258e+01 -1.888933474240406838e+02 1.503589570080992814e+02 -1.105168961544305262e+02 1.100376260844499399e+02 -1.638277074803116875e+02 -1.471507912150656061e+01 -5.697201394212252978e+01 -1.226843078448024897e+02 -4.742306419780814508e+01 -1.282736886780957875e+01 -9.532499197018366033e+01 -1.065116438893804371e+02 -1.270865473920357935e+01 7.327444360730105188e+01 -1.282595935488726298e+02 -1.613332733497595228e+01 -7.590520856150357076e+01 -1.352435700205085993e+02 6.899233324346544904e+00 9.799190283830718329e+01 1.703333670447323129e+02 -1.963888715937184770e+01 -4.741266634255733692e+01 -1.277734390702261749e+02 -1.683627854313571390e+02 1.068097191590731256e+02 -7.489821790228583609e+01 8.137070916995898529e+01 9.685771146791473996e+00 3.013634605345964346e+01 7.605168342597048081e+01 -8.723510109922892752e+01 8.512102364901633678e+01 1.187092452126722435e+02 1.620954978646448978e+02 -1.201038727698833100e+02 1.070465675771602037e+02 -4.918317333937303459e+01 -9.351382740366065605e+01 2.209769881102946272e+02 5.075324537491352572e+01 8.597053953427615625e+01 2.195859905716125482e+01 -6.504131832367102106e+01 -3.598762939086829249e+01 -2.166817790419893015e+02 1.087962053915407523e+02 8.396676194746561350e+01 -7.797668476098832002e+01 -7.537188957531674305e+01 1.495642826038024964e+02 1.041040754175243279e+02 5.264670469482707205e+01 7.838193021057475107e+01 -8.157688787807918729e+00 1.063055125690722775e+02 -1.066282475870523143e+02 1.920425809185933019e+02 -4.067088120008285301e+01 -1.256522768655986368e+02 -3.877934287136404379e+01 7.390882930334488776e+01 1.517885072116541494e+02 1.334444243924479245e+01 1.790613666821500374e+02 5.379055782468321922e+01 3.461872680169930305e+01 -1.146849129304280694e+02 4.618089077832048872e+01 -1.288347426819292991e+02 4.911963286643855042e+01 3.983661641315514146e+01 -1.270459332541048383e+02 -8.760012190958165945e+01 4.102577645789013161e+01 8.990052145476330026e+00 -2.395095043529952150e+01 4.310311120797632611e+01 -2.204304714991312508e+01 -6.499971451448338655e+01 -2.689592678292119032e+01 -2.315291614480148041e+01 -4.103778902593040812e+01 1.935425082468431768e+01 -8.290632468135795818e+01 1.225512358614733301e+02 -7.659919492690114851e+01 -4.451887132328314678e+00 6.745571769038008370e+01 4.028117031326035935e+00 1.641578731869227425e+01 1.643262955340628295e+01 -1.206873994697342170e+02 -4.557989212240202370e+00 6.702190246970114629e+01 -2.384337817500665722e+02 -8.739590042924378110e+01 -1.161446011768218085e+02 4.510634536278734430e+01 9.913267040689454745e+01 -9.450700835357864094e+01 -1.729552264009525686e+02 -1.907007643950190925e+02 2.058364118027707690e+01 -1.493059228146324813e+02 -6.503434649678444757e+00 1.519723377524409216e+02 -7.336771619876159889e+00 3.824063435212337225e+01 -1.017866721679728101e+02 8.208682071183682183e+01 -1.218377116787313525e+02 -1.581605467437547752e+01 -3.114764149674407889e+01 5.909736194511641116e+01 -9.135855753008071289e+00 1.084472040840066711e+02 -1.251866976615506815e+02 -5.135652526205667101e+01 8.867882461017678963e+01 6.779621992294441668e+01 -8.440573126216939670e+01 -5.571555033593096340e+01 -5.053446088820743398e+01 -2.962559846592880035e+02 1.980947069064830259e+02 7.791475523879128673e+01 -2.416487426309949527e+01 -3.034186774863115232e+01 4.247689794133167140e+01 -8.609099205776057318e+01 1.017884869252968514e+02 6.177571550234240760e+01 8.386468166674153224e+01 -8.593301202244229842e+01 -2.717788844967355288e+01 3.408580857108858453e+01 1.775478937617407382e+01 -4.370964914625970721e+01 1.612113371872245011e+02 -1.766403350702862696e+01 3.611109443742721936e+01 -2.345582785646725767e+02 -8.645340034232870607e+01 -7.468126436721014727e+01 2.348395124909634646e+01 1.114191513661433390e+02 -2.363420291475553654e+02 -1.908212523680092261e+02 2.261786186543529027e+02 -1.078594822822332411e+01 9.803020442316875460e+01 6.402190187099776608e+01 -5.650273775255188724e+01 -1.336504344318005337e+02 -9.708435722931450584e+01 -5.128485765199686597e+01 -3.820713290244182758e+01 -3.994289865264040884e+01 1.651695963591761185e+01 3.786376785417289881e+01 1.701539179524450844e+02 1.256560473216266445e+02 7.043035802596232742e+00 -4.463188726698550823e+00 -1.620193992542643855e+02 1.220582792889539263e+02 1.625445609855694045e+02 -1.054763008548436147e+02 7.522160650287118244e+01 1.838419940574391287e+00 5.597663819053374823e+01 1.279917721858477506e+02 7.237127749217715689e+01 -1.367143124474765159e+02 1.648740960153890711e+01 -2.997836039521723706e+01 1.136234098408319682e+01 -2.366826638616933209e+01 4.628945202439758333e+01 -2.658274337781458598e+02 1.849631598983379774e+02 7.487423793689200302e+00 1.627718018793874251e+02 -1.080185738725289291e+01 1.084588577666001896e+02 7.316799879111547966e+01 -4.293070684250378122e+01 3.052370002991570175e+01 -7.436250617509892891e+01 -9.090868874343938444e+01 -7.368821656850478519e+01 -3.275769571547874648e+01 4.620291555144364537e+01 1.126679502617976425e+02 2.915843904843720580e+01 6.348137587855294584e+01 -1.072111827528732988e+02 -1.402937099443587670e+02 -1.379622070693378255e+01 4.749236733332146798e+01 -4.660855398058779286e+01 9.672286482027745080e+01 5.680546625808449335e+01 -2.830845227957845722e+01 3.066272921776778659e+01 6.280903998545986155e+01 -7.383897336737841499e+01 -1.369093974752741758e+02 1.454986935264013539e+02 8.005069739019129216e+00 5.136097203252047905e+01 -1.529159820370843192e+02 -5.471246119615251047e+01 -4.876875481346120145e-01 -6.731382208046220228e+01 4.384396836059703872e+00 5.768365476335847575e+01 1.911253447488965946e+02 4.011269514175010187e+01 -1.124587908418287263e+01 7.402244615938838024e+01 -4.666336784486064460e+01 -1.117990578764407417e+02 -1.418042532556773665e+02 9.624956850303350464e+00 2.577457372449355333e+01 2.440643782249046723e+01 -5.838990138371246275e+01 1.240724736213513779e+02 -8.302284273756770006e+01 1.318050886303180675e+02 8.968014128471541824e+01 -6.682505419844045491e+01 -8.698572271997961991e+01 8.650971139690928169e+01 2.107435088090423747e+01 -5.393448527784856594e+01 -5.536065038101336455e+01 1.404836577281498933e+02 5.890426874338625396e+01 8.212633851547028030e+01 2.688961214828642809e+01 -4.330165184142052226e+01 1.105774287159743636e+02 -5.613609382073344278e+01 5.362752433211884773e-01 7.881748254509122376e+01 1.024885319895963960e+02 2.629409070084898872e+02 -1.802906450231272970e+02 1.657285226960599118e+02 -6.963671607888416304e+01 -1.567647940717155031e+01 -2.577852905302366793e+01 -2.136221572129251811e+01 -5.688340125080380005e+01 9.575661137798543621e+01 1.897901886780996676e+02 -1.225260343495145889e+02 3.190518988404900824e+01 -1.309362162503627189e+02 7.243899083107072556e+01 -4.595206595811732342e+01 -8.360553194204787530e+01 -5.564222986483643041e+01 4.253124544679906904e+01 2.005122003630768290e+01 -8.457359526565292640e+01 -1.458848931988649724e+02 2.149191190499574589e+01 1.630847222838559674e+02 1.478435293494641556e+01 1.889112994261881795e+02 7.734764900924107955e+00 1.394182298941316844e+02 -3.584876688440318304e+01 9.397623831873244171e+01 -7.405188542539767127e+01 -1.170545480976658155e+02 5.126150292899092165e+01 -6.018650698083093431e+01 -8.145069413691571469e+01 7.567769300105190666e+01 6.672503273744842645e+00 -9.791632006254901910e+01 -1.563173390990963298e+02 1.536096602118879844e+02 -9.264972441422970917e+01 -2.419036949060535235e+00 1.248048834778559808e+02 6.035192678172300873e+01 -1.021059811978970799e+02 1.102978267129470069e+01 2.934060166624382191e+02 5.550181642878629162e+01 -1.641879927657791995e+02 -4.966260461015007621e+01 -6.408622686564207527e+01 1.004084078410841485e+01 1.120349111617889122e+02 -1.077798206688547964e+02 2.245326933996892649e+01 1.360062132311449261e+02 1.957509626933702762e+01 -2.202100380075977739e+02 5.043067699768049295e+01 7.869321903425198172e+01 -1.414426804201594123e+01 3.421305035866114963e+01 1.234321358476628688e-01 2.342994665657486664e+01 2.892415498805245022e+01 1.207645375407407329e+02 1.021977963423155416e+02 1.616944375163208392e+01 1.554214498176485506e+02 -6.676802035414925740e+01 2.572310928469861437e+02 6.781062324586564216e+01 1.477593060403445975e+02 -2.292573421468059180e+01 9.393263304354996990e+01 -5.120308712297651965e+01 -1.526910232460556642e+02 2.733983125411358017e+01 9.923713613657231747e+01 -9.143021387999505123e+01 -1.092739924425028875e+02 -6.942096229048000566e+01 3.816400554435983139e+01 -1.192186668769054023e+02 7.799248855747551090e+01 2.931305403892003270e+01 -1.018581354236869601e+02 1.982268799342051011e+02 -1.227721115692824760e+01 -1.061622322499316482e+02 -1.394405485562895741e+01 -2.132491332800077544e+01 -1.463543943380299766e+02 -4.179305046529186285e+01 6.417875250887074401e+01 1.375079476628332600e+02 3.026965104721208633e+01 2.794911357898951110e+01 4.674653165942820721e+01 -3.734231256238031449e+01 -1.519342566495463132e+02 1.652204759889245267e+01 3.237185943997258875e+01 1.388961534160960412e+02 -1.040171426382908670e+01 -7.948338003472619562e+01 7.641835835770466190e+01 1.053557603765683970e+00 3.339547389927370347e+01 1.454247237352680031e+02 -1.853608257932340280e+02 -9.691522728926520358e+01 1.301941473840132915e+02 -2.188304737546791046e+02 -1.865442765711923983e+02 9.226874387177082326e+01 1.561997766104606740e+02 6.426732685388157051e+01 -4.496923965288811331e+00 1.580324770566324730e+02 -2.226006400721811644e+02 1.086905875873291762e+02 4.298983687655638875e+01 1.288996763593709431e+02 -1.912921440085555389e+02 1.081384457951628377e+02 -2.871733744610579819e+01 -1.356190263646105905e+02 -5.405172387577128035e+00 -9.373996566329998359e+01 -1.659400568521022734e+01 -4.312342327264169661e+00 -1.249533077496009383e+02 -1.250830536919309139e+02 -6.347807664927304216e+01 -1.307847674265528894e+02 2.038854284820261569e+02 -1.632809751213331708e+02 -5.087811528385854842e+01 1.750028325408584351e+02 3.440708989686448405e+01 -3.002119768343572446e+02 -1.288727205372332492e+02 3.604453744562967898e+01 5.541805433206423004e+01 8.758509304346384639e+00 -1.568637534523945760e+02 3.619926849428393467e+01 7.553329056678803610e+00 -7.538930412764088373e+01 2.055923817235340039e+02 2.055108368075977978e+02 4.383210756187235546e+00 -2.114960157631608979e+02 1.277996829432008496e+02 3.122407177404635092e+01 3.775965779572811432e+00 7.774991618419936401e+01 -2.104178702041716349e+02 -1.400214366685740117e+02 1.430756369775262726e+02 1.112007003893742763e+02 5.370553287857216418e+01 1.453021069968096697e+02 -1.808075351475565640e+02 -2.070792354977041327e+01 -1.323135072202350955e+02 4.416870241361801419e+01 -1.053402880246253801e+02 8.827317057664929223e+01 -3.433595148654234919e+01 1.255715759813643650e+01 1.799493949892050182e+02 2.887095935389725909e+01 -2.673232135437800707e+02 -1.281391434856523119e+02 -8.454916512036001564e+01 1.603546916175562558e+02 1.271028978393444042e+01 -5.454173111857519274e+01 3.084844082468210047e+01 6.342756950433122398e+01 -4.016558100621134741e+01 1.090465069054263267e+02 -1.021638624546433363e+02 4.991292530695739771e+01 1.135165550853035938e+02 -3.590834093824795303e+01 -9.951831799013386615e+01 -1.150034577001511167e+02 1.214601352109446140e+02 -5.035188743039289960e+01 1.993468804976447188e+02 5.801774124330930960e+01 1.125411705243967475e+02 1.869826752285015061e+02 8.686354373281222507e+00 -1.260238140344570041e+02 -1.681457796119822774e+02 -1.158287408076866711e+02 4.305687638441754927e+01
-1.351115632601834271e+01 -4.753072879849541188e+00 1.026131921259195252e+02 -2.268724279396222130e+02 1.539653018343178701e+02 6.294849074957424762e+01 1.507113004553011137e+02 -1.279419687825303953e+02 -2.766824066467174603e+00 -2.385941864437133475e+01 -2.174209492523464746e+02 3.244719523559466978e+01 -1.815827134318336533e+01 1.211420231878971521e+02 -1.238621825867647459e+02 6.112821127468258453e+01 1.241448961073936488e+02 -4.550560576327801954e+01 -4.923186706346848496e+01 -2.682932589726293315e+01 6.110878428881381552e+01 6.254679632802857014e+01 3.210077396393376148e+01 -2.303584418759555206e+02 -5.116954940547389441e+01 9.060750195209615754e+01 9.805082595488302744e+00 -1.024102153514874480e+01 -6.591623320049593815e+01 -1.529227047887187929e+01 7.264780793277299153e+01 -1.440388361400121653e+02 -6.129979508456703741e+01 8.920874726386248454e+00 2.055190233482640281e+02 2.100284818101867756e+02 -3.173624406895921268e+01 5.535954869991538629e+01 -2.806678465939567158e-01 -1.383528527044337295e+02 9.508415679134044751e+01 1.062393833361530966e+02 1.074984768447142756e+02 1.159052374843254363e+01 6.132094577875408703e+01 4.767388721729980716e+01 3.852284503370822932e+01 2.903147952338176552e+01 1.092498310757209339e+02 8.888118770613638731e+01 6.499618656822494245e+01 1.614252599435357070e+02 2.452690545045464603e+02 1.937103055313467905e+02 -5.856364510595511774e+01 4.879810588567723073e+01 -6.369721534645860572e+01 5.589764174611512715e+01 -1.903038382708505196e+02 5.596675763826848282e+01 -2.028498559775247543e+02 -1.671075350394833379e+02 1.281551668023647572e+01 -9.139012588675115012e+00 1.679446129353028709e+02 -2.059427923023677636e+02 7.457809146223472396e+01 2.276181469112592879e+02 -7.235305444339938497e+00 -1.928373644908979259e+02 3.527489084700487609e+01 1.953806822358408226e+02 -6.052228241286975674e+01 -2.639480194542604181e+02 -1.016035640386893562e+02 8.725674578115443225e+00 -2.279501562058009938e+02 3.169812933112915943e+01 -1.778105288202096688e+02 -1.839139786070253990e+02 -5.656109147288593419e+01 1.511394956864690755e+02 6.891497543195626463e+01 1.050574817984412412e+01 -8.783321786432817646e+01 -4.224203262072260401e+01 6.321841002121877295e+01 -2.301016023900853327e+02 5.365661812245427598e+01 -7.441969489192163678e+01 -7.744419382235159333e+01 -1.753536282833733253e+02 6.458198942792402875e+01 9.203249333808523147e+01 -1.610423336472732103e+02 1.713815953991727667e+02 -3.959722247263747619e+01 -1.678234081016708501e+01 8.685246023678456595e+01 1.550864289742198423e+02 2.149615523387423366e+01 1.502776805271475382e+02 -1.830962044009113754e+01 -9.002048974270620363e+01 -1.947617500837325721e+01 1.003341072564945051e+02 4.588473719775765147e+01 9.981290690656612696e+01 9.632820215810657771e+01 -8.472338502042258312e+01 -1.733725015738141906e+02 1.255696758553188346e+02 5.536871954657156891e+01 1.646598472505182897e+01 3.120923793552110581e+01 -6.931918557677565218e+01 9.801694040181713774e+01 9.167571137400207704e+01 -1.393406000509373932e+01 -7.270782805701310281e+01 3.143191959396719781e+01 6.399614927641721351e+00 -6.283775346175322341e+01 1.730720669706238084e+02 -3.372438348298481969e+01 1.241710326498740784e+02 -7.160575324126723729e+01 3.919948005506857669e+01 -3.690249456755066859e+01 9.136257352666399356e+01 2.399632508504533490e+01 1.180602738989143461e+02 -1.184854273383164411e+02 7.595497821279607820e+01 1.261898233764123631e+02 -4.570544961613791202e+01 7.727737878590796861e+00 -1.290526908767560244e+01 1.193340622781690001e+02 3.582975849076392105e+00 1.724582154358785715e+02 -1.445743769178634466e+02 1.193195544505752679e+02 -9.343198161550664338e+01 9.790672636188654110e+01 -1.401722100369086945e+02 3.020200156937280767e+01 2.530231821217883237e+01 1.875180022069538488e+00 3.715228112374479963e+01 4.693438366306414622e+01 -1.273916102420783680e+01 1.101888879901471974e+01 1.106187105264152990e+02 1.302666300227942031e+02 -8.870101829730054988e+01 -5.552576246854145126e+01 4.850938635578023650e+01 1.588166826213254890e+00 -1.402119017345153793e+02 -5.638818041593270891e+01 -3.633540171246799133e+01 5.011454343370791520e+01 -6.717082078040910176e+01 2.349959920632499433e+01 1.642954550783267109e+02 -8.144093869855886680e+01 8.277214106495753754e+01 8.620277231396185869e+01 1.148804561833414084e+01 1.265407605778028568e+02 6.448183395855542699e+01 1.723393137148254937e+02 -3.540944910490720332e+01 1.153867772146182631e+02 5.697913195696101951e+01 -1.650551817210495997e+01 2.094974058712826945e+02 -1.424992978791244980e+02 5.017654815718329786e+01 -1.926028844793769963e+02 -8.646346450872221112e+01 4.212824048244603148e+01 -7.417472436763277699e+01 -1.601435759337371110e+02 2.048233474135291488e+02 -8.816373616175701500e+01 -4.881275486834240951e+01 -4.757882518364280600e+01 1.251613545197248243e+02 2.002698962593881049e+02 6.658616456791951066e+01 1.503883586398780210e+02 2.256628539337161783e+02 -1.685269253811175316e+00 1.675601445354128600e+02 7.291137586708116203e+01 1.958204743710613798e+02 -1.293479553081333506e+02 -1.222610630973895773e+01 6.507917283368419348e+00 1.953873727739946560e+02 -9.351767978573343498e+01 -6.216727890221454800e+01 -5.447280869447637031e+01 -1.377509270374989399e+02 4.792392595955829115e+00 -1.038295739195549743e+02 1.584746313508532580e+02 2.425670091560858310e+01 1.236449207798701444e+01 7.437833962577920488e+01 -5.091449685060665864e+00 1.202676624594495252e+02 -1.633699231037763013e+02 4.669021588619659724e+01 -1.757672350602597078e+02 1.207828531304227369e+02 9.873158457585884662e+01 -6.925744635988009179e+01 4.808246721167515858e+01 2.449442822647922355e+02 -3.131522534329116780e+01 4.285647884657304729e+01 -3.360225735691565774e+01 5.958904795732129145e+01 6.613923419512582313e+01 -6.443653119271294472e+00 1.048546847613537238e+02 1.044425519605955799e+02 -1.994087259551735087e+02 -1.576144596129513502e+02 -1.232098150509145995e+02 -9.736144512693526210e+00 -1.540733365255705678e+02 1.188303770787889846e+02 1.135066552196044114e+02 6.063000698603119787e+01 1.147523330913560358e+01 1.621686784332231070e+02 8.634330643307376363e+01 6.939712508114807576e+01 -1.045394420892101408e+02 1.566087373844801505e+02 -3.662993258430614407e+00 1.123948142793346818e+02 9.060780172074693439e+00 3.778166130503086606e+01 -7.784980875837595704e+01 -9.331145329526808041e+01 7.358422217550068467e+01 -3.924682233186546298e+00 1.503646771821846642e+02 -1.293479196788337759e+01 -2.943434539214999646e+00 4.712455342094794020e+01 2.327785414688134935e+01 1.453114524165979446e+02 1.500637155373887488e+01 3.681404732163565541e+01 -1.589439018647427133e+02 6.765650460218775208e+01 1.372897800874369238e+02 -1.818894444542243960e+01 -2.341189964907722185e+02 8.665129287543166470e+01 1.396354714473320371e+02 2.079794592829766486e+01 1.936262367270618654e+02 -4.205809296255055507e+00 4.393691875954132087e+01 -4.459250487980887812e+01 -1.418869438475184666e+02 5.724811187251577138e+01 -4.852838897915635386e+01 -8.289080176302664427e+01 4.211224236778758012e+01 -1.888252566185420278e+02 7.330183168687983652e+01 1.678511238015966001e+02 -1.033695670235866260e+02 1.765557326913683767e+02 -9.971777452128019092e+01 -6.118954244555170341e+00 -1.072022859337713463e+01 7.813486318557917798e+01 -4.748771809503315922e+01 -1.099673450518184126e+02 -9.025235562663631583e+01 1.485905164592483629e+02 6.023391977736155667e+01 -1.341962062705293022e+02 4.535541600810844898e+00 4.426287429473696022e+01 8.410196286298463519e+01 -4.107809626531265934e+01 6.110240634581200680e+01 -7.022229369480123751e+01 -1.653191262320315502e+02 -3.526231391951385774e+01 1.435075397826218762e+02 -1.153602636285664715e+02 -6.548708391201597756e+00 -1.658161406940278084e+02 -4.829650156706030373e+00 -1.484144647207446610e+02 3.344515187702859293e+01 6.115160348323303907e+01 -5.119567053183493499e+01 -8.381147232546825876e+01 5.721134194674652562e+00 7.563790445842222709e+01 -6.890283371407517166e+01 1.369542201106410459e+02 1.072185925590482753e+02 -1.297309420839523568e+02 -1.071552398311558534e+02 1.372549004442478804e+02 7.249575855519596246e+01 1.525589191748470341e+02 1.018614685386089747e+02 8.244779194165184322e+01 -6.118216491480434627e+01 -8.303524717826861945e+01 -7.824443365312210119e+01 2.075505676861101847e+02 3.095328856870640877e+01 -2.525255497268985749e+01 -6.954568258734089170e+01 -5.076449925599260382e+01 -1.330331968834227894e+02 -1.674444785615663989e+01 -1.772413490873069577e+02 1.263270883860768947e+02 4.650914024622591114e+01 -1.164349406807197056e+02 -4.887047476325408013e+01 1.209756331956108113e+02 -9.799179788879204978e+01 1.038611108432707937e+02 -1.196390103255883162e+02 -1.187890815639769038e+01 -9.646186849390510076e+01 9.059273659560957981e+01 -4.291025779821342923e+01 1.045910499359923129e+01 2.960579843176567394e+01 -1.279121260914785836e+02 1.262695257514409697e+01 4.878708692330550178e+01 -2.264903893596025597e+01 -6.941322331856096639e+01 2.044251785317362362e+02 8.727047233989090103e+01 4.759809788673299380e+01 -3.172372856521708329e+01 8.101466770721532384e+01 1.691775873749509742e+02 -9.317944723712518851e+01 2.114101118811037452e+02 -1.343454735614522519e+02 -1.856652200684121965e+02 1.533020109096784722e+02 -2.361257730158480683e+02 -1.023087632794102086e+00 -2.471944920510123040e+02 -1.543612574121556804e+02 7.241383864070029119e+01 -1.470074512276414680e+02 5.893161610018177754e+01 1.108814065056590152e+02 -1.618845414662509370e+02 -3.043557193858565313e+01 7.609152036575278544e+01 1.351751636088701787e+02 -1.877864105956708727e+02 8.825161569403381634e+01 -9.884915929287529934e+01 -9.977621172884523659e+00 -1.403013245069847059e+01 -8.032515534036321014e+01 -9.115907449084825487e+01 1.830342496409701312e+02 -2.185989713417041003e+01 1.336007620604853896e+00 1.314299090440354405e+02 -8.747228612770696543e+01 -3.475037608985465454e+01 -1.086736491594056986e+02 -4.932726105229095026e+01 5.247169631509169818e+00 6.000153831877383226e+01 -1.365302158317450392e+02 2.398384955033206154e+02 -5.454521944372618236e+01 1.241819441503695884e+02 -4.943470247175504539e+01 1.213286045284842203e+02 1.408453839983278328e+02 4.865613796895524246e+01 1.237372437583902212e+02 -4.380155225155320409e+01 1.418494852662413734e+02 -1.585435655802020847e+02 -6.628276655016142627e+01 -6.383841154775971205e+01 2.586353989014047627e+01 -1.645627038582896660e+02 7.356954708668604326e+01 -3.126478613369388881e+01 -8.379919478018189238e+01 9.087794088692326966e+01 -1.532208772553293556e+02 -9.248609916138282472e+01 -5.332099206674124048e+01 3.355441248221707440e+01 1.316629677626628165e+02 1.185409210085489207e+02 7.012518777444451246e+01 -1.652658198562765746e+00 1.773000526426705790e+02 1.242520119182437526e+02 -9.574141695916256367e+01 -7.927896404974980271e+01 5.629957830061570689e+01 1.014447302097173242e+01 9.935132062008692344e+01 1.689654047245806510e+02 7.156055606796823554e+01 2.470257687060884422e+01 -1.035945604570996750e+02 1.742020673095249776e+02 -1.152547269686897664e+02 -1.675494786073264777e+02 6.660812117134257448e+01 1.129814948864017765e+02 1.988317576623836302e+01 -1.407020399152550851e+02 3.014482676896084357e+01 4.300112823735491219e+01 -2.996912614626769944e-01 1.326233402074992682e+02 9.878590717093867113e+01 1.732356881913518976e+01 7.935171574664566663e+01 -1.084252240880073970e+02 -6.363848367899244352e+00 9.956224698628967928e+01 3.005180168926060702e+01 -6.585284684008733791e+01 2.004753869194678373e+02 2.339520670957431889e+02 -1.270936840783564890e+02 -2.793037772845777056e+01 -2.127909016036975061e+02 -7.305478390709782843e+01 1.585288021855446914e+02 3.467461851987013510e+00 -7.183039587919301994e+01 1.657621621122568172e+02 -6.327009744733197039e+01 -1.624800750539407090e+02 1.381427984924963255e+02 -6.802036778300973197e+01 3.482765128547897859e+01 8.736775833898057897e+01 1.392996007345221088e+01 -2.409256617398424680e+02 4.275094144370624605e+01 -6.180163051851705447e+00 9.107800124663170038e+01 -2.382369951987614698e+01 1.023245994469741333e+02 1.714146896523264729e+01 -8.574098344745080169e+01 -2.069837136074184514e+01 -1.771576314612190686e+02 1.162769421416152795e+02 2.554352653499678283e+01 -4.209781769399091900e+01 -5.239294616395140025e+01 -6.354374506173196124e+01 4.154173846229907241e+01 1.624559606082825383e+02 1.341709970498202154e+02 4.355922850736296681e+01 -2.000365503427752287e+02 -3.921885006062506562e+01 4.428725432656339933e+01 1.186484939169515940e+02 8.821090831741398119e+01 1.563521736693313180e+01 -1.881036059481285463e+02 1.331961109567057520e+02 -2.262374406686347186e+02 -2.080843734164865850e+02 -1.878985333445816419e+00 -7.459685889455853669e+01 -2.432521214883248817e+01 8.810150584587482570e+01 5.654326682090189848e+01 -1.124556225069713378e+02 -1.531099003646955055e+02 1.476409688532493547e+01 1.250633595471800561e+02 2.095395866358884263e+01 -5.733903088852039787e+01 -5.216517349796163927e+01 -1.194260973403971704e+01 1.631613917379787324e+02 2.263035066649135629e+01 -1.787034201212653670e+02 1.319971994736095837e+02 -6.872757215716160317e+01 -4.299866863139431672e+00 1.584986361884793098e+02 -5.385502858778703938e+01 -2.014737271083547299e+01 -1.130640022901013850e+02 -6.190427926339288511e+00 -2.456463268042717729e+01 1.355906562923372576e+02 1.236296103232747754e+02 6.956054921266151325e+01 6.730943805137795266e+01 -1.926495247994899174e+01 1.392136050583261522e+02 -1.160372908067471940e+02 -4.393936420617819749e+00 -9.372175837621350070e+01 1.617789614805457177e+02 7.509070201892143359e+01 5.322898376858365310e+01 8.537417173120191549e+00 -5.482433431284292169e+01 3.539245079498900992e+01 6.965154803059336430e+00 3.672531056098434554e+00 2.483477530289486879e+01 6.152542879145891419e+01 1.752259875784751557e+02 -3.994011094199778000e+01 -5.351848523715633377e+01 6.872822263544907173e+01 1.190541851454926956e+02 -1.317795186052963530e+01 9.458218739794000385e+01 1.070195131207089361e+02 2.168571883049151268e+02 -8.906976149028456291e+01 -1.262724413396629899e+02 -2.946182656913017794e+01 6.392481668831626251e+01 -1.043943784782811868e+01 1.105277262987454776e+02 3.829856519424635053e+01 -1.673221935246496628e+02 4.636284842436403864e+01 -9.203179922107266009e+01 -1.391842333314267250e+02 1.383468883365326576e+02 -7.817361604747040360e+01 6.080359774658749927e+01 1.143886403758249628e+02 -1.018633093627367288e+02 2.411798348074020026e+01 -7.418484867252361425e+01 4.137320400205877746e+01 -1.177533884060076304e+02 6.326487202885369499e+01 5.617121228779363662e+01 4.061701548049661881e+00 8.641413962626329237e+01 -1.571756833834140821e+02 7.848392132966070278e+01 -3.001368333372134245e+01 -1.723285732515859934e+02 9.634807999794325895e+01 2.499374344796741099e+01 -2.001274416327148913e+02 2.399354113345022199e+02 -5.367484035893171912e-01 1.072882326792510810e+02 -1.230232734002261878e+02 -1.981000499503575156e+02 -9.518543491096947662e+01 2.509913352596595093e+00 1.457896660889888665e+02 4.115468158704432611e+00 -9.747771074536872504e+01 5.145204060302293669e+01 1.397960209895537673e+02 6.630490139406214212e+01 -5.280047488148424861e+01 -6.032096462575398021e+01 8.620634097642164306e+01 3.139065744388373247e+01 -1.994426163716295264e+02 -2.115173728718330537e+01 1.724368689855529055e+02 1.008410901834312483e+02 -5.845777463813994501e+01 -1.140473652077128150e+02 -4.354417474715938141e+01 -4.904434186188925082e+01 -1.167504165330037580e+02 -1.888513893037785962e+01 -4.658281695853570170e+01 -1.158911757633994029e+02 -1.344980640830883090e+02 -2.744766715738893836e+01 -1.281691553076285288e+02 -1.364287562854511862e+02 -3.909990672381766785e+01 -5.647951091060561879e+01 -1.132025951412084339e+02 1.967646250455033794e+02 1.113717740447844484e+01 -2.974454553872161000e+01 -1.798743377251761899e+01 8.315230757010434104e+01 1.652208178800054128e+01 2.647700621970717094e+01 -2.253478028373996978e+01 -4.883110175253860774e+01 2.212058300607744599e+01 -1.536399204335186539e+02 -1.682886974564476930e+02 -9.562889047041424817e+01 -2.017310147042550454e+02 -9.474841014441859954e+01 9.073107221820740165e+01 6.487856989277868536e+01 -2.755952187837020873e+01 6.423922024898296002e+01 -1.654643875167668625e+02 -4.310598682288679129e+01 -1.227394848606501796e+02 -7.056683404145479699e+01 2.229318844130864647e+02 -2.169993880589092896e+02 2.169829662593599835e+02 2.644704479732729041e+01 -5.971937285876543910e+01 9.754840417110396800e+01 1.311688164966651584e+02 -5.485551241820337509e+01 -2.153252614403326675e+02 -1.576107966256153077e+02 1.080917007385895658e+02 8.854555465066636089e+01 -1.433392523104773773e+02 3.380096509479038502e+01 -4.190973143512943011e+01 -8.181642150413944137e+01 -3.004397902846784518e+01 -5.797050108912960553e+01 -9.139176791033018787e+01 -3.595959071769271276e+01 4.699342979979685531e+00 -3.461007784020041811e+01 -4.380637707877433895e-01 -1.521068081639030467e+01 9.726050063912242649e+01 1.343109252819500057e+02 1.392816921106746619e+01 1.773692906030973049e+01 -6.668248124066825255e+01 -2.071780650914844557e+02 3.579079690982643314e+01 -9.698749030602947130e+01 2.729282310476633455e+01 -8.691300105636265982e+00 1.045554474429456704e+00 7.632315287924768654e+01 1.288249504487248203e+02 -7.446434396729723915e+01 4.016732007999423359e+01 -2.037973601800421193e+02 1.020743324219942316e+01 7.446120874077267970e+00 -1.295295896440923968e+02 -3.566480500386270336e+01 -4.685572897183322993e+01 5.051147635697478044e+00 -1.080957703422603942e+02 2.860415784160209896e+01 -1.032316281945271186e+02 5.936600059527769702e+01 7.169762859598259297e+01 3.897045589300346080e+01 -3.067607736454484879e+01 1.135522075919437555e+02 6.452480021037148106e+01 8.453709325830540422e+01 -7.078512562429484944e+01 2.148338919204533326e+01 1.351557300694852017e+02 -6.176663779315940417e+01 -7.300098602281431148e+00 3.380621358128348675e+01 -1.356350548311877446e+02 1.033532082213447438e+02 9.462040793712188247e+01 -1.067919015182400955e+02 -8.698598751697340958e+01 -5.862383042653465992e+01 -4.805829766868603059e+01 -1.692807410692929295e+02 -1.435430663716117863e+02 -1.398533802868869884e+02 1.115479907947998299e+02 6.307088112665155677e+01 1.683590290850733879e+02 7.586836554770854057e+00 -9.053106883927021897e+01 1.974622480757927789e+01 1.460007719768083057e+01 -6.696901957215733603e+01 7.812012492507793127e+01 1.245450938623329193e+02 1.056478453568264797e+01 1.513018959644184918e+02 2.375856605797724797e+01 1.170298896872663050e+02 1.594024980139207415e+01 -2.190881639418000191e+02 2.302476467887039462e+02 -5.159525684712766491e+01 -1.572496916753152334e+02 -7.082907512597195421e+01 -4.529007761342475646e+01 4.335310397684633443e+01 2.682910889054304704e+01 4.793433509031738282e+01 -7.771058002436599565e+01 1.282326047273476206e+02 -9.036891302680096771e+01 -7.341119012904865571e+00 1.492194418051377625e+02 1.148051716203450923e+02 6.067966397637209042e+01 -1.852299307864525417e+02 2.660649100788481647e+01 1.468694857928647082e+02 2.451149350687565232e+01 1.019897746334307840e+02 1.112010779428618577e+02 -2.207190139765495474e+02 8.030694452424671681e+01 -6.027929366933460642e+01 -2.346329857473648417e+02 9.227457746932793725e+01 2.561793133639357123e+01 -1.266001559987827392e+02 -6.067819321066843230e+01 1.436524683029131211e+02 1.524094571941560901e+02 -7.820460567626916770e+01 -1.317156044009784353e+02 -8.592086456633226987e+01 -1.706198801263894325e+02 2.009438326813321751e+01 3.891430251978847821e+01 -1.734677560635491034e+01 -1.267687989051895769e+01 -9.159888823656793022e+01 -9.042872933843131023e+01 -2.517617182520671193e+01 1.364550099658276281e+02 1.387420568062929647e+02 8.254133538751069921e+01 9.866134741430029464e+01 -7.985640870203469888e+01 -1.831419176575951724e+02 -1.344071489667609498e+01 -2.350386475168851774e+01 -7.187294381270832844e+01 1.525957675283113657e+00 7.398853894866158498e+01 -5.358941506392059750e+01 2.490449735660162744e+01 8.014932832771947346e+01 7.095414449708368920e+01 1.118670342353905340e+02 -1.510332731029307070e+02 4.013478520674000549e+01 8.433601578983844149e+01 9.592504034079794906e+01 5.981370192522194174e+01 -1.045119325848285854e+02 1.386304289804197936e+02 1.290107070190902334e+02 9.700378757733830071e+01 1.027744849122490933e+02 -8.527189940601934381e+01 -1.506468570588623912e+01 -1.307056066330373056e+01 7.802316867829915736e+01 6.576236167267431654e+01 5.662341413009537661e+01 9.880005488784610179e+01 1.178872031517698105e+02 1.253518581934296208e+02 -6.574875253428113808e+01 8.157535219500451262e+01 6.606123048299154732e+01 -1.191021500312405266e+02 1.332200752918270439e+02 -1.017313024717188696e+01 -2.825784744091614442e+01 2.017452939493584267e+02 8.956294026199364566e+01 1.256595885651565538e+02 -1.461752847212985387e+02 -1.598232644554942681e+02 -1.558161624318414056e+02 -1.238157511868726175e+02 -4.488155466807879890e+01 1.113524528121054544e+02 -1.709843508586979510e+02 3.300577391649022729e+01 1.464214225637302320e+02 -6.019308351328378137e+01 -9.270110815622368250e+01 -3.562106717965249914e+01 1.379526437649103912e+02 2.307888075205791267e+02 -6.763753643750169431e+01 2.011696630263450203e+01 -2.814730502241610210e+01 6.957196547052400604e+01 6.124227795098011740e+01 -2.166717502739045642e+02 -9.010181612375770044e+01 1.398244470303476703e+02 1.421193245432450567e+02 9.611484447560310684e+01 -5.062070637287302333e+01 -7.710465593136521534e+01 -4.620496651107855968e+01 -1.795208858477522540e+02 7.240356770052413538e+01 -2.613081701367516985e+01 1.692916581442721622e+02 -2.840432853072962160e+01 -3.200665342584853192e+02 1.474562376234735268e+02 5.124353407297191865e+01 -1.200948699765772147e+02 -2.251854964625809430e+01 3.595917903551026740e+01 -2.114224145632666705e+02 -1.163791976860727004e+02 -1.115663127645639463e+02 -5.749972483907549758e+01 6.397997944374873214e+01 -1.678431598979236128e+02 1.099588451147819086e+02 -5.532114132127222916e+01 2.952756389953194560e+00 -1.359107794977848584e+02 -1.054959292472603494e+02 1.791757408902258533e+02 8.829622739405414222e+01 -4.303861066515994338e+01 3.790311887243714750e+01 -2.860413926514318561e+01 4.401611586108071350e+01 -1.066289466792864005e+02 1.007023741020683048e+02 5.150446332702354368e+01 -1.212288618900549437e+02 1.190424051166634882e+02 -5.012251235593542020e+01 1.018846436692557376e+02 -5.039301183079828661e+01 9.015074062849234338e+01 -1.564690092889419475e+02 1.455254453100980925e+02 2.527401756525843624e+01 1.026469693869898947e+02 1.330295695190942808e+02 -1.496021116926439447e+02 -8.763219618590532889e+01 -1.077723419325589305e+02 6.825072307184296960e+01 -1.748471304943926725e+02 1.545520206416222777e+02 1.453541971618313937e+02 5.408621221243200239e+01 -8.665264853829718561e+01 5.823146222966896346e+01 -1.095074645282788737e+02 -1.120029110496725799e+01 3.573063634371583674e+01 -1.875952836631153104e+02 -8.332663429613093342e+01 -1.382126835639728313e+01 1.043911252741937545e+02 -5.126598995422269667e+01 1.109919455664778951e+02 -6.572864737004083224e+01 -2.153628516769461214e+02 -1.094109485933893495e+02 -3.484332106434077758e+01 -6.150765546441868992e+01 3.076620624676611371e+01 5.247272644966352573e+01 6.499222142191609208e+00 2.581551913745536098e+01 -1.198576977254442824e+02 5.499712440165812666e+01 3.334892630574541528e+01 -7.382003619444424203e+01 9.453061652346068655e+00 5.754546939761564772e+01 -9.757257441021933175e+01 -5.630666717735634563e+01 -2.466978159924254399e+01 9.983708078855160295e+01 -1.751814949756310469e+01 4.287600812838454623e+00 -2.332491210737161964e+02 -9.724239747481919949e+01 1.012033669504838116e+02 -9.133982766777648976e+01 3.207087896240953029e+01 3.179345461316965782e+01 3.884577172002121870e+01 6.762961415953236610e+01 -1.816049646828051038e+02 1.473276630847309434e+02 8.334006922136586581e+01 -7.676052138509885658e+00 -8.270926350021809981e+01 1.145889512723925776e+02 6.355680036124848442e+01 -2.058128963959461828e+02 -5.158620203515007319e+01 -8.360416120703885667e+01 -5.309542063309663718e+01 -6.343205180785027864e+01 -1.014405486345750376e+02 -6.181512240269918834e+01 1.960184697072211009e+02 -1.748792906275441226e+02 6.705693048381363042e+01 2.840058267334605091e+01 -7.696151579240242313e+01 1.062019243633300825e+01 -4.034362873098048397e+01 3.501765168227006342e+00 -9.841673599713519138e+01 -2.022679566612183066e+02 1.883251984279437252e+01 4.293154164428854358e+01 -1.310901195427778099e+01 -9.276874696591736580e+00 -4.073894499465220775e+01 -1.945230466682332633e+02 -3.140164902931502056e+01 -6.695136401489973821e+01 1.432663062584405544e+01 -1.598269533769618356e+01 9.270997543153188758e+01 -6.455649858434223631e+01 -1.062232289427844023e+02 -3.664277464955173258e+01 -9.256448709763972715e+00 4.665583437359107677e+01 -2.269682704261406769e+01 -7.547955171519910778e+01 -1.625397605471322038e+01 2.057154261678634555e+01 4.866317122903308956e+01 -1.168207013588188659e+02 -1.424463775856251573e+02 2.359821955239114004e+02 -2.236235144091393465e+02 -7.783905138080270092e+01 -4.750183669279373788e+01 1.433185939466872867e+02 6.484770402862972105e+01 2.344737256577874120e+02 2.507852285811929676e+02 -6.385767935544309637e+01 1.326960172283126838e+02 -5.728845952040301626e+01 -4.181305037404573000e+01 -1.031647780272561619e+02 -8.182649162829612521e+01 -7.131829844126728801e+01 -9.118315911394157069e+01 -2.498168312455647140e+02 -2.776215188671924921e+02 1.380572715456095807e+02 -2.717892426015202290e+01 5.458496823239028828e+01 1.340885694065645737e+02
