# 
#                 ----------------------------------------------------
#                 Data from a 3D direct N-body simulation. 
# 
#                 rows are i-particle; 
#                 coumns are :mass, tag, x ,y, z, vx, vy, vz, ax, ay, az
# 
#                 NTHU, Computational Physics Lab
# 
#                 ----------------------------------------------------
#                 Time = 4.299999999999953
1.000000000000000000e+00 2.000000000000000000e+00 3.000000000000000000e+00 4.000000000000000000e+00 5.000000000000000000e+00 6.000000000000000000e+00 7.000000000000000000e+00 8.000000000000000000e+00 9.000000000000000000e+00 1.000000000000000000e+01 1.100000000000000000e+01 1.200000000000000000e+01 1.300000000000000000e+01 1.400000000000000000e+01 1.500000000000000000e+01 1.600000000000000000e+01 1.700000000000000000e+01 1.800000000000000000e+01 1.900000000000000000e+01 2.000000000000000000e+01 2.100000000000000000e+01 2.200000000000000000e+01 2.300000000000000000e+01 2.400000000000000000e+01 2.500000000000000000e+01 2.600000000000000000e+01 2.700000000000000000e+01 2.800000000000000000e+01 2.900000000000000000e+01 3.000000000000000000e+01 3.100000000000000000e+01 3.200000000000000000e+01 3.300000000000000000e+01 3.400000000000000000e+01 3.500000000000000000e+01 3.600000000000000000e+01 3.700000000000000000e+01 3.800000000000000000e+01 3.900000000000000000e+01 4.000000000000000000e+01 4.100000000000000000e+01 4.200000000000000000e+01 4.300000000000000000e+01 4.400000000000000000e+01 4.500000000000000000e+01 4.600000000000000000e+01 4.700000000000000000e+01 4.800000000000000000e+01 4.900000000000000000e+01 5.000000000000000000e+01 5.100000000000000000e+01 5.200000000000000000e+01 5.300000000000000000e+01 5.400000000000000000e+01 5.500000000000000000e+01 5.600000000000000000e+01 5.700000000000000000e+01 5.800000000000000000e+01 5.900000000000000000e+01 6.000000000000000000e+01 6.100000000000000000e+01 6.200000000000000000e+01 6.300000000000000000e+01 6.400000000000000000e+01 6.500000000000000000e+01 6.600000000000000000e+01 6.700000000000000000e+01 6.800000000000000000e+01 6.900000000000000000e+01 7.000000000000000000e+01 7.100000000000000000e+01 7.200000000000000000e+01 7.300000000000000000e+01 7.400000000000000000e+01 7.500000000000000000e+01 7.600000000000000000e+01 7.700000000000000000e+01 7.800000000000000000e+01 7.900000000000000000e+01 8.000000000000000000e+01 8.100000000000000000e+01 8.200000000000000000e+01 8.300000000000000000e+01 8.400000000000000000e+01 8.500000000000000000e+01 8.600000000000000000e+01 8.700000000000000000e+01 8.800000000000000000e+01 8.900000000000000000e+01 9.000000000000000000e+01 9.100000000000000000e+01 9.200000000000000000e+01 9.300000000000000000e+01 9.400000000000000000e+01 9.500000000000000000e+01 9.600000000000000000e+01 9.700000000000000000e+01 9.800000000000000000e+01 9.900000000000000000e+01 1.000000000000000000e+02 1.010000000000000000e+02 1.020000000000000000e+02 1.030000000000000000e+02 1.040000000000000000e+02 1.050000000000000000e+02 1.060000000000000000e+02 1.070000000000000000e+02 1.080000000000000000e+02 1.090000000000000000e+02 1.100000000000000000e+02 1.110000000000000000e+02 1.120000000000000000e+02 1.130000000000000000e+02 1.140000000000000000e+02 1.150000000000000000e+02 1.160000000000000000e+02 1.170000000000000000e+02 1.180000000000000000e+02 1.190000000000000000e+02 1.200000000000000000e+02 1.210000000000000000e+02 1.220000000000000000e+02 1.230000000000000000e+02 1.240000000000000000e+02 1.250000000000000000e+02 1.260000000000000000e+02 1.270000000000000000e+02 1.280000000000000000e+02 1.290000000000000000e+02 1.300000000000000000e+02 1.310000000000000000e+02 1.320000000000000000e+02 1.330000000000000000e+02 1.340000000000000000e+02 1.350000000000000000e+02 1.360000000000000000e+02 1.370000000000000000e+02 1.380000000000000000e+02 1.390000000000000000e+02 1.400000000000000000e+02 1.410000000000000000e+02 1.420000000000000000e+02 1.430000000000000000e+02 1.440000000000000000e+02 1.450000000000000000e+02 1.460000000000000000e+02 1.470000000000000000e+02 1.480000000000000000e+02 1.490000000000000000e+02 1.500000000000000000e+02 1.510000000000000000e+02 1.520000000000000000e+02 1.530000000000000000e+02 1.540000000000000000e+02 1.550000000000000000e+02 1.560000000000000000e+02 1.570000000000000000e+02 1.580000000000000000e+02 1.590000000000000000e+02 1.600000000000000000e+02 1.610000000000000000e+02 1.620000000000000000e+02 1.630000000000000000e+02 1.640000000000000000e+02 1.650000000000000000e+02 1.660000000000000000e+02 1.670000000000000000e+02 1.680000000000000000e+02 1.690000000000000000e+02 1.700000000000000000e+02 1.710000000000000000e+02 1.720000000000000000e+02 1.730000000000000000e+02 1.740000000000000000e+02 1.750000000000000000e+02 1.760000000000000000e+02 1.770000000000000000e+02 1.780000000000000000e+02 1.790000000000000000e+02 1.800000000000000000e+02 1.810000000000000000e+02 1.820000000000000000e+02 1.830000000000000000e+02 1.840000000000000000e+02 1.850000000000000000e+02 1.860000000000000000e+02 1.870000000000000000e+02 1.880000000000000000e+02 1.890000000000000000e+02 1.900000000000000000e+02 1.910000000000000000e+02 1.920000000000000000e+02 1.930000000000000000e+02 1.940000000000000000e+02 1.950000000000000000e+02 1.960000000000000000e+02 1.970000000000000000e+02 1.980000000000000000e+02 1.990000000000000000e+02 2.000000000000000000e+02 2.010000000000000000e+02 2.020000000000000000e+02 2.030000000000000000e+02 2.040000000000000000e+02 2.050000000000000000e+02 2.060000000000000000e+02 2.070000000000000000e+02 2.080000000000000000e+02 2.090000000000000000e+02 2.100000000000000000e+02 2.110000000000000000e+02 2.120000000000000000e+02 2.130000000000000000e+02 2.140000000000000000e+02 2.150000000000000000e+02 2.160000000000000000e+02 2.170000000000000000e+02 2.180000000000000000e+02 2.190000000000000000e+02 2.200000000000000000e+02 2.210000000000000000e+02 2.220000000000000000e+02 2.230000000000000000e+02 2.240000000000000000e+02 2.250000000000000000e+02 2.260000000000000000e+02 2.270000000000000000e+02 2.280000000000000000e+02 2.290000000000000000e+02 2.300000000000000000e+02 2.310000000000000000e+02 2.320000000000000000e+02 2.330000000000000000e+02 2.340000000000000000e+02 2.350000000000000000e+02 2.360000000000000000e+02 2.370000000000000000e+02 2.380000000000000000e+02 2.390000000000000000e+02 2.400000000000000000e+02 2.410000000000000000e+02 2.420000000000000000e+02 2.430000000000000000e+02 2.440000000000000000e+02 2.450000000000000000e+02 2.460000000000000000e+02 2.470000000000000000e+02 2.480000000000000000e+02 2.490000000000000000e+02 2.500000000000000000e+02 2.510000000000000000e+02 2.520000000000000000e+02 2.530000000000000000e+02 2.540000000000000000e+02 2.550000000000000000e+02 2.560000000000000000e+02 2.570000000000000000e+02 2.580000000000000000e+02 2.590000000000000000e+02 2.600000000000000000e+02 2.610000000000000000e+02 2.620000000000000000e+02 2.630000000000000000e+02 2.640000000000000000e+02 2.650000000000000000e+02 2.660000000000000000e+02 2.670000000000000000e+02 2.680000000000000000e+02 2.690000000000000000e+02 2.700000000000000000e+02 2.710000000000000000e+02 2.720000000000000000e+02 2.730000000000000000e+02 2.740000000000000000e+02 2.750000000000000000e+02 2.760000000000000000e+02 2.770000000000000000e+02 2.780000000000000000e+02 2.790000000000000000e+02 2.800000000000000000e+02 2.810000000000000000e+02 2.820000000000000000e+02 2.830000000000000000e+02 2.840000000000000000e+02 2.850000000000000000e+02 2.860000000000000000e+02 2.870000000000000000e+02 2.880000000000000000e+02 2.890000000000000000e+02 2.900000000000000000e+02 2.910000000000000000e+02 2.920000000000000000e+02 2.930000000000000000e+02 2.940000000000000000e+02 2.950000000000000000e+02 2.960000000000000000e+02 2.970000000000000000e+02 2.980000000000000000e+02 2.990000000000000000e+02 3.000000000000000000e+02 3.010000000000000000e+02 3.020000000000000000e+02 3.030000000000000000e+02 3.040000000000000000e+02 3.050000000000000000e+02 3.060000000000000000e+02 3.070000000000000000e+02 3.080000000000000000e+02 3.090000000000000000e+02 3.100000000000000000e+02 3.110000000000000000e+02 3.120000000000000000e+02 3.130000000000000000e+02 3.140000000000000000e+02 3.150000000000000000e+02 3.160000000000000000e+02 3.170000000000000000e+02 3.180000000000000000e+02 3.190000000000000000e+02 3.200000000000000000e+02 3.210000000000000000e+02 3.220000000000000000e+02 3.230000000000000000e+02 3.240000000000000000e+02 3.250000000000000000e+02 3.260000000000000000e+02 3.270000000000000000e+02 3.280000000000000000e+02 3.290000000000000000e+02 3.300000000000000000e+02 3.310000000000000000e+02 3.320000000000000000e+02 3.330000000000000000e+02 3.340000000000000000e+02 3.350000000000000000e+02 3.360000000000000000e+02 3.370000000000000000e+02 3.380000000000000000e+02 3.390000000000000000e+02 3.400000000000000000e+02 3.410000000000000000e+02 3.420000000000000000e+02 3.430000000000000000e+02 3.440000000000000000e+02 3.450000000000000000e+02 3.460000000000000000e+02 3.470000000000000000e+02 3.480000000000000000e+02 3.490000000000000000e+02 3.500000000000000000e+02 3.510000000000000000e+02 3.520000000000000000e+02 3.530000000000000000e+02 3.540000000000000000e+02 3.550000000000000000e+02 3.560000000000000000e+02 3.570000000000000000e+02 3.580000000000000000e+02 3.590000000000000000e+02 3.600000000000000000e+02 3.610000000000000000e+02 3.620000000000000000e+02 3.630000000000000000e+02 3.640000000000000000e+02 3.650000000000000000e+02 3.660000000000000000e+02 3.670000000000000000e+02 3.680000000000000000e+02 3.690000000000000000e+02 3.700000000000000000e+02 3.710000000000000000e+02 3.720000000000000000e+02 3.730000000000000000e+02 3.740000000000000000e+02 3.750000000000000000e+02 3.760000000000000000e+02 3.770000000000000000e+02 3.780000000000000000e+02 3.790000000000000000e+02 3.800000000000000000e+02 3.810000000000000000e+02 3.820000000000000000e+02 3.830000000000000000e+02 3.840000000000000000e+02 3.850000000000000000e+02 3.860000000000000000e+02 3.870000000000000000e+02 3.880000000000000000e+02 3.890000000000000000e+02 3.900000000000000000e+02 3.910000000000000000e+02 3.920000000000000000e+02 3.930000000000000000e+02 3.940000000000000000e+02 3.950000000000000000e+02 3.960000000000000000e+02 3.970000000000000000e+02 3.980000000000000000e+02 3.990000000000000000e+02 4.000000000000000000e+02 4.010000000000000000e+02 4.020000000000000000e+02 4.030000000000000000e+02 4.040000000000000000e+02 4.050000000000000000e+02 4.060000000000000000e+02 4.070000000000000000e+02 4.080000000000000000e+02 4.090000000000000000e+02 4.100000000000000000e+02 4.110000000000000000e+02 4.120000000000000000e+02 4.130000000000000000e+02 4.140000000000000000e+02 4.150000000000000000e+02 4.160000000000000000e+02 4.170000000000000000e+02 4.180000000000000000e+02 4.190000000000000000e+02 4.200000000000000000e+02 4.210000000000000000e+02 4.220000000000000000e+02 4.230000000000000000e+02 4.240000000000000000e+02 4.250000000000000000e+02 4.260000000000000000e+02 4.270000000000000000e+02 4.280000000000000000e+02 4.290000000000000000e+02 4.300000000000000000e+02 4.310000000000000000e+02 4.320000000000000000e+02 4.330000000000000000e+02 4.340000000000000000e+02 4.350000000000000000e+02 4.360000000000000000e+02 4.370000000000000000e+02 4.380000000000000000e+02 4.390000000000000000e+02 4.400000000000000000e+02 4.410000000000000000e+02 4.420000000000000000e+02 4.430000000000000000e+02 4.440000000000000000e+02 4.450000000000000000e+02 4.460000000000000000e+02 4.470000000000000000e+02 4.480000000000000000e+02 4.490000000000000000e+02 4.500000000000000000e+02 4.510000000000000000e+02 4.520000000000000000e+02 4.530000000000000000e+02 4.540000000000000000e+02 4.550000000000000000e+02 4.560000000000000000e+02 4.570000000000000000e+02 4.580000000000000000e+02 4.590000000000000000e+02 4.600000000000000000e+02 4.610000000000000000e+02 4.620000000000000000e+02 4.630000000000000000e+02 4.640000000000000000e+02 4.650000000000000000e+02 4.660000000000000000e+02 4.670000000000000000e+02 4.680000000000000000e+02 4.690000000000000000e+02 4.700000000000000000e+02 4.710000000000000000e+02 4.720000000000000000e+02 4.730000000000000000e+02 4.740000000000000000e+02 4.750000000000000000e+02 4.760000000000000000e+02 4.770000000000000000e+02 4.780000000000000000e+02 4.790000000000000000e+02 4.800000000000000000e+02 4.810000000000000000e+02 4.820000000000000000e+02 4.830000000000000000e+02 4.840000000000000000e+02 4.850000000000000000e+02 4.860000000000000000e+02 4.870000000000000000e+02 4.880000000000000000e+02 4.890000000000000000e+02 4.900000000000000000e+02 4.910000000000000000e+02 4.920000000000000000e+02 4.930000000000000000e+02 4.940000000000000000e+02 4.950000000000000000e+02 4.960000000000000000e+02 4.970000000000000000e+02 4.980000000000000000e+02 4.990000000000000000e+02 5.000000000000000000e+02 5.010000000000000000e+02 5.020000000000000000e+02 5.030000000000000000e+02 5.040000000000000000e+02 5.050000000000000000e+02 5.060000000000000000e+02 5.070000000000000000e+02 5.080000000000000000e+02 5.090000000000000000e+02 5.100000000000000000e+02 5.110000000000000000e+02 5.120000000000000000e+02 5.130000000000000000e+02 5.140000000000000000e+02 5.150000000000000000e+02 5.160000000000000000e+02 5.170000000000000000e+02 5.180000000000000000e+02 5.190000000000000000e+02 5.200000000000000000e+02 5.210000000000000000e+02 5.220000000000000000e+02 5.230000000000000000e+02 5.240000000000000000e+02 5.250000000000000000e+02 5.260000000000000000e+02 5.270000000000000000e+02 5.280000000000000000e+02 5.290000000000000000e+02 5.300000000000000000e+02 5.310000000000000000e+02 5.320000000000000000e+02 5.330000000000000000e+02 5.340000000000000000e+02 5.350000000000000000e+02 5.360000000000000000e+02 5.370000000000000000e+02 5.380000000000000000e+02 5.390000000000000000e+02 5.400000000000000000e+02 5.410000000000000000e+02 5.420000000000000000e+02 5.430000000000000000e+02 5.440000000000000000e+02 5.450000000000000000e+02 5.460000000000000000e+02 5.470000000000000000e+02 5.480000000000000000e+02 5.490000000000000000e+02 5.500000000000000000e+02 5.510000000000000000e+02 5.520000000000000000e+02 5.530000000000000000e+02 5.540000000000000000e+02 5.550000000000000000e+02 5.560000000000000000e+02 5.570000000000000000e+02 5.580000000000000000e+02 5.590000000000000000e+02 5.600000000000000000e+02 5.610000000000000000e+02 5.620000000000000000e+02 5.630000000000000000e+02 5.640000000000000000e+02 5.650000000000000000e+02 5.660000000000000000e+02 5.670000000000000000e+02 5.680000000000000000e+02 5.690000000000000000e+02 5.700000000000000000e+02 5.710000000000000000e+02 5.720000000000000000e+02 5.730000000000000000e+02 5.740000000000000000e+02 5.750000000000000000e+02 5.760000000000000000e+02 5.770000000000000000e+02 5.780000000000000000e+02 5.790000000000000000e+02 5.800000000000000000e+02 5.810000000000000000e+02 5.820000000000000000e+02 5.830000000000000000e+02 5.840000000000000000e+02 5.850000000000000000e+02 5.860000000000000000e+02 5.870000000000000000e+02 5.880000000000000000e+02 5.890000000000000000e+02 5.900000000000000000e+02 5.910000000000000000e+02 5.920000000000000000e+02 5.930000000000000000e+02 5.940000000000000000e+02 5.950000000000000000e+02 5.960000000000000000e+02 5.970000000000000000e+02 5.980000000000000000e+02 5.990000000000000000e+02 6.000000000000000000e+02 6.010000000000000000e+02 6.020000000000000000e+02 6.030000000000000000e+02 6.040000000000000000e+02 6.050000000000000000e+02 6.060000000000000000e+02 6.070000000000000000e+02 6.080000000000000000e+02 6.090000000000000000e+02 6.100000000000000000e+02 6.110000000000000000e+02 6.120000000000000000e+02 6.130000000000000000e+02 6.140000000000000000e+02 6.150000000000000000e+02 6.160000000000000000e+02 6.170000000000000000e+02 6.180000000000000000e+02 6.190000000000000000e+02 6.200000000000000000e+02 6.210000000000000000e+02 6.220000000000000000e+02 6.230000000000000000e+02 6.240000000000000000e+02 6.250000000000000000e+02 6.260000000000000000e+02 6.270000000000000000e+02 6.280000000000000000e+02 6.290000000000000000e+02 6.300000000000000000e+02 6.310000000000000000e+02 6.320000000000000000e+02 6.330000000000000000e+02 6.340000000000000000e+02 6.350000000000000000e+02 6.360000000000000000e+02 6.370000000000000000e+02 6.380000000000000000e+02 6.390000000000000000e+02 6.400000000000000000e+02 6.410000000000000000e+02 6.420000000000000000e+02 6.430000000000000000e+02 6.440000000000000000e+02 6.450000000000000000e+02 6.460000000000000000e+02 6.470000000000000000e+02 6.480000000000000000e+02 6.490000000000000000e+02 6.500000000000000000e+02 6.510000000000000000e+02 6.520000000000000000e+02 6.530000000000000000e+02 6.540000000000000000e+02 6.550000000000000000e+02 6.560000000000000000e+02 6.570000000000000000e+02 6.580000000000000000e+02 6.590000000000000000e+02 6.600000000000000000e+02 6.610000000000000000e+02 6.620000000000000000e+02 6.630000000000000000e+02 6.640000000000000000e+02 6.650000000000000000e+02 6.660000000000000000e+02 6.670000000000000000e+02 6.680000000000000000e+02 6.690000000000000000e+02 6.700000000000000000e+02 6.710000000000000000e+02 6.720000000000000000e+02 6.730000000000000000e+02 6.740000000000000000e+02 6.750000000000000000e+02 6.760000000000000000e+02 6.770000000000000000e+02 6.780000000000000000e+02 6.790000000000000000e+02 6.800000000000000000e+02 6.810000000000000000e+02 6.820000000000000000e+02 6.830000000000000000e+02 6.840000000000000000e+02 6.850000000000000000e+02 6.860000000000000000e+02 6.870000000000000000e+02 6.880000000000000000e+02 6.890000000000000000e+02 6.900000000000000000e+02 6.910000000000000000e+02 6.920000000000000000e+02 6.930000000000000000e+02 6.940000000000000000e+02 6.950000000000000000e+02 6.960000000000000000e+02 6.970000000000000000e+02 6.980000000000000000e+02 6.990000000000000000e+02 7.000000000000000000e+02 7.010000000000000000e+02 7.020000000000000000e+02 7.030000000000000000e+02 7.040000000000000000e+02 7.050000000000000000e+02 7.060000000000000000e+02 7.070000000000000000e+02 7.080000000000000000e+02 7.090000000000000000e+02 7.100000000000000000e+02 7.110000000000000000e+02 7.120000000000000000e+02 7.130000000000000000e+02 7.140000000000000000e+02 7.150000000000000000e+02 7.160000000000000000e+02 7.170000000000000000e+02 7.180000000000000000e+02 7.190000000000000000e+02 7.200000000000000000e+02 7.210000000000000000e+02 7.220000000000000000e+02 7.230000000000000000e+02 7.240000000000000000e+02 7.250000000000000000e+02 7.260000000000000000e+02 7.270000000000000000e+02 7.280000000000000000e+02 7.290000000000000000e+02 7.300000000000000000e+02 7.310000000000000000e+02 7.320000000000000000e+02 7.330000000000000000e+02 7.340000000000000000e+02 7.350000000000000000e+02 7.360000000000000000e+02 7.370000000000000000e+02 7.380000000000000000e+02 7.390000000000000000e+02 7.400000000000000000e+02 7.410000000000000000e+02 7.420000000000000000e+02 7.430000000000000000e+02 7.440000000000000000e+02 7.450000000000000000e+02 7.460000000000000000e+02 7.470000000000000000e+02 7.480000000000000000e+02 7.490000000000000000e+02 7.500000000000000000e+02 7.510000000000000000e+02 7.520000000000000000e+02 7.530000000000000000e+02 7.540000000000000000e+02 7.550000000000000000e+02 7.560000000000000000e+02 7.570000000000000000e+02 7.580000000000000000e+02 7.590000000000000000e+02 7.600000000000000000e+02 7.610000000000000000e+02 7.620000000000000000e+02 7.630000000000000000e+02 7.640000000000000000e+02 7.650000000000000000e+02 7.660000000000000000e+02 7.670000000000000000e+02 7.680000000000000000e+02 7.690000000000000000e+02 7.700000000000000000e+02 7.710000000000000000e+02 7.720000000000000000e+02 7.730000000000000000e+02 7.740000000000000000e+02 7.750000000000000000e+02 7.760000000000000000e+02 7.770000000000000000e+02 7.780000000000000000e+02 7.790000000000000000e+02 7.800000000000000000e+02 7.810000000000000000e+02 7.820000000000000000e+02 7.830000000000000000e+02 7.840000000000000000e+02 7.850000000000000000e+02 7.860000000000000000e+02 7.870000000000000000e+02 7.880000000000000000e+02 7.890000000000000000e+02 7.900000000000000000e+02 7.910000000000000000e+02 7.920000000000000000e+02 7.930000000000000000e+02 7.940000000000000000e+02 7.950000000000000000e+02 7.960000000000000000e+02 7.970000000000000000e+02 7.980000000000000000e+02 7.990000000000000000e+02 8.000000000000000000e+02 8.010000000000000000e+02 8.020000000000000000e+02 8.030000000000000000e+02 8.040000000000000000e+02 8.050000000000000000e+02 8.060000000000000000e+02 8.070000000000000000e+02 8.080000000000000000e+02 8.090000000000000000e+02 8.100000000000000000e+02 8.110000000000000000e+02 8.120000000000000000e+02 8.130000000000000000e+02 8.140000000000000000e+02 8.150000000000000000e+02 8.160000000000000000e+02 8.170000000000000000e+02 8.180000000000000000e+02 8.190000000000000000e+02 8.200000000000000000e+02 8.210000000000000000e+02 8.220000000000000000e+02 8.230000000000000000e+02 8.240000000000000000e+02 8.250000000000000000e+02 8.260000000000000000e+02 8.270000000000000000e+02 8.280000000000000000e+02 8.290000000000000000e+02 8.300000000000000000e+02 8.310000000000000000e+02 8.320000000000000000e+02 8.330000000000000000e+02 8.340000000000000000e+02 8.350000000000000000e+02 8.360000000000000000e+02 8.370000000000000000e+02 8.380000000000000000e+02 8.390000000000000000e+02 8.400000000000000000e+02 8.410000000000000000e+02 8.420000000000000000e+02 8.430000000000000000e+02 8.440000000000000000e+02 8.450000000000000000e+02 8.460000000000000000e+02 8.470000000000000000e+02 8.480000000000000000e+02 8.490000000000000000e+02 8.500000000000000000e+02 8.510000000000000000e+02 8.520000000000000000e+02 8.530000000000000000e+02 8.540000000000000000e+02 8.550000000000000000e+02 8.560000000000000000e+02 8.570000000000000000e+02 8.580000000000000000e+02 8.590000000000000000e+02 8.600000000000000000e+02 8.610000000000000000e+02 8.620000000000000000e+02 8.630000000000000000e+02 8.640000000000000000e+02 8.650000000000000000e+02 8.660000000000000000e+02 8.670000000000000000e+02 8.680000000000000000e+02 8.690000000000000000e+02 8.700000000000000000e+02 8.710000000000000000e+02 8.720000000000000000e+02 8.730000000000000000e+02 8.740000000000000000e+02 8.750000000000000000e+02 8.760000000000000000e+02 8.770000000000000000e+02 8.780000000000000000e+02 8.790000000000000000e+02 8.800000000000000000e+02 8.810000000000000000e+02 8.820000000000000000e+02 8.830000000000000000e+02 8.840000000000000000e+02 8.850000000000000000e+02 8.860000000000000000e+02 8.870000000000000000e+02 8.880000000000000000e+02 8.890000000000000000e+02 8.900000000000000000e+02 8.910000000000000000e+02 8.920000000000000000e+02 8.930000000000000000e+02 8.940000000000000000e+02 8.950000000000000000e+02 8.960000000000000000e+02 8.970000000000000000e+02 8.980000000000000000e+02 8.990000000000000000e+02 9.000000000000000000e+02 9.010000000000000000e+02 9.020000000000000000e+02 9.030000000000000000e+02 9.040000000000000000e+02 9.050000000000000000e+02 9.060000000000000000e+02 9.070000000000000000e+02 9.080000000000000000e+02 9.090000000000000000e+02 9.100000000000000000e+02 9.110000000000000000e+02 9.120000000000000000e+02 9.130000000000000000e+02 9.140000000000000000e+02 9.150000000000000000e+02 9.160000000000000000e+02 9.170000000000000000e+02 9.180000000000000000e+02 9.190000000000000000e+02 9.200000000000000000e+02 9.210000000000000000e+02 9.220000000000000000e+02 9.230000000000000000e+02 9.240000000000000000e+02 9.250000000000000000e+02 9.260000000000000000e+02 9.270000000000000000e+02 9.280000000000000000e+02 9.290000000000000000e+02 9.300000000000000000e+02 9.310000000000000000e+02 9.320000000000000000e+02 9.330000000000000000e+02 9.340000000000000000e+02 9.350000000000000000e+02 9.360000000000000000e+02 9.370000000000000000e+02 9.380000000000000000e+02 9.390000000000000000e+02 9.400000000000000000e+02 9.410000000000000000e+02 9.420000000000000000e+02 9.430000000000000000e+02 9.440000000000000000e+02 9.450000000000000000e+02 9.460000000000000000e+02 9.470000000000000000e+02 9.480000000000000000e+02 9.490000000000000000e+02 9.500000000000000000e+02 9.510000000000000000e+02 9.520000000000000000e+02 9.530000000000000000e+02 9.540000000000000000e+02 9.550000000000000000e+02 9.560000000000000000e+02 9.570000000000000000e+02 9.580000000000000000e+02 9.590000000000000000e+02 9.600000000000000000e+02 9.610000000000000000e+02 9.620000000000000000e+02 9.630000000000000000e+02 9.640000000000000000e+02 9.650000000000000000e+02 9.660000000000000000e+02 9.670000000000000000e+02 9.680000000000000000e+02 9.690000000000000000e+02 9.700000000000000000e+02 9.710000000000000000e+02 9.720000000000000000e+02 9.730000000000000000e+02 9.740000000000000000e+02 9.750000000000000000e+02 9.760000000000000000e+02 9.770000000000000000e+02 9.780000000000000000e+02 9.790000000000000000e+02 9.800000000000000000e+02 9.810000000000000000e+02 9.820000000000000000e+02 9.830000000000000000e+02 9.840000000000000000e+02 9.850000000000000000e+02 9.860000000000000000e+02 9.870000000000000000e+02 9.880000000000000000e+02 9.890000000000000000e+02 9.900000000000000000e+02 9.910000000000000000e+02 9.920000000000000000e+02 9.930000000000000000e+02 9.940000000000000000e+02 9.950000000000000000e+02 9.960000000000000000e+02 9.970000000000000000e+02 9.980000000000000000e+02 9.990000000000000000e+02 1.000000000000000000e+03
1.000000000000000021e-02 1.000000000000000021e-02 1.000000000000000021e-02 1.000000000000000021e-02 1.000000000000000021e-02 1.000000000000000021e-02 1.000000000000000021e-02 1.000000000000000021e-02 1.000000000000000021e-02 1.000000000000000021e-02 1.000000000000000021e-02 1.000000000000000021e-02 1.000000000000000021e-02 1.000000000000000021e-02 1.000000000000000021e-02 1.000000000000000021e-02 1.000000000000000021e-02 1.000000000000000021e-02 1.000000000000000021e-02 1.000000000000000021e-02 1.000000000000000021e-02 1.000000000000000021e-02 1.000000000000000021e-02 1.000000000000000021e-02 1.000000000000000021e-02 1.000000000000000021e-02 1.000000000000000021e-02 1.000000000000000021e-02 1.000000000000000021e-02 1.000000000000000021e-02 1.000000000000000021e-02 1.000000000000000021e-02 1.000000000000000021e-02 1.000000000000000021e-02 1.000000000000000021e-02 1.000000000000000021e-02 1.000000000000000021e-02 1.000000000000000021e-02 1.000000000000000021e-02 1.000000000000000021e-02 1.000000000000000021e-02 1.000000000000000021e-02 1.000000000000000021e-02 1.000000000000000021e-02 1.000000000000000021e-02 1.000000000000000021e-02 1.000000000000000021e-02 1.000000000000000021e-02 1.000000000000000021e-02 1.000000000000000021e-02 1.000000000000000021e-02 1.000000000000000021e-02 1.000000000000000021e-02 1.000000000000000021e-02 1.000000000000000021e-02 1.000000000000000021e-02 1.000000000000000021e-02 1.000000000000000021e-02 1.000000000000000021e-02 1.000000000000000021e-02 1.000000000000000021e-02 1.000000000000000021e-02 1.000000000000000021e-02 1.000000000000000021e-02 1.000000000000000021e-02 1.000000000000000021e-02 1.000000000000000021e-02 1.000000000000000021e-02 1.000000000000000021e-02 1.000000000000000021e-02 1.000000000000000021e-02 1.000000000000000021e-02 1.000000000000000021e-02 1.000000000000000021e-02 1.000000000000000021e-02 1.000000000000000021e-02 1.000000000000000021e-02 1.000000000000000021e-02 1.000000000000000021e-02 1.000000000000000021e-02 1.000000000000000021e-02 1.000000000000000021e-02 1.000000000000000021e-02 1.000000000000000021e-02 1.000000000000000021e-02 1.000000000000000021e-02 1.000000000000000021e-02 1.000000000000000021e-02 1.000000000000000021e-02 1.000000000000000021e-02 1.000000000000000021e-02 1.000000000000000021e-02 1.000000000000000021e-02 1.000000000000000021e-02 1.000000000000000021e-02 1.000000000000000021e-02 1.000000000000000021e-02 1.000000000000000021e-02 1.000000000000000021e-02 1.000000000000000021e-02 1.000000000000000021e-02 1.000000000000000021e-02 1.000000000000000021e-02 1.000000000000000021e-02 1.000000000000000021e-02 1.000000000000000021e-02 1.000000000000000021e-02 1.000000000000000021e-02 1.000000000000000021e-02 1.000000000000000021e-02 1.000000000000000021e-02 1.000000000000000021e-02 1.000000000000000021e-02 1.000000000000000021e-02 1.000000000000000021e-02 1.000000000000000021e-02 1.000000000000000021e-02 1.000000000000000021e-02 1.000000000000000021e-02 1.000000000000000021e-02 1.000000000000000021e-02 1.000000000000000021e-02 1.000000000000000021e-02 1.000000000000000021e-02 1.000000000000000021e-02 1.000000000000000021e-02 1.000000000000000021e-02 1.000000000000000021e-02 1.000000000000000021e-02 1.000000000000000021e-02 1.000000000000000021e-02 1.000000000000000021e-02 1.000000000000000021e-02 1.000000000000000021e-02 1.000000000000000021e-02 1.000000000000000021e-02 1.000000000000000021e-02 1.000000000000000021e-02 1.000000000000000021e-02 1.000000000000000021e-02 1.000000000000000021e-02 1.000000000000000021e-02 1.000000000000000021e-02 1.000000000000000021e-02 1.000000000000000021e-02 1.000000000000000021e-02 1.000000000000000021e-02 1.000000000000000021e-02 1.000000000000000021e-02 1.000000000000000021e-02 1.000000000000000021e-02 1.000000000000000021e-02 1.000000000000000021e-02 1.000000000000000021e-02 1.000000000000000021e-02 1.000000000000000021e-02 1.000000000000000021e-02 1.000000000000000021e-02 1.000000000000000021e-02 1.000000000000000021e-02 1.000000000000000021e-02 1.000000000000000021e-02 1.000000000000000021e-02 1.000000000000000021e-02 1.000000000000000021e-02 1.000000000000000021e-02 1.000000000000000021e-02 1.000000000000000021e-02 1.000000000000000021e-02 1.000000000000000021e-02 1.000000000000000021e-02 1.000000000000000021e-02 1.000000000000000021e-02 1.000000000000000021e-02 1.000000000000000021e-02 1.000000000000000021e-02 1.000000000000000021e-02 1.000000000000000021e-02 1.000000000000000021e-02 1.000000000000000021e-02 1.000000000000000021e-02 1.000000000000000021e-02 1.000000000000000021e-02 1.000000000000000021e-02 1.000000000000000021e-02 1.000000000000000021e-02 1.000000000000000021e-02 1.000000000000000021e-02 1.000000000000000021e-02 1.000000000000000021e-02 1.000000000000000021e-02 1.000000000000000021e-02 1.000000000000000021e-02 1.000000000000000021e-02 1.000000000000000021e-02 1.000000000000000021e-02 1.000000000000000021e-02 1.000000000000000021e-02 1.000000000000000021e-02 1.000000000000000021e-02 1.000000000000000021e-02 1.000000000000000021e-02 1.000000000000000021e-02 1.000000000000000021e-02 1.000000000000000021e-02 1.000000000000000021e-02 1.000000000000000021e-02 1.000000000000000021e-02 1.000000000000000021e-02 1.000000000000000021e-02 1.000000000000000021e-02 1.000000000000000021e-02 1.000000000000000021e-02 1.000000000000000021e-02 1.000000000000000021e-02 1.000000000000000021e-02 1.000000000000000021e-02 1.000000000000000021e-02 1.000000000000000021e-02 1.000000000000000021e-02 1.000000000000000021e-02 1.000000000000000021e-02 1.000000000000000021e-02 1.000000000000000021e-02 1.000000000000000021e-02 1.000000000000000021e-02 1.000000000000000021e-02 1.000000000000000021e-02 1.000000000000000021e-02 1.000000000000000021e-02 1.000000000000000021e-02 1.000000000000000021e-02 1.000000000000000021e-02 1.000000000000000021e-02 1.000000000000000021e-02 1.000000000000000021e-02 1.000000000000000021e-02 1.000000000000000021e-02 1.000000000000000021e-02 1.000000000000000021e-02 1.000000000000000021e-02 1.000000000000000021e-02 1.000000000000000021e-02 1.000000000000000021e-02 1.000000000000000021e-02 1.000000000000000021e-02 1.000000000000000021e-02 1.000000000000000021e-02 1.000000000000000021e-02 1.000000000000000021e-02 1.000000000000000021e-02 1.000000000000000021e-02 1.000000000000000021e-02 1.000000000000000021e-02 1.000000000000000021e-02 1.000000000000000021e-02 1.000000000000000021e-02 1.000000000000000021e-02 1.000000000000000021e-02 1.000000000000000021e-02 1.000000000000000021e-02 1.000000000000000021e-02 1.000000000000000021e-02 1.000000000000000021e-02 1.000000000000000021e-02 1.000000000000000021e-02 1.000000000000000021e-02 1.000000000000000021e-02 1.000000000000000021e-02 1.000000000000000021e-02 1.000000000000000021e-02 1.000000000000000021e-02 1.000000000000000021e-02 1.000000000000000021e-02 1.000000000000000021e-02 1.000000000000000021e-02 1.000000000000000021e-02 1.000000000000000021e-02 1.000000000000000021e-02 1.000000000000000021e-02 1.000000000000000021e-02 1.000000000000000021e-02 1.000000000000000021e-02 1.000000000000000021e-02 1.000000000000000021e-02 1.000000000000000021e-02 1.000000000000000021e-02 1.000000000000000021e-02 1.000000000000000021e-02 1.000000000000000021e-02 1.000000000000000021e-02 1.000000000000000021e-02 1.000000000000000021e-02 1.000000000000000021e-02 1.000000000000000021e-02 1.000000000000000021e-02 1.000000000000000021e-02 1.000000000000000021e-02 1.000000000000000021e-02 1.000000000000000021e-02 1.000000000000000021e-02 1.000000000000000021e-02 1.000000000000000021e-02 1.000000000000000021e-02 1.000000000000000021e-02 1.000000000000000021e-02 1.000000000000000021e-02 1.000000000000000021e-02 1.000000000000000021e-02 1.000000000000000021e-02 1.000000000000000021e-02 1.000000000000000021e-02 1.000000000000000021e-02 1.000000000000000021e-02 1.000000000000000021e-02 1.000000000000000021e-02 1.000000000000000021e-02 1.000000000000000021e-02 1.000000000000000021e-02 1.000000000000000021e-02 1.000000000000000021e-02 1.000000000000000021e-02 1.000000000000000021e-02 1.000000000000000021e-02 1.000000000000000021e-02 1.000000000000000021e-02 1.000000000000000021e-02 1.000000000000000021e-02 1.000000000000000021e-02 1.000000000000000021e-02 1.000000000000000021e-02 1.000000000000000021e-02 1.000000000000000021e-02 1.000000000000000021e-02 1.000000000000000021e-02 1.000000000000000021e-02 1.000000000000000021e-02 1.000000000000000021e-02 1.000000000000000021e-02 1.000000000000000021e-02 1.000000000000000021e-02 1.000000000000000021e-02 1.000000000000000021e-02 1.000000000000000021e-02 1.000000000000000021e-02 1.000000000000000021e-02 1.000000000000000021e-02 1.000000000000000021e-02 1.000000000000000021e-02 1.000000000000000021e-02 1.000000000000000021e-02 1.000000000000000021e-02 1.000000000000000021e-02 1.000000000000000021e-02 1.000000000000000021e-02 1.000000000000000021e-02 1.000000000000000021e-02 1.000000000000000021e-02 1.000000000000000021e-02 1.000000000000000021e-02 1.000000000000000021e-02 1.000000000000000021e-02 1.000000000000000021e-02 1.000000000000000021e-02 1.000000000000000021e-02 1.000000000000000021e-02 1.000000000000000021e-02 1.000000000000000021e-02 1.000000000000000021e-02 1.000000000000000021e-02 1.000000000000000021e-02 1.000000000000000021e-02 1.000000000000000021e-02 1.000000000000000021e-02 1.000000000000000021e-02 1.000000000000000021e-02 1.000000000000000021e-02 1.000000000000000021e-02 1.000000000000000021e-02 1.000000000000000021e-02 1.000000000000000021e-02 1.000000000000000021e-02 1.000000000000000021e-02 1.000000000000000021e-02 1.000000000000000021e-02 1.000000000000000021e-02 1.000000000000000021e-02 1.000000000000000021e-02 1.000000000000000021e-02 1.000000000000000021e-02 1.000000000000000021e-02 1.000000000000000021e-02 1.000000000000000021e-02 1.000000000000000021e-02 1.000000000000000021e-02 1.000000000000000021e-02 1.000000000000000021e-02 1.000000000000000021e-02 1.000000000000000021e-02 1.000000000000000021e-02 1.000000000000000021e-02 1.000000000000000021e-02 1.000000000000000021e-02 1.000000000000000021e-02 1.000000000000000021e-02 1.000000000000000021e-02 1.000000000000000021e-02 1.000000000000000021e-02 1.000000000000000021e-02 1.000000000000000021e-02 1.000000000000000021e-02 1.000000000000000021e-02 1.000000000000000021e-02 1.000000000000000021e-02 1.000000000000000021e-02 1.000000000000000021e-02 1.000000000000000021e-02 1.000000000000000021e-02 1.000000000000000021e-02 1.000000000000000021e-02 1.000000000000000021e-02 1.000000000000000021e-02 1.000000000000000021e-02 1.000000000000000021e-02 1.000000000000000021e-02 1.000000000000000021e-02 1.000000000000000021e-02 1.000000000000000021e-02 1.000000000000000021e-02 1.000000000000000021e-02 1.000000000000000021e-02 1.000000000000000021e-02 1.000000000000000021e-02 1.000000000000000021e-02 1.000000000000000021e-02 1.000000000000000021e-02 1.000000000000000021e-02 1.000000000000000021e-02 1.000000000000000021e-02 1.000000000000000021e-02 1.000000000000000021e-02 1.000000000000000021e-02 1.000000000000000021e-02 1.000000000000000021e-02 1.000000000000000021e-02 1.000000000000000021e-02 1.000000000000000021e-02 1.000000000000000021e-02 1.000000000000000021e-02 1.000000000000000021e-02 1.000000000000000021e-02 1.000000000000000021e-02 1.000000000000000021e-02 1.000000000000000021e-02 1.000000000000000021e-02 1.000000000000000021e-02 1.000000000000000021e-02 1.000000000000000021e-02 1.000000000000000021e-02 1.000000000000000021e-02 1.000000000000000021e-02 1.000000000000000021e-02 1.000000000000000021e-02 1.000000000000000021e-02 1.000000000000000021e-02 1.000000000000000021e-02 1.000000000000000021e-02 1.000000000000000021e-02 1.000000000000000021e-02 1.000000000000000021e-02 1.000000000000000021e-02 1.000000000000000021e-02 1.000000000000000021e-02 1.000000000000000021e-02 1.000000000000000021e-02 1.000000000000000021e-02 1.000000000000000021e-02 1.000000000000000021e-02 1.000000000000000021e-02 1.000000000000000021e-02 1.000000000000000021e-02 1.000000000000000021e-02 1.000000000000000021e-02 1.000000000000000021e-02 1.000000000000000021e-02 1.000000000000000021e-02 1.000000000000000021e-02 1.000000000000000021e-02 1.000000000000000021e-02 1.000000000000000021e-02 1.000000000000000021e-02 1.000000000000000021e-02 1.000000000000000021e-02 1.000000000000000021e-02 1.000000000000000021e-02 1.000000000000000021e-02 1.000000000000000021e-02 1.000000000000000021e-02 1.000000000000000021e-02 1.000000000000000021e-02 1.000000000000000021e-02 1.000000000000000021e-02 1.000000000000000021e-02 1.000000000000000021e-02 1.000000000000000021e-02 1.000000000000000021e-02 1.000000000000000021e-02 1.000000000000000021e-02 1.000000000000000021e-02 1.000000000000000021e-02 1.000000000000000021e-02 1.000000000000000021e-02 1.000000000000000021e-02 1.000000000000000021e-02 1.000000000000000021e-02 1.000000000000000021e-02 1.000000000000000021e-02 1.000000000000000021e-02 1.000000000000000021e-02 1.000000000000000021e-02 1.000000000000000021e-02 1.000000000000000021e-02 1.000000000000000021e-02 1.000000000000000021e-02 1.000000000000000021e-02 1.000000000000000021e-02 1.000000000000000021e-02 1.000000000000000021e-02 1.000000000000000021e-02 1.000000000000000021e-02 1.000000000000000021e-02 1.000000000000000021e-02 1.000000000000000021e-02 1.000000000000000021e-02 1.000000000000000021e-02 1.000000000000000021e-02 1.000000000000000021e-02 1.000000000000000021e-02 1.000000000000000021e-02 1.000000000000000021e-02 1.000000000000000021e-02 1.000000000000000021e-02 1.000000000000000021e-02 1.000000000000000021e-02 1.000000000000000021e-02 1.000000000000000021e-02 1.000000000000000021e-02 1.000000000000000021e-02 1.000000000000000021e-02 1.000000000000000021e-02 1.000000000000000021e-02 1.000000000000000021e-02 1.000000000000000021e-02 1.000000000000000021e-02 1.000000000000000021e-02 1.000000000000000021e-02 1.000000000000000021e-02 1.000000000000000021e-02 1.000000000000000021e-02 1.000000000000000021e-02 1.000000000000000021e-02 1.000000000000000021e-02 1.000000000000000021e-02 1.000000000000000021e-02 1.000000000000000021e-02 1.000000000000000021e-02 1.000000000000000021e-02 1.000000000000000021e-02 1.000000000000000021e-02 1.000000000000000021e-02 1.000000000000000021e-02 1.000000000000000021e-02 1.000000000000000021e-02 1.000000000000000021e-02 1.000000000000000021e-02 1.000000000000000021e-02 1.000000000000000021e-02 1.000000000000000021e-02 1.000000000000000021e-02 1.000000000000000021e-02 1.000000000000000021e-02 1.000000000000000021e-02 1.000000000000000021e-02 1.000000000000000021e-02 1.000000000000000021e-02 1.000000000000000021e-02 1.000000000000000021e-02 1.000000000000000021e-02 1.000000000000000021e-02 1.000000000000000021e-02 1.000000000000000021e-02 1.000000000000000021e-02 1.000000000000000021e-02 1.000000000000000021e-02 1.000000000000000021e-02 1.000000000000000021e-02 1.000000000000000021e-02 1.000000000000000021e-02 1.000000000000000021e-02 1.000000000000000021e-02 1.000000000000000021e-02 1.000000000000000021e-02 1.000000000000000021e-02 1.000000000000000021e-02 1.000000000000000021e-02 1.000000000000000021e-02 1.000000000000000021e-02 1.000000000000000021e-02 1.000000000000000021e-02 1.000000000000000021e-02 1.000000000000000021e-02 1.000000000000000021e-02 1.000000000000000021e-02 1.000000000000000021e-02 1.000000000000000021e-02 1.000000000000000021e-02 1.000000000000000021e-02 1.000000000000000021e-02 1.000000000000000021e-02 1.000000000000000021e-02 1.000000000000000021e-02 1.000000000000000021e-02 1.000000000000000021e-02 1.000000000000000021e-02 1.000000000000000021e-02 1.000000000000000021e-02 1.000000000000000021e-02 1.000000000000000021e-02 1.000000000000000021e-02 1.000000000000000021e-02 1.000000000000000021e-02 1.000000000000000021e-02 1.000000000000000021e-02 1.000000000000000021e-02 1.000000000000000021e-02 1.000000000000000021e-02 1.000000000000000021e-02 1.000000000000000021e-02 1.000000000000000021e-02 1.000000000000000021e-02 1.000000000000000021e-02 1.000000000000000021e-02 1.000000000000000021e-02 1.000000000000000021e-02 1.000000000000000021e-02 1.000000000000000021e-02 1.000000000000000021e-02 1.000000000000000021e-02 1.000000000000000021e-02 1.000000000000000021e-02 1.000000000000000021e-02 1.000000000000000021e-02 1.000000000000000021e-02 1.000000000000000021e-02 1.000000000000000021e-02 1.000000000000000021e-02 1.000000000000000021e-02 1.000000000000000021e-02 1.000000000000000021e-02 1.000000000000000021e-02 1.000000000000000021e-02 1.000000000000000021e-02 1.000000000000000021e-02 1.000000000000000021e-02 1.000000000000000021e-02 1.000000000000000021e-02 1.000000000000000021e-02 1.000000000000000021e-02 1.000000000000000021e-02 1.000000000000000021e-02 1.000000000000000021e-02 1.000000000000000021e-02 1.000000000000000021e-02 1.000000000000000021e-02 1.000000000000000021e-02 1.000000000000000021e-02 1.000000000000000021e-02 1.000000000000000021e-02 1.000000000000000021e-02 1.000000000000000021e-02 1.000000000000000021e-02 1.000000000000000021e-02 1.000000000000000021e-02 1.000000000000000021e-02 1.000000000000000021e-02 1.000000000000000021e-02 1.000000000000000021e-02 1.000000000000000021e-02 1.000000000000000021e-02 1.000000000000000021e-02 1.000000000000000021e-02 1.000000000000000021e-02 1.000000000000000021e-02 1.000000000000000021e-02 1.000000000000000021e-02 1.000000000000000021e-02 1.000000000000000021e-02 1.000000000000000021e-02 1.000000000000000021e-02 1.000000000000000021e-02 1.000000000000000021e-02 1.000000000000000021e-02 1.000000000000000021e-02 1.000000000000000021e-02 1.000000000000000021e-02 1.000000000000000021e-02 1.000000000000000021e-02 1.000000000000000021e-02 1.000000000000000021e-02 1.000000000000000021e-02 1.000000000000000021e-02 1.000000000000000021e-02 1.000000000000000021e-02 1.000000000000000021e-02 1.000000000000000021e-02 1.000000000000000021e-02 1.000000000000000021e-02 1.000000000000000021e-02 1.000000000000000021e-02 1.000000000000000021e-02 1.000000000000000021e-02 1.000000000000000021e-02 1.000000000000000021e-02 1.000000000000000021e-02 1.000000000000000021e-02 1.000000000000000021e-02 1.000000000000000021e-02 1.000000000000000021e-02 1.000000000000000021e-02 1.000000000000000021e-02 1.000000000000000021e-02 1.000000000000000021e-02 1.000000000000000021e-02 1.000000000000000021e-02 1.000000000000000021e-02 1.000000000000000021e-02 1.000000000000000021e-02 1.000000000000000021e-02 1.000000000000000021e-02 1.000000000000000021e-02 1.000000000000000021e-02 1.000000000000000021e-02 1.000000000000000021e-02 1.000000000000000021e-02 1.000000000000000021e-02 1.000000000000000021e-02 1.000000000000000021e-02 1.000000000000000021e-02 1.000000000000000021e-02 1.000000000000000021e-02 1.000000000000000021e-02 1.000000000000000021e-02 1.000000000000000021e-02 1.000000000000000021e-02 1.000000000000000021e-02 1.000000000000000021e-02 1.000000000000000021e-02 1.000000000000000021e-02 1.000000000000000021e-02 1.000000000000000021e-02 1.000000000000000021e-02 1.000000000000000021e-02 1.000000000000000021e-02 1.000000000000000021e-02 1.000000000000000021e-02 1.000000000000000021e-02 1.000000000000000021e-02 1.000000000000000021e-02 1.000000000000000021e-02 1.000000000000000021e-02 1.000000000000000021e-02 1.000000000000000021e-02 1.000000000000000021e-02 1.000000000000000021e-02 1.000000000000000021e-02 1.000000000000000021e-02 1.000000000000000021e-02 1.000000000000000021e-02 1.000000000000000021e-02 1.000000000000000021e-02 1.000000000000000021e-02 1.000000000000000021e-02 1.000000000000000021e-02 1.000000000000000021e-02 1.000000000000000021e-02 1.000000000000000021e-02 1.000000000000000021e-02 1.000000000000000021e-02 1.000000000000000021e-02 1.000000000000000021e-02 1.000000000000000021e-02 1.000000000000000021e-02 1.000000000000000021e-02 1.000000000000000021e-02 1.000000000000000021e-02 1.000000000000000021e-02 1.000000000000000021e-02 1.000000000000000021e-02 1.000000000000000021e-02 1.000000000000000021e-02 1.000000000000000021e-02 1.000000000000000021e-02 1.000000000000000021e-02 1.000000000000000021e-02 1.000000000000000021e-02 1.000000000000000021e-02 1.000000000000000021e-02 1.000000000000000021e-02 1.000000000000000021e-02 1.000000000000000021e-02 1.000000000000000021e-02 1.000000000000000021e-02 1.000000000000000021e-02 1.000000000000000021e-02 1.000000000000000021e-02 1.000000000000000021e-02 1.000000000000000021e-02 1.000000000000000021e-02 1.000000000000000021e-02 1.000000000000000021e-02 1.000000000000000021e-02 1.000000000000000021e-02 1.000000000000000021e-02 1.000000000000000021e-02 1.000000000000000021e-02 1.000000000000000021e-02 1.000000000000000021e-02 1.000000000000000021e-02 1.000000000000000021e-02 1.000000000000000021e-02 1.000000000000000021e-02 1.000000000000000021e-02 1.000000000000000021e-02 1.000000000000000021e-02 1.000000000000000021e-02 1.000000000000000021e-02 1.000000000000000021e-02 1.000000000000000021e-02 1.000000000000000021e-02 1.000000000000000021e-02 1.000000000000000021e-02 1.000000000000000021e-02 1.000000000000000021e-02 1.000000000000000021e-02 1.000000000000000021e-02 1.000000000000000021e-02 1.000000000000000021e-02 1.000000000000000021e-02 1.000000000000000021e-02 1.000000000000000021e-02 1.000000000000000021e-02 1.000000000000000021e-02 1.000000000000000021e-02 1.000000000000000021e-02 1.000000000000000021e-02 1.000000000000000021e-02 1.000000000000000021e-02 1.000000000000000021e-02 1.000000000000000021e-02 1.000000000000000021e-02 1.000000000000000021e-02 1.000000000000000021e-02 1.000000000000000021e-02 1.000000000000000021e-02 1.000000000000000021e-02 1.000000000000000021e-02 1.000000000000000021e-02 1.000000000000000021e-02 1.000000000000000021e-02 1.000000000000000021e-02 1.000000000000000021e-02 1.000000000000000021e-02 1.000000000000000021e-02 1.000000000000000021e-02 1.000000000000000021e-02 1.000000000000000021e-02 1.000000000000000021e-02 1.000000000000000021e-02 1.000000000000000021e-02 1.000000000000000021e-02 1.000000000000000021e-02 1.000000000000000021e-02 1.000000000000000021e-02 1.000000000000000021e-02 1.000000000000000021e-02 1.000000000000000021e-02 1.000000000000000021e-02 1.000000000000000021e-02 1.000000000000000021e-02 1.000000000000000021e-02 1.000000000000000021e-02 1.000000000000000021e-02 1.000000000000000021e-02 1.000000000000000021e-02 1.000000000000000021e-02 1.000000000000000021e-02 1.000000000000000021e-02 1.000000000000000021e-02 1.000000000000000021e-02 1.000000000000000021e-02 1.000000000000000021e-02 1.000000000000000021e-02 1.000000000000000021e-02 1.000000000000000021e-02 1.000000000000000021e-02 1.000000000000000021e-02 1.000000000000000021e-02 1.000000000000000021e-02 1.000000000000000021e-02 1.000000000000000021e-02 1.000000000000000021e-02 1.000000000000000021e-02 1.000000000000000021e-02 1.000000000000000021e-02 1.000000000000000021e-02 1.000000000000000021e-02 1.000000000000000021e-02 1.000000000000000021e-02 1.000000000000000021e-02 1.000000000000000021e-02 1.000000000000000021e-02 1.000000000000000021e-02 1.000000000000000021e-02 1.000000000000000021e-02 1.000000000000000021e-02 1.000000000000000021e-02 1.000000000000000021e-02 1.000000000000000021e-02 1.000000000000000021e-02 1.000000000000000021e-02 1.000000000000000021e-02 1.000000000000000021e-02 1.000000000000000021e-02 1.000000000000000021e-02 1.000000000000000021e-02 1.000000000000000021e-02 1.000000000000000021e-02 1.000000000000000021e-02 1.000000000000000021e-02 1.000000000000000021e-02 1.000000000000000021e-02 1.000000000000000021e-02 1.000000000000000021e-02 1.000000000000000021e-02 1.000000000000000021e-02 1.000000000000000021e-02 1.000000000000000021e-02 1.000000000000000021e-02 1.000000000000000021e-02 1.000000000000000021e-02 1.000000000000000021e-02 1.000000000000000021e-02 1.000000000000000021e-02 1.000000000000000021e-02 1.000000000000000021e-02 1.000000000000000021e-02 1.000000000000000021e-02 1.000000000000000021e-02 1.000000000000000021e-02 1.000000000000000021e-02 1.000000000000000021e-02 1.000000000000000021e-02 1.000000000000000021e-02 1.000000000000000021e-02 1.000000000000000021e-02 1.000000000000000021e-02 1.000000000000000021e-02 1.000000000000000021e-02 1.000000000000000021e-02 1.000000000000000021e-02 1.000000000000000021e-02 1.000000000000000021e-02 1.000000000000000021e-02 1.000000000000000021e-02 1.000000000000000021e-02 1.000000000000000021e-02 1.000000000000000021e-02 1.000000000000000021e-02 1.000000000000000021e-02 1.000000000000000021e-02 1.000000000000000021e-02 1.000000000000000021e-02 1.000000000000000021e-02 1.000000000000000021e-02 1.000000000000000021e-02 1.000000000000000021e-02 1.000000000000000021e-02 1.000000000000000021e-02 1.000000000000000021e-02 1.000000000000000021e-02 1.000000000000000021e-02 1.000000000000000021e-02 1.000000000000000021e-02 1.000000000000000021e-02 1.000000000000000021e-02 1.000000000000000021e-02 1.000000000000000021e-02 1.000000000000000021e-02 1.000000000000000021e-02 1.000000000000000021e-02
-1.094445593778892487e+02 1.664254710104047490e+02 3.856964377042641701e+01 -8.664954603181595161e+00 -8.621110090532643255e+01 -1.313581346903156444e+01 -2.040014727289254779e+02 6.864947345429022185e-01 -8.310622002568258893e+01 -1.384101027386054028e+01 -1.946838730139366902e+01 6.413744420568582072e+00 -1.748639327553347611e+00 1.646233612743448305e+02 8.302900355613589056e+01 -3.807261386226146271e+01 -5.182773075705347310e+01 7.772418700154872795e+01 3.220960284739666690e+01 -2.490071122599890074e+01 -7.735436477582346981e+01 -7.240452676558631140e+01 -1.353733757980514518e+01 2.838856357883756587e+01 -1.912444689128592756e+02 -9.686169379718258199e+01 -2.560122984144999947e+01 1.978259287538149351e+02 6.943115113517110615e+01 7.530100348527732024e+01 7.878883859453452487e+01 1.159730730693118161e+00 -7.779717059896027820e+01 2.035775814616158073e+02 -2.402764302132097498e+02 5.775618294013247578e+01 -1.178588433064226848e+02 -3.403682197250361696e+01 3.960927374733254958e+00 1.243367042755314884e+02 -1.205856939624732860e+02 -1.337683607708881262e+01 7.589161638316598157e+01 1.703532535766774458e+02 7.000161235922188041e+01 -6.710835142116960128e+01 4.041995776033305532e+01 -2.786040855500021252e+01 -6.482577658713066171e+01 1.536520747966645217e+02 -6.920133566205178965e+01 -5.112353964221631486e+01 -1.367531464375920791e+02 5.685047281715259082e+00 -4.957938925104470940e+01 3.795101778541061321e+01 -8.707191660397259625e+01 -4.911740949892740815e+01 -9.951498517850264136e+01 -1.525520222228697094e+02 1.907008808726714477e+01 4.453963409627886705e+01 -1.208337874367913543e+02 1.261302593187374477e+01 -7.779605948400265447e+01 4.820788941178348352e+01 1.635555098170423776e+02 -1.415882272027036493e+02 -4.249364147204038034e+01 7.077121820732365620e+00 2.881295057564689621e+00 4.160036547097814008e+01 8.242157714666326740e+01 8.159285370635193102e-01 -8.658533406734909121e+00 -6.871511746548708288e+01 7.679868657924640729e+01 -3.213035021343996789e+01 2.581547846661208823e+01 1.020920692818862392e+02 8.656991208388660652e+01 -4.197244034035542626e+01 5.670324588890116502e+01 1.446968218430440629e+02 1.140600770701941968e+02 -3.931498882786175653e+00 1.709641048400961267e+02 -1.094582528044315950e+02 4.102389850704819096e+00 -4.116162056380635903e+01 2.029912419685061593e+02 -2.083029800608539617e+01 2.839880710742918701e+00 -7.536120511888728402e+01 -7.013210176010759689e+00 -6.264396540848471062e+01 6.652602185895480602e+01 -9.280619797139387117e+01 6.734161698468346913e+01 -4.687853653128662046e+01 -4.882994992461125605e+01 -8.996827134427877581e+01 5.208884653529219122e+01 -5.368085416579678792e+01 -1.465653208213994674e+02 -7.798649966060854410e+01 -1.026708408568597264e+02 -1.543171742118635450e+02 1.334145229752287776e+02 -2.695639361734034978e+01 3.144721809623894160e+01 8.800728932439466234e+01 -1.021242934273349618e+02 5.590015074977944209e+01 -4.251588309752728634e+01 -6.809751511925445300e+01 -8.845128521951359346e+01 1.994676485204090000e+02 -5.568912811349864711e+01 -4.859571188138728814e+01 -4.630975139130787710e+01 7.890933567633410917e+01 -4.065185390203543392e+01 1.354166500787215170e+02 -4.898771734017385882e+01 5.410255652480311994e+01 4.458967484513724600e+00 -7.960101079207345265e+01 6.752035258236888637e+01 2.722713517321263339e+02 -9.035451320849118417e+01 4.660171160106966681e+01 -7.485959734661373943e+01 4.441038986784883491e+01 1.287917366342016408e+02 -5.047167160316831769e+01 1.434236473327344186e+01 -2.644829711839087238e+01 -1.000927806127917705e+02 -1.702137130017115751e+01 4.220232907747538675e+00 -7.670381966996483669e+00 -1.467230636095429652e+01 1.160661276066578438e+02 1.280252367468585817e+02 1.831104594696111008e+02 -2.988829279650155399e+02 3.751908435109655926e+01 -1.548608686965590131e+01 -6.123083707921676933e+01 1.771414878768980543e+02 7.481288318445197660e+01 -2.561374518940931821e+00 -1.138985582946706927e+02 -1.069309510522755602e+01 9.833741443656744252e+01 -1.320214771610369837e+02 -1.656736669300956919e+02 1.055033203857590074e+01 4.168504894563884022e+01 -5.997640422811105054e+01 4.131453428597277622e+01 -1.052375282902589788e+02 -1.487167640108500279e+02 2.073431101363035012e+01 4.775173967425988764e+01 4.737262853868768886e+00 -8.204330602218558965e+01 -9.201498311627813109e+01 -8.288327447139924686e+01 -8.609824781019187867e+01 1.244590150349272406e+01 5.589202130316041917e+01 1.146173546176894291e+02 7.814006768398101599e+01 8.808365619461818596e+01 1.057726836288257743e+02 -7.360675989830828314e+01 -8.121751976583736621e+01 6.943027236582874195e+01 6.747804741232847903e+01 5.833048600252769234e+01 -9.243380506434537125e+00 -8.972136937478320817e+01 5.320066183610090604e+01 -1.764651552088033384e+02 6.621641077309162426e+01 -4.389223252779926554e+01 -9.508502922782375322e+01 7.318926360666749531e+01 -1.692351240255730715e+01 -7.607742881871217833e+01 -5.668787081619591817e+01 -9.047076959397641005e+00 2.395951788676156298e+02 7.593655396539655555e+01 5.416411015234233872e+01 -1.026091244232830491e+02 1.465015060796918931e+02 1.050739560436851239e+00 -8.932463136248652802e+01 1.540525828450847428e+02 -1.524162750284265258e+02 1.560420954812048677e+01 -3.217298617525121074e+01 -2.198018131312391006e+02 -1.333759405057836318e+02 -8.723404460030299390e+01 -2.936249943246913574e+01 -1.192277942217488516e+02 5.765004485426886305e+01 6.500262413269034312e+01 -2.759745089282967001e+01 -9.977645408212809741e+01 1.131077506152544032e+02 1.181980547012569502e+02 4.622026749411072899e+01 1.749958128536806967e+01 2.615115003917183003e+02 4.367978175844211108e+01 -1.195601334570174288e+02 -4.510655643647184831e+01 -1.689693182848224637e+02 3.190038343750130423e+01 1.534405836827148448e+02 -1.484680983713060982e+02 1.318816939281925897e+02 -9.107387079680896136e+01 -1.895007932075280621e+01 -7.935696643575128606e-01 5.294869519156872428e+01 -1.159840415346774911e+01 -2.285049701373936770e+01 -1.887236715832477074e+01 -1.269592839872340164e+02 4.648265736023293471e+01 -3.039726328696478319e+01 -1.296221842241194366e+01 -1.074032024375722472e+01 2.264045174139339167e+02 1.745881688487139058e+02 2.330969940928686697e+02 1.320694008882981052e+02 -8.675390785868511045e+01 7.532375686669404047e+01 2.118399506037911806e+01 4.764520004180030099e+01 -3.977147480567148818e+01 2.559788864860922502e+02 -2.336621911967384690e+01 -1.370487615355575031e+02 -1.497980912454621105e+01 -4.594616792020981677e+01 -7.757034159201408841e+01 4.325998586851042660e+01 -1.174093728205454390e+01 1.823633132687915008e+02 9.258828896024793664e+01 4.098193374385992627e+01 9.824948270583776377e+01 9.483325117403134641e+01 -2.304679940106497682e+01 1.400043561228985709e+02 2.659149914448170549e+01 8.984492536339871549e+01 4.780996552121590781e+01 6.946398928088733271e+00 -1.160804767249703389e+02 -1.161880783048976582e+02 -9.029363945150281268e+01 -1.561113730037091152e+01 8.694587590794861853e+01 -3.072419278139312127e+01 9.917515195521440319e+01 4.394923535942417914e+01 -7.293747447055667976e+01 -3.003800182794660856e+01 -5.876098089963790017e+01 1.761938201974572138e+01 -4.644069359325407476e+01 -1.123748902721578844e+02 1.218746980360070324e+02 1.217036908794560048e+02 -7.920309550466697601e+01 5.428886044882109907e+00 -4.545859053065861843e+01 -3.267238796786949706e+01 -1.137514661746476285e+01 -3.132966620420654991e+01 4.461543904393752058e+01 -1.409735528344984345e+02 -5.300436728929723529e+01 -1.522822770811522730e+02 1.745815789600472954e+02 -2.024875289430940839e+01 5.906254479241626143e+01 1.194140603225017827e+01 1.447215653397462631e+02 4.471395699590932793e+01 3.578382728347228436e+01 1.546794170460893554e+02 -4.935576241701359379e+01 -9.779863276375400005e+01 2.725089809278013320e+01 -1.582697483188601950e+02 -5.348854696994023072e+01 1.024734600518288659e+02 -1.277780083555373665e+02 -3.640690464834029427e+01 9.139992470766070198e+01 -9.456337964951906372e+01 -8.956757439053772885e+01 -8.272231224165822994e+01 -6.385778255855807117e+01 2.493066377074490845e+02 1.983621542866553966e+02 1.030586716932091065e+02 -1.022662466889864135e+02 7.488662189201653518e+01 -6.622363481410890529e+01 -3.138201643685793840e+01 1.661901816622644645e+01 -3.225712769729736351e+01 -9.374268806155791367e+01 -2.784223427811218343e+00 1.476094378846999788e+01 1.087619030749544606e+02 -1.284297479871244434e+02 4.192250008375927450e+01 6.371736287900751705e+01 3.448867935105778315e+01 -9.051947437245057415e+01 -1.483481234151819024e+02 1.929047415326015198e+02 -1.777913771411127897e+01 2.514767567901024137e+01 1.562984898271192549e+02 2.661296772571759206e+01 2.767770043739231767e+01 -4.444947464639595580e+01 8.840681910537382748e+01 -1.360113987790742271e+02 -3.072251121244901029e+01 -6.121453899040235846e+00 -5.325426855344707633e+01 6.256197729019824294e+00 2.120541772170685491e+01 -3.568374949142263119e+01 1.362512386569963674e+01 2.130601901208578965e+02 -2.731248489083058928e+01 -2.790640069944051760e+01 -1.013236685209211174e+02 -1.634723748773821539e+00 -8.046673905103288860e+01 6.360310286978259064e+00 1.116882398165620032e+02 -5.183635340643266431e+01 6.021636537477208506e+00 -5.411061058791189993e+01 3.306127034632967643e+00 8.687049188676459721e+01 -1.154112877403038908e+02 -9.646251429285629797e+01 -1.021824726433760731e+02 7.108280068832037557e+01 8.621949186946935129e+01 -9.188505816813102456e+01 6.238693335983513322e+01 2.572939566635649555e+01 3.853316762571127185e+01 -1.767464508775608678e+01 9.098436713177372326e+01 7.938121766636965049e+01 -7.694158508538477292e+01 1.176232582439091345e+01 8.054498197458337927e+01 7.254355158474258758e+01 -1.981949709275372840e+01 2.486365801839830070e+01 -1.320369855525241292e+02 4.832849924000407071e+01 -3.263936581141814486e+01 -3.253722674812962623e+01 1.724485074571954328e+02 4.722144979113583219e+01 1.196899445911090965e+02 1.901506512086793350e+02 -1.370909057277842464e+02 1.484495994457834342e+02 -6.316238734538234212e+01 -1.345620328094109937e+02 8.196214308811127580e+01 -1.334807127990540607e+02 -2.858852014581001200e+01 5.616072467973524596e+01 8.022649126019405941e+00 -1.674331868428850782e+02 8.389421145040772387e+01 2.512338063629934481e+01 6.879116829146779821e+01 3.614138554287403338e+01 9.427602829635977955e+00 -6.682438993840332842e+01 1.152126942101999418e+02 5.425499328053759740e+01 -6.184879273721193016e+01 -1.008021833546201549e+02 3.875136374315263765e+01 2.560003277059610838e+01 8.204026309626212310e+01 1.829790241148315033e+02 -2.451438984255109332e+01 -1.096743470775960105e+02 -8.432471544998841750e+01 -5.109231930839676039e+01 -4.414700471800713899e+01 -1.460761469041667056e+02 -2.241933999837403846e+01 1.289424620084301409e+02 7.420211705823224690e+01 -1.218247580132718184e+02 -1.492342040742844631e+02 -6.778476507117410677e+01 -7.598763298251802212e+01 1.461417616854150481e+02 -1.697006916486302543e+02 8.617039687678277460e+01 -4.586426743021358554e+00 -4.283979545150807411e+01 1.323272304966243595e+01 9.073983251474408007e+01 4.934157013557366867e+01 1.375771830194478866e+02 -1.584130914840141315e+02 -8.060077320626986364e+01 2.524813640663474956e+01 4.173805805759695886e+01 2.051779506182821535e+02 1.447925044260470315e+02 6.524018180186186555e+01 7.177174297775931677e+01 -3.394860873120301648e+01 1.511049486720891366e+02 -1.785284767913133805e+02 -6.312321201022790973e+01 -5.343281588387571190e+01 -5.155177552564431664e+01 -1.027837672332694154e+02 -1.492277251086676593e+01 -6.831315873600590294e+01 7.083413325066774746e+01 -9.105759341818538743e+00 -5.779759143155798995e+01 -6.195649138852431292e+01 1.793363973834706826e+02 5.874645519064554122e+01 -1.366118412304545870e+01 2.078914835069785738e+02 -1.078288822210136715e+02 -3.516045235595498042e+01 6.664110342561667721e+01 -1.342148547801174652e-01 1.489263842921577563e+01 -1.244979470161848099e+02 1.753313836066020599e+02 -4.872269471567182109e+01 -2.678134718411292425e+01 -1.091450618666138297e+02 1.251998427309094808e+02 9.535704148546621184e+01 -7.710139069882211516e+01 -3.740518755378663229e+01 3.874513856043473936e+01 -1.505545040546715541e+02 -1.768640526111980027e-01 -7.428307525545220358e+01 7.647395934083299096e+00 -1.074822192984277365e+02 -1.576113727097531125e+02 -7.026841789873407151e+01 1.472952101838826025e+02 5.621767844152439153e+01 -8.908308485019917100e+01 8.861396245352266021e+01 3.400542735655924531e+01 8.777347299950643844e+01 -4.184699352096913572e+01 -8.353155310850512194e+01 1.699025547934045903e+02 4.136369833224299697e+01 2.875255600085546348e+01 -7.249311106141418293e+01 -4.201843864638729542e+01 9.462968325568208883e+00 -7.118036418114530584e+00 -1.715977290977940299e+02 -3.436440382641951885e+01 6.393842720117083189e+01 1.107659076174820854e+02 1.545577451359088172e+02 -1.317953934530114779e+01 8.893060697736893871e+01 1.564987695957827043e+02 6.291011392068964625e+01 1.465277866079100306e+02 1.593356036640333961e+01 1.302123177003432772e+02 -8.323023697968557144e+01 5.288414135733441412e+01 2.905837468266621926e+01 7.517424340522416060e+01 -1.052314950385408849e+02 1.961862500059326919e+02 -1.274941434949823673e+02 8.745168583168852194e+01 -1.063281506893941781e+02 4.569139832153167191e+01 1.366311557684921496e+01 8.974899322995345585e+01 -7.287476859584960209e+01 -7.469575163023611708e+01 -1.102431007924099937e+01 8.810220550194486577e+01 -2.925634487715018039e+01 -1.611561304031237896e+01 -1.940418990374078945e+01 4.680392068457994270e+00 9.694909399966373087e+01 -6.177953913875079195e+01 -2.674048365111126202e+00 -1.912241026768884637e+02 1.202476473711440832e+02 -1.230315253907266140e+02 -7.277776173854721264e+01 -2.318086355660799924e+01 -1.063378165015932950e+02 -5.236073314747812901e+01 -5.770781423498396379e+01 -1.939098042278007128e+01 1.342022728166210186e+02 5.324962284874812468e+01 9.891193914173838664e+01 -1.340503566243388605e+02 -1.364884567511909950e+02 -2.823157830390287586e+02 1.006376972215743990e+02 1.026740371803976331e+02 4.167057598499027193e+01 -4.181619931818881497e+01 -3.662599191313048408e+01 -1.809018692557835948e+02 1.439089309338045268e+02 -1.057993322263084792e+02 1.053565930130332760e+02 -1.568141236872193076e+02 -1.410188457364874814e+01 -5.454777478320442441e+01 -1.174753831840652083e+02 -4.541405908051766716e+01 -1.233853653524175620e+01 -9.129024209405440615e+01 -1.019366754710984253e+02 -1.217537544245896086e+01 7.013391191811393810e+01 -1.227711300116877453e+02 -1.542379428299465793e+01 -7.266189165832487618e+01 -1.294730215271947316e+02 6.524888207799607542e+00 9.372874165198012975e+01 1.631095577049874237e+02 -1.878443271132142556e+01 -4.538201288289037905e+01 -1.223701807839502465e+02 -1.612632406671342835e+02 1.023082209307130910e+02 -7.170417475446552658e+01 7.787841579336379993e+01 9.267258785056423420e+00 2.881504305901623297e+01 7.281014363475144080e+01 -8.357059788846450488e+01 8.153111913890784024e+01 1.136857169785967727e+02 1.553090946432906208e+02 -1.149431783449708604e+02 1.025303871357344292e+02 -4.712634305934873424e+01 -8.956162654620564467e+01 2.116686429556898190e+02 4.855710332169013554e+01 8.233565125055376654e+01 2.095020198833481473e+01 -6.238718866928544315e+01 -3.446158992362880014e+01 -2.075312947686861094e+02 1.042052639558599196e+02 8.038787939920479175e+01 -7.467254106866195684e+01 -7.213668294324278918e+01 1.432241440662229195e+02 9.969638491912033373e+01 5.042589921586110790e+01 7.504141291944176828e+01 -7.759754859036622321e+00 1.017954039360838010e+02 -1.021651963760597255e+02 1.838479439596835618e+02 -3.894882998989954359e+01 -1.203514050104903390e+02 -3.718384237472302090e+01 7.077243754147505683e+01 1.453429776281427905e+02 1.270259358891718016e+01 1.714738578853456090e+02 5.148734121145088238e+01 3.317449550148085535e+01 -1.098067570683927272e+02 4.418714688938554502e+01 -1.233176819855229382e+02 4.706446278474895450e+01 3.807919358150555666e+01 -1.217002473053242966e+02 -8.389017858925352300e+01 3.931292951930625179e+01 8.607683572227282198e+00 -2.290497358826245744e+01 4.130931377435205576e+01 -2.111259885644878054e+01 -6.223896277678296229e+01 -2.585020519586643672e+01 -2.212990147948201880e+01 -3.928536818461042657e+01 1.851596596183699361e+01 -7.943091889188407606e+01 1.173391594201608683e+02 -7.329115664558989351e+01 -4.177720619949175429e+00 6.470036928934337084e+01 3.830933540592211806e+00 1.574220612500366379e+01 1.575030206071063787e+01 -1.155380696647709442e+02 -4.351566998480635995e+00 6.416739295331092308e+01 -2.282964362741119828e+02 -8.372563313153997910e+01 -1.111756256077616030e+02 4.320178819434025286e+01 9.490985029279163143e+01 -9.051280146386790193e+01 -1.656015588890280412e+02 -1.826510511549982994e+02 1.968905364896982491e+01 -1.429364614304328711e+02 -6.237188547475033040e+00 1.455175144292551579e+02 -6.984560352981250553e+00 3.659053408799952223e+01 -9.739816149063820205e+01 7.860103927069278029e+01 -1.166359949953460386e+02 -1.517155671816587237e+01 -2.978570315633875154e+01 5.660774535326408596e+01 -8.701269733774243065e+00 1.038244417965134261e+02 -1.199032236349408009e+02 -4.918005971450539704e+01 8.503573838296740917e+01 6.492304708727446894e+01 -8.078388578911921059e+01 -5.337579316847021005e+01 -4.842468002054522458e+01 -2.837492037307233659e+02 1.897151556289874179e+02 7.456656887001599898e+01 -2.310530270053971691e+01 -2.906491107958608566e+01 4.067666527842696667e+01 -8.237423499900319257e+01 9.742639846488691546e+01 5.919161729869318833e+01 8.020061732093206786e+01 -8.227821113895707583e+01 -2.594679150268885337e+01 3.259771346522241942e+01 1.699876200749466904e+01 -4.189052831932549736e+01 1.544353969799930439e+02 -1.689943708407752609e+01 3.461014467196086031e+01 -2.246750293535945957e+02 -8.275368107044003807e+01 -7.148801900837662515e+01 2.249994020897564795e+01 1.066883795975233369e+02 -2.264264731319649684e+02 -1.827537502258492452e+02 2.165574495732448099e+02 -1.032366591514519349e+01 9.384421478428049568e+01 6.122729394891739219e+01 -5.407636063568194373e+01 -1.279829828340249520e+02 -9.296843415153773549e+01 -4.909539158955310256e+01 -3.655805623502209301e+01 -3.825676457346211379e+01 1.577478610654315716e+01 3.632904076028412987e+01 1.630009164974348153e+02 1.203916479111968272e+02 6.809504374674134830e+00 -4.299373195114899460e+00 -1.551014802992330601e+02 1.168920500931437942e+02 1.556324397283822805e+02 -1.010601031677610280e+02 7.202470087051706571e+01 1.683560057199972926e+00 5.365581391774239961e+01 1.225074691318131528e+02 6.930744114918739740e+01 -1.309558625421828424e+02 1.575666753601718639e+01 -2.871209315321715394e+01 1.088827372372353430e+01 -2.259518650422052133e+01 4.430725879959572922e+01 -2.546890269726540339e+02 1.770872631935232846e+02 7.117432133359235635e+00 1.558529638445101284e+02 -1.030095472263297118e+01 1.038221961903291941e+02 7.005819759044854322e+01 -4.106772856586537301e+01 2.928173793843113870e+01 -7.125114452486987204e+01 -8.708935300373399002e+01 -7.052708090795714213e+01 -3.137868559614561903e+01 4.422490322393590390e+01 1.078653873705797679e+02 2.788633002689915230e+01 6.086261720199464520e+01 -1.026780672661785729e+02 -1.343400049977736046e+02 -1.320982350298546670e+01 4.544984120375659842e+01 -4.455163162823163958e+01 9.267933314651321552e+01 5.442826933265505573e+01 -2.709343978690592536e+01 2.935177428910345299e+01 6.017220683288309147e+01 -7.068070185191888299e+01 -1.310953259375158950e+02 1.392905643668132143e+02 7.661494814321423874e+00 4.917304466746166014e+01 -1.464527025143900971e+02 -5.239639084173467865e+01 -4.369803402690103367e-01 -6.454953845389006517e+01 4.185548219284760840e+00 5.525903375264288542e+01 1.830469624001549391e+02 3.842220789449780227e+01 -1.076315491875545227e+01 7.094774543784740217e+01 -4.466905413484196430e+01 -1.070638163717404581e+02 -1.357799071714672436e+02 9.204783760875010046e+00 2.468182028182200582e+01 2.341557707555779544e+01 -5.592335620524174544e+01 1.188027544020817317e+02 -7.949189636507819046e+01 1.262183770160351912e+02 8.587266707458016413e+01 -6.399059272673106591e+01 -8.338086535278903000e+01 8.287117143068796565e+01 2.012000428523533557e+01 -5.169158872928238679e+01 -5.300683384958470867e+01 1.346274878391040204e+02 5.645167318626590713e+01 7.870348661498807985e+01 2.575575892279439927e+01 -4.143579857524807863e+01 1.058546935076795847e+02 -5.377385231930124121e+01 5.487420123425497120e-01 7.545390279604791317e+01 9.818010576503405673e+01 2.519219661534681336e+02 -1.727491384223950206e+02 1.587160530487306573e+02 -6.664557639775983944e+01 -1.502481409190686179e+01 -2.476443545279621361e+01 -2.045805374257576048e+01 -5.441898031546957526e+01 9.178303751160900958e+01 1.817316390993239565e+02 -1.173168475594620475e+02 3.055729960497048481e+01 -1.253987532593994843e+02 6.937937410748683931e+01 -4.397483566000396138e+01 -8.011967936403578960e+01 -5.332212380651576922e+01 4.075992881821085234e+01 1.917804869639115850e+01 -8.096027173239670560e+01 -1.396881472482421316e+02 2.057120578510878417e+01 1.561753855714349868e+02 1.416005348803997066e+01 1.809068438014409139e+02 7.396774620755930840e+00 1.335266192551321467e+02 -3.431770877948870435e+01 9.004169913849621310e+01 -7.090709891086366667e+01 -1.120910085015563453e+02 4.908997858498755562e+01 -5.761528652908760506e+01 -7.801823539094145588e+01 7.241742720450666582e+01 6.422536046530839648e+00 -9.373192888091257657e+01 -1.497292618081836224e+02 1.471304583803716923e+02 -8.872297740664265575e+01 -2.347908918457211502e+00 1.195383062431112506e+02 5.776599790702944404e+01 -9.780175441643386591e+01 1.059840904214082968e+01 2.809884151515767599e+02 5.312087629753369100e+01 -1.572063132900890992e+02 -4.757536832361404322e+01 -6.133003734363931869e+01 9.596541757743146661e+00 1.072929412907158309e+02 -1.032462570526982262e+02 2.153342072293339271e+01 1.302222845114918073e+02 1.873986365499146345e+01 -2.109028779098517248e+02 4.823620829046386405e+01 7.536943268564725429e+01 -1.356670416584763217e+01 3.274677220243597731e+01 1.575937284802444993e-01 2.250368576518700436e+01 2.769980708272789727e+01 1.156862758104354896e+02 9.791757792318117026e+01 1.557522072681298475e+01 1.488477163105282273e+02 -6.394733180233904335e+01 2.463760548720989334e+02 6.496574410312895509e+01 1.415711710898528111e+02 -2.194653068548280572e+01 8.998759411528165231e+01 -4.893351441115358114e+01 -1.462514015266139609e+02 2.615288698323735161e+01 9.495069713665526479e+01 -8.751973605976411363e+01 -1.046652724325775807e+02 -6.649251074240039827e+01 3.658211717994735324e+01 -1.141328856958089801e+02 7.466444380280884729e+01 2.803712106471750687e+01 -9.755337904731203480e+01 1.898154212862951056e+02 -1.175525154214669143e+01 -1.017059862954166363e+02 -1.339212892342489702e+01 -2.042458138076165852e+01 -1.401510875624852588e+02 -4.000601900359522034e+01 6.147776431306230194e+01 1.317215804936150789e+02 2.901897174835483284e+01 2.674008079327217402e+01 4.476743162895650840e+01 -3.571709284641616478e+01 -1.455412041183572569e+02 1.586834517911135478e+01 3.095810019601925234e+01 1.330538005122999152e+02 -9.906792011456669655e+00 -7.610229735932657036e+01 7.317549878163912069e+01 9.847199121252077081e-01 3.185430307076581258e+01 1.391975098395677151e+02 -1.774453007597886369e+02 -9.282604825614428989e+01 1.246931612380730883e+02 -2.095663214631674691e+02 -1.786474463552226837e+02 8.840822318813042102e+01 1.495901318988546222e+02 6.159076017529618241e+01 -4.337051917758087960e+00 1.512915147933972548e+02 -2.132335528993420155e+02 1.040906202059270953e+02 4.116643216826904705e+01 1.234402177950823329e+02 -1.831964411087093652e+02 1.034792910382238489e+02 -2.744359815031153360e+01 -1.298696863713178686e+02 -5.171562502423207697e+00 -8.975350895943412866e+01 -1.579569701809150573e+01 -4.196682093128520030e+00 -1.196690466223053022e+02 -1.197906575994710323e+02 -6.077985768086991669e+01 -1.252264220239464265e+02 1.952369592372359932e+02 -1.564697877944317099e+02 -4.874017219135946988e+01 1.676038597659886591e+02 3.295844666927452948e+01 -2.875227260630901469e+02 -1.234748915635385202e+02 3.449473245666911936e+01 5.309224634089112271e+01 8.322330826896498834e+00 -1.501848875434211834e+02 3.466535189772142189e+01 7.275119287741364182e+00 -7.220229499828565167e+01 1.969251754306693272e+02 1.967854037236608349e+02 4.216639112778386433e+00 -2.025740375977096335e+02 1.223785701817851788e+02 2.987874786316567821e+01 3.678743820604309711e+00 7.441132311482390094e+01 -2.015420607228697065e+02 -1.340757532859434775e+02 1.369912251051932230e+02 1.065106183659857351e+02 5.140058205168405436e+01 1.391003485405998674e+02 -1.731600717236646858e+02 -1.986641854517888106e+01 -1.266804924599120881e+02 4.238302227508631859e+01 -1.008960161326240552e+02 8.456809923437066345e+01 -3.293172598941042395e+01 1.202944500392765192e+01 1.723546669498773554e+02 2.770867708663333318e+01 -2.560219204098419254e+02 -1.227576467137200780e+02 -8.095986729678686800e+01 1.535788096001569727e+02 1.217875908754645486e+01 -5.231482865684434103e+01 2.947850755436537540e+01 6.070900331830635821e+01 -3.842875746100290968e+01 1.044324689613775661e+02 -9.785608647922428815e+01 4.780329544567173627e+01 1.087238689945329071e+02 -3.447205608035508106e+01 -9.531361624357595019e+01 -1.101917717378691748e+02 1.163293923673316641e+02 -4.825039408823475640e+01 1.909195806510898024e+02 5.556603554943411183e+01 1.077701492116250108e+02 1.791820233660459678e+02 8.312942989873626232e+00 -1.207356988049194939e+02 -1.609933259922291029e+02 -1.109040421654665778e+02 4.127658840662578399e+01
-1.290676162156145068e+01 -4.585602476268991978e+00 9.824736812960225052e+01 -2.173029970007354734e+02 1.474587214705491931e+02 6.024934488682209377e+01 1.443491065492450502e+02 -1.225459509020385838e+02 -2.630604138539650361e+00 -2.283281956334787921e+01 -2.082413773938583859e+02 3.104184002232556594e+01 -1.738166894005557594e+01 1.160369018908176741e+02 -1.186780914907559321e+02 5.854871876731007063e+01 1.188624305720522187e+02 -4.359521605234324682e+01 -4.706986608159743213e+01 -2.562160489123051832e+01 5.855532251762320328e+01 5.984721235311623388e+01 3.076538742837717777e+01 -2.205814042277129090e+02 -4.893599937651109144e+01 8.683495441281912974e+01 9.401435491891087182e+00 -9.837616108673097770e+00 -6.310986786512532376e+01 -1.469047902201553235e+01 6.957146534630945212e+01 -1.379343710806487593e+02 -5.875637129281597737e+01 8.516911111951428026e+00 1.968919625161383351e+02 2.011559732551889113e+02 -3.046778095412319232e+01 5.301248551214116134e+01 -2.515643970960091402e-01 -1.324695370493181485e+02 9.103822588428904794e+01 1.017116615070830505e+02 1.029321373519955216e+02 1.108031827025217630e+01 5.870177149308297260e+01 4.564426583320872055e+01 3.687925961121565877e+01 2.784036193302282314e+01 1.046063697684806755e+02 8.509347511189420743e+01 6.220963669681712815e+01 1.546015497953451927e+02 2.350141525223210976e+02 1.855161815246692072e+02 -5.609239693658854264e+01 4.673121800794318403e+01 -6.096448829028560823e+01 5.349380091572463414e+01 -1.822911476849915857e+02 5.359109425207429211e+01 -1.942145336316172006e+02 -1.600325384442337509e+02 1.228317664730547953e+01 -8.780298355118018705e+00 1.608003387777004036e+02 -1.972646185923906330e+02 7.140336442807951300e+01 2.180167633300964951e+02 -6.992842588221497735e+00 -1.847620364862749511e+02 3.372109286432259267e+01 1.870604277056810645e+02 -5.796934631230998036e+01 -2.528558845023371475e+02 -9.730192837659575389e+01 8.429965979096046169e+00 -2.182954470340943942e+02 3.042629055059907373e+01 -1.702770547833928276e+02 -1.760890815377276795e+02 -5.424061345111342547e+01 1.446822220122365081e+02 6.593563229785632984e+01 1.007494964828395467e+01 -8.416346969442294323e+01 -4.044430817373770992e+01 6.051672285642789006e+01 -2.204139044516853971e+02 5.137515351857251034e+01 -7.118937122562822140e+01 -7.420412024629912651e+01 -1.679215217886227549e+02 6.178575237305451395e+01 8.807087127653994685e+01 -1.541911617608985523e+02 1.641455404042386590e+02 -3.789165929856072523e+01 -1.607503655902824846e+01 8.325256126199603557e+01 1.485462787130865365e+02 2.064614927714566051e+01 1.439246735035926008e+02 -1.757631125794385341e+01 -8.620294908168847314e+01 -1.863716996577418783e+01 9.605994106143123190e+01 4.394963141826357145e+01 9.560499612870496833e+01 9.224413756667864561e+01 -8.119563060649203123e+01 -1.660609863902639347e+02 1.202633985241827901e+02 5.301812589679224175e+01 1.584628545160758861e+01 2.988349592490415318e+01 -6.639319316696830242e+01 9.386887340518131850e+01 8.783668364322261368e+01 -1.340293014772379898e+01 -6.965709439678133208e+01 3.003586927373986626e+01 6.141721796758381480e+00 -6.013102022803342805e+01 1.658056415998529758e+02 -3.213549809927513934e+01 1.189182504847250357e+02 -6.855615697847601098e+01 3.754517066163512595e+01 -3.529369244350691304e+01 8.752637693127202567e+01 2.296515522912361718e+01 1.130741994757045461e+02 -1.135110550091460766e+02 7.274434348703002229e+01 1.208208977429583939e+02 -4.374197563521868659e+01 7.466522956838136160e+00 -1.247103502609751580e+01 1.143265686586639305e+02 3.540611661615766348e+00 1.650837713419665249e+02 -1.384482833185540187e+02 1.142210108326294744e+02 -8.939799086801171768e+01 9.380677690602441032e+01 -1.342320425924634435e+02 2.890695370293843425e+01 2.424508403929361222e+01 1.755526576458311894e+00 3.557677041910127969e+01 4.504069467883643085e+01 -1.214694648048699932e+01 1.064708187493477354e+01 1.059283603241976408e+02 1.247093213455451490e+02 -8.497655150631115362e+01 -5.311438821030112223e+01 4.640499490188275900e+01 1.494433515680341662e+00 -1.342931327373584622e+02 -5.404879356686884506e+01 -3.473840641292043330e+01 4.795565023817196249e+01 -6.427228436202409512e+01 2.247853125147391395e+01 1.573276010093320849e+02 -7.795723384832952263e+01 7.930849677617781879e+01 8.250760546468546863e+01 1.105325827168718078e+01 1.211817753930634893e+02 6.174221603398413549e+01 1.650201270845079478e+02 -3.397730769519731808e+01 1.104612343405165120e+02 5.458383895983761391e+01 -1.578807803689629807e+01 2.006284154393836161e+02 -1.364347678693169144e+02 4.806961209732577345e+01 -1.844673148298865044e+02 -8.279309760616550307e+01 4.037254356885249962e+01 -7.105320819447045722e+01 -1.533391517041264649e+02 1.961920522200071844e+02 -8.444062197079033183e+01 -4.675768279688634976e+01 -4.556458748366327427e+01 1.198828917819064799e+02 1.918026377121431096e+02 6.376688692232468725e+01 1.440358696735144690e+02 2.161605273704733179e+02 -1.582851514142816329e+00 1.604446905248496762e+02 6.982524689229315129e+01 1.875505543374848401e+02 -1.239201748194501533e+02 -1.166987075879583280e+01 6.256104450985692900e+00 1.871110331099575319e+02 -8.951498575005595626e+01 -5.960487663900837418e+01 -5.215092549283903622e+01 -1.320090085456935185e+02 4.599917389963682268e+00 -9.942852904621632604e+01 1.518589478401812300e+02 2.320300564124884701e+01 1.181796422978734817e+01 7.123117539182806013e+01 -4.846953796424027239e+00 1.152474409901984274e+02 -1.565087343531322972e+02 4.474557461773455458e+01 -1.682740468258443798e+02 1.156807489374407396e+02 9.464907420911541180e+01 -6.629497425977967850e+01 4.609467575560278618e+01 2.346060889292421336e+02 -3.001628924993400460e+01 4.103506609492890078e+01 -3.219290272173160616e+01 5.708189725092532996e+01 6.331531274766299333e+01 -6.187697106134891989e+00 1.003864049191352308e+02 9.995950257560549801e+01 -1.909733313127102576e+02 -1.509453694576749285e+02 -1.180391654479359289e+02 -9.294226246932996816e+00 -1.475242965042110654e+02 1.138129371786516373e+02 1.086758689197623937e+02 5.810585203229246787e+01 1.099537349155780142e+01 1.552957995494080308e+02 8.268993313153319491e+01 6.648383759960731254e+01 -1.000679657474995565e+02 1.500830154660284848e+02 -3.540756013045939454e+00 1.076817634913197708e+02 8.685383622205286258e+00 3.618089930974762325e+01 -7.452757609383603210e+01 -8.934240318190046537e+01 7.047838635214407077e+01 -3.795129118630533593e+00 1.439333884041316196e+02 -1.236566995934384394e+01 -2.803273061128309429e+00 4.513153039532378585e+01 2.227216643738033142e+01 1.391625480219847759e+02 1.443862292499849254e+01 3.527361409787113189e+01 -1.521853573899320509e+02 6.475511532044360763e+01 1.314545160267580002e+02 -1.732626944601427610e+01 -2.241857156951926129e+02 8.297009513654370494e+01 1.337476012199805098e+02 1.998560064550801485e+01 1.854884619301657835e+02 -4.148843601586645669e+00 4.205000222212386518e+01 -4.275072057585217067e+01 -1.358352753784438391e+02 5.486703527286727677e+01 -4.649157528033925502e+01 -7.931108647809776357e+01 4.034527395298957941e+01 -1.808042708648394239e+02 7.011852516656541923e+01 1.608232944800697624e+02 -9.898631482200319454e+01 1.691415064221742171e+02 -9.542999996989941280e+01 -5.835191181864830767e+00 -1.029712050391795408e+01 7.487692398724927045e+01 -4.553076164492239286e+01 -1.052757765476286522e+02 -8.649486478378059928e+01 1.423304505511947866e+02 5.769717524221773886e+01 -1.286227074158992139e+02 4.318541199312289081e+00 4.235958994005696354e+01 8.053080759937823530e+01 -3.933417978755722544e+01 5.847323279996837897e+01 -6.725228338639134051e+01 -1.582667889819828417e+02 -3.375791735794023651e+01 1.374078665759218154e+02 -1.105228395013150475e+02 -6.234708553772877693e+00 -1.587216285203774930e+02 -4.699115384085652103e+00 -1.421344849655089604e+02 3.207997988765486497e+01 5.864334421518078244e+01 -4.901976329467701277e+01 -8.022790201365508267e+01 5.490854145843105272e+00 7.244408174633707631e+01 -6.598159036613580497e+01 1.311136235053963048e+02 1.027352393366915777e+02 -1.242257363495113793e+02 -1.026239699445247879e+02 1.314280230638950684e+02 6.937965541716320672e+01 1.461003021270406919e+02 9.732838049619894605e+01 7.890556772038800659e+01 -5.859866058562968760e+01 -7.946898672508913819e+01 -7.489058041002624577e+01 1.987115366065830813e+02 2.971119433587782055e+01 -2.419943142007488746e+01 -6.653307552708325545e+01 -4.851081114907955794e+01 -1.274037718198221967e+02 -1.599295441470926882e+01 -1.697423722289972545e+02 1.209525943635213849e+02 4.448932419984126341e+01 -1.114582322094126425e+02 -4.681728087592075838e+01 1.158227510738331176e+02 -9.376228087469156947e+01 9.946506685900294542e+01 -1.145872074976369248e+02 -1.138843102277287223e+01 -9.236873025007362514e+01 8.678611794960818315e+01 -4.107791615435301225e+01 9.944868282232837586e+00 2.837843511099330840e+01 -1.224630407680761692e+02 1.208610936668855551e+01 4.676097910743674646e+01 -2.162418339887059915e+01 -6.646372627353042617e+01 1.958405253300726656e+02 8.358227749932801487e+01 4.554221257740656625e+01 -3.036609021733566394e+01 7.753969755386454210e+01 1.620129797574772681e+02 -8.916593586892484780e+01 2.024737140757358418e+02 -1.286552459094899348e+02 -1.777598714705747227e+02 1.467225898365967964e+02 -2.261328788145009412e+02 -9.282957694691653661e-01 -2.367236618189103581e+02 -1.477692391970067831e+02 6.936323988214196845e+01 -1.407278224886989335e+02 5.641448599010963250e+01 1.062533470697817535e+02 -1.549640193960252077e+02 -2.909453424039515212e+01 7.288416418448480272e+01 1.294226629123289172e+02 -1.798699760635465736e+02 8.455289185729635903e+01 -9.467802820774414840e+01 -9.525629283472214937e+00 -1.339675235573126955e+01 -7.689790583480134956e+01 -8.726332515897226472e+01 1.752834652619806945e+02 -2.097453853392589451e+01 1.301152156013501759e+00 1.258851265272910496e+02 -8.383333040365309330e+01 -3.328492707343576029e+01 -1.041220848970490351e+02 -4.722082832917859463e+01 4.987556030249424843e+00 5.742813795427629486e+01 -1.307480499181697553e+02 2.296935402267437212e+02 -5.220956573752554419e+01 1.188534504340833138e+02 -4.733205434222902852e+01 1.161403556460165731e+02 1.349498356516673141e+02 4.652230423513501023e+01 1.184372289590637450e+02 -4.194265782468472281e+01 1.358281491827416971e+02 -1.518733609237109761e+02 -6.347752660350473519e+01 -6.112874904967227963e+01 2.481851796055941506e+01 -1.575669801667071965e+02 7.043282505433413121e+01 -2.994558161634189020e+01 -8.024367170204354238e+01 8.699104977673010808e+01 -1.467306335114257649e+02 -8.858751198075960076e+01 -5.111836643896293708e+01 3.211887169690101729e+01 1.260585134638644149e+02 1.134640898206904183e+02 6.710511594150349879e+01 -1.526514967054657834e+00 1.698451753444287533e+02 1.189862617727725791e+02 -9.174266492965743680e+01 -7.586382093252751702e+01 5.362086489428767067e+01 9.667467229744682200e+00 9.514336010337230221e+01 1.619009202977194093e+02 6.855055609102596748e+01 2.372368870703576249e+01 -9.925048301965497899e+01 1.667919039910153458e+02 -1.103616377778161421e+02 -1.604533858837740752e+02 6.380650398263199463e+01 1.082327783641525514e+02 1.907001669482334094e+01 -1.347624415758949681e+02 2.883960598668712905e+01 4.115736347168700604e+01 -3.414639755304520463e-01 1.270413671181538859e+02 9.481230839129813148e+01 1.660014044836586322e+01 7.599744669123177232e+01 -1.037521792580748041e+02 -6.161458214310262527e+00 9.537862915275748321e+01 2.879527214572975780e+01 -6.306161472200919604e+01 1.920481721354784099e+02 2.240869191579297706e+02 -1.216554877761004576e+02 -2.678224372752634608e+01 -2.037361473700106558e+02 -6.996422442611712711e+01 1.517537999282380667e+02 3.270892644129280491e+00 -6.879492586790769337e+01 1.586999362293744014e+02 -6.055286067019866181e+01 -1.556181097691059847e+02 1.323058741721201272e+02 -6.509580528846039726e+01 3.342491842853799966e+01 8.363182793568081763e+01 1.335710943674736484e+01 -2.307560620679534225e+02 4.098412228192620432e+01 -5.970362881815957756e+00 8.726821305707652243e+01 -2.282176316672386918e+01 9.791955842657412745e+01 1.645400822139998098e+01 -8.202306131477919848e+01 -1.983562570088104238e+01 -1.696892501998445084e+02 1.113375878054977193e+02 2.447927310421572855e+01 -4.029804269416771945e+01 -5.015837969050614475e+01 -6.091295296311863439e+01 3.981798037294397119e+01 1.555945638488705640e+02 1.284817898369262537e+02 4.168122171321316927e+01 -1.915798672819475712e+02 -3.756237904784746462e+01 4.242881643822197901e+01 1.135968747041675044e+02 8.442429632935099448e+01 1.494941221222531347e+01 -1.801075309707608199e+02 1.274923366751636848e+02 -2.166313283972291401e+02 -1.992650550661844591e+02 -1.773576032294513771e+00 -7.142313837324995518e+01 -2.334778115707596413e+01 8.434930798229804338e+01 5.414025788107633019e+01 -1.076542745515318273e+02 -1.466473788567584506e+02 1.411960403623113436e+01 1.197538579987312062e+02 2.001855940005741630e+01 -5.490507130997934837e+01 -5.000422533981156192e+01 -1.134932665661996865e+01 1.562412975041473828e+02 2.165466141042125159e+01 -1.712120847700586523e+02 1.264915136569969860e+02 -6.586976964206775165e+01 -4.114271469180682317e+00 1.517883164527551685e+02 -5.153632183490204000e+01 -1.931109050409671113e+01 -1.082788339974101177e+02 -5.916090231382391984e+00 -2.350774526653529861e+01 1.297983829167338001e+02 1.183521113662894493e+02 6.661401888027933182e+01 6.450549291806213148e+01 -1.844023479962341838e+01 1.332432679190042109e+02 -1.111518198522146719e+02 -4.195133890886702410e+00 -8.974803184563653247e+01 1.548479202432080513e+02 7.188895495591269480e+01 5.093283597738147961e+01 8.139049122867540120e+00 -5.253432371696025882e+01 3.388765803264176668e+01 6.634166931104252818e+00 3.591035904062260808e+00 2.375655668243603813e+01 5.891369578868587098e+01 1.678019532662715392e+02 -3.829362452336178535e+01 -5.122585408608902213e+01 6.582551895668544262e+01 1.139928785736339307e+02 -1.262870238009395862e+01 9.061626009933060288e+01 1.025730472588847704e+02 2.077257372111111806e+02 -8.528372704304609897e+01 -1.208913158443357361e+02 -2.822680961455538196e+01 6.125372779219558339e+01 -9.999887413875951481e+00 1.058393876798811135e+02 3.669914001822519367e+01 -1.602295129530843099e+02 4.438987462076085677e+01 -8.813273113206230391e+01 -1.332813131395827781e+02 1.324944210690586601e+02 -7.490346635815798493e+01 5.828054151299674146e+01 1.094895709462398372e+02 -9.749436291567579360e+01 2.313656477710008730e+01 -7.103243339363213238e+01 3.965840477929358343e+01 -1.128491684662325980e+02 6.063167458662339016e+01 5.382255665368069231e+01 3.823428813181882102e+00 8.270784083995769720e+01 -1.504595611581924857e+02 7.514824460713882104e+01 -2.882712821084412980e+01 -1.650428693244552676e+02 9.232134057589527742e+01 2.397635197165606868e+01 -1.916004041377864553e+02 2.298436389210049526e+02 -5.242544829551624153e-01 1.027349982967838855e+02 -1.178101642434946825e+02 -1.897117330773089634e+02 -9.116235906102308206e+01 2.436708510378397197e+00 1.395780605036337363e+02 3.885103818949265708e+00 -9.336706431221800528e+01 4.920480863510492497e+01 1.338768232612778490e+02 6.346927046097936653e+01 -5.053284641785475628e+01 -5.777872013945858498e+01 8.255195899903053203e+01 3.001760638705838247e+01 -1.910566262037396825e+02 -2.025218459015747285e+01 1.651211620679477221e+02 9.652202875197626497e+01 -5.600959903235973769e+01 -1.092200252413137775e+02 -4.168745853358334585e+01 -4.697015606109800956e+01 -1.118039826018412981e+02 -1.802481599904629661e+01 -4.460436565755116334e+01 -1.109926335476067578e+02 -1.288650632746881399e+02 -2.632657742328823858e+01 -1.227699024328405670e+02 -1.307297899775509791e+02 -3.744592377751564527e+01 -5.405583814826702849e+01 -1.084561033407594266e+02 1.884021767381067320e+02 1.065164475768493624e+01 -2.846965366157792943e+01 -1.720727732093658346e+01 7.961960392146708898e+01 1.583434894189876907e+01 2.535022598846549968e+01 -2.151333037034364537e+01 -4.682829720551427499e+01 2.116594947844395236e+01 -1.471340402367875697e+02 -1.611120871109037580e+02 -9.149000427333886876e+01 -1.931512410018032710e+02 -9.069606604508221892e+01 8.681377466872883986e+01 6.212897474110872764e+01 -2.636842944948431722e+01 6.150171600617373713e+01 -1.584656812099265437e+02 -4.135478615721099516e+01 -1.175428313987239193e+02 -6.755519538036176641e+01 2.135239481680139022e+02 -2.077663495229718364e+02 2.077436912902047652e+02 2.527679942076013120e+01 -5.713804541871521536e+01 9.333395196959604334e+01 1.255799679298489764e+02 -5.251461958348497916e+01 -2.062154458303200215e+02 -1.508979632513939748e+02 1.035141360679046443e+02 8.477144424192931638e+01 -1.372110421911071398e+02 3.232881291872836016e+01 -4.016002856436151802e+01 -7.833711738931164348e+01 -2.877000421280143527e+01 -5.548190443474904754e+01 -8.747287850922474206e+01 -3.446470667590725867e+01 4.561091632737827695e+00 -3.307343846086403261e+01 -3.840557156591863919e-01 -1.450657868077957957e+01 9.306614053093616690e+01 1.286414019270654308e+02 1.332198734283559460e+01 1.700107139418295787e+01 -6.389477778650267936e+01 -1.984229407587122580e+02 3.425983183995632686e+01 -9.283300994144984486e+01 2.614973994026661330e+01 -8.244980705498869966e+00 1.055972859532314789e+00 7.320910157302370180e+01 1.233636390480972835e+02 -7.133136851924321320e+01 3.845919702584540545e+01 -1.952162875531402335e+02 9.797381864279524066e+00 7.044298416984625000e+00 -1.240427650914883912e+02 -3.412529122437027240e+01 -4.486506434481741223e+01 4.824578216189246760e+00 -1.034848789980165122e+02 2.738036077650419386e+01 -9.882828036383325809e+01 5.675894094871736684e+01 6.868426057157815023e+01 3.733788201078985480e+01 -2.936732744256655891e+01 1.087647906425262505e+02 6.182233554650530039e+01 8.096240745039337128e+01 -6.780455522545183555e+01 2.051340443373284828e+01 1.294028746173607942e+02 -5.917750874288888951e+01 -6.997855008994769754e+00 3.236373349852423331e+01 -1.299189468950263233e+02 9.895035255179708145e+01 9.061204976533834099e+01 -1.023251727215590421e+02 -8.329365957753644523e+01 -5.616377132411131612e+01 -4.611949612860182413e+01 -1.620502744026183848e+02 -1.374342435335717880e+02 -1.339582001280925283e+02 1.068320754723257551e+02 6.044948574616458359e+01 1.612685750733465682e+02 7.280547242536921537e+00 -8.663340818345938033e+01 1.894654023401220755e+01 1.397600496460090902e+01 -6.420854761080931894e+01 7.482157685606514974e+01 1.192787216263846091e+02 1.007596903184859904e+01 1.448376710621871553e+02 2.272624352728112740e+01 1.120634166404927754e+02 1.523126763588102683e+01 -2.098339318635825919e+02 2.205164751954720543e+02 -4.941230102488362519e+01 -1.505299383490634000e+02 -6.783245093844519147e+01 -4.329243401752163578e+01 4.158900223316415889e+01 2.571474956708806658e+01 4.595616230531992130e+01 -7.440131937978397048e+01 1.228515742532121209e+02 -8.657446520097921905e+01 -7.035824884132008350e+00 1.428782596437108623e+02 1.099126353872089368e+02 5.816432560248861705e+01 -1.774180743659288453e+02 2.548138487338469815e+01 1.406273391621145947e+02 2.346116796308974628e+01 9.767585899806073257e+01 1.064788707680771438e+02 -2.114716147796160612e+02 7.690688186550075045e+01 -5.772408750452352422e+01 -2.247308877829026414e+02 8.837253994429218551e+01 2.451585983383636602e+01 -1.212210391310285900e+02 -5.809317790632945844e+01 1.374985878172836919e+02 1.459766800821851405e+02 -7.494268016342815031e+01 -1.261442704594898601e+02 -8.226360219945924257e+01 -1.633625747787252749e+02 1.925694841885728792e+01 3.730304971998836550e+01 -1.667581168271918557e+01 -1.215136674674588235e+01 -8.777473392058759316e+01 -8.653868348119952714e+01 -2.413281694376011188e+01 1.306889405609179562e+02 1.327949157242345848e+02 7.901557371126953910e+01 9.450188867556515504e+01 -7.638203477924052720e+01 -1.754303420176368604e+02 -1.282430822547425819e+01 -2.244382063860723164e+01 -6.885596393294193263e+01 1.444842831410653838e+00 7.081515209165590363e+01 -5.129020698984048465e+01 2.391810638589925020e+01 7.674806578035125426e+01 6.794432857095254974e+01 1.071353273423462156e+02 -1.445762402252009053e+02 3.841641928254962579e+01 8.074578696029296054e+01 9.183854850743327347e+01 5.723786414281678248e+01 -1.000552043068122572e+02 1.327090223564035512e+02 1.235451773197669354e+02 9.289090561726844442e+01 9.840526428522575486e+01 -8.162105103745578560e+01 -1.440695435141523006e+01 -1.254087759036594818e+01 7.467311831439219816e+01 6.296900849623876439e+01 5.427020179078571971e+01 9.456464155301095786e+01 1.129040724868280989e+02 1.201018295953355874e+02 -6.286840143198168818e+01 7.812117997453249529e+01 6.322721595498016001e+01 -1.140363002497253007e+02 1.275533374711727816e+02 -9.722093312847034596e+00 -2.706884426895841500e+01 1.932185200786111920e+02 8.580528913372630484e+01 1.203657745548714928e+02 -1.400108027311191563e+02 -1.530797931308340196e+02 -1.491413965642568087e+02 -1.185492800401564892e+02 -4.298268218087178383e+01 1.065802182559462352e+02 -1.637764095308744743e+02 3.157891138976734169e+01 1.402197085670616161e+02 -5.766458694732202162e+01 -8.876730575159980674e+01 -3.414125865612659538e+01 1.320824513148999699e+02 2.210044921512368035e+02 -6.484429980740625865e+01 1.927849457536966327e+01 -2.693374130194594684e+01 6.664222882456576258e+01 5.862629034424805496e+01 -2.075307733415754399e+02 -8.630926691855722765e+01 1.339449666233203402e+02 1.361141254519960739e+02 9.205631155319908032e+01 -4.852553892867305052e+01 -7.382614306675795035e+01 -4.421584658144162461e+01 -1.720052159742490119e+02 6.931643941993701219e+01 -2.500082691416688974e+01 1.621335916550585807e+02 -2.722640704147123714e+01 -3.066280444799159000e+02 1.412159597987215989e+02 4.899073781089179391e+01 -1.149957683203591188e+02 -2.161112462618140029e+01 3.442396332940354853e+01 -2.025132613595872328e+02 -1.114342264267731082e+02 -1.069109426004214498e+02 -5.501684886340490976e+01 6.124528862131944607e+01 -1.607859386790473764e+02 1.052605564319944023e+02 -5.298934465346456335e+01 2.848793131973691661e+00 -1.301636752157306773e+02 -1.011182920560501941e+02 1.715817390802964724e+02 8.456631523390416305e+01 -4.121378926964452916e+01 3.626308928094450579e+01 -2.737707000655854017e+01 4.223815986255409172e+01 -1.021206259679451449e+02 9.653381644323523858e+01 4.929854523723515314e+01 -1.160801976566153115e+02 1.139894285463744694e+02 -4.796160736074077846e+01 9.755155102363700337e+01 -4.823969406618304134e+01 8.630203724591373771e+01 -1.498099644115467299e+02 1.393847657732432594e+02 2.418854976357562592e+01 9.831945968632626887e+01 1.274022962034075448e+02 -1.432698375752862603e+02 -8.392468451487199843e+01 -1.032089128284830508e+02 6.533975611928300964e+01 -1.674369857301423963e+02 1.480713153586893043e+02 1.391346504193496401e+02 5.177623516844570162e+01 -8.297684912266349500e+01 5.577405299811164952e+01 -1.049059067407760892e+02 -1.069106884351461240e+01 3.419047488634245013e+01 -1.796272198562724611e+02 -7.975340598165810491e+01 -1.323286215556423784e+01 9.992413885071711377e+01 -4.910173813881048943e+01 1.063308912460413609e+02 -6.291171246484620383e+01 -2.061729692195971211e+02 -1.047523536890485190e+02 -3.330556899714187580e+01 -5.887468435305402892e+01 2.943815315428593848e+01 5.029786347505028488e+01 6.204324889481297234e+00 2.481532073396896720e+01 -1.148369058579497022e+02 5.272252991675989620e+01 3.194467588199823638e+01 -7.064660495224950409e+01 9.080379992003763334e+00 5.518327652748868672e+01 -9.342346516097050824e+01 -5.394966936030258609e+01 -2.366363421311270798e+01 9.557764276838184969e+01 -1.678023158591423680e+01 4.109332868265583194e+00 -2.234669387543405605e+02 -9.310356491068657192e+01 9.694103805019423703e+01 -8.739572923885302203e+01 3.070763496298491546e+01 3.043753784343826396e+01 3.715756633656241803e+01 6.476215714157621051e+01 -1.739211090495946905e+02 1.411171982699609657e+02 7.990428161382085648e+01 -7.381331144670292943e+00 -7.920717596181157205e+01 1.096776981389054271e+02 6.087366192195638348e+01 -1.971567441743956692e+02 -4.938834235426610064e+01 -8.010064362597623244e+01 -5.080328345285723657e+01 -6.070692508666959952e+01 -9.708901704096153651e+01 -5.918388825459372526e+01 1.877783534044486373e+02 -1.674317175576733234e+02 6.419820868485876986e+01 2.720511756072736276e+01 -7.372507695663207983e+01 1.019035238236240914e+01 -3.866467916571225771e+01 3.368068487298593094e+00 -9.428287450424353722e+01 -1.937486240940288269e+02 1.803958230041963517e+01 4.109334357547059113e+01 -1.254994272610235306e+01 -8.811962134648318568e+00 -3.901400523362003980e+01 -1.862629723766820291e+02 -3.005076640757840423e+01 -6.410628122830081566e+01 1.368150463663764427e+01 -1.531550353694528432e+01 8.884521257440762554e+01 -6.183306701256306326e+01 -1.017128000980794980e+02 -3.503398104756578135e+01 -8.820910774735668980e+00 4.460050137358334865e+01 -2.170664640783345689e+01 -7.238828125218545040e+01 -1.557781692552566177e+01 1.967215237099079772e+01 4.660385073485041119e+01 -1.118434404077132456e+02 -1.364056988474690399e+02 2.260164619946993980e+02 -2.141878912236001895e+02 -7.451259384957096188e+01 -4.546139966585591452e+01 1.372382949547983060e+02 6.209622938974090545e+01 2.246391126647312433e+02 2.402002702903046156e+02 -6.119217903316660312e+01 1.270480031411505450e+02 -5.496317244607823227e+01 -4.006032365007006746e+01 -9.876182259820969023e+01 -7.835977777272609046e+01 -6.826380519964916971e+01 -8.736447320506280789e+01 -2.392678507146243021e+02 -2.658401874244839860e+02 1.321937085561349932e+02 -2.604671504482698197e+01 5.228415526462020324e+01 1.284792135489020666e+02
