# 
#                 ----------------------------------------------------
#                 Data from a 3D direct N-body simulation. 
# 
#                 rows are i-particle; 
#                 coumns are :mass, tag, x ,y, z, vx, vy, vz, ax, ay, az
# 
#                 NTHU, Computational Physics Lab
# 
#                 ----------------------------------------------------
#                 Time = 4.399999999999951
1.000000000000000000e+00 2.000000000000000000e+00 3.000000000000000000e+00 4.000000000000000000e+00 5.000000000000000000e+00 6.000000000000000000e+00 7.000000000000000000e+00 8.000000000000000000e+00 9.000000000000000000e+00 1.000000000000000000e+01 1.100000000000000000e+01 1.200000000000000000e+01 1.300000000000000000e+01 1.400000000000000000e+01 1.500000000000000000e+01 1.600000000000000000e+01 1.700000000000000000e+01 1.800000000000000000e+01 1.900000000000000000e+01 2.000000000000000000e+01 2.100000000000000000e+01 2.200000000000000000e+01 2.300000000000000000e+01 2.400000000000000000e+01 2.500000000000000000e+01 2.600000000000000000e+01 2.700000000000000000e+01 2.800000000000000000e+01 2.900000000000000000e+01 3.000000000000000000e+01 3.100000000000000000e+01 3.200000000000000000e+01 3.300000000000000000e+01 3.400000000000000000e+01 3.500000000000000000e+01 3.600000000000000000e+01 3.700000000000000000e+01 3.800000000000000000e+01 3.900000000000000000e+01 4.000000000000000000e+01 4.100000000000000000e+01 4.200000000000000000e+01 4.300000000000000000e+01 4.400000000000000000e+01 4.500000000000000000e+01 4.600000000000000000e+01 4.700000000000000000e+01 4.800000000000000000e+01 4.900000000000000000e+01 5.000000000000000000e+01 5.100000000000000000e+01 5.200000000000000000e+01 5.300000000000000000e+01 5.400000000000000000e+01 5.500000000000000000e+01 5.600000000000000000e+01 5.700000000000000000e+01 5.800000000000000000e+01 5.900000000000000000e+01 6.000000000000000000e+01 6.100000000000000000e+01 6.200000000000000000e+01 6.300000000000000000e+01 6.400000000000000000e+01 6.500000000000000000e+01 6.600000000000000000e+01 6.700000000000000000e+01 6.800000000000000000e+01 6.900000000000000000e+01 7.000000000000000000e+01 7.100000000000000000e+01 7.200000000000000000e+01 7.300000000000000000e+01 7.400000000000000000e+01 7.500000000000000000e+01 7.600000000000000000e+01 7.700000000000000000e+01 7.800000000000000000e+01 7.900000000000000000e+01 8.000000000000000000e+01 8.100000000000000000e+01 8.200000000000000000e+01 8.300000000000000000e+01 8.400000000000000000e+01 8.500000000000000000e+01 8.600000000000000000e+01 8.700000000000000000e+01 8.800000000000000000e+01 8.900000000000000000e+01 9.000000000000000000e+01 9.100000000000000000e+01 9.200000000000000000e+01 9.300000000000000000e+01 9.400000000000000000e+01 9.500000000000000000e+01 9.600000000000000000e+01 9.700000000000000000e+01 9.800000000000000000e+01 9.900000000000000000e+01 1.000000000000000000e+02 1.010000000000000000e+02 1.020000000000000000e+02 1.030000000000000000e+02 1.040000000000000000e+02 1.050000000000000000e+02 1.060000000000000000e+02 1.070000000000000000e+02 1.080000000000000000e+02 1.090000000000000000e+02 1.100000000000000000e+02 1.110000000000000000e+02 1.120000000000000000e+02 1.130000000000000000e+02 1.140000000000000000e+02 1.150000000000000000e+02 1.160000000000000000e+02 1.170000000000000000e+02 1.180000000000000000e+02 1.190000000000000000e+02 1.200000000000000000e+02 1.210000000000000000e+02 1.220000000000000000e+02 1.230000000000000000e+02 1.240000000000000000e+02 1.250000000000000000e+02 1.260000000000000000e+02 1.270000000000000000e+02 1.280000000000000000e+02 1.290000000000000000e+02 1.300000000000000000e+02 1.310000000000000000e+02 1.320000000000000000e+02 1.330000000000000000e+02 1.340000000000000000e+02 1.350000000000000000e+02 1.360000000000000000e+02 1.370000000000000000e+02 1.380000000000000000e+02 1.390000000000000000e+02 1.400000000000000000e+02 1.410000000000000000e+02 1.420000000000000000e+02 1.430000000000000000e+02 1.440000000000000000e+02 1.450000000000000000e+02 1.460000000000000000e+02 1.470000000000000000e+02 1.480000000000000000e+02 1.490000000000000000e+02 1.500000000000000000e+02 1.510000000000000000e+02 1.520000000000000000e+02 1.530000000000000000e+02 1.540000000000000000e+02 1.550000000000000000e+02 1.560000000000000000e+02 1.570000000000000000e+02 1.580000000000000000e+02 1.590000000000000000e+02 1.600000000000000000e+02 1.610000000000000000e+02 1.620000000000000000e+02 1.630000000000000000e+02 1.640000000000000000e+02 1.650000000000000000e+02 1.660000000000000000e+02 1.670000000000000000e+02 1.680000000000000000e+02 1.690000000000000000e+02 1.700000000000000000e+02 1.710000000000000000e+02 1.720000000000000000e+02 1.730000000000000000e+02 1.740000000000000000e+02 1.750000000000000000e+02 1.760000000000000000e+02 1.770000000000000000e+02 1.780000000000000000e+02 1.790000000000000000e+02 1.800000000000000000e+02 1.810000000000000000e+02 1.820000000000000000e+02 1.830000000000000000e+02 1.840000000000000000e+02 1.850000000000000000e+02 1.860000000000000000e+02 1.870000000000000000e+02 1.880000000000000000e+02 1.890000000000000000e+02 1.900000000000000000e+02 1.910000000000000000e+02 1.920000000000000000e+02 1.930000000000000000e+02 1.940000000000000000e+02 1.950000000000000000e+02 1.960000000000000000e+02 1.970000000000000000e+02 1.980000000000000000e+02 1.990000000000000000e+02 2.000000000000000000e+02 2.010000000000000000e+02 2.020000000000000000e+02 2.030000000000000000e+02 2.040000000000000000e+02 2.050000000000000000e+02 2.060000000000000000e+02 2.070000000000000000e+02 2.080000000000000000e+02 2.090000000000000000e+02 2.100000000000000000e+02 2.110000000000000000e+02 2.120000000000000000e+02 2.130000000000000000e+02 2.140000000000000000e+02 2.150000000000000000e+02 2.160000000000000000e+02 2.170000000000000000e+02 2.180000000000000000e+02 2.190000000000000000e+02 2.200000000000000000e+02 2.210000000000000000e+02 2.220000000000000000e+02 2.230000000000000000e+02 2.240000000000000000e+02 2.250000000000000000e+02 2.260000000000000000e+02 2.270000000000000000e+02 2.280000000000000000e+02 2.290000000000000000e+02 2.300000000000000000e+02 2.310000000000000000e+02 2.320000000000000000e+02 2.330000000000000000e+02 2.340000000000000000e+02 2.350000000000000000e+02 2.360000000000000000e+02 2.370000000000000000e+02 2.380000000000000000e+02 2.390000000000000000e+02 2.400000000000000000e+02 2.410000000000000000e+02 2.420000000000000000e+02 2.430000000000000000e+02 2.440000000000000000e+02 2.450000000000000000e+02 2.460000000000000000e+02 2.470000000000000000e+02 2.480000000000000000e+02 2.490000000000000000e+02 2.500000000000000000e+02 2.510000000000000000e+02 2.520000000000000000e+02 2.530000000000000000e+02 2.540000000000000000e+02 2.550000000000000000e+02 2.560000000000000000e+02 2.570000000000000000e+02 2.580000000000000000e+02 2.590000000000000000e+02 2.600000000000000000e+02 2.610000000000000000e+02 2.620000000000000000e+02 2.630000000000000000e+02 2.640000000000000000e+02 2.650000000000000000e+02 2.660000000000000000e+02 2.670000000000000000e+02 2.680000000000000000e+02 2.690000000000000000e+02 2.700000000000000000e+02 2.710000000000000000e+02 2.720000000000000000e+02 2.730000000000000000e+02 2.740000000000000000e+02 2.750000000000000000e+02 2.760000000000000000e+02 2.770000000000000000e+02 2.780000000000000000e+02 2.790000000000000000e+02 2.800000000000000000e+02 2.810000000000000000e+02 2.820000000000000000e+02 2.830000000000000000e+02 2.840000000000000000e+02 2.850000000000000000e+02 2.860000000000000000e+02 2.870000000000000000e+02 2.880000000000000000e+02 2.890000000000000000e+02 2.900000000000000000e+02 2.910000000000000000e+02 2.920000000000000000e+02 2.930000000000000000e+02 2.940000000000000000e+02 2.950000000000000000e+02 2.960000000000000000e+02 2.970000000000000000e+02 2.980000000000000000e+02 2.990000000000000000e+02 3.000000000000000000e+02 3.010000000000000000e+02 3.020000000000000000e+02 3.030000000000000000e+02 3.040000000000000000e+02 3.050000000000000000e+02 3.060000000000000000e+02 3.070000000000000000e+02 3.080000000000000000e+02 3.090000000000000000e+02 3.100000000000000000e+02 3.110000000000000000e+02 3.120000000000000000e+02 3.130000000000000000e+02 3.140000000000000000e+02 3.150000000000000000e+02 3.160000000000000000e+02 3.170000000000000000e+02 3.180000000000000000e+02 3.190000000000000000e+02 3.200000000000000000e+02 3.210000000000000000e+02 3.220000000000000000e+02 3.230000000000000000e+02 3.240000000000000000e+02 3.250000000000000000e+02 3.260000000000000000e+02 3.270000000000000000e+02 3.280000000000000000e+02 3.290000000000000000e+02 3.300000000000000000e+02 3.310000000000000000e+02 3.320000000000000000e+02 3.330000000000000000e+02 3.340000000000000000e+02 3.350000000000000000e+02 3.360000000000000000e+02 3.370000000000000000e+02 3.380000000000000000e+02 3.390000000000000000e+02 3.400000000000000000e+02 3.410000000000000000e+02 3.420000000000000000e+02 3.430000000000000000e+02 3.440000000000000000e+02 3.450000000000000000e+02 3.460000000000000000e+02 3.470000000000000000e+02 3.480000000000000000e+02 3.490000000000000000e+02 3.500000000000000000e+02 3.510000000000000000e+02 3.520000000000000000e+02 3.530000000000000000e+02 3.540000000000000000e+02 3.550000000000000000e+02 3.560000000000000000e+02 3.570000000000000000e+02 3.580000000000000000e+02 3.590000000000000000e+02 3.600000000000000000e+02 3.610000000000000000e+02 3.620000000000000000e+02 3.630000000000000000e+02 3.640000000000000000e+02 3.650000000000000000e+02 3.660000000000000000e+02 3.670000000000000000e+02 3.680000000000000000e+02 3.690000000000000000e+02 3.700000000000000000e+02 3.710000000000000000e+02 3.720000000000000000e+02 3.730000000000000000e+02 3.740000000000000000e+02 3.750000000000000000e+02 3.760000000000000000e+02 3.770000000000000000e+02 3.780000000000000000e+02 3.790000000000000000e+02 3.800000000000000000e+02 3.810000000000000000e+02 3.820000000000000000e+02 3.830000000000000000e+02 3.840000000000000000e+02 3.850000000000000000e+02 3.860000000000000000e+02 3.870000000000000000e+02 3.880000000000000000e+02 3.890000000000000000e+02 3.900000000000000000e+02 3.910000000000000000e+02 3.920000000000000000e+02 3.930000000000000000e+02 3.940000000000000000e+02 3.950000000000000000e+02 3.960000000000000000e+02 3.970000000000000000e+02 3.980000000000000000e+02 3.990000000000000000e+02 4.000000000000000000e+02 4.010000000000000000e+02 4.020000000000000000e+02 4.030000000000000000e+02 4.040000000000000000e+02 4.050000000000000000e+02 4.060000000000000000e+02 4.070000000000000000e+02 4.080000000000000000e+02 4.090000000000000000e+02 4.100000000000000000e+02 4.110000000000000000e+02 4.120000000000000000e+02 4.130000000000000000e+02 4.140000000000000000e+02 4.150000000000000000e+02 4.160000000000000000e+02 4.170000000000000000e+02 4.180000000000000000e+02 4.190000000000000000e+02 4.200000000000000000e+02 4.210000000000000000e+02 4.220000000000000000e+02 4.230000000000000000e+02 4.240000000000000000e+02 4.250000000000000000e+02 4.260000000000000000e+02 4.270000000000000000e+02 4.280000000000000000e+02 4.290000000000000000e+02 4.300000000000000000e+02 4.310000000000000000e+02 4.320000000000000000e+02 4.330000000000000000e+02 4.340000000000000000e+02 4.350000000000000000e+02 4.360000000000000000e+02 4.370000000000000000e+02 4.380000000000000000e+02 4.390000000000000000e+02 4.400000000000000000e+02 4.410000000000000000e+02 4.420000000000000000e+02 4.430000000000000000e+02 4.440000000000000000e+02 4.450000000000000000e+02 4.460000000000000000e+02 4.470000000000000000e+02 4.480000000000000000e+02 4.490000000000000000e+02 4.500000000000000000e+02 4.510000000000000000e+02 4.520000000000000000e+02 4.530000000000000000e+02 4.540000000000000000e+02 4.550000000000000000e+02 4.560000000000000000e+02 4.570000000000000000e+02 4.580000000000000000e+02 4.590000000000000000e+02 4.600000000000000000e+02 4.610000000000000000e+02 4.620000000000000000e+02 4.630000000000000000e+02 4.640000000000000000e+02 4.650000000000000000e+02 4.660000000000000000e+02 4.670000000000000000e+02 4.680000000000000000e+02 4.690000000000000000e+02 4.700000000000000000e+02 4.710000000000000000e+02 4.720000000000000000e+02 4.730000000000000000e+02 4.740000000000000000e+02 4.750000000000000000e+02 4.760000000000000000e+02 4.770000000000000000e+02 4.780000000000000000e+02 4.790000000000000000e+02 4.800000000000000000e+02 4.810000000000000000e+02 4.820000000000000000e+02 4.830000000000000000e+02 4.840000000000000000e+02 4.850000000000000000e+02 4.860000000000000000e+02 4.870000000000000000e+02 4.880000000000000000e+02 4.890000000000000000e+02 4.900000000000000000e+02 4.910000000000000000e+02 4.920000000000000000e+02 4.930000000000000000e+02 4.940000000000000000e+02 4.950000000000000000e+02 4.960000000000000000e+02 4.970000000000000000e+02 4.980000000000000000e+02 4.990000000000000000e+02 5.000000000000000000e+02 5.010000000000000000e+02 5.020000000000000000e+02 5.030000000000000000e+02 5.040000000000000000e+02 5.050000000000000000e+02 5.060000000000000000e+02 5.070000000000000000e+02 5.080000000000000000e+02 5.090000000000000000e+02 5.100000000000000000e+02 5.110000000000000000e+02 5.120000000000000000e+02 5.130000000000000000e+02 5.140000000000000000e+02 5.150000000000000000e+02 5.160000000000000000e+02 5.170000000000000000e+02 5.180000000000000000e+02 5.190000000000000000e+02 5.200000000000000000e+02 5.210000000000000000e+02 5.220000000000000000e+02 5.230000000000000000e+02 5.240000000000000000e+02 5.250000000000000000e+02 5.260000000000000000e+02 5.270000000000000000e+02 5.280000000000000000e+02 5.290000000000000000e+02 5.300000000000000000e+02 5.310000000000000000e+02 5.320000000000000000e+02 5.330000000000000000e+02 5.340000000000000000e+02 5.350000000000000000e+02 5.360000000000000000e+02 5.370000000000000000e+02 5.380000000000000000e+02 5.390000000000000000e+02 5.400000000000000000e+02 5.410000000000000000e+02 5.420000000000000000e+02 5.430000000000000000e+02 5.440000000000000000e+02 5.450000000000000000e+02 5.460000000000000000e+02 5.470000000000000000e+02 5.480000000000000000e+02 5.490000000000000000e+02 5.500000000000000000e+02 5.510000000000000000e+02 5.520000000000000000e+02 5.530000000000000000e+02 5.540000000000000000e+02 5.550000000000000000e+02 5.560000000000000000e+02 5.570000000000000000e+02 5.580000000000000000e+02 5.590000000000000000e+02 5.600000000000000000e+02 5.610000000000000000e+02 5.620000000000000000e+02 5.630000000000000000e+02 5.640000000000000000e+02 5.650000000000000000e+02 5.660000000000000000e+02 5.670000000000000000e+02 5.680000000000000000e+02 5.690000000000000000e+02 5.700000000000000000e+02 5.710000000000000000e+02 5.720000000000000000e+02 5.730000000000000000e+02 5.740000000000000000e+02 5.750000000000000000e+02 5.760000000000000000e+02 5.770000000000000000e+02 5.780000000000000000e+02 5.790000000000000000e+02 5.800000000000000000e+02 5.810000000000000000e+02 5.820000000000000000e+02 5.830000000000000000e+02 5.840000000000000000e+02 5.850000000000000000e+02 5.860000000000000000e+02 5.870000000000000000e+02 5.880000000000000000e+02 5.890000000000000000e+02 5.900000000000000000e+02 5.910000000000000000e+02 5.920000000000000000e+02 5.930000000000000000e+02 5.940000000000000000e+02 5.950000000000000000e+02 5.960000000000000000e+02 5.970000000000000000e+02 5.980000000000000000e+02 5.990000000000000000e+02 6.000000000000000000e+02 6.010000000000000000e+02 6.020000000000000000e+02 6.030000000000000000e+02 6.040000000000000000e+02 6.050000000000000000e+02 6.060000000000000000e+02 6.070000000000000000e+02 6.080000000000000000e+02 6.090000000000000000e+02 6.100000000000000000e+02 6.110000000000000000e+02 6.120000000000000000e+02 6.130000000000000000e+02 6.140000000000000000e+02 6.150000000000000000e+02 6.160000000000000000e+02 6.170000000000000000e+02 6.180000000000000000e+02 6.190000000000000000e+02 6.200000000000000000e+02 6.210000000000000000e+02 6.220000000000000000e+02 6.230000000000000000e+02 6.240000000000000000e+02 6.250000000000000000e+02 6.260000000000000000e+02 6.270000000000000000e+02 6.280000000000000000e+02 6.290000000000000000e+02 6.300000000000000000e+02 6.310000000000000000e+02 6.320000000000000000e+02 6.330000000000000000e+02 6.340000000000000000e+02 6.350000000000000000e+02 6.360000000000000000e+02 6.370000000000000000e+02 6.380000000000000000e+02 6.390000000000000000e+02 6.400000000000000000e+02 6.410000000000000000e+02 6.420000000000000000e+02 6.430000000000000000e+02 6.440000000000000000e+02 6.450000000000000000e+02 6.460000000000000000e+02 6.470000000000000000e+02 6.480000000000000000e+02 6.490000000000000000e+02 6.500000000000000000e+02 6.510000000000000000e+02 6.520000000000000000e+02 6.530000000000000000e+02 6.540000000000000000e+02 6.550000000000000000e+02 6.560000000000000000e+02 6.570000000000000000e+02 6.580000000000000000e+02 6.590000000000000000e+02 6.600000000000000000e+02 6.610000000000000000e+02 6.620000000000000000e+02 6.630000000000000000e+02 6.640000000000000000e+02 6.650000000000000000e+02 6.660000000000000000e+02 6.670000000000000000e+02 6.680000000000000000e+02 6.690000000000000000e+02 6.700000000000000000e+02 6.710000000000000000e+02 6.720000000000000000e+02 6.730000000000000000e+02 6.740000000000000000e+02 6.750000000000000000e+02 6.760000000000000000e+02 6.770000000000000000e+02 6.780000000000000000e+02 6.790000000000000000e+02 6.800000000000000000e+02 6.810000000000000000e+02 6.820000000000000000e+02 6.830000000000000000e+02 6.840000000000000000e+02 6.850000000000000000e+02 6.860000000000000000e+02 6.870000000000000000e+02 6.880000000000000000e+02 6.890000000000000000e+02 6.900000000000000000e+02 6.910000000000000000e+02 6.920000000000000000e+02 6.930000000000000000e+02 6.940000000000000000e+02 6.950000000000000000e+02 6.960000000000000000e+02 6.970000000000000000e+02 6.980000000000000000e+02 6.990000000000000000e+02 7.000000000000000000e+02 7.010000000000000000e+02 7.020000000000000000e+02 7.030000000000000000e+02 7.040000000000000000e+02 7.050000000000000000e+02 7.060000000000000000e+02 7.070000000000000000e+02 7.080000000000000000e+02 7.090000000000000000e+02 7.100000000000000000e+02 7.110000000000000000e+02 7.120000000000000000e+02 7.130000000000000000e+02 7.140000000000000000e+02 7.150000000000000000e+02 7.160000000000000000e+02 7.170000000000000000e+02 7.180000000000000000e+02 7.190000000000000000e+02 7.200000000000000000e+02 7.210000000000000000e+02 7.220000000000000000e+02 7.230000000000000000e+02 7.240000000000000000e+02 7.250000000000000000e+02 7.260000000000000000e+02 7.270000000000000000e+02 7.280000000000000000e+02 7.290000000000000000e+02 7.300000000000000000e+02 7.310000000000000000e+02 7.320000000000000000e+02 7.330000000000000000e+02 7.340000000000000000e+02 7.350000000000000000e+02 7.360000000000000000e+02 7.370000000000000000e+02 7.380000000000000000e+02 7.390000000000000000e+02 7.400000000000000000e+02 7.410000000000000000e+02 7.420000000000000000e+02 7.430000000000000000e+02 7.440000000000000000e+02 7.450000000000000000e+02 7.460000000000000000e+02 7.470000000000000000e+02 7.480000000000000000e+02 7.490000000000000000e+02 7.500000000000000000e+02 7.510000000000000000e+02 7.520000000000000000e+02 7.530000000000000000e+02 7.540000000000000000e+02 7.550000000000000000e+02 7.560000000000000000e+02 7.570000000000000000e+02 7.580000000000000000e+02 7.590000000000000000e+02 7.600000000000000000e+02 7.610000000000000000e+02 7.620000000000000000e+02 7.630000000000000000e+02 7.640000000000000000e+02 7.650000000000000000e+02 7.660000000000000000e+02 7.670000000000000000e+02 7.680000000000000000e+02 7.690000000000000000e+02 7.700000000000000000e+02 7.710000000000000000e+02 7.720000000000000000e+02 7.730000000000000000e+02 7.740000000000000000e+02 7.750000000000000000e+02 7.760000000000000000e+02 7.770000000000000000e+02 7.780000000000000000e+02 7.790000000000000000e+02 7.800000000000000000e+02 7.810000000000000000e+02 7.820000000000000000e+02 7.830000000000000000e+02 7.840000000000000000e+02 7.850000000000000000e+02 7.860000000000000000e+02 7.870000000000000000e+02 7.880000000000000000e+02 7.890000000000000000e+02 7.900000000000000000e+02 7.910000000000000000e+02 7.920000000000000000e+02 7.930000000000000000e+02 7.940000000000000000e+02 7.950000000000000000e+02 7.960000000000000000e+02 7.970000000000000000e+02 7.980000000000000000e+02 7.990000000000000000e+02 8.000000000000000000e+02 8.010000000000000000e+02 8.020000000000000000e+02 8.030000000000000000e+02 8.040000000000000000e+02 8.050000000000000000e+02 8.060000000000000000e+02 8.070000000000000000e+02 8.080000000000000000e+02 8.090000000000000000e+02 8.100000000000000000e+02 8.110000000000000000e+02 8.120000000000000000e+02 8.130000000000000000e+02 8.140000000000000000e+02 8.150000000000000000e+02 8.160000000000000000e+02 8.170000000000000000e+02 8.180000000000000000e+02 8.190000000000000000e+02 8.200000000000000000e+02 8.210000000000000000e+02 8.220000000000000000e+02 8.230000000000000000e+02 8.240000000000000000e+02 8.250000000000000000e+02 8.260000000000000000e+02 8.270000000000000000e+02 8.280000000000000000e+02 8.290000000000000000e+02 8.300000000000000000e+02 8.310000000000000000e+02 8.320000000000000000e+02 8.330000000000000000e+02 8.340000000000000000e+02 8.350000000000000000e+02 8.360000000000000000e+02 8.370000000000000000e+02 8.380000000000000000e+02 8.390000000000000000e+02 8.400000000000000000e+02 8.410000000000000000e+02 8.420000000000000000e+02 8.430000000000000000e+02 8.440000000000000000e+02 8.450000000000000000e+02 8.460000000000000000e+02 8.470000000000000000e+02 8.480000000000000000e+02 8.490000000000000000e+02 8.500000000000000000e+02 8.510000000000000000e+02 8.520000000000000000e+02 8.530000000000000000e+02 8.540000000000000000e+02 8.550000000000000000e+02 8.560000000000000000e+02 8.570000000000000000e+02 8.580000000000000000e+02 8.590000000000000000e+02 8.600000000000000000e+02 8.610000000000000000e+02 8.620000000000000000e+02 8.630000000000000000e+02 8.640000000000000000e+02 8.650000000000000000e+02 8.660000000000000000e+02 8.670000000000000000e+02 8.680000000000000000e+02 8.690000000000000000e+02 8.700000000000000000e+02 8.710000000000000000e+02 8.720000000000000000e+02 8.730000000000000000e+02 8.740000000000000000e+02 8.750000000000000000e+02 8.760000000000000000e+02 8.770000000000000000e+02 8.780000000000000000e+02 8.790000000000000000e+02 8.800000000000000000e+02 8.810000000000000000e+02 8.820000000000000000e+02 8.830000000000000000e+02 8.840000000000000000e+02 8.850000000000000000e+02 8.860000000000000000e+02 8.870000000000000000e+02 8.880000000000000000e+02 8.890000000000000000e+02 8.900000000000000000e+02 8.910000000000000000e+02 8.920000000000000000e+02 8.930000000000000000e+02 8.940000000000000000e+02 8.950000000000000000e+02 8.960000000000000000e+02 8.970000000000000000e+02 8.980000000000000000e+02 8.990000000000000000e+02 9.000000000000000000e+02 9.010000000000000000e+02 9.020000000000000000e+02 9.030000000000000000e+02 9.040000000000000000e+02 9.050000000000000000e+02 9.060000000000000000e+02 9.070000000000000000e+02 9.080000000000000000e+02 9.090000000000000000e+02 9.100000000000000000e+02 9.110000000000000000e+02 9.120000000000000000e+02 9.130000000000000000e+02 9.140000000000000000e+02 9.150000000000000000e+02 9.160000000000000000e+02 9.170000000000000000e+02 9.180000000000000000e+02 9.190000000000000000e+02 9.200000000000000000e+02 9.210000000000000000e+02 9.220000000000000000e+02 9.230000000000000000e+02 9.240000000000000000e+02 9.250000000000000000e+02 9.260000000000000000e+02 9.270000000000000000e+02 9.280000000000000000e+02 9.290000000000000000e+02 9.300000000000000000e+02 9.310000000000000000e+02 9.320000000000000000e+02 9.330000000000000000e+02 9.340000000000000000e+02 9.350000000000000000e+02 9.360000000000000000e+02 9.370000000000000000e+02 9.380000000000000000e+02 9.390000000000000000e+02 9.400000000000000000e+02 9.410000000000000000e+02 9.420000000000000000e+02 9.430000000000000000e+02 9.440000000000000000e+02 9.450000000000000000e+02 9.460000000000000000e+02 9.470000000000000000e+02 9.480000000000000000e+02 9.490000000000000000e+02 9.500000000000000000e+02 9.510000000000000000e+02 9.520000000000000000e+02 9.530000000000000000e+02 9.540000000000000000e+02 9.550000000000000000e+02 9.560000000000000000e+02 9.570000000000000000e+02 9.580000000000000000e+02 9.590000000000000000e+02 9.600000000000000000e+02 9.610000000000000000e+02 9.620000000000000000e+02 9.630000000000000000e+02 9.640000000000000000e+02 9.650000000000000000e+02 9.660000000000000000e+02 9.670000000000000000e+02 9.680000000000000000e+02 9.690000000000000000e+02 9.700000000000000000e+02 9.710000000000000000e+02 9.720000000000000000e+02 9.730000000000000000e+02 9.740000000000000000e+02 9.750000000000000000e+02 9.760000000000000000e+02 9.770000000000000000e+02 9.780000000000000000e+02 9.790000000000000000e+02 9.800000000000000000e+02 9.810000000000000000e+02 9.820000000000000000e+02 9.830000000000000000e+02 9.840000000000000000e+02 9.850000000000000000e+02 9.860000000000000000e+02 9.870000000000000000e+02 9.880000000000000000e+02 9.890000000000000000e+02 9.900000000000000000e+02 9.910000000000000000e+02 9.920000000000000000e+02 9.930000000000000000e+02 9.940000000000000000e+02 9.950000000000000000e+02 9.960000000000000000e+02 9.970000000000000000e+02 9.980000000000000000e+02 9.990000000000000000e+02 1.000000000000000000e+03
1.000000000000000021e-02 1.000000000000000021e-02 1.000000000000000021e-02 1.000000000000000021e-02 1.000000000000000021e-02 1.000000000000000021e-02 1.000000000000000021e-02 1.000000000000000021e-02 1.000000000000000021e-02 1.000000000000000021e-02 1.000000000000000021e-02 1.000000000000000021e-02 1.000000000000000021e-02 1.000000000000000021e-02 1.000000000000000021e-02 1.000000000000000021e-02 1.000000000000000021e-02 1.000000000000000021e-02 1.000000000000000021e-02 1.000000000000000021e-02 1.000000000000000021e-02 1.000000000000000021e-02 1.000000000000000021e-02 1.000000000000000021e-02 1.000000000000000021e-02 1.000000000000000021e-02 1.000000000000000021e-02 1.000000000000000021e-02 1.000000000000000021e-02 1.000000000000000021e-02 1.000000000000000021e-02 1.000000000000000021e-02 1.000000000000000021e-02 1.000000000000000021e-02 1.000000000000000021e-02 1.000000000000000021e-02 1.000000000000000021e-02 1.000000000000000021e-02 1.000000000000000021e-02 1.000000000000000021e-02 1.000000000000000021e-02 1.000000000000000021e-02 1.000000000000000021e-02 1.000000000000000021e-02 1.000000000000000021e-02 1.000000000000000021e-02 1.000000000000000021e-02 1.000000000000000021e-02 1.000000000000000021e-02 1.000000000000000021e-02 1.000000000000000021e-02 1.000000000000000021e-02 1.000000000000000021e-02 1.000000000000000021e-02 1.000000000000000021e-02 1.000000000000000021e-02 1.000000000000000021e-02 1.000000000000000021e-02 1.000000000000000021e-02 1.000000000000000021e-02 1.000000000000000021e-02 1.000000000000000021e-02 1.000000000000000021e-02 1.000000000000000021e-02 1.000000000000000021e-02 1.000000000000000021e-02 1.000000000000000021e-02 1.000000000000000021e-02 1.000000000000000021e-02 1.000000000000000021e-02 1.000000000000000021e-02 1.000000000000000021e-02 1.000000000000000021e-02 1.000000000000000021e-02 1.000000000000000021e-02 1.000000000000000021e-02 1.000000000000000021e-02 1.000000000000000021e-02 1.000000000000000021e-02 1.000000000000000021e-02 1.000000000000000021e-02 1.000000000000000021e-02 1.000000000000000021e-02 1.000000000000000021e-02 1.000000000000000021e-02 1.000000000000000021e-02 1.000000000000000021e-02 1.000000000000000021e-02 1.000000000000000021e-02 1.000000000000000021e-02 1.000000000000000021e-02 1.000000000000000021e-02 1.000000000000000021e-02 1.000000000000000021e-02 1.000000000000000021e-02 1.000000000000000021e-02 1.000000000000000021e-02 1.000000000000000021e-02 1.000000000000000021e-02 1.000000000000000021e-02 1.000000000000000021e-02 1.000000000000000021e-02 1.000000000000000021e-02 1.000000000000000021e-02 1.000000000000000021e-02 1.000000000000000021e-02 1.000000000000000021e-02 1.000000000000000021e-02 1.000000000000000021e-02 1.000000000000000021e-02 1.000000000000000021e-02 1.000000000000000021e-02 1.000000000000000021e-02 1.000000000000000021e-02 1.000000000000000021e-02 1.000000000000000021e-02 1.000000000000000021e-02 1.000000000000000021e-02 1.000000000000000021e-02 1.000000000000000021e-02 1.000000000000000021e-02 1.000000000000000021e-02 1.000000000000000021e-02 1.000000000000000021e-02 1.000000000000000021e-02 1.000000000000000021e-02 1.000000000000000021e-02 1.000000000000000021e-02 1.000000000000000021e-02 1.000000000000000021e-02 1.000000000000000021e-02 1.000000000000000021e-02 1.000000000000000021e-02 1.000000000000000021e-02 1.000000000000000021e-02 1.000000000000000021e-02 1.000000000000000021e-02 1.000000000000000021e-02 1.000000000000000021e-02 1.000000000000000021e-02 1.000000000000000021e-02 1.000000000000000021e-02 1.000000000000000021e-02 1.000000000000000021e-02 1.000000000000000021e-02 1.000000000000000021e-02 1.000000000000000021e-02 1.000000000000000021e-02 1.000000000000000021e-02 1.000000000000000021e-02 1.000000000000000021e-02 1.000000000000000021e-02 1.000000000000000021e-02 1.000000000000000021e-02 1.000000000000000021e-02 1.000000000000000021e-02 1.000000000000000021e-02 1.000000000000000021e-02 1.000000000000000021e-02 1.000000000000000021e-02 1.000000000000000021e-02 1.000000000000000021e-02 1.000000000000000021e-02 1.000000000000000021e-02 1.000000000000000021e-02 1.000000000000000021e-02 1.000000000000000021e-02 1.000000000000000021e-02 1.000000000000000021e-02 1.000000000000000021e-02 1.000000000000000021e-02 1.000000000000000021e-02 1.000000000000000021e-02 1.000000000000000021e-02 1.000000000000000021e-02 1.000000000000000021e-02 1.000000000000000021e-02 1.000000000000000021e-02 1.000000000000000021e-02 1.000000000000000021e-02 1.000000000000000021e-02 1.000000000000000021e-02 1.000000000000000021e-02 1.000000000000000021e-02 1.000000000000000021e-02 1.000000000000000021e-02 1.000000000000000021e-02 1.000000000000000021e-02 1.000000000000000021e-02 1.000000000000000021e-02 1.000000000000000021e-02 1.000000000000000021e-02 1.000000000000000021e-02 1.000000000000000021e-02 1.000000000000000021e-02 1.000000000000000021e-02 1.000000000000000021e-02 1.000000000000000021e-02 1.000000000000000021e-02 1.000000000000000021e-02 1.000000000000000021e-02 1.000000000000000021e-02 1.000000000000000021e-02 1.000000000000000021e-02 1.000000000000000021e-02 1.000000000000000021e-02 1.000000000000000021e-02 1.000000000000000021e-02 1.000000000000000021e-02 1.000000000000000021e-02 1.000000000000000021e-02 1.000000000000000021e-02 1.000000000000000021e-02 1.000000000000000021e-02 1.000000000000000021e-02 1.000000000000000021e-02 1.000000000000000021e-02 1.000000000000000021e-02 1.000000000000000021e-02 1.000000000000000021e-02 1.000000000000000021e-02 1.000000000000000021e-02 1.000000000000000021e-02 1.000000000000000021e-02 1.000000000000000021e-02 1.000000000000000021e-02 1.000000000000000021e-02 1.000000000000000021e-02 1.000000000000000021e-02 1.000000000000000021e-02 1.000000000000000021e-02 1.000000000000000021e-02 1.000000000000000021e-02 1.000000000000000021e-02 1.000000000000000021e-02 1.000000000000000021e-02 1.000000000000000021e-02 1.000000000000000021e-02 1.000000000000000021e-02 1.000000000000000021e-02 1.000000000000000021e-02 1.000000000000000021e-02 1.000000000000000021e-02 1.000000000000000021e-02 1.000000000000000021e-02 1.000000000000000021e-02 1.000000000000000021e-02 1.000000000000000021e-02 1.000000000000000021e-02 1.000000000000000021e-02 1.000000000000000021e-02 1.000000000000000021e-02 1.000000000000000021e-02 1.000000000000000021e-02 1.000000000000000021e-02 1.000000000000000021e-02 1.000000000000000021e-02 1.000000000000000021e-02 1.000000000000000021e-02 1.000000000000000021e-02 1.000000000000000021e-02 1.000000000000000021e-02 1.000000000000000021e-02 1.000000000000000021e-02 1.000000000000000021e-02 1.000000000000000021e-02 1.000000000000000021e-02 1.000000000000000021e-02 1.000000000000000021e-02 1.000000000000000021e-02 1.000000000000000021e-02 1.000000000000000021e-02 1.000000000000000021e-02 1.000000000000000021e-02 1.000000000000000021e-02 1.000000000000000021e-02 1.000000000000000021e-02 1.000000000000000021e-02 1.000000000000000021e-02 1.000000000000000021e-02 1.000000000000000021e-02 1.000000000000000021e-02 1.000000000000000021e-02 1.000000000000000021e-02 1.000000000000000021e-02 1.000000000000000021e-02 1.000000000000000021e-02 1.000000000000000021e-02 1.000000000000000021e-02 1.000000000000000021e-02 1.000000000000000021e-02 1.000000000000000021e-02 1.000000000000000021e-02 1.000000000000000021e-02 1.000000000000000021e-02 1.000000000000000021e-02 1.000000000000000021e-02 1.000000000000000021e-02 1.000000000000000021e-02 1.000000000000000021e-02 1.000000000000000021e-02 1.000000000000000021e-02 1.000000000000000021e-02 1.000000000000000021e-02 1.000000000000000021e-02 1.000000000000000021e-02 1.000000000000000021e-02 1.000000000000000021e-02 1.000000000000000021e-02 1.000000000000000021e-02 1.000000000000000021e-02 1.000000000000000021e-02 1.000000000000000021e-02 1.000000000000000021e-02 1.000000000000000021e-02 1.000000000000000021e-02 1.000000000000000021e-02 1.000000000000000021e-02 1.000000000000000021e-02 1.000000000000000021e-02 1.000000000000000021e-02 1.000000000000000021e-02 1.000000000000000021e-02 1.000000000000000021e-02 1.000000000000000021e-02 1.000000000000000021e-02 1.000000000000000021e-02 1.000000000000000021e-02 1.000000000000000021e-02 1.000000000000000021e-02 1.000000000000000021e-02 1.000000000000000021e-02 1.000000000000000021e-02 1.000000000000000021e-02 1.000000000000000021e-02 1.000000000000000021e-02 1.000000000000000021e-02 1.000000000000000021e-02 1.000000000000000021e-02 1.000000000000000021e-02 1.000000000000000021e-02 1.000000000000000021e-02 1.000000000000000021e-02 1.000000000000000021e-02 1.000000000000000021e-02 1.000000000000000021e-02 1.000000000000000021e-02 1.000000000000000021e-02 1.000000000000000021e-02 1.000000000000000021e-02 1.000000000000000021e-02 1.000000000000000021e-02 1.000000000000000021e-02 1.000000000000000021e-02 1.000000000000000021e-02 1.000000000000000021e-02 1.000000000000000021e-02 1.000000000000000021e-02 1.000000000000000021e-02 1.000000000000000021e-02 1.000000000000000021e-02 1.000000000000000021e-02 1.000000000000000021e-02 1.000000000000000021e-02 1.000000000000000021e-02 1.000000000000000021e-02 1.000000000000000021e-02 1.000000000000000021e-02 1.000000000000000021e-02 1.000000000000000021e-02 1.000000000000000021e-02 1.000000000000000021e-02 1.000000000000000021e-02 1.000000000000000021e-02 1.000000000000000021e-02 1.000000000000000021e-02 1.000000000000000021e-02 1.000000000000000021e-02 1.000000000000000021e-02 1.000000000000000021e-02 1.000000000000000021e-02 1.000000000000000021e-02 1.000000000000000021e-02 1.000000000000000021e-02 1.000000000000000021e-02 1.000000000000000021e-02 1.000000000000000021e-02 1.000000000000000021e-02 1.000000000000000021e-02 1.000000000000000021e-02 1.000000000000000021e-02 1.000000000000000021e-02 1.000000000000000021e-02 1.000000000000000021e-02 1.000000000000000021e-02 1.000000000000000021e-02 1.000000000000000021e-02 1.000000000000000021e-02 1.000000000000000021e-02 1.000000000000000021e-02 1.000000000000000021e-02 1.000000000000000021e-02 1.000000000000000021e-02 1.000000000000000021e-02 1.000000000000000021e-02 1.000000000000000021e-02 1.000000000000000021e-02 1.000000000000000021e-02 1.000000000000000021e-02 1.000000000000000021e-02 1.000000000000000021e-02 1.000000000000000021e-02 1.000000000000000021e-02 1.000000000000000021e-02 1.000000000000000021e-02 1.000000000000000021e-02 1.000000000000000021e-02 1.000000000000000021e-02 1.000000000000000021e-02 1.000000000000000021e-02 1.000000000000000021e-02 1.000000000000000021e-02 1.000000000000000021e-02 1.000000000000000021e-02 1.000000000000000021e-02 1.000000000000000021e-02 1.000000000000000021e-02 1.000000000000000021e-02 1.000000000000000021e-02 1.000000000000000021e-02 1.000000000000000021e-02 1.000000000000000021e-02 1.000000000000000021e-02 1.000000000000000021e-02 1.000000000000000021e-02 1.000000000000000021e-02 1.000000000000000021e-02 1.000000000000000021e-02 1.000000000000000021e-02 1.000000000000000021e-02 1.000000000000000021e-02 1.000000000000000021e-02 1.000000000000000021e-02 1.000000000000000021e-02 1.000000000000000021e-02 1.000000000000000021e-02 1.000000000000000021e-02 1.000000000000000021e-02 1.000000000000000021e-02 1.000000000000000021e-02 1.000000000000000021e-02 1.000000000000000021e-02 1.000000000000000021e-02 1.000000000000000021e-02 1.000000000000000021e-02 1.000000000000000021e-02 1.000000000000000021e-02 1.000000000000000021e-02 1.000000000000000021e-02 1.000000000000000021e-02 1.000000000000000021e-02 1.000000000000000021e-02 1.000000000000000021e-02 1.000000000000000021e-02 1.000000000000000021e-02 1.000000000000000021e-02 1.000000000000000021e-02 1.000000000000000021e-02 1.000000000000000021e-02 1.000000000000000021e-02 1.000000000000000021e-02 1.000000000000000021e-02 1.000000000000000021e-02 1.000000000000000021e-02 1.000000000000000021e-02 1.000000000000000021e-02 1.000000000000000021e-02 1.000000000000000021e-02 1.000000000000000021e-02 1.000000000000000021e-02 1.000000000000000021e-02 1.000000000000000021e-02 1.000000000000000021e-02 1.000000000000000021e-02 1.000000000000000021e-02 1.000000000000000021e-02 1.000000000000000021e-02 1.000000000000000021e-02 1.000000000000000021e-02 1.000000000000000021e-02 1.000000000000000021e-02 1.000000000000000021e-02 1.000000000000000021e-02 1.000000000000000021e-02 1.000000000000000021e-02 1.000000000000000021e-02 1.000000000000000021e-02 1.000000000000000021e-02 1.000000000000000021e-02 1.000000000000000021e-02 1.000000000000000021e-02 1.000000000000000021e-02 1.000000000000000021e-02 1.000000000000000021e-02 1.000000000000000021e-02 1.000000000000000021e-02 1.000000000000000021e-02 1.000000000000000021e-02 1.000000000000000021e-02 1.000000000000000021e-02 1.000000000000000021e-02 1.000000000000000021e-02 1.000000000000000021e-02 1.000000000000000021e-02 1.000000000000000021e-02 1.000000000000000021e-02 1.000000000000000021e-02 1.000000000000000021e-02 1.000000000000000021e-02 1.000000000000000021e-02 1.000000000000000021e-02 1.000000000000000021e-02 1.000000000000000021e-02 1.000000000000000021e-02 1.000000000000000021e-02 1.000000000000000021e-02 1.000000000000000021e-02 1.000000000000000021e-02 1.000000000000000021e-02 1.000000000000000021e-02 1.000000000000000021e-02 1.000000000000000021e-02 1.000000000000000021e-02 1.000000000000000021e-02 1.000000000000000021e-02 1.000000000000000021e-02 1.000000000000000021e-02 1.000000000000000021e-02 1.000000000000000021e-02 1.000000000000000021e-02 1.000000000000000021e-02 1.000000000000000021e-02 1.000000000000000021e-02 1.000000000000000021e-02 1.000000000000000021e-02 1.000000000000000021e-02 1.000000000000000021e-02 1.000000000000000021e-02 1.000000000000000021e-02 1.000000000000000021e-02 1.000000000000000021e-02 1.000000000000000021e-02 1.000000000000000021e-02 1.000000000000000021e-02 1.000000000000000021e-02 1.000000000000000021e-02 1.000000000000000021e-02 1.000000000000000021e-02 1.000000000000000021e-02 1.000000000000000021e-02 1.000000000000000021e-02 1.000000000000000021e-02 1.000000000000000021e-02 1.000000000000000021e-02 1.000000000000000021e-02 1.000000000000000021e-02 1.000000000000000021e-02 1.000000000000000021e-02 1.000000000000000021e-02 1.000000000000000021e-02 1.000000000000000021e-02 1.000000000000000021e-02 1.000000000000000021e-02 1.000000000000000021e-02 1.000000000000000021e-02 1.000000000000000021e-02 1.000000000000000021e-02 1.000000000000000021e-02 1.000000000000000021e-02 1.000000000000000021e-02 1.000000000000000021e-02 1.000000000000000021e-02 1.000000000000000021e-02 1.000000000000000021e-02 1.000000000000000021e-02 1.000000000000000021e-02 1.000000000000000021e-02 1.000000000000000021e-02 1.000000000000000021e-02 1.000000000000000021e-02 1.000000000000000021e-02 1.000000000000000021e-02 1.000000000000000021e-02 1.000000000000000021e-02 1.000000000000000021e-02 1.000000000000000021e-02 1.000000000000000021e-02 1.000000000000000021e-02 1.000000000000000021e-02 1.000000000000000021e-02 1.000000000000000021e-02 1.000000000000000021e-02 1.000000000000000021e-02 1.000000000000000021e-02 1.000000000000000021e-02 1.000000000000000021e-02 1.000000000000000021e-02 1.000000000000000021e-02 1.000000000000000021e-02 1.000000000000000021e-02 1.000000000000000021e-02 1.000000000000000021e-02 1.000000000000000021e-02 1.000000000000000021e-02 1.000000000000000021e-02 1.000000000000000021e-02 1.000000000000000021e-02 1.000000000000000021e-02 1.000000000000000021e-02 1.000000000000000021e-02 1.000000000000000021e-02 1.000000000000000021e-02 1.000000000000000021e-02 1.000000000000000021e-02 1.000000000000000021e-02 1.000000000000000021e-02 1.000000000000000021e-02 1.000000000000000021e-02 1.000000000000000021e-02 1.000000000000000021e-02 1.000000000000000021e-02 1.000000000000000021e-02 1.000000000000000021e-02 1.000000000000000021e-02 1.000000000000000021e-02 1.000000000000000021e-02 1.000000000000000021e-02 1.000000000000000021e-02 1.000000000000000021e-02 1.000000000000000021e-02 1.000000000000000021e-02 1.000000000000000021e-02 1.000000000000000021e-02 1.000000000000000021e-02 1.000000000000000021e-02 1.000000000000000021e-02 1.000000000000000021e-02 1.000000000000000021e-02 1.000000000000000021e-02 1.000000000000000021e-02 1.000000000000000021e-02 1.000000000000000021e-02 1.000000000000000021e-02 1.000000000000000021e-02 1.000000000000000021e-02 1.000000000000000021e-02 1.000000000000000021e-02 1.000000000000000021e-02 1.000000000000000021e-02 1.000000000000000021e-02 1.000000000000000021e-02 1.000000000000000021e-02 1.000000000000000021e-02 1.000000000000000021e-02 1.000000000000000021e-02 1.000000000000000021e-02 1.000000000000000021e-02 1.000000000000000021e-02 1.000000000000000021e-02 1.000000000000000021e-02 1.000000000000000021e-02 1.000000000000000021e-02 1.000000000000000021e-02 1.000000000000000021e-02 1.000000000000000021e-02 1.000000000000000021e-02 1.000000000000000021e-02 1.000000000000000021e-02 1.000000000000000021e-02 1.000000000000000021e-02 1.000000000000000021e-02 1.000000000000000021e-02 1.000000000000000021e-02 1.000000000000000021e-02 1.000000000000000021e-02 1.000000000000000021e-02 1.000000000000000021e-02 1.000000000000000021e-02 1.000000000000000021e-02 1.000000000000000021e-02 1.000000000000000021e-02 1.000000000000000021e-02 1.000000000000000021e-02 1.000000000000000021e-02 1.000000000000000021e-02 1.000000000000000021e-02 1.000000000000000021e-02 1.000000000000000021e-02 1.000000000000000021e-02 1.000000000000000021e-02 1.000000000000000021e-02 1.000000000000000021e-02 1.000000000000000021e-02 1.000000000000000021e-02 1.000000000000000021e-02 1.000000000000000021e-02 1.000000000000000021e-02 1.000000000000000021e-02 1.000000000000000021e-02 1.000000000000000021e-02 1.000000000000000021e-02 1.000000000000000021e-02 1.000000000000000021e-02 1.000000000000000021e-02 1.000000000000000021e-02 1.000000000000000021e-02 1.000000000000000021e-02 1.000000000000000021e-02 1.000000000000000021e-02 1.000000000000000021e-02 1.000000000000000021e-02 1.000000000000000021e-02 1.000000000000000021e-02 1.000000000000000021e-02 1.000000000000000021e-02 1.000000000000000021e-02 1.000000000000000021e-02 1.000000000000000021e-02 1.000000000000000021e-02 1.000000000000000021e-02 1.000000000000000021e-02 1.000000000000000021e-02 1.000000000000000021e-02 1.000000000000000021e-02 1.000000000000000021e-02 1.000000000000000021e-02 1.000000000000000021e-02 1.000000000000000021e-02 1.000000000000000021e-02 1.000000000000000021e-02 1.000000000000000021e-02 1.000000000000000021e-02 1.000000000000000021e-02 1.000000000000000021e-02 1.000000000000000021e-02 1.000000000000000021e-02 1.000000000000000021e-02 1.000000000000000021e-02 1.000000000000000021e-02 1.000000000000000021e-02 1.000000000000000021e-02 1.000000000000000021e-02 1.000000000000000021e-02 1.000000000000000021e-02 1.000000000000000021e-02 1.000000000000000021e-02 1.000000000000000021e-02 1.000000000000000021e-02 1.000000000000000021e-02 1.000000000000000021e-02 1.000000000000000021e-02 1.000000000000000021e-02 1.000000000000000021e-02 1.000000000000000021e-02 1.000000000000000021e-02 1.000000000000000021e-02 1.000000000000000021e-02 1.000000000000000021e-02 1.000000000000000021e-02 1.000000000000000021e-02 1.000000000000000021e-02 1.000000000000000021e-02 1.000000000000000021e-02 1.000000000000000021e-02 1.000000000000000021e-02 1.000000000000000021e-02 1.000000000000000021e-02 1.000000000000000021e-02 1.000000000000000021e-02 1.000000000000000021e-02 1.000000000000000021e-02 1.000000000000000021e-02 1.000000000000000021e-02 1.000000000000000021e-02 1.000000000000000021e-02 1.000000000000000021e-02 1.000000000000000021e-02 1.000000000000000021e-02 1.000000000000000021e-02 1.000000000000000021e-02 1.000000000000000021e-02 1.000000000000000021e-02 1.000000000000000021e-02 1.000000000000000021e-02 1.000000000000000021e-02 1.000000000000000021e-02 1.000000000000000021e-02 1.000000000000000021e-02 1.000000000000000021e-02 1.000000000000000021e-02 1.000000000000000021e-02 1.000000000000000021e-02 1.000000000000000021e-02 1.000000000000000021e-02 1.000000000000000021e-02 1.000000000000000021e-02 1.000000000000000021e-02 1.000000000000000021e-02 1.000000000000000021e-02 1.000000000000000021e-02 1.000000000000000021e-02 1.000000000000000021e-02 1.000000000000000021e-02 1.000000000000000021e-02 1.000000000000000021e-02 1.000000000000000021e-02 1.000000000000000021e-02 1.000000000000000021e-02 1.000000000000000021e-02 1.000000000000000021e-02 1.000000000000000021e-02 1.000000000000000021e-02 1.000000000000000021e-02 1.000000000000000021e-02 1.000000000000000021e-02 1.000000000000000021e-02 1.000000000000000021e-02 1.000000000000000021e-02 1.000000000000000021e-02 1.000000000000000021e-02 1.000000000000000021e-02 1.000000000000000021e-02 1.000000000000000021e-02 1.000000000000000021e-02 1.000000000000000021e-02 1.000000000000000021e-02 1.000000000000000021e-02 1.000000000000000021e-02 1.000000000000000021e-02 1.000000000000000021e-02 1.000000000000000021e-02 1.000000000000000021e-02 1.000000000000000021e-02 1.000000000000000021e-02 1.000000000000000021e-02 1.000000000000000021e-02 1.000000000000000021e-02 1.000000000000000021e-02 1.000000000000000021e-02 1.000000000000000021e-02 1.000000000000000021e-02 1.000000000000000021e-02 1.000000000000000021e-02 1.000000000000000021e-02 1.000000000000000021e-02 1.000000000000000021e-02 1.000000000000000021e-02 1.000000000000000021e-02 1.000000000000000021e-02 1.000000000000000021e-02 1.000000000000000021e-02 1.000000000000000021e-02 1.000000000000000021e-02 1.000000000000000021e-02 1.000000000000000021e-02 1.000000000000000021e-02 1.000000000000000021e-02 1.000000000000000021e-02 1.000000000000000021e-02 1.000000000000000021e-02 1.000000000000000021e-02 1.000000000000000021e-02 1.000000000000000021e-02 1.000000000000000021e-02 1.000000000000000021e-02 1.000000000000000021e-02 1.000000000000000021e-02 1.000000000000000021e-02 1.000000000000000021e-02 1.000000000000000021e-02 1.000000000000000021e-02 1.000000000000000021e-02 1.000000000000000021e-02 1.000000000000000021e-02 1.000000000000000021e-02 1.000000000000000021e-02 1.000000000000000021e-02 1.000000000000000021e-02 1.000000000000000021e-02 1.000000000000000021e-02 1.000000000000000021e-02 1.000000000000000021e-02 1.000000000000000021e-02 1.000000000000000021e-02 1.000000000000000021e-02 1.000000000000000021e-02 1.000000000000000021e-02 1.000000000000000021e-02 1.000000000000000021e-02 1.000000000000000021e-02 1.000000000000000021e-02 1.000000000000000021e-02 1.000000000000000021e-02 1.000000000000000021e-02 1.000000000000000021e-02 1.000000000000000021e-02 1.000000000000000021e-02 1.000000000000000021e-02 1.000000000000000021e-02 1.000000000000000021e-02 1.000000000000000021e-02 1.000000000000000021e-02 1.000000000000000021e-02 1.000000000000000021e-02 1.000000000000000021e-02 1.000000000000000021e-02 1.000000000000000021e-02 1.000000000000000021e-02 1.000000000000000021e-02 1.000000000000000021e-02 1.000000000000000021e-02 1.000000000000000021e-02 1.000000000000000021e-02 1.000000000000000021e-02 1.000000000000000021e-02 1.000000000000000021e-02 1.000000000000000021e-02 1.000000000000000021e-02 1.000000000000000021e-02 1.000000000000000021e-02 1.000000000000000021e-02 1.000000000000000021e-02 1.000000000000000021e-02 1.000000000000000021e-02 1.000000000000000021e-02 1.000000000000000021e-02 1.000000000000000021e-02 1.000000000000000021e-02 1.000000000000000021e-02 1.000000000000000021e-02 1.000000000000000021e-02 1.000000000000000021e-02 1.000000000000000021e-02 1.000000000000000021e-02 1.000000000000000021e-02 1.000000000000000021e-02 1.000000000000000021e-02 1.000000000000000021e-02 1.000000000000000021e-02 1.000000000000000021e-02 1.000000000000000021e-02 1.000000000000000021e-02 1.000000000000000021e-02 1.000000000000000021e-02 1.000000000000000021e-02 1.000000000000000021e-02 1.000000000000000021e-02 1.000000000000000021e-02 1.000000000000000021e-02 1.000000000000000021e-02 1.000000000000000021e-02 1.000000000000000021e-02 1.000000000000000021e-02 1.000000000000000021e-02 1.000000000000000021e-02 1.000000000000000021e-02 1.000000000000000021e-02 1.000000000000000021e-02 1.000000000000000021e-02 1.000000000000000021e-02 1.000000000000000021e-02 1.000000000000000021e-02 1.000000000000000021e-02 1.000000000000000021e-02 1.000000000000000021e-02 1.000000000000000021e-02 1.000000000000000021e-02 1.000000000000000021e-02 1.000000000000000021e-02 1.000000000000000021e-02 1.000000000000000021e-02 1.000000000000000021e-02 1.000000000000000021e-02 1.000000000000000021e-02 1.000000000000000021e-02 1.000000000000000021e-02 1.000000000000000021e-02 1.000000000000000021e-02 1.000000000000000021e-02 1.000000000000000021e-02 1.000000000000000021e-02 1.000000000000000021e-02 1.000000000000000021e-02 1.000000000000000021e-02 1.000000000000000021e-02 1.000000000000000021e-02 1.000000000000000021e-02 1.000000000000000021e-02 1.000000000000000021e-02 1.000000000000000021e-02
-1.095767385942684626e+02 1.666222240795079870e+02 3.861722041546372708e+01 -8.675883331635287021e+00 -8.631457455889803043e+01 -1.315165115759950609e+01 -2.042439434136013290e+02 6.866014501331438868e-01 -8.320669344733371986e+01 -1.385372209089423734e+01 -1.949104778471055255e+01 6.420315692173641509e+00 -1.750679850033025842e+00 1.648203164291743690e+02 8.312797470093799745e+01 -3.811673736153966985e+01 -5.188790821234797335e+01 7.781713314650485813e+01 3.224776317267507153e+01 -2.492996530598602689e+01 -7.744746371568456311e+01 -7.249195218520419814e+01 -1.355404459184089028e+01 2.842250071339298856e+01 -1.914735153553396856e+02 -9.697830883685392678e+01 -2.563160395528353419e+01 1.980632306875383222e+02 6.951418760030574617e+01 7.538965175231911076e+01 7.888267256661025328e+01 1.161286397045386165e+00 -7.788693338500745256e+01 2.038183860021453881e+02 -2.405613418826333429e+02 5.782317523411434479e+01 -1.180016202368899627e+02 -3.407707678940104046e+01 3.965479615757402598e+00 1.244850643102597871e+02 -1.207303817794348504e+02 -1.339381990487585128e+01 7.598328820778125703e+01 1.705560688507135580e+02 7.008625121686084469e+01 -6.719016482884083530e+01 4.047014355962605237e+01 -2.789304421213831375e+01 -6.490324303652805327e+01 1.538359405255972092e+02 -6.928670250642673523e+01 -5.118549011133314508e+01 -1.369142131183605215e+02 5.689397466791502822e+00 -4.963938031530980766e+01 3.799585156475484382e+01 -8.717572494606505984e+01 -4.917655872318884036e+01 -9.963379347995746116e+01 -1.527336877064547878e+02 1.909426850199101366e+01 4.459108479529502489e+01 -1.209777266342546937e+02 1.262839776038454964e+01 -7.789024259453636034e+01 4.826524844785742374e+01 1.637488058035802965e+02 -1.417566340668947191e+02 -4.254506839663620354e+01 7.084618257256622087e+00 2.884340301426404185e+00 4.164962353985455934e+01 8.252001969091575972e+01 8.197221138954230435e-01 -8.667582778545490640e+00 -6.879790959563671038e+01 7.689100620509935879e+01 -3.217048176424379591e+01 2.584575135779071076e+01 1.022135088861964789e+02 8.667440919252554465e+01 -4.202193050780775962e+01 5.677268147638870488e+01 1.448699456343126428e+02 1.141959116161054908e+02 -3.937233889273048071e+00 1.711692384862406868e+02 -1.095884936697647589e+02 4.108471815029777652e+00 -4.121075347975420300e+01 2.032345087278568485e+02 -2.085516678800929924e+01 2.842578778322160993e+00 -7.545120450722701833e+01 -7.021054542493319062e+00 -6.271991796193032087e+01 6.660488687196311730e+01 -9.291665972033790410e+01 6.741979545146647013e+01 -4.693368479680815142e+01 -4.888892318912625967e+01 -9.007543958530169448e+01 5.215224814336284709e+01 -5.374632807912290389e+01 -1.467406790369979888e+02 -7.808042803344312688e+01 -1.027939779978508170e+02 -1.545017699447651296e+02 1.335746567575634458e+02 -2.699041914596844549e+01 3.148428139934483738e+01 8.811255626781257888e+01 -1.022476553423119014e+02 5.596783262803253223e+01 -4.256693028886937213e+01 -6.817625378678809511e+01 -8.855522795954838955e+01 1.997086229010963336e+02 -5.575593835890220618e+01 -4.865276230478702502e+01 -4.636679422871068112e+01 7.900400223866721205e+01 -4.069993496751134643e+01 1.355796732303711849e+02 -4.904431604846343618e+01 5.416572825607665465e+01 4.464263965205059748e+00 -7.969825573889750103e+01 6.760245526422120577e+01 2.725963493780051863e+02 -9.046095757200987464e+01 4.665825744325903202e+01 -7.494761243014293939e+01 4.446317279960913282e+01 1.289451106400331071e+02 -5.053022871221303092e+01 1.435849368903538803e+01 -2.647906292075993306e+01 -1.002114700213859777e+02 -1.703964278919678677e+01 4.224137894856118791e+00 -7.679940836372950663e+00 -1.469031753333218937e+01 1.162060058666739195e+02 1.281763090919077399e+02 1.833277514138569870e+02 -2.992371090199495143e+02 3.756414894033009944e+01 -1.550370477104340416e+01 -6.130417135258030470e+01 1.773519471884012830e+02 7.490413856684075711e+01 -2.563119063128382891e+00 -1.140351044704102605e+02 -1.070673427392285859e+01 9.845433800197348262e+01 -1.321800009433671335e+02 -1.658718469796614556e+02 1.056284168763373899e+01 4.173535774199145010e+01 -6.004723978751181335e+01 4.136362218935715163e+01 -1.053632952930542359e+02 -1.488949494139305614e+02 2.075994796487613669e+01 4.780886008219646754e+01 4.742206958825543772e+00 -8.214303423256475867e+01 -9.212523677574209557e+01 -8.298391312432966060e+01 -8.620097374344250341e+01 1.245962783589456890e+01 5.595951618905548486e+01 1.147539591370805425e+02 7.823410758051467440e+01 8.818848715085718482e+01 1.058977662502384760e+02 -7.369522115578558896e+01 -8.131509382491289273e+01 6.951326168161119767e+01 6.755585649009313443e+01 5.840030468815685794e+01 -9.254795183423647487e+00 -8.982878202146457625e+01 5.326385372822412734e+01 -1.766724839521607748e+02 6.629466420541969285e+01 -4.394574705607266196e+01 -9.519922820571399313e+01 7.327648423192631810e+01 -1.694268004204739952e+01 -7.616939972873223041e+01 -5.675663274318799267e+01 -9.057052648886234181e+00 2.398799441912472901e+02 7.602403897682243894e+01 5.422835651242354515e+01 -1.027327048075792106e+02 1.466756106351682263e+02 1.051121655826811718e+00 -8.943194347161559676e+01 1.542351242731637058e+02 -1.525982504747124153e+02 1.562267666840431879e+01 -3.221238412608906998e+01 -2.200630188832366230e+02 -1.335371885173833277e+02 -8.733885613708598328e+01 -2.939452453920833008e+01 -1.193715108393861470e+02 5.771971682176993568e+01 6.507982241861361672e+01 -2.762936842806960769e+01 -9.989383688277153794e+01 1.132430437560308860e+02 1.183409142920172314e+02 4.627571961450111360e+01 1.751914315110251152e+01 2.618221389034169420e+02 4.373260556245084985e+01 -1.197001378433900669e+02 -4.515932917269394409e+01 -1.691722224453431238e+02 3.193838623857200787e+01 1.536251064052285926e+02 -1.486484556959698295e+02 1.320392481206003765e+02 -9.118265069647276277e+01 -1.897164319476323513e+01 -7.927609195563480871e-01 5.301123817976434083e+01 -1.161317852943660967e+01 -2.287668776107321378e+01 -1.889772721945161038e+01 -1.271081787312590023e+02 4.653899239095014195e+01 -3.043429700644392355e+01 -1.297949969399263459e+01 -1.075284904751722692e+01 2.266741243961385806e+02 1.747944224441397409e+02 2.333747040129914865e+02 1.322267800314139947e+02 -8.685723387540305396e+01 7.541476992470849439e+01 2.120822049443071577e+01 4.770416745249786317e+01 -3.982081923905426635e+01 2.562846656623669332e+02 -2.339340099978080545e+01 -1.372119856388369215e+02 -1.499818095913061455e+01 -4.600042689470819823e+01 -7.766371714121243031e+01 4.331180777835646012e+01 -1.175499305825932161e+01 1.825810721298263388e+02 9.270113348728320091e+01 4.103123162699478144e+01 9.836837802059567082e+01 9.494272105519240768e+01 -2.307442945813049562e+01 1.401717837431960447e+02 2.662190650521968038e+01 8.995109531244951029e+01 4.786592743144356632e+01 6.955043680807000861e+00 -1.162196596895824001e+02 -1.163255904862117660e+02 -9.040058282619044405e+01 -1.563008932214043867e+01 8.704915169692665700e+01 -3.076194192863376031e+01 9.929365879098448033e+01 4.400109206259097760e+01 -7.302451428209964490e+01 -3.007458880105488319e+01 -5.883145514592145275e+01 1.764019886350160959e+01 -4.649733018702865905e+01 -1.125089979254809833e+02 1.220209736582182387e+02 1.218484784313285161e+02 -7.929661877519768609e+01 5.437019538329887602e+00 -4.551221808318756956e+01 -3.271293993416770718e+01 -1.138874485155283622e+01 -3.136629752394907555e+01 4.466716405469638573e+01 -1.411400180251998222e+02 -5.306676464511623692e+01 -1.524648924834344825e+02 1.747900030095888155e+02 -2.027453511286546828e+01 5.913431110160114201e+01 1.195639721315426840e+01 1.448948168916748216e+02 4.476872193467072236e+01 3.582777231945172502e+01 1.548632747968312344e+02 -4.941484157487256113e+01 -9.791422062366167722e+01 2.728180951303524893e+01 -1.584587978506575610e+02 -5.355211067316544415e+01 1.025947241231634166e+02 -1.279351840225233587e+02 -3.645067338104725962e+01 9.150957206872232064e+01 -9.467810927772258367e+01 -8.967624926783928174e+01 -8.282200243767206871e+01 -6.393584360297644764e+01 2.496035627173918101e+02 1.985994285665344137e+02 1.031832130150559124e+02 -1.023889399040310053e+02 7.497716097467255736e+01 -6.630069294468511032e+01 -3.141441697128678356e+01 1.663844586723941887e+01 -3.229334937241760883e+01 -9.385556556979447862e+01 -2.785095228675363632e+00 1.477995459490224306e+01 1.088908284650229064e+02 -1.285827946396085508e+02 4.197001409707835506e+01 6.379292247987675069e+01 3.453106949888567812e+01 -9.062717301328704878e+01 -1.485238175283682551e+02 1.931365418331217256e+02 -1.780075625019076924e+01 2.517776598985546244e+01 1.564829057524012512e+02 2.664493472725471435e+01 2.771117400924176266e+01 -4.450194405113646212e+01 8.851163912111118748e+01 -1.361740923669250378e+02 -3.075956293609545966e+01 -6.128656357119929510e+00 -5.331861562826451006e+01 6.260369614165853136e+00 2.123229672607446261e+01 -3.572637045591937976e+01 1.364141045970880484e+01 2.133144161042970666e+02 -2.734466812211533693e+01 -2.793856888509537839e+01 -1.014447084259466862e+02 -1.637217260400842367e+00 -8.056346327773199789e+01 6.368830007425173356e+00 1.118211526470815187e+02 -5.189866298862943239e+01 6.029096628458029627e+00 -5.417592345424036893e+01 3.310665965822555901e+00 8.697501356325336985e+01 -1.155496774770385713e+02 -9.657701193348134439e+01 -1.023038975851055596e+02 7.116923602164268914e+01 8.632285047416949908e+01 -9.199718381987796079e+01 6.246038594465116489e+01 2.575945737199288033e+01 3.857929470795706095e+01 -1.769624478539103407e+01 9.109264817306164730e+01 7.947738729078966458e+01 -7.703463602413850708e+01 1.177817796499416403e+01 8.064231767111027693e+01 7.263118408330996090e+01 -1.984237617759045591e+01 2.489415469557850713e+01 -1.321949882977404229e+02 4.838562011281777586e+01 -3.267806257656827285e+01 -3.257507831829376954e+01 1.726552259567293390e+02 4.727874625529251063e+01 1.198340073923112925e+02 1.903776712928428196e+02 -1.372558227880126651e+02 1.486264860152502081e+02 -6.323611610107688108e+01 -1.347227599929203166e+02 8.206057762146664913e+01 -1.336416303069707112e+02 -2.862242877980444078e+01 5.622872174350217733e+01 8.033468525262740911e+00 -1.676316218784980947e+02 8.399330817171750141e+01 2.515274619958186264e+01 6.887392840967063989e+01 3.618366740684035676e+01 9.439201569234917599e+00 -6.690457275544626725e+01 1.153517840997181025e+02 5.431974753233449604e+01 -6.192319720730307608e+01 -1.009228215894819556e+02 3.879905822072187505e+01 2.562882706419280510e+01 8.213787262666980382e+01 1.831961444502302356e+02 -2.454445303962629765e+01 -1.098051927186364765e+02 -8.442761247499252875e+01 -5.115367755166925434e+01 -4.420164270308706733e+01 -1.462516775119769648e+02 -2.244535848410797740e+01 1.290957242121591833e+02 7.429157122510977729e+01 -1.219708358712477292e+02 -1.494100925916657161e+02 -6.786684225276145810e+01 -7.608049795472220467e+01 1.463145023728798719e+02 -1.699034783465980070e+02 8.627233412940965707e+01 -4.591958044882137990e+00 -4.289052448849784582e+01 1.324918159608937707e+01 9.084963773733556991e+01 4.940211721604331530e+01 1.377419573071126706e+02 -1.586023924424415554e+02 -8.069732239115194261e+01 2.527710445509177006e+01 4.178831423129616240e+01 2.054247800105114550e+02 1.449652663980140233e+02 6.531735881303148972e+01 7.185770667148098312e+01 -3.399392004136656453e+01 1.512869920286532590e+02 -1.787405212358576705e+02 -6.319775620793426896e+01 -5.349698850780485770e+01 -5.161354862204505878e+01 -1.029079009435949388e+02 -1.494018562802330052e+01 -6.839538083123355250e+01 7.091970099553910245e+01 -9.117318981887187590e+00 -5.786836344904441631e+01 -6.203326183127153115e+01 1.795513492877269925e+02 5.881516674256376831e+01 -1.367639956148456548e+01 2.081399554705914738e+02 -1.079569736111155862e+02 -3.520292652324850025e+01 6.672060920804449324e+01 -1.341203594373469310e-01 1.490921719430537173e+01 -1.246448122166625865e+02 1.755408980506025216e+02 -4.878250129449364181e+01 -2.681493479497500232e+01 -1.092760436675541200e+02 1.253497571507882071e+02 9.547279877299931172e+01 -7.719432889370420980e+01 -3.744797705048021896e+01 3.879069112738456226e+01 -1.507354777681820508e+02 -1.755410381711151047e-01 -7.437200207260426055e+01 7.657251193842943948e+00 -1.076118834282528951e+02 -1.578001989788569404e+02 -7.035222249447375020e+01 1.474709485905577822e+02 5.628631999760654026e+01 -8.918887963201272839e+01 8.872092605428439072e+01 3.404720448534653343e+01 8.787688322686800291e+01 -4.189691270371715603e+01 -8.363233399798478729e+01 1.701051847511837423e+02 4.141415757541945197e+01 2.878728370791827373e+01 -7.258063205400807760e+01 -4.206858239855897352e+01 9.475636303988205000e+00 -7.126071348975514752e+00 -1.718024109267322785e+02 -3.440490592830543903e+01 6.401530881587636657e+01 1.108994793391169082e+02 1.547414434744676441e+02 -1.319468759961414683e+01 8.903670645390779725e+01 1.566846997138730444e+02 6.298576964786288812e+01 1.467058606297119070e+02 1.595248093462999961e+01 1.303674652284421427e+02 -8.332952836174401057e+01 5.294829209317484953e+01 2.909428172530224899e+01 7.526455518639269826e+01 -1.053570209733988605e+02 1.964192125284340307e+02 -1.276493566079752924e+02 8.755527706342822114e+01 -1.064572783572437373e+02 4.574512940807375116e+01 1.367913959990077366e+01 8.985711388889838247e+01 -7.296297279840702288e+01 -7.478534151752789683e+01 -1.103849032230043115e+01 8.820787461091572368e+01 -2.929123088158066679e+01 -1.613539453861908513e+01 -1.942754151912927441e+01 4.686078884481452711e+00 9.706605884082716784e+01 -6.185478925864442346e+01 -2.677610145471324365e+00 -1.914531956466720146e+02 1.203893877472139167e+02 -1.231785659620529572e+02 -7.286541017105236051e+01 -2.320930632213246270e+01 -1.064645002694511504e+02 -5.242392301876604677e+01 -5.777630095300293789e+01 -1.941343973479289886e+01 1.343642958563631282e+02 5.331344190699349639e+01 9.903121046467570920e+01 -1.342110879414768476e+02 -1.366525942667311142e+02 -2.826503561233149071e+02 1.007571128152748514e+02 1.027987079334165514e+02 4.171920041163541271e+01 -4.186476648172349968e+01 -3.667146114548104663e+01 -1.811178484126137676e+02 1.440832467814490201e+02 -1.059268243997521637e+02 1.054830857496326644e+02 -1.570036657769465194e+02 -1.411845672361513415e+01 -5.461329032508803039e+01 -1.176161601796448366e+02 -4.546835330817400944e+01 -1.235174559225044177e+01 -9.139928055714699440e+01 -1.020603172762121034e+02 -1.218978816335715010e+01 7.021878505157170025e+01 -1.229194562403120585e+02 -1.544296917858878260e+01 -7.274953981112062706e+01 -1.296289740911872457e+02 6.535003028151523452e+00 9.384395784747025004e+01 1.633047841220948726e+02 -1.880752508247889310e+01 -4.543689232913666132e+01 -1.225162063517243922e+02 -1.614551103473149283e+02 1.024298773845844011e+02 -7.179049343426000007e+01 7.797279466450132190e+01 9.278567490268750717e+00 2.885075380665612954e+01 7.289774299170302641e+01 -8.366963294305537602e+01 8.162813652200027548e+01 1.138214820570429708e+02 1.554925014568397046e+02 -1.150826409528564369e+02 1.026524392619299988e+02 -4.718192838571039260e+01 -8.966843448619790991e+01 2.119202158476039699e+02 4.861645810778806265e+01 8.243388248968679477e+01 2.097745304219004936e+01 -6.245891880399484108e+01 -3.450283227517028450e+01 -2.077785971120808597e+02 1.043293403160360242e+02 8.048459749728300494e+01 -7.476183749994815742e+01 -7.222411268692053454e+01 1.433954937468373032e+02 9.981550383126285908e+01 5.048591400134445450e+01 7.513169018181000069e+01 -7.770508397321155059e+00 1.019172859379455502e+02 -1.022858094711137511e+02 1.840694123024634337e+02 -3.899536771762493714e+01 -1.204946677496382534e+02 -3.722696248183839174e+01 7.085719962048322884e+01 1.455171729412648176e+02 1.271994214165287218e+01 1.716789191644672314e+02 5.154958723987101621e+01 3.321352634225670641e+01 -1.099385918534635493e+02 4.424102590121304956e+01 -1.234667851047770171e+02 4.712000461305999011e+01 3.812668283515184697e+01 -1.218447186301274030e+02 -8.399044770549302541e+01 3.935921047579461174e+01 8.618016757267662697e+00 -2.293324178539218039e+01 4.135778868750281845e+01 -2.113774117521779061e+01 -6.231357361757538627e+01 -2.587847282385544645e+01 -2.215754781779559579e+01 -3.933272476786310534e+01 1.853861839765172093e+01 -7.952484349337413505e+01 1.174800161217947334e+02 -7.338055707725690979e+01 -4.185130479779729740e+00 6.477483563941015632e+01 3.836263589514512073e+00 1.576041127193108515e+01 1.576874425338620256e+01 -1.156772324586195140e+02 -4.357145376820529492e+00 6.424454196947232276e+01 -2.285704107597262862e+02 -8.382482475111285680e+01 -1.113099155369134365e+02 4.325326879427043991e+01 9.502396787325569960e+01 -9.062074430806731584e+01 -1.658003009539303036e+02 -1.828686017826049692e+02 1.971322913959097534e+01 -1.431085989897102024e+02 -6.244385253135106950e+00 1.456919612094637273e+02 -6.994078113167129018e+00 3.663510479957887611e+01 -9.751675706437325175e+01 7.869524252306095491e+01 -1.167765777155129712e+02 -1.518897483059073572e+01 -2.982250972599178240e+01 5.667502603707575304e+01 -8.713014538724218383e+00 1.039493732655400606e+02 -1.200460153374030341e+02 -4.923887986541635797e+01 8.513419517707208684e+01 6.500069436331520478e+01 -8.088176612792672415e+01 -5.343902669139537664e+01 -4.848169564418709854e+01 -2.840872205019879289e+02 1.899416217511185323e+02 7.465704421468348073e+01 -2.313394143071437270e+01 -2.909942261482508385e+01 4.072533903996961868e+01 -8.247468301804255475e+01 9.754428817281797137e+01 5.926145474545958081e+01 8.029964103421075095e+01 -8.237698174952834052e+01 -2.598004197229857226e+01 3.263793022817823442e+01 1.701919488190475249e+01 -4.193968993679903434e+01 1.546185199730975057e+02 -1.692009783568783376e+01 3.465070798194586388e+01 -2.249421363001323186e+02 -8.285366420086300820e+01 -7.157431524768793452e+01 2.252653523831502369e+01 1.068162316752540022e+02 -2.266944535914951473e+02 -1.829717855326927634e+02 2.168174741915790378e+02 -1.033615787331102709e+01 9.395734229249720215e+01 6.130281513001746418e+01 -5.414193026118392993e+01 -1.281361450781446933e+02 -9.307966601929638273e+01 -4.915456042282946214e+01 -3.660262465858865966e+01 -3.830233460472896923e+01 1.579484296151960265e+01 3.637051287336352345e+01 1.631942326714274714e+02 1.205339253999697604e+02 6.815826186744958548e+00 -4.303798379638203109e+00 -1.552884385563782530e+02 1.170316688218791370e+02 1.558192414529430039e+02 -1.011794551446743782e+02 7.211110090160063635e+01 1.687738751911047164e+00 5.371853464941020917e+01 1.226556839844722049e+02 6.939024699089723924e+01 -1.311114850734323056e+02 1.577641706000227373e+01 -2.874631603267782154e+01 1.090110657866196142e+01 -2.262418341616293560e+01 4.436082592982737083e+01 -2.549900610590310635e+02 1.773001152035148777e+02 7.127435822052158088e+00 1.560399494603310870e+02 -1.031449059852951855e+01 1.039475038761309520e+02 7.014224156237094121e+01 -4.111807328850554910e+01 2.931530183869361750e+01 -7.133524248525324651e+01 -8.719257043164326149e+01 -7.061251295876719780e+01 -3.141597203622159995e+01 4.427836572534963011e+01 1.079951856035047655e+02 2.792070684787064394e+01 6.093339150013500927e+01 -1.028005812566941444e+02 -1.345009105322509129e+02 -1.322566774710481674e+01 4.550504267439536932e+01 -4.460722193406272851e+01 9.278861390429986500e+01 5.449251380563724467e+01 -2.712627629750577540e+01 2.938720381115527047e+01 6.024347174777493308e+01 -7.076605623973168235e+01 -1.312524562394120267e+02 1.394583489633924955e+02 7.670780054264925596e+00 4.923217096398547454e+01 -1.466273771957777114e+02 -5.245898227034793848e+01 -4.383488254265768269e-01 -6.462424835636171849e+01 4.190920294673738944e+00 5.532456263960912679e+01 1.832652913054984651e+02 3.846789277213806457e+01 -1.077620079033016509e+01 7.103084263005247578e+01 -4.472295171729444263e+01 -1.071917923518188758e+02 -1.359427184709185212e+02 9.216141184032967004e+00 2.471135368473357019e+01 2.344235788277236310e+01 -5.599001549639183395e+01 1.189451719624681232e+02 -7.958732029396158225e+01 1.263693610949038799e+02 8.597556594266676200e+01 -6.406718409166609263e+01 -8.347829074798976023e+01 8.296951408342943068e+01 2.014579811258277076e+01 -5.175220611439943497e+01 -5.307044783642117380e+01 1.347857553917406790e+02 5.651794949530847134e+01 7.879599436548708979e+01 2.578640305153253820e+01 -4.148622160680768900e+01 1.059823273658388985e+02 -5.383769238407700897e+01 5.484079046518409717e-01 7.554480422761622549e+01 9.829654294335503550e+01 2.522197685146080062e+02 -1.729529571149207072e+02 1.589055714741709551e+02 -6.672641256845113844e+01 -1.504242348402451768e+01 -2.479184213550711746e+01 -2.048248686974511301e+01 -5.448558293218017212e+01 9.189042890789922069e+01 1.819494310304451687e+02 -1.174576303540126503e+02 3.059372860264791427e+01 -1.255484098614024049e+02 6.946205847319856730e+01 -4.402826907810913326e+01 -8.021388791361096082e+01 -5.338483067697750784e+01 4.080779910057759707e+01 1.920164919343206478e+01 -8.105792333097546987e+01 -1.398556204187876233e+02 2.059608554331924068e+01 1.563621193191883663e+02 1.417693027879061951e+01 1.811231752436328861e+02 7.405907212971542641e+00 1.336858450131167331e+02 -3.435908731944714134e+01 9.014802974329785457e+01 -7.099208916904429145e+01 -1.122251533715783864e+02 4.914866483992422275e+01 -5.768477785743651509e+01 -7.811100144645340038e+01 7.250553653308355706e+01 6.429291519143667699e+00 -9.384501751690019944e+01 -1.499073097055240567e+02 1.473055645722538713e+02 -8.882909987588274703e+01 -2.349828968279030317e+00 1.196806403573197883e+02 5.783588484890498904e+01 -9.791807829879766700e+01 1.061006619276493090e+01 2.813240208163724105e+02 5.318522521968471750e+01 -1.573950026510246971e+02 -4.763177436991070834e+01 -6.140452586335936047e+01 9.608545871496446011e+00 1.074210958256222312e+02 -1.033687826321094150e+02 2.155827926271865991e+01 1.303786008403292271e+02 1.876243178560963543e+01 -2.111544156412655298e+02 4.829551697256125209e+01 7.545926039775974914e+01 -1.358231490428951815e+01 3.278639801029837741e+01 1.566690567488517871e-01 2.252872292663316145e+01 2.773289685966220119e+01 1.158235181306981048e+02 9.803325250403939606e+01 1.559127918931696577e+01 1.490253761745179588e+02 -6.402356505533801112e+01 2.466694305292889169e+02 6.504263308183291770e+01 1.417384856089325922e+02 -2.197299474365265226e+01 9.009421009014066328e+01 -4.899485097321470306e+01 -1.464254404853487301e+02 2.618496381967656106e+01 9.506654227765683629e+01 -8.762542082709217084e+01 -1.047898309865444020e+02 -6.657165329315195379e+01 3.662487082602762456e+01 -1.142703274266593780e+02 7.475438677386259201e+01 2.807160101136043195e+01 -9.766971915625522627e+01 1.900427511649009205e+02 -1.176935854338851151e+01 -1.018264226542653716e+02 -1.340704380579080812e+01 -2.044891099631538012e+01 -1.403187419858640794e+02 -4.005431609644069368e+01 6.155076155282779382e+01 1.318779619898895987e+02 2.905277030158830343e+01 2.677275642133809441e+01 4.482091960404117970e+01 -3.576101234841459586e+01 -1.457139797266173389e+02 1.588599324931679746e+01 3.099630987889426592e+01 1.332116970732789127e+02 -9.920168359185501217e+00 -7.619367542786037006e+01 7.326313542656518507e+01 9.865796566325125694e-01 3.189595563780272514e+01 1.393657343980512167e+02 -1.776592260603034958e+02 -9.293655997899591625e+01 1.248418313004337676e+02 -2.098166975402131413e+02 -1.788608692687252528e+02 8.851255833239113713e+01 1.497687649746323757e+02 6.166309807312994451e+01 -4.341371695001165598e+00 1.514736951394056348e+02 -2.134867089463264165e+02 1.042149370448444046e+02 4.121571064129754092e+01 1.235877626568501739e+02 -1.834152403838593841e+02 1.036052086398401286e+02 -2.747802150024863010e+01 -1.300250632082743607e+02 -5.177871584243121994e+00 -8.986124365133346714e+01 -1.581727183453259933e+01 -4.199807423227809977e+00 -1.198118601873247542e+02 -1.199336899272749974e+02 -6.085277840292326346e+01 -1.253766426541875916e+02 1.954706974371382557e+02 -1.566538697712877877e+02 -4.879795054699645362e+01 1.678038278967421491e+02 3.299759754429231151e+01 -2.878656745068415717e+02 -1.236207732109301674e+02 3.453661428895161833e+01 5.315510270538114668e+01 8.334116137397732160e+00 -1.503653937110161394e+02 3.470680755699208220e+01 7.282637921347212995e+00 -7.228842581969114178e+01 1.971594177041243654e+02 1.970212193445645141e+02 4.221141408785237914e+00 -2.028151633512832177e+02 1.225250822738328651e+02 2.991510552616584917e+01 3.681371108301533024e+00 7.450155149796560750e+01 -2.017819428295613022e+02 -1.342364412606752921e+02 1.371556616805943634e+02 1.066373748724872996e+02 5.146287410095891346e+01 1.392679588084078546e+02 -1.733667531791888905e+02 -1.988915996875907766e+01 -1.268327301122858159e+02 4.243128768369133041e+01 -1.010161275277016557e+02 8.466823186154489633e+01 -3.296967854488964633e+01 1.204370586107308050e+01 1.725599229682487987e+02 2.774008932885142542e+01 -2.563273592459914880e+02 -1.229030876512376409e+02 -8.105687083998132891e+01 1.537619354355691996e+02 1.219312421420100456e+01 -5.237501389169964483e+01 2.951553151260332086e+01 6.078247551125047465e+01 -3.847569546887395120e+01 1.045571677144231302e+02 -9.797250697496514249e+01 4.786031140040112319e+01 1.088533985802894364e+02 -3.451087714781785820e+01 -9.542725285986136896e+01 -1.103218115034374875e+02 1.164680573315568495e+02 -4.830718866099157793e+01 1.911473386190271810e+02 5.563229338378845057e+01 1.078990902384892792e+02 1.793928495280300979e+02 8.323035075370817992e+00 -1.208786210873210791e+02 -1.611866296167794133e+02 -1.110371370153949044e+02 4.132470573094730781e+01
-1.292309506332104441e+01 -4.590128532137072170e+00 9.836535824956050078e+01 -2.175616252108810329e+02 1.476345687384301471e+02 6.032229022435738131e+01 1.445210548821990812e+02 -1.226917841114451591e+02 -2.634285123753634217e+00 -2.286056505367318792e+01 -2.084894675564312649e+02 3.107982021014258223e+01 -1.740265599395744900e+01 1.161748747673170357e+02 -1.188181967538678947e+02 5.861843024101334265e+01 1.190051950659990609e+02 -4.364684477930080675e+01 -4.712829427200612997e+01 -2.565424261764130165e+01 5.862433302082020958e+01 5.992016900063410390e+01 3.080147649665320131e+01 -2.208456431144801684e+02 -4.899636364720765869e+01 8.693691006498323759e+01 9.412344347776802067e+00 -9.848518292300466825e+00 -6.318571300274729907e+01 -1.470674703331992283e+01 6.965460658513661940e+01 -1.380993523213755623e+02 -5.882511172351404127e+01 8.527829004845191463e+00 1.971251237709426221e+02 2.013957652083302889e+02 -3.050206261696483878e+01 5.307591695803563425e+01 -2.523491283159717269e-01 -1.326285419315659055e+02 9.114757156324631637e+01 1.018340292466469066e+02 1.030555482920365620e+02 1.109410738425184206e+01 5.877255801234702659e+01 4.569911996980454916e+01 3.692367488877231807e+01 2.787255112678169766e+01 1.047318641863810740e+02 8.519584387018686300e+01 6.228494329976288668e+01 1.547859706512164450e+02 2.352913091566523747e+02 1.857376384332111456e+02 -5.615918427307578753e+01 4.678707818618595837e+01 -6.103834308718500523e+01 5.355876742079221486e+01 -1.825077009291807144e+02 5.365529969901842122e+01 -1.944479130707484558e+02 -1.602237464116784338e+02 1.229756348251517473e+01 -8.789993132132329023e+00 1.609934206153208720e+02 -1.974991554698627851e+02 7.148916583699106297e+01 2.182762552891249186e+02 -6.999392768088160466e+00 -1.849802880084154992e+02 3.376308283331479032e+01 1.872852907905719064e+02 -5.803834351724151475e+01 -2.531556699313403271e+02 -9.741818196904364413e+01 8.437957475073758928e+00 -2.185563800665031806e+02 3.046066145387424129e+01 -1.704806544622670970e+02 -1.763005597676333593e+02 -5.430332744296799063e+01 1.448567346955653363e+02 6.601615043224985868e+01 1.008659297217676354e+01 -8.426265021492488927e+01 -4.049289367385299698e+01 6.058973944973664061e+01 -2.206757282415780139e+02 5.143681930025413607e+01 -7.127666959436258765e+01 -7.429168772757911654e+01 -1.681223812544797909e+02 6.186131672482214583e+01 8.817793532261634937e+01 -1.543763219168877754e+02 1.643410998260629299e+02 -3.793775439618267598e+01 -1.609415199518281980e+01 8.334985394987837992e+01 1.487230335224247426e+02 2.066912502534680485e+01 1.440963709871102765e+02 -1.759612878347922305e+01 -8.630612260114828871e+01 -1.865984422436475398e+01 9.617545573597215025e+01 4.400192810745222971e+01 9.571872050664039477e+01 9.235451540630042189e+01 -8.129097343530507658e+01 -1.662585887881136557e+02 1.204068053898569985e+02 5.308165950038292635e+01 1.586303217171868596e+01 2.991932563475714701e+01 -6.647226908369583498e+01 9.398097851542956960e+01 8.794043860252830314e+01 -1.341728291338832513e+01 -6.973954140971304128e+01 3.007359694148431828e+01 6.148692065111889704e+00 -6.020417335246353474e+01 1.660020259777527087e+02 -3.217844167165439018e+01 1.190602119920787771e+02 -6.863857652910570550e+01 3.758988286861911376e+01 -3.533716803802943218e+01 8.763005647987031921e+01 2.299302291644112728e+01 1.132089465750844255e+02 -1.136454889881074450e+02 7.283111563136499456e+01 1.209659985824575585e+02 -4.379503873274057923e+01 7.473584739502248553e+00 -1.248277433516026846e+01 1.144619012416769408e+02 3.541776773474046625e+00 1.652830727794901975e+02 -1.386138451526810229e+02 1.143588027606922566e+02 -8.950701433171541055e+01 9.391758238482869103e+01 -1.343925833083432622e+02 2.894195464277019525e+01 2.427366034722889410e+01 1.758740722260483835e+00 3.561935026001562221e+01 4.509189048714238623e+01 -1.216295028293218472e+01 1.065713603449393254e+01 1.060551215454206044e+02 1.248595102737409803e+02 -8.507721028657464046e+01 -5.317955674954124135e+01 4.646186793896592349e+01 1.496967361461787549e+00 -1.344530898143998741e+02 -5.411201730647963615e+01 -3.478156558344839056e+01 4.801399461570236582e+01 -6.435062010819926570e+01 2.250612738197486706e+01 1.575159134347250927e+02 -7.805138449311105830e+01 7.940210499864947735e+01 8.260746886668292177e+01 1.106500798691222265e+01 1.213266064605535206e+02 6.181626136291045981e+01 1.652179369981049035e+02 -3.401601371498995263e+01 1.105943508141158134e+02 5.464857425027350502e+01 -1.580746624164168956e+01 2.008681103574954250e+02 -1.365986676842643988e+02 4.812655533753874693e+01 -1.846871893501331385e+02 -8.289229206165231290e+01 4.041999562430043369e+01 -7.113756927374240036e+01 -1.535230510018747623e+02 1.964253258734773340e+02 -8.454124309924632996e+01 -4.681321703059569472e+01 -4.561902271905423589e+01 1.200255465544424567e+02 1.920314740339074433e+02 6.384308081127199586e+01 1.442075478095524375e+02 2.164173371019145975e+02 -1.585619078434044260e+00 1.606369938614289481e+02 6.990865357992718998e+01 1.877740589287956539e+02 -1.240668667882770251e+02 -1.168490494007110314e+01 6.262910177978987747e+00 1.873347118846829460e+02 -8.962316099296633354e+01 -5.967412942103931073e+01 -5.221367924055367382e+01 -1.321641923549528030e+02 4.605117814502126983e+00 -9.954747014674815375e+01 1.520377424338746550e+02 2.323148380703019455e+01 1.183273273602024922e+01 7.131623081333935943e+01 -4.853556864758999723e+00 1.153831171561579083e+02 -1.566941671665479134e+02 4.479813141149794120e+01 -1.684765602162228220e+02 1.158186380282563874e+02 9.475941108765424303e+01 -6.637503683558769296e+01 4.614839843541049902e+01 2.348854922280632707e+02 -3.005139434293957734e+01 4.108429163840956733e+01 -3.223099555954820516e+01 5.714965426129155901e+01 6.339163131552659536e+01 -6.194615131176549383e+00 1.005071589277639816e+02 1.000806565897603804e+02 -1.912013084676815140e+02 -1.511256077101141102e+02 -1.181789063475974615e+02 -9.306171918161171064e+00 -1.477012914769741485e+02 1.139485389536530420e+02 1.088064252355475787e+02 5.817406848501215677e+01 1.100834359481699920e+01 1.554815492295789454e+02 8.278867406139875129e+01 6.656257345416935323e+01 -1.001888119958854446e+02 1.502593789791703784e+02 -3.544056692088161320e+00 1.078091366669937941e+02 8.695532015781124002e+00 3.622415691636509649e+01 -7.461736476369655691e+01 -8.944966770181777349e+01 7.056232522567057686e+01 -3.798629637907523282e+00 1.441071979608666425e+02 -1.238105015988151614e+01 -2.807060437987880519e+00 4.518538282076115564e+01 2.229934654651411563e+01 1.393287248290055800e+02 1.445396899956689118e+01 3.531524887305359783e+01 -1.523680112243442011e+02 6.483352846840998041e+01 1.316122196735898342e+02 -1.734956488131890850e+01 -2.244541762804217342e+02 8.306957767488876243e+01 1.339067208726355034e+02 2.000755499000999293e+01 1.857083954411288005e+02 -4.150383841592073075e+00 4.210100012912948131e+01 -4.280049621570361751e+01 -1.359988286808304281e+02 5.493138572449660018e+01 -4.654661933303393795e+01 -7.940782654718316280e+01 4.039302907026485201e+01 -1.810210506295058224e+02 7.020454965859599383e+01 1.610132245307396488e+02 -9.910477442703087547e+01 1.693418837274792565e+02 -9.554587426906405767e+01 -5.842856147326472183e+00 -1.030855578666889016e+01 7.496497343949931746e+01 -4.558364904049081190e+01 -1.054025651080015678e+02 -8.659641430191932443e+01 1.424996316350700738e+02 5.776573132532022470e+01 -1.287733405691593020e+02 4.324406895036776000e+00 4.241101219392101740e+01 8.062732109138248404e+01 -3.938131381797966668e+01 5.854428785386238587e+01 -6.733255079244671037e+01 -1.584573832142709477e+02 -3.379857285828460789e+01 1.375727183518630170e+02 -1.106535699013954144e+02 -6.243200757441947246e+00 -1.589133625566031469e+02 -4.702643388835044291e+00 -1.423042056511265798e+02 3.211687465145682552e+01 5.871112808603705702e+01 -4.907856588746271598e+01 -8.032474756512598901e+01 5.497077069941536109e+00 7.253039271318961312e+01 -6.606053578294402939e+01 1.312714698209488802e+02 1.028564083096915311e+02 -1.243745220685011503e+02 -1.027464286064026311e+02 1.315855009295907792e+02 6.946386673371314657e+01 1.462748523984977851e+02 9.745087687568836543e+01 7.900129454022049913e+01 -5.866847581262202027e+01 -7.956536658392421657e+01 -7.498121606887104917e+01 1.989504197581443350e+02 2.974476360615187431e+01 -2.422789368591793746e+01 -6.661449232935632381e+01 -4.857171548912823766e+01 -1.275559137026524468e+02 -1.601326219665837414e+01 -1.699450439242922926e+02 1.210978472475833030e+02 4.454390541070793574e+01 -1.115927313923833850e+02 -4.687276819537144235e+01 1.159620101061163382e+02 -9.387658556987474867e+01 9.958387077733168269e+01 -1.147237364790671279e+02 -1.140168475634720124e+01 -9.247933934286008650e+01 8.688899541544209626e+01 -4.112743181360649913e+01 9.958766804347270352e+00 2.841161226763524894e+01 -1.226103073197289888e+02 1.210072614107107114e+01 4.681573778352528592e+01 -2.165187658650386382e+01 -6.654343122483298600e+01 1.960725343956929692e+02 8.368194851544532753e+01 4.559777525186786562e+01 -3.040277853681761044e+01 7.763361193144889683e+01 1.622066137816327966e+02 -8.927440221482595462e+01 2.027152271072889391e+02 -1.288090248392378498e+02 -1.779735224855556623e+02 1.469004030969186658e+02 -2.264029494844943713e+02 -9.308493245839633001e-01 -2.370066527000575149e+02 -1.479473919385712293e+02 6.944568171962050940e+01 -1.408975371456677692e+02 5.648251221480828121e+01 1.063784256601112475e+02 -1.551510512992047666e+02 -2.913077535824479014e+01 7.297084545122687871e+01 1.295781280724994815e+02 -1.800839250862290157e+02 8.465285545152832469e+01 -9.479075407474110193e+01 -9.537848787804627193e+00 -1.341388135511511415e+01 -7.699053028903144025e+01 -8.736860605918447220e+01 1.754929357168823856e+02 -2.099846495819596726e+01 1.302095450480986294e+00 1.260349793226277058e+02 -8.393167943798140129e+01 -3.332453331132053620e+01 -1.042450923175934747e+02 -4.727775428444935102e+01 4.994571167852624782e+00 5.749768474027126075e+01 -1.309043177169251351e+02 2.299677224318944582e+02 -5.227268941195397645e+01 1.189974543684154185e+02 -4.738887768197167105e+01 1.162805745819921412e+02 1.351091685919200529e+02 4.657996898189747270e+01 1.185804641869315788e+02 -4.199289297953588118e+01 1.359908790216990155e+02 -1.520536271738705238e+02 -6.355333950667264276e+01 -6.120197901770402638e+01 2.484675941130090848e+01 -1.577560458943639219e+02 7.051759519935518483e+01 -2.998123848948694103e+01 -8.033976039773004629e+01 8.709609753918893205e+01 -1.469060407873337226e+02 -8.869287297203666753e+01 -5.117789238346281877e+01 3.215766733694196944e+01 1.262099748536201957e+02 1.136012962010812970e+02 6.718673374885537442e+01 -1.529910841730429683e+00 1.700466462813042199e+02 1.191285716422157037e+02 -9.185073486701634238e+01 -7.595611488338727213e+01 5.369325740847740036e+01 9.680360310013227831e+00 9.525708268776411103e+01 1.620918458875309227e+02 6.863190252500899646e+01 2.375013953804922551e+01 -9.936788297425525229e+01 1.669921664163099422e+02 -1.104938783322538001e+02 -1.606451650974634617e+02 6.388221939816774864e+01 1.083611163788807374e+02 1.909199118322520050e+01 -1.349229613315301890e+02 2.887488090739331881e+01 4.120719314936395250e+01 -3.403349259163607754e-01 1.271922224628571172e+02 9.491970629362953105e+01 1.661969233741583807e+01 7.608809925536282037e+01 -1.038784701528367691e+02 -6.166928227220084935e+00 9.549169119609476297e+01 2.882923835977481275e+01 -6.313705051288187775e+01 1.922759260578413318e+02 2.243535383090345761e+02 -1.218024582961638913e+02 -2.681327178407635969e+01 -2.039808604919177526e+02 -7.004775012342530260e+01 1.519368896446727035e+02 3.276203598551644447e+00 -6.887696200855747009e+01 1.588907976577881698e+02 -6.062629284906479654e+01 -1.558035562007104886e+02 1.324636224261027735e+02 -6.517484515627778308e+01 3.346283056953134860e+01 8.373279042210003809e+01 1.337258512001037403e+01 -2.310309067869429782e+02 4.103187248733931369e+01 -5.976046590567740679e+00 8.737117444481060602e+01 -2.284884182400814367e+01 9.803860427736663041e+01 1.647258736797507339e+01 -8.212354224756654730e+01 -1.985894257490017267e+01 -1.698910893850867581e+02 1.114710727346904378e+02 2.450802561915509159e+01 -4.034668196682822128e+01 -5.021879411087824963e+01 -6.098405172601004409e+01 3.986456394221994515e+01 1.557799975233573946e+02 1.286355426523555252e+02 4.173197210192521567e+01 -1.918084174332383327e+02 -3.760714533435945128e+01 4.247904152003022915e+01 1.137334017323166080e+02 8.452663161190145047e+01 1.496794474950890041e+01 -1.803236324872883074e+02 1.276464818651757582e+02 -2.168909420166472444e+02 -1.995034039204211354e+02 -1.776423319172873105e+00 -7.150890509092241132e+01 -2.337419606714124853e+01 8.445071306370722652e+01 5.420519825304411654e+01 -1.077840314561031221e+02 -1.468220339241617296e+02 1.413702394432222853e+01 1.198973490615639292e+02 2.004383825941944508e+01 -5.497084418986417376e+01 -5.006262707621755226e+01 -1.136535493398510965e+01 1.564283196463087222e+02 2.168103211740619329e+01 -1.714145514655388638e+02 1.266403101096016997e+02 -6.594700528018499597e+01 -4.119284542547468675e+00 1.519696664264749302e+02 -5.159898494424614057e+01 -1.933368952544484998e+01 -1.084081533389193481e+02 -5.923505351932975671e+00 -2.353630667090586570e+01 1.299549203439538587e+02 1.184947330192234318e+02 6.669365385850404948e+01 6.458126736549756686e+01 -1.846252095589760955e+01 1.334046200696480469e+02 -1.112838512620232621e+02 -4.200506145612973974e+00 -8.985542400459765133e+01 1.550352327565436212e+02 7.197548602719209043e+01 5.099489172486120481e+01 8.149814274479547649e+00 -5.259618893497105319e+01 3.392832494967136370e+01 6.643115587825822566e+00 3.593240529127630811e+00 2.378569611934378969e+01 5.898428102335572731e+01 1.680025932151891936e+02 -3.833811955367511359e+01 -5.128781275626474923e+01 6.590396565224111214e+01 1.141296641503573994e+02 -1.264354651834073273e+01 9.072345246257400220e+01 1.026932282565976351e+02 2.079725242001960908e+02 -8.538604695423445889e+01 -1.210367404397104849e+02 -2.826018732576053694e+01 6.132591571157594501e+01 -1.001176437339357683e+01 1.059660763420275487e+02 3.674237096758606924e+01 -1.604211983143950988e+02 4.444319479569168863e+01 -8.823810296437149248e+01 -1.334408449451561864e+02 1.326525868906759342e+02 -7.499184493287832254e+01 5.834872928189362540e+01 1.096219678156330986e+02 -9.761243193569559651e+01 2.316309068284607875e+01 -7.111762339342266159e+01 3.970474604315780454e+01 -1.129817086979455496e+02 6.070283800611159108e+01 5.388602771910998257e+01 3.829870003082725294e+00 8.280800171271646093e+01 -1.506410672798990618e+02 7.523839952661336383e+01 -2.885919493936055957e+01 -1.652397723919594341e+02 9.243016404401858210e+01 2.400384583279948458e+01 -1.918308569397405847e+02 2.301163831919381551e+02 -5.245949249508385925e-01 1.028580529353347970e+02 -1.179510545731687898e+02 -1.899384361330549780e+02 -9.127108447408730285e+01 2.438685751017015235e+00 1.397459317668850929e+02 3.891335139821475497e+00 -9.347815651239719159e+01 4.926554487990543407e+01 1.340367955021371813e+02 6.354590636712116947e+01 -5.059413088729201746e+01 -5.784742342366478596e+01 8.265071386771408868e+01 3.005471487734594049e+01 -1.912832678998966003e+02 -2.027649447046552211e+01 1.653188748432795592e+02 9.663875347603396904e+01 -5.607576540642990182e+01 -1.093504852402151357e+02 -4.173763658807322230e+01 -4.702621132017296901e+01 -1.119376641579835905e+02 -1.804806414380006885e+01 -4.465783506754002730e+01 -1.111250206428796901e+02 -1.290173063927582575e+02 -2.635687461386596908e+01 -1.229158220726455966e+02 -1.308838079014212497e+02 -3.749062503113029976e+01 -5.412133915334266021e+01 -1.085843832433316436e+02 1.886281765143843359e+02 1.066477016234942354e+01 -2.850410500171729211e+01 -1.722835898555644363e+01 7.971507707280002819e+01 1.585292396434475570e+01 2.538067657085313300e+01 -2.154093697666402818e+01 -4.688242097511344753e+01 2.119174333911742281e+01 -1.473098647304271651e+02 -1.613060376296646155e+02 -9.160186292372765138e+01 -1.933831127014248068e+02 -9.080557997964312733e+01 8.691964463408278618e+01 6.220328125204375169e+01 -2.640061451629690836e+01 6.157569683458815035e+01 -1.586548333263586414e+02 -4.140211562055214500e+01 -1.176832726875229298e+02 -6.763658242575939994e+01 2.137782075519998273e+02 -2.080158812063264975e+02 2.079933900878921520e+02 2.530842136230734241e+01 -5.720780515870668381e+01 9.344784872036439083e+01 1.257310063630651200e+02 -5.257788383748897587e+01 -2.064616481286119267e+02 -1.510793841200657823e+02 1.036378470649908223e+02 8.487343772232649997e+01 -1.373766619871337298e+02 3.236859902176044557e+01 -4.020731464899937890e+01 -7.843114414473541274e+01 -2.880443095824789168e+01 -5.554915976457660065e+01 -8.757878916540123271e+01 -3.450510806172379574e+01 4.564817544264323956e+00 -3.311496652298407639e+01 -3.855163667384791104e-01 -1.452560968413602183e+01 9.317949729742716158e+01 1.287946228474580153e+02 1.333836992230379082e+01 1.702095837994199812e+01 -6.397011643817225490e+01 -1.986595592997318249e+02 3.430120594918297172e+01 -9.294528519983533954e+01 2.618063219344650605e+01 -8.257041970845461876e+00 1.055694123821803387e+00 7.329326213483726349e+01 1.235112405123442301e+02 -7.141604074606776464e+01 3.850535920796674105e+01 -1.954482038394601489e+02 9.808462965906231901e+00 7.055180012191250682e+00 -1.241910532836238019e+02 -3.416690050911044096e+01 -4.491886144207999365e+01 4.830702564834276735e+00 -1.036094898336033907e+02 2.741344126226532651e+01 -9.894727950627637370e+01 5.682939793666563588e+01 6.876569856111669310e+01 3.738199493045768662e+01 -2.940269556722774880e+01 1.088941735333036576e+02 6.189537399304938958e+01 8.105901522048878860e+01 -6.788510847085386501e+01 2.053961944848122201e+01 1.295583531137941122e+02 -5.924748523684174017e+01 -7.006022689211043541e+00 3.240271743937898208e+01 -1.300734312625759230e+02 9.906934350174313408e+01 9.072037242953295788e+01 -1.024458943344245085e+02 -8.339344964048297015e+01 -5.623025293042664430e+01 -4.617189303023472746e+01 -1.622456847691830717e+02 -1.375993332978550825e+02 -1.341175202906707113e+02 1.069595309080671228e+02 6.052033235491926888e+01 1.614602041847227269e+02 7.288820046146300413e+00 -8.673874153064976156e+01 1.896815014570990598e+01 1.399287044269963509e+01 -6.428315068637127183e+01 7.491072119938044693e+01 1.194210497052721109e+02 1.008918232118953462e+01 1.450123700379351135e+02 2.275414359489328220e+01 1.121976413391771104e+02 1.525042869359340791e+01 -2.100840378891819284e+02 2.207794716340062564e+02 -4.947129402314462254e+01 -1.507115426963222262e+02 -6.791343545315791630e+01 -4.334642313986887530e+01 4.163667940198487827e+01 2.574486298671580187e+01 4.600963219371124069e+01 -7.449075589490355753e+01 1.229969990011357055e+02 -8.667700970247720704e+01 -7.044075423627152333e+00 1.430496340167727567e+02 1.100448604761196520e+02 5.823230372226991847e+01 -1.776291991482569017e+02 2.551178369764524589e+01 1.407960351664331711e+02 2.348955278875271091e+01 9.779244296024630501e+01 1.066064930352519724e+02 -2.117215371462479823e+02 7.699877309387485980e+01 -5.779314176826327554e+01 -2.249985041107810559e+02 8.847799452091484795e+01 2.454564354684885785e+01 -1.213664096801125538e+02 -5.816303992989118399e+01 1.376648981876786877e+02 1.461505343986985395e+02 -7.503083353789391197e+01 -1.262948414765377549e+02 -8.236244383236078193e+01 -1.635587081093069060e+02 1.927958050171658755e+01 3.734659530689607010e+01 -1.669394354458316343e+01 -1.216556804120313195e+01 -8.787808538928146618e+01 -8.664381233732197529e+01 -2.416101741023982186e+01 1.308447764424713853e+02 1.329556450581745537e+02 7.911085953170271523e+01 9.461430009948151110e+01 -7.647593236968126007e+01 -1.756387575949585198e+02 -1.284096822941369531e+01 -2.247246959817410783e+01 -6.893749589325844340e+01 1.447038310289369134e+00 7.090091372743322040e+01 -5.135234322326540735e+01 2.394476628183647549e+01 7.683998935057515212e+01 6.802567150334941459e+01 1.072632008341294920e+02 -1.447507418042285110e+02 3.846285980915799740e+01 8.084282220167078492e+01 9.194898652759790991e+01 5.730747942029440622e+01 -1.001756512283213851e+02 1.328690525574066044e+02 1.236928839588064193e+02 9.300206011860305466e+01 9.852334544702557650e+01 -8.171971735246478374e+01 -1.442473158199864436e+01 -1.255519352637845643e+01 7.476365509038203072e+01 6.304450092194635147e+01 5.433380060220905250e+01 9.467910989027352286e+01 1.130387463024415950e+02 1.202437159309314296e+02 -6.294624288030612291e+01 7.821453066102023399e+01 6.330381270773247593e+01 -1.141732031090308084e+02 1.277064842088146150e+02 -9.734282367592452800e+00 -2.710097825492697865e+01 1.934489670661685636e+02 8.590683884894680489e+01 1.205088474728436125e+02 -1.401774021461265249e+02 -1.532620423307406554e+02 -1.493217878871593598e+02 -1.186916107086841947e+02 -4.303400770885286164e+01 1.067091917163945851e+02 -1.639712135952732410e+02 3.161747363101510544e+01 1.403873170208192676e+02 -5.773291935570439648e+01 -8.887362189831158332e+01 -3.418125393314656435e+01 1.322410985676484358e+02 2.212689271739316439e+02 -6.491979113226274478e+01 1.930115407158059782e+01 -2.696653820577673599e+01 6.672140755127132650e+01 5.869699113116507760e+01 -2.077778206998023052e+02 -8.641176497969627235e+01 1.341038634156620049e+02 1.362764216130385648e+02 9.216599707058041702e+01 -4.858216260535393616e+01 -7.391474845929003834e+01 -4.426960353022518291e+01 -1.722083373992257123e+02 6.939987288222164352e+01 -2.503136591420466672e+01 1.623270467518766225e+02 -2.725824254327814700e+01 -3.069912423920247875e+02 1.413846115698224537e+02 4.905162004266529863e+01 -1.151335767084718498e+02 -2.163564099191578194e+01 3.446545203956661396e+01 -2.027540425948802749e+02 -1.115678693588741623e+02 -1.070367587234846098e+02 -5.508394813591739592e+01 6.131919594222028991e+01 -1.609766690268884020e+02 1.053875293833191620e+02 -5.305236308594826511e+01 2.851604438067619540e+00 -1.303189964428694054e+02 -1.012365972675482766e+02 1.717869724940993876e+02 8.466711996906589377e+01 -4.126310372725778564e+01 3.630741504571641087e+01 -2.741023310358979614e+01 4.228621046655270277e+01 -1.022424707048797359e+02 9.664648526821322605e+01 4.935813371286382534e+01 -1.162193474415957155e+02 1.141259921833801343e+02 -4.802000825945699347e+01 9.766865461484805166e+01 -4.829787930859480127e+01 8.640605366661347375e+01 -1.499899333524821259e+02 1.395507226398614478e+02 2.421788520002122169e+01 9.843641490699846486e+01 1.275543741236063937e+02 -1.434409735529139311e+02 -8.402488408774105721e+01 -1.033322448972529060e+02 6.541842750294303244e+01 -1.676372521145418659e+02 1.482464683601041031e+02 1.393027372641567183e+02 5.183865756121791435e+01 -8.307619080013439827e+01 5.584046495354077422e+01 -1.050302650477281361e+02 -1.070483158833514281e+01 3.423210013083171077e+01 -1.798425682503018948e+02 -7.984997268743364884e+01 -1.324876235364775034e+01 1.000448627672590760e+02 -4.916022972725478013e+01 1.064568597654621556e+02 -6.298784345975244747e+01 -2.064213382304863842e+02 -1.048782584443906103e+02 -3.334712820467643724e+01 -5.894584407970929618e+01 2.947403962174751513e+01 5.035667303743004908e+01 6.212295011787124288e+00 2.484235287236917955e+01 -1.149725957120751474e+02 5.278400489680756635e+01 3.198262794641921758e+01 -7.073236678999001015e+01 9.090450815919792760e+00 5.524711467418482869e+01 -9.353560230939274334e+01 -5.401337020544572454e+01 -2.369082551185313434e+01 9.569275838699545034e+01 -1.680017486927090786e+01 4.114150770636569199e+00 -2.237313183357845503e+02 -9.321541890227615568e+01 9.705622844563839635e+01 -8.750232495827820856e+01 3.074447670436227043e+01 3.047418160735626813e+01 3.720319191789600666e+01 6.483965233992422839e+01 -1.741287761116701631e+02 1.412850407913346942e+02 7.999713510076267653e+01 -7.389296456105412858e+00 -7.930182506816312582e+01 1.098104319471313488e+02 6.094617549512342691e+01 -1.973906895499532084e+02 -4.944774162016288699e+01 -8.019533179331641293e+01 -5.086522763812023129e+01 -6.078057359664450132e+01 -9.720662111749531675e+01 -5.925500257941072135e+01 1.880010548032145437e+02 -1.676329972560721444e+02 6.427546826952391257e+01 2.723742706909131428e+01 -7.381254510064862018e+01 1.020196972695126370e+01 -3.871005528640824167e+01 3.371681447080409733e+00 -9.439459529207780975e+01 -1.939788678724981992e+02 1.806101532200068505e+01 4.114302363261271012e+01 -1.256505354914552974e+01 -8.824527220111441750e+00 -3.906062485502711468e+01 -1.864862113637315701e+02 -3.008727463793935542e+01 -6.418317206092710592e+01 1.369894021336004286e+01 -1.533353639609775065e+01 8.894966040379348726e+01 -6.190667295537413395e+01 -1.018347003753361975e+02 -3.507746001725407581e+01 -8.832681541696958405e+00 4.465604705255992002e+01 -2.173340640342351193e+01 -7.247182814915962012e+01 -1.559609140868918153e+01 1.969645942113046289e+01 4.665950579311076041e+01 -1.119779572366562519e+02 -1.365689538838220471e+02 2.262858010892007314e+02 -2.144429006282717864e+02 -7.460249521631097025e+01 -4.551654401503132874e+01 1.374026208760469672e+02 6.217059093143514303e+01 2.249049073878393585e+02 2.404863452016899430e+02 -6.126421792251182552e+01 1.272006471053566656e+02 -5.502601492096576408e+01 -4.010769232094797587e+01 -9.888081596256074590e+01 -7.845347031690513973e+01 -6.834635620594133343e+01 -8.746768007587137106e+01 -2.395529557561630156e+02 -2.661585958277078134e+02 1.323521844985910434e+02 -2.607731422895463425e+01 5.234633682047741843e+01 1.286308112198550759e+02
