# 
#                 ----------------------------------------------------
#                 Data from a 3D direct N-body simulation. 
# 
#                 rows are i-particle; 
#                 coumns are :mass, tag, x ,y, z, vx, vy, vz, ax, ay, az
# 
#                 NTHU, Computational Physics Lab
# 
#                 ----------------------------------------------------
#                 Time = 1.500000000000001
1.000000000000000000e+00 2.000000000000000000e+00 3.000000000000000000e+00 4.000000000000000000e+00 5.000000000000000000e+00 6.000000000000000000e+00 7.000000000000000000e+00 8.000000000000000000e+00 9.000000000000000000e+00 1.000000000000000000e+01 1.100000000000000000e+01 1.200000000000000000e+01 1.300000000000000000e+01 1.400000000000000000e+01 1.500000000000000000e+01 1.600000000000000000e+01 1.700000000000000000e+01 1.800000000000000000e+01 1.900000000000000000e+01 2.000000000000000000e+01 2.100000000000000000e+01 2.200000000000000000e+01 2.300000000000000000e+01 2.400000000000000000e+01 2.500000000000000000e+01 2.600000000000000000e+01 2.700000000000000000e+01 2.800000000000000000e+01 2.900000000000000000e+01 3.000000000000000000e+01 3.100000000000000000e+01 3.200000000000000000e+01 3.300000000000000000e+01 3.400000000000000000e+01 3.500000000000000000e+01 3.600000000000000000e+01 3.700000000000000000e+01 3.800000000000000000e+01 3.900000000000000000e+01 4.000000000000000000e+01 4.100000000000000000e+01 4.200000000000000000e+01 4.300000000000000000e+01 4.400000000000000000e+01 4.500000000000000000e+01 4.600000000000000000e+01 4.700000000000000000e+01 4.800000000000000000e+01 4.900000000000000000e+01 5.000000000000000000e+01 5.100000000000000000e+01 5.200000000000000000e+01 5.300000000000000000e+01 5.400000000000000000e+01 5.500000000000000000e+01 5.600000000000000000e+01 5.700000000000000000e+01 5.800000000000000000e+01 5.900000000000000000e+01 6.000000000000000000e+01 6.100000000000000000e+01 6.200000000000000000e+01 6.300000000000000000e+01 6.400000000000000000e+01 6.500000000000000000e+01 6.600000000000000000e+01 6.700000000000000000e+01 6.800000000000000000e+01 6.900000000000000000e+01 7.000000000000000000e+01 7.100000000000000000e+01 7.200000000000000000e+01 7.300000000000000000e+01 7.400000000000000000e+01 7.500000000000000000e+01 7.600000000000000000e+01 7.700000000000000000e+01 7.800000000000000000e+01 7.900000000000000000e+01 8.000000000000000000e+01 8.100000000000000000e+01 8.200000000000000000e+01 8.300000000000000000e+01 8.400000000000000000e+01 8.500000000000000000e+01 8.600000000000000000e+01 8.700000000000000000e+01 8.800000000000000000e+01 8.900000000000000000e+01 9.000000000000000000e+01 9.100000000000000000e+01 9.200000000000000000e+01 9.300000000000000000e+01 9.400000000000000000e+01 9.500000000000000000e+01 9.600000000000000000e+01 9.700000000000000000e+01 9.800000000000000000e+01 9.900000000000000000e+01 1.000000000000000000e+02 1.010000000000000000e+02 1.020000000000000000e+02 1.030000000000000000e+02 1.040000000000000000e+02 1.050000000000000000e+02 1.060000000000000000e+02 1.070000000000000000e+02 1.080000000000000000e+02 1.090000000000000000e+02 1.100000000000000000e+02 1.110000000000000000e+02 1.120000000000000000e+02 1.130000000000000000e+02 1.140000000000000000e+02 1.150000000000000000e+02 1.160000000000000000e+02 1.170000000000000000e+02 1.180000000000000000e+02 1.190000000000000000e+02 1.200000000000000000e+02 1.210000000000000000e+02 1.220000000000000000e+02 1.230000000000000000e+02 1.240000000000000000e+02 1.250000000000000000e+02 1.260000000000000000e+02 1.270000000000000000e+02 1.280000000000000000e+02 1.290000000000000000e+02 1.300000000000000000e+02 1.310000000000000000e+02 1.320000000000000000e+02 1.330000000000000000e+02 1.340000000000000000e+02 1.350000000000000000e+02 1.360000000000000000e+02 1.370000000000000000e+02 1.380000000000000000e+02 1.390000000000000000e+02 1.400000000000000000e+02 1.410000000000000000e+02 1.420000000000000000e+02 1.430000000000000000e+02 1.440000000000000000e+02 1.450000000000000000e+02 1.460000000000000000e+02 1.470000000000000000e+02 1.480000000000000000e+02 1.490000000000000000e+02 1.500000000000000000e+02 1.510000000000000000e+02 1.520000000000000000e+02 1.530000000000000000e+02 1.540000000000000000e+02 1.550000000000000000e+02 1.560000000000000000e+02 1.570000000000000000e+02 1.580000000000000000e+02 1.590000000000000000e+02 1.600000000000000000e+02 1.610000000000000000e+02 1.620000000000000000e+02 1.630000000000000000e+02 1.640000000000000000e+02 1.650000000000000000e+02 1.660000000000000000e+02 1.670000000000000000e+02 1.680000000000000000e+02 1.690000000000000000e+02 1.700000000000000000e+02 1.710000000000000000e+02 1.720000000000000000e+02 1.730000000000000000e+02 1.740000000000000000e+02 1.750000000000000000e+02 1.760000000000000000e+02 1.770000000000000000e+02 1.780000000000000000e+02 1.790000000000000000e+02 1.800000000000000000e+02 1.810000000000000000e+02 1.820000000000000000e+02 1.830000000000000000e+02 1.840000000000000000e+02 1.850000000000000000e+02 1.860000000000000000e+02 1.870000000000000000e+02 1.880000000000000000e+02 1.890000000000000000e+02 1.900000000000000000e+02 1.910000000000000000e+02 1.920000000000000000e+02 1.930000000000000000e+02 1.940000000000000000e+02 1.950000000000000000e+02 1.960000000000000000e+02 1.970000000000000000e+02 1.980000000000000000e+02 1.990000000000000000e+02 2.000000000000000000e+02 2.010000000000000000e+02 2.020000000000000000e+02 2.030000000000000000e+02 2.040000000000000000e+02 2.050000000000000000e+02 2.060000000000000000e+02 2.070000000000000000e+02 2.080000000000000000e+02 2.090000000000000000e+02 2.100000000000000000e+02 2.110000000000000000e+02 2.120000000000000000e+02 2.130000000000000000e+02 2.140000000000000000e+02 2.150000000000000000e+02 2.160000000000000000e+02 2.170000000000000000e+02 2.180000000000000000e+02 2.190000000000000000e+02 2.200000000000000000e+02 2.210000000000000000e+02 2.220000000000000000e+02 2.230000000000000000e+02 2.240000000000000000e+02 2.250000000000000000e+02 2.260000000000000000e+02 2.270000000000000000e+02 2.280000000000000000e+02 2.290000000000000000e+02 2.300000000000000000e+02 2.310000000000000000e+02 2.320000000000000000e+02 2.330000000000000000e+02 2.340000000000000000e+02 2.350000000000000000e+02 2.360000000000000000e+02 2.370000000000000000e+02 2.380000000000000000e+02 2.390000000000000000e+02 2.400000000000000000e+02 2.410000000000000000e+02 2.420000000000000000e+02 2.430000000000000000e+02 2.440000000000000000e+02 2.450000000000000000e+02 2.460000000000000000e+02 2.470000000000000000e+02 2.480000000000000000e+02 2.490000000000000000e+02 2.500000000000000000e+02 2.510000000000000000e+02 2.520000000000000000e+02 2.530000000000000000e+02 2.540000000000000000e+02 2.550000000000000000e+02 2.560000000000000000e+02 2.570000000000000000e+02 2.580000000000000000e+02 2.590000000000000000e+02 2.600000000000000000e+02 2.610000000000000000e+02 2.620000000000000000e+02 2.630000000000000000e+02 2.640000000000000000e+02 2.650000000000000000e+02 2.660000000000000000e+02 2.670000000000000000e+02 2.680000000000000000e+02 2.690000000000000000e+02 2.700000000000000000e+02 2.710000000000000000e+02 2.720000000000000000e+02 2.730000000000000000e+02 2.740000000000000000e+02 2.750000000000000000e+02 2.760000000000000000e+02 2.770000000000000000e+02 2.780000000000000000e+02 2.790000000000000000e+02 2.800000000000000000e+02 2.810000000000000000e+02 2.820000000000000000e+02 2.830000000000000000e+02 2.840000000000000000e+02 2.850000000000000000e+02 2.860000000000000000e+02 2.870000000000000000e+02 2.880000000000000000e+02 2.890000000000000000e+02 2.900000000000000000e+02 2.910000000000000000e+02 2.920000000000000000e+02 2.930000000000000000e+02 2.940000000000000000e+02 2.950000000000000000e+02 2.960000000000000000e+02 2.970000000000000000e+02 2.980000000000000000e+02 2.990000000000000000e+02 3.000000000000000000e+02 3.010000000000000000e+02 3.020000000000000000e+02 3.030000000000000000e+02 3.040000000000000000e+02 3.050000000000000000e+02 3.060000000000000000e+02 3.070000000000000000e+02 3.080000000000000000e+02 3.090000000000000000e+02 3.100000000000000000e+02 3.110000000000000000e+02 3.120000000000000000e+02 3.130000000000000000e+02 3.140000000000000000e+02 3.150000000000000000e+02 3.160000000000000000e+02 3.170000000000000000e+02 3.180000000000000000e+02 3.190000000000000000e+02 3.200000000000000000e+02 3.210000000000000000e+02 3.220000000000000000e+02 3.230000000000000000e+02 3.240000000000000000e+02 3.250000000000000000e+02 3.260000000000000000e+02 3.270000000000000000e+02 3.280000000000000000e+02 3.290000000000000000e+02 3.300000000000000000e+02 3.310000000000000000e+02 3.320000000000000000e+02 3.330000000000000000e+02 3.340000000000000000e+02 3.350000000000000000e+02 3.360000000000000000e+02 3.370000000000000000e+02 3.380000000000000000e+02 3.390000000000000000e+02 3.400000000000000000e+02 3.410000000000000000e+02 3.420000000000000000e+02 3.430000000000000000e+02 3.440000000000000000e+02 3.450000000000000000e+02 3.460000000000000000e+02 3.470000000000000000e+02 3.480000000000000000e+02 3.490000000000000000e+02 3.500000000000000000e+02 3.510000000000000000e+02 3.520000000000000000e+02 3.530000000000000000e+02 3.540000000000000000e+02 3.550000000000000000e+02 3.560000000000000000e+02 3.570000000000000000e+02 3.580000000000000000e+02 3.590000000000000000e+02 3.600000000000000000e+02 3.610000000000000000e+02 3.620000000000000000e+02 3.630000000000000000e+02 3.640000000000000000e+02 3.650000000000000000e+02 3.660000000000000000e+02 3.670000000000000000e+02 3.680000000000000000e+02 3.690000000000000000e+02 3.700000000000000000e+02 3.710000000000000000e+02 3.720000000000000000e+02 3.730000000000000000e+02 3.740000000000000000e+02 3.750000000000000000e+02 3.760000000000000000e+02 3.770000000000000000e+02 3.780000000000000000e+02 3.790000000000000000e+02 3.800000000000000000e+02 3.810000000000000000e+02 3.820000000000000000e+02 3.830000000000000000e+02 3.840000000000000000e+02 3.850000000000000000e+02 3.860000000000000000e+02 3.870000000000000000e+02 3.880000000000000000e+02 3.890000000000000000e+02 3.900000000000000000e+02 3.910000000000000000e+02 3.920000000000000000e+02 3.930000000000000000e+02 3.940000000000000000e+02 3.950000000000000000e+02 3.960000000000000000e+02 3.970000000000000000e+02 3.980000000000000000e+02 3.990000000000000000e+02 4.000000000000000000e+02 4.010000000000000000e+02 4.020000000000000000e+02 4.030000000000000000e+02 4.040000000000000000e+02 4.050000000000000000e+02 4.060000000000000000e+02 4.070000000000000000e+02 4.080000000000000000e+02 4.090000000000000000e+02 4.100000000000000000e+02 4.110000000000000000e+02 4.120000000000000000e+02 4.130000000000000000e+02 4.140000000000000000e+02 4.150000000000000000e+02 4.160000000000000000e+02 4.170000000000000000e+02 4.180000000000000000e+02 4.190000000000000000e+02 4.200000000000000000e+02 4.210000000000000000e+02 4.220000000000000000e+02 4.230000000000000000e+02 4.240000000000000000e+02 4.250000000000000000e+02 4.260000000000000000e+02 4.270000000000000000e+02 4.280000000000000000e+02 4.290000000000000000e+02 4.300000000000000000e+02 4.310000000000000000e+02 4.320000000000000000e+02 4.330000000000000000e+02 4.340000000000000000e+02 4.350000000000000000e+02 4.360000000000000000e+02 4.370000000000000000e+02 4.380000000000000000e+02 4.390000000000000000e+02 4.400000000000000000e+02 4.410000000000000000e+02 4.420000000000000000e+02 4.430000000000000000e+02 4.440000000000000000e+02 4.450000000000000000e+02 4.460000000000000000e+02 4.470000000000000000e+02 4.480000000000000000e+02 4.490000000000000000e+02 4.500000000000000000e+02 4.510000000000000000e+02 4.520000000000000000e+02 4.530000000000000000e+02 4.540000000000000000e+02 4.550000000000000000e+02 4.560000000000000000e+02 4.570000000000000000e+02 4.580000000000000000e+02 4.590000000000000000e+02 4.600000000000000000e+02 4.610000000000000000e+02 4.620000000000000000e+02 4.630000000000000000e+02 4.640000000000000000e+02 4.650000000000000000e+02 4.660000000000000000e+02 4.670000000000000000e+02 4.680000000000000000e+02 4.690000000000000000e+02 4.700000000000000000e+02 4.710000000000000000e+02 4.720000000000000000e+02 4.730000000000000000e+02 4.740000000000000000e+02 4.750000000000000000e+02 4.760000000000000000e+02 4.770000000000000000e+02 4.780000000000000000e+02 4.790000000000000000e+02 4.800000000000000000e+02 4.810000000000000000e+02 4.820000000000000000e+02 4.830000000000000000e+02 4.840000000000000000e+02 4.850000000000000000e+02 4.860000000000000000e+02 4.870000000000000000e+02 4.880000000000000000e+02 4.890000000000000000e+02 4.900000000000000000e+02 4.910000000000000000e+02 4.920000000000000000e+02 4.930000000000000000e+02 4.940000000000000000e+02 4.950000000000000000e+02 4.960000000000000000e+02 4.970000000000000000e+02 4.980000000000000000e+02 4.990000000000000000e+02 5.000000000000000000e+02 5.010000000000000000e+02 5.020000000000000000e+02 5.030000000000000000e+02 5.040000000000000000e+02 5.050000000000000000e+02 5.060000000000000000e+02 5.070000000000000000e+02 5.080000000000000000e+02 5.090000000000000000e+02 5.100000000000000000e+02 5.110000000000000000e+02 5.120000000000000000e+02 5.130000000000000000e+02 5.140000000000000000e+02 5.150000000000000000e+02 5.160000000000000000e+02 5.170000000000000000e+02 5.180000000000000000e+02 5.190000000000000000e+02 5.200000000000000000e+02 5.210000000000000000e+02 5.220000000000000000e+02 5.230000000000000000e+02 5.240000000000000000e+02 5.250000000000000000e+02 5.260000000000000000e+02 5.270000000000000000e+02 5.280000000000000000e+02 5.290000000000000000e+02 5.300000000000000000e+02 5.310000000000000000e+02 5.320000000000000000e+02 5.330000000000000000e+02 5.340000000000000000e+02 5.350000000000000000e+02 5.360000000000000000e+02 5.370000000000000000e+02 5.380000000000000000e+02 5.390000000000000000e+02 5.400000000000000000e+02 5.410000000000000000e+02 5.420000000000000000e+02 5.430000000000000000e+02 5.440000000000000000e+02 5.450000000000000000e+02 5.460000000000000000e+02 5.470000000000000000e+02 5.480000000000000000e+02 5.490000000000000000e+02 5.500000000000000000e+02 5.510000000000000000e+02 5.520000000000000000e+02 5.530000000000000000e+02 5.540000000000000000e+02 5.550000000000000000e+02 5.560000000000000000e+02 5.570000000000000000e+02 5.580000000000000000e+02 5.590000000000000000e+02 5.600000000000000000e+02 5.610000000000000000e+02 5.620000000000000000e+02 5.630000000000000000e+02 5.640000000000000000e+02 5.650000000000000000e+02 5.660000000000000000e+02 5.670000000000000000e+02 5.680000000000000000e+02 5.690000000000000000e+02 5.700000000000000000e+02 5.710000000000000000e+02 5.720000000000000000e+02 5.730000000000000000e+02 5.740000000000000000e+02 5.750000000000000000e+02 5.760000000000000000e+02 5.770000000000000000e+02 5.780000000000000000e+02 5.790000000000000000e+02 5.800000000000000000e+02 5.810000000000000000e+02 5.820000000000000000e+02 5.830000000000000000e+02 5.840000000000000000e+02 5.850000000000000000e+02 5.860000000000000000e+02 5.870000000000000000e+02 5.880000000000000000e+02 5.890000000000000000e+02 5.900000000000000000e+02 5.910000000000000000e+02 5.920000000000000000e+02 5.930000000000000000e+02 5.940000000000000000e+02 5.950000000000000000e+02 5.960000000000000000e+02 5.970000000000000000e+02 5.980000000000000000e+02 5.990000000000000000e+02 6.000000000000000000e+02 6.010000000000000000e+02 6.020000000000000000e+02 6.030000000000000000e+02 6.040000000000000000e+02 6.050000000000000000e+02 6.060000000000000000e+02 6.070000000000000000e+02 6.080000000000000000e+02 6.090000000000000000e+02 6.100000000000000000e+02 6.110000000000000000e+02 6.120000000000000000e+02 6.130000000000000000e+02 6.140000000000000000e+02 6.150000000000000000e+02 6.160000000000000000e+02 6.170000000000000000e+02 6.180000000000000000e+02 6.190000000000000000e+02 6.200000000000000000e+02 6.210000000000000000e+02 6.220000000000000000e+02 6.230000000000000000e+02 6.240000000000000000e+02 6.250000000000000000e+02 6.260000000000000000e+02 6.270000000000000000e+02 6.280000000000000000e+02 6.290000000000000000e+02 6.300000000000000000e+02 6.310000000000000000e+02 6.320000000000000000e+02 6.330000000000000000e+02 6.340000000000000000e+02 6.350000000000000000e+02 6.360000000000000000e+02 6.370000000000000000e+02 6.380000000000000000e+02 6.390000000000000000e+02 6.400000000000000000e+02 6.410000000000000000e+02 6.420000000000000000e+02 6.430000000000000000e+02 6.440000000000000000e+02 6.450000000000000000e+02 6.460000000000000000e+02 6.470000000000000000e+02 6.480000000000000000e+02 6.490000000000000000e+02 6.500000000000000000e+02 6.510000000000000000e+02 6.520000000000000000e+02 6.530000000000000000e+02 6.540000000000000000e+02 6.550000000000000000e+02 6.560000000000000000e+02 6.570000000000000000e+02 6.580000000000000000e+02 6.590000000000000000e+02 6.600000000000000000e+02 6.610000000000000000e+02 6.620000000000000000e+02 6.630000000000000000e+02 6.640000000000000000e+02 6.650000000000000000e+02 6.660000000000000000e+02 6.670000000000000000e+02 6.680000000000000000e+02 6.690000000000000000e+02 6.700000000000000000e+02 6.710000000000000000e+02 6.720000000000000000e+02 6.730000000000000000e+02 6.740000000000000000e+02 6.750000000000000000e+02 6.760000000000000000e+02 6.770000000000000000e+02 6.780000000000000000e+02 6.790000000000000000e+02 6.800000000000000000e+02 6.810000000000000000e+02 6.820000000000000000e+02 6.830000000000000000e+02 6.840000000000000000e+02 6.850000000000000000e+02 6.860000000000000000e+02 6.870000000000000000e+02 6.880000000000000000e+02 6.890000000000000000e+02 6.900000000000000000e+02 6.910000000000000000e+02 6.920000000000000000e+02 6.930000000000000000e+02 6.940000000000000000e+02 6.950000000000000000e+02 6.960000000000000000e+02 6.970000000000000000e+02 6.980000000000000000e+02 6.990000000000000000e+02 7.000000000000000000e+02 7.010000000000000000e+02 7.020000000000000000e+02 7.030000000000000000e+02 7.040000000000000000e+02 7.050000000000000000e+02 7.060000000000000000e+02 7.070000000000000000e+02 7.080000000000000000e+02 7.090000000000000000e+02 7.100000000000000000e+02 7.110000000000000000e+02 7.120000000000000000e+02 7.130000000000000000e+02 7.140000000000000000e+02 7.150000000000000000e+02 7.160000000000000000e+02 7.170000000000000000e+02 7.180000000000000000e+02 7.190000000000000000e+02 7.200000000000000000e+02 7.210000000000000000e+02 7.220000000000000000e+02 7.230000000000000000e+02 7.240000000000000000e+02 7.250000000000000000e+02 7.260000000000000000e+02 7.270000000000000000e+02 7.280000000000000000e+02 7.290000000000000000e+02 7.300000000000000000e+02 7.310000000000000000e+02 7.320000000000000000e+02 7.330000000000000000e+02 7.340000000000000000e+02 7.350000000000000000e+02 7.360000000000000000e+02 7.370000000000000000e+02 7.380000000000000000e+02 7.390000000000000000e+02 7.400000000000000000e+02 7.410000000000000000e+02 7.420000000000000000e+02 7.430000000000000000e+02 7.440000000000000000e+02 7.450000000000000000e+02 7.460000000000000000e+02 7.470000000000000000e+02 7.480000000000000000e+02 7.490000000000000000e+02 7.500000000000000000e+02 7.510000000000000000e+02 7.520000000000000000e+02 7.530000000000000000e+02 7.540000000000000000e+02 7.550000000000000000e+02 7.560000000000000000e+02 7.570000000000000000e+02 7.580000000000000000e+02 7.590000000000000000e+02 7.600000000000000000e+02 7.610000000000000000e+02 7.620000000000000000e+02 7.630000000000000000e+02 7.640000000000000000e+02 7.650000000000000000e+02 7.660000000000000000e+02 7.670000000000000000e+02 7.680000000000000000e+02 7.690000000000000000e+02 7.700000000000000000e+02 7.710000000000000000e+02 7.720000000000000000e+02 7.730000000000000000e+02 7.740000000000000000e+02 7.750000000000000000e+02 7.760000000000000000e+02 7.770000000000000000e+02 7.780000000000000000e+02 7.790000000000000000e+02 7.800000000000000000e+02 7.810000000000000000e+02 7.820000000000000000e+02 7.830000000000000000e+02 7.840000000000000000e+02 7.850000000000000000e+02 7.860000000000000000e+02 7.870000000000000000e+02 7.880000000000000000e+02 7.890000000000000000e+02 7.900000000000000000e+02 7.910000000000000000e+02 7.920000000000000000e+02 7.930000000000000000e+02 7.940000000000000000e+02 7.950000000000000000e+02 7.960000000000000000e+02 7.970000000000000000e+02 7.980000000000000000e+02 7.990000000000000000e+02 8.000000000000000000e+02 8.010000000000000000e+02 8.020000000000000000e+02 8.030000000000000000e+02 8.040000000000000000e+02 8.050000000000000000e+02 8.060000000000000000e+02 8.070000000000000000e+02 8.080000000000000000e+02 8.090000000000000000e+02 8.100000000000000000e+02 8.110000000000000000e+02 8.120000000000000000e+02 8.130000000000000000e+02 8.140000000000000000e+02 8.150000000000000000e+02 8.160000000000000000e+02 8.170000000000000000e+02 8.180000000000000000e+02 8.190000000000000000e+02 8.200000000000000000e+02 8.210000000000000000e+02 8.220000000000000000e+02 8.230000000000000000e+02 8.240000000000000000e+02 8.250000000000000000e+02 8.260000000000000000e+02 8.270000000000000000e+02 8.280000000000000000e+02 8.290000000000000000e+02 8.300000000000000000e+02 8.310000000000000000e+02 8.320000000000000000e+02 8.330000000000000000e+02 8.340000000000000000e+02 8.350000000000000000e+02 8.360000000000000000e+02 8.370000000000000000e+02 8.380000000000000000e+02 8.390000000000000000e+02 8.400000000000000000e+02 8.410000000000000000e+02 8.420000000000000000e+02 8.430000000000000000e+02 8.440000000000000000e+02 8.450000000000000000e+02 8.460000000000000000e+02 8.470000000000000000e+02 8.480000000000000000e+02 8.490000000000000000e+02 8.500000000000000000e+02 8.510000000000000000e+02 8.520000000000000000e+02 8.530000000000000000e+02 8.540000000000000000e+02 8.550000000000000000e+02 8.560000000000000000e+02 8.570000000000000000e+02 8.580000000000000000e+02 8.590000000000000000e+02 8.600000000000000000e+02 8.610000000000000000e+02 8.620000000000000000e+02 8.630000000000000000e+02 8.640000000000000000e+02 8.650000000000000000e+02 8.660000000000000000e+02 8.670000000000000000e+02 8.680000000000000000e+02 8.690000000000000000e+02 8.700000000000000000e+02 8.710000000000000000e+02 8.720000000000000000e+02 8.730000000000000000e+02 8.740000000000000000e+02 8.750000000000000000e+02 8.760000000000000000e+02 8.770000000000000000e+02 8.780000000000000000e+02 8.790000000000000000e+02 8.800000000000000000e+02 8.810000000000000000e+02 8.820000000000000000e+02 8.830000000000000000e+02 8.840000000000000000e+02 8.850000000000000000e+02 8.860000000000000000e+02 8.870000000000000000e+02 8.880000000000000000e+02 8.890000000000000000e+02 8.900000000000000000e+02 8.910000000000000000e+02 8.920000000000000000e+02 8.930000000000000000e+02 8.940000000000000000e+02 8.950000000000000000e+02 8.960000000000000000e+02 8.970000000000000000e+02 8.980000000000000000e+02 8.990000000000000000e+02 9.000000000000000000e+02 9.010000000000000000e+02 9.020000000000000000e+02 9.030000000000000000e+02 9.040000000000000000e+02 9.050000000000000000e+02 9.060000000000000000e+02 9.070000000000000000e+02 9.080000000000000000e+02 9.090000000000000000e+02 9.100000000000000000e+02 9.110000000000000000e+02 9.120000000000000000e+02 9.130000000000000000e+02 9.140000000000000000e+02 9.150000000000000000e+02 9.160000000000000000e+02 9.170000000000000000e+02 9.180000000000000000e+02 9.190000000000000000e+02 9.200000000000000000e+02 9.210000000000000000e+02 9.220000000000000000e+02 9.230000000000000000e+02 9.240000000000000000e+02 9.250000000000000000e+02 9.260000000000000000e+02 9.270000000000000000e+02 9.280000000000000000e+02 9.290000000000000000e+02 9.300000000000000000e+02 9.310000000000000000e+02 9.320000000000000000e+02 9.330000000000000000e+02 9.340000000000000000e+02 9.350000000000000000e+02 9.360000000000000000e+02 9.370000000000000000e+02 9.380000000000000000e+02 9.390000000000000000e+02 9.400000000000000000e+02 9.410000000000000000e+02 9.420000000000000000e+02 9.430000000000000000e+02 9.440000000000000000e+02 9.450000000000000000e+02 9.460000000000000000e+02 9.470000000000000000e+02 9.480000000000000000e+02 9.490000000000000000e+02 9.500000000000000000e+02 9.510000000000000000e+02 9.520000000000000000e+02 9.530000000000000000e+02 9.540000000000000000e+02 9.550000000000000000e+02 9.560000000000000000e+02 9.570000000000000000e+02 9.580000000000000000e+02 9.590000000000000000e+02 9.600000000000000000e+02 9.610000000000000000e+02 9.620000000000000000e+02 9.630000000000000000e+02 9.640000000000000000e+02 9.650000000000000000e+02 9.660000000000000000e+02 9.670000000000000000e+02 9.680000000000000000e+02 9.690000000000000000e+02 9.700000000000000000e+02 9.710000000000000000e+02 9.720000000000000000e+02 9.730000000000000000e+02 9.740000000000000000e+02 9.750000000000000000e+02 9.760000000000000000e+02 9.770000000000000000e+02 9.780000000000000000e+02 9.790000000000000000e+02 9.800000000000000000e+02 9.810000000000000000e+02 9.820000000000000000e+02 9.830000000000000000e+02 9.840000000000000000e+02 9.850000000000000000e+02 9.860000000000000000e+02 9.870000000000000000e+02 9.880000000000000000e+02 9.890000000000000000e+02 9.900000000000000000e+02 9.910000000000000000e+02 9.920000000000000000e+02 9.930000000000000000e+02 9.940000000000000000e+02 9.950000000000000000e+02 9.960000000000000000e+02 9.970000000000000000e+02 9.980000000000000000e+02 9.990000000000000000e+02 1.000000000000000000e+03
1.000000000000000021e-02 1.000000000000000021e-02 1.000000000000000021e-02 1.000000000000000021e-02 1.000000000000000021e-02 1.000000000000000021e-02 1.000000000000000021e-02 1.000000000000000021e-02 1.000000000000000021e-02 1.000000000000000021e-02 1.000000000000000021e-02 1.000000000000000021e-02 1.000000000000000021e-02 1.000000000000000021e-02 1.000000000000000021e-02 1.000000000000000021e-02 1.000000000000000021e-02 1.000000000000000021e-02 1.000000000000000021e-02 1.000000000000000021e-02 1.000000000000000021e-02 1.000000000000000021e-02 1.000000000000000021e-02 1.000000000000000021e-02 1.000000000000000021e-02 1.000000000000000021e-02 1.000000000000000021e-02 1.000000000000000021e-02 1.000000000000000021e-02 1.000000000000000021e-02 1.000000000000000021e-02 1.000000000000000021e-02 1.000000000000000021e-02 1.000000000000000021e-02 1.000000000000000021e-02 1.000000000000000021e-02 1.000000000000000021e-02 1.000000000000000021e-02 1.000000000000000021e-02 1.000000000000000021e-02 1.000000000000000021e-02 1.000000000000000021e-02 1.000000000000000021e-02 1.000000000000000021e-02 1.000000000000000021e-02 1.000000000000000021e-02 1.000000000000000021e-02 1.000000000000000021e-02 1.000000000000000021e-02 1.000000000000000021e-02 1.000000000000000021e-02 1.000000000000000021e-02 1.000000000000000021e-02 1.000000000000000021e-02 1.000000000000000021e-02 1.000000000000000021e-02 1.000000000000000021e-02 1.000000000000000021e-02 1.000000000000000021e-02 1.000000000000000021e-02 1.000000000000000021e-02 1.000000000000000021e-02 1.000000000000000021e-02 1.000000000000000021e-02 1.000000000000000021e-02 1.000000000000000021e-02 1.000000000000000021e-02 1.000000000000000021e-02 1.000000000000000021e-02 1.000000000000000021e-02 1.000000000000000021e-02 1.000000000000000021e-02 1.000000000000000021e-02 1.000000000000000021e-02 1.000000000000000021e-02 1.000000000000000021e-02 1.000000000000000021e-02 1.000000000000000021e-02 1.000000000000000021e-02 1.000000000000000021e-02 1.000000000000000021e-02 1.000000000000000021e-02 1.000000000000000021e-02 1.000000000000000021e-02 1.000000000000000021e-02 1.000000000000000021e-02 1.000000000000000021e-02 1.000000000000000021e-02 1.000000000000000021e-02 1.000000000000000021e-02 1.000000000000000021e-02 1.000000000000000021e-02 1.000000000000000021e-02 1.000000000000000021e-02 1.000000000000000021e-02 1.000000000000000021e-02 1.000000000000000021e-02 1.000000000000000021e-02 1.000000000000000021e-02 1.000000000000000021e-02 1.000000000000000021e-02 1.000000000000000021e-02 1.000000000000000021e-02 1.000000000000000021e-02 1.000000000000000021e-02 1.000000000000000021e-02 1.000000000000000021e-02 1.000000000000000021e-02 1.000000000000000021e-02 1.000000000000000021e-02 1.000000000000000021e-02 1.000000000000000021e-02 1.000000000000000021e-02 1.000000000000000021e-02 1.000000000000000021e-02 1.000000000000000021e-02 1.000000000000000021e-02 1.000000000000000021e-02 1.000000000000000021e-02 1.000000000000000021e-02 1.000000000000000021e-02 1.000000000000000021e-02 1.000000000000000021e-02 1.000000000000000021e-02 1.000000000000000021e-02 1.000000000000000021e-02 1.000000000000000021e-02 1.000000000000000021e-02 1.000000000000000021e-02 1.000000000000000021e-02 1.000000000000000021e-02 1.000000000000000021e-02 1.000000000000000021e-02 1.000000000000000021e-02 1.000000000000000021e-02 1.000000000000000021e-02 1.000000000000000021e-02 1.000000000000000021e-02 1.000000000000000021e-02 1.000000000000000021e-02 1.000000000000000021e-02 1.000000000000000021e-02 1.000000000000000021e-02 1.000000000000000021e-02 1.000000000000000021e-02 1.000000000000000021e-02 1.000000000000000021e-02 1.000000000000000021e-02 1.000000000000000021e-02 1.000000000000000021e-02 1.000000000000000021e-02 1.000000000000000021e-02 1.000000000000000021e-02 1.000000000000000021e-02 1.000000000000000021e-02 1.000000000000000021e-02 1.000000000000000021e-02 1.000000000000000021e-02 1.000000000000000021e-02 1.000000000000000021e-02 1.000000000000000021e-02 1.000000000000000021e-02 1.000000000000000021e-02 1.000000000000000021e-02 1.000000000000000021e-02 1.000000000000000021e-02 1.000000000000000021e-02 1.000000000000000021e-02 1.000000000000000021e-02 1.000000000000000021e-02 1.000000000000000021e-02 1.000000000000000021e-02 1.000000000000000021e-02 1.000000000000000021e-02 1.000000000000000021e-02 1.000000000000000021e-02 1.000000000000000021e-02 1.000000000000000021e-02 1.000000000000000021e-02 1.000000000000000021e-02 1.000000000000000021e-02 1.000000000000000021e-02 1.000000000000000021e-02 1.000000000000000021e-02 1.000000000000000021e-02 1.000000000000000021e-02 1.000000000000000021e-02 1.000000000000000021e-02 1.000000000000000021e-02 1.000000000000000021e-02 1.000000000000000021e-02 1.000000000000000021e-02 1.000000000000000021e-02 1.000000000000000021e-02 1.000000000000000021e-02 1.000000000000000021e-02 1.000000000000000021e-02 1.000000000000000021e-02 1.000000000000000021e-02 1.000000000000000021e-02 1.000000000000000021e-02 1.000000000000000021e-02 1.000000000000000021e-02 1.000000000000000021e-02 1.000000000000000021e-02 1.000000000000000021e-02 1.000000000000000021e-02 1.000000000000000021e-02 1.000000000000000021e-02 1.000000000000000021e-02 1.000000000000000021e-02 1.000000000000000021e-02 1.000000000000000021e-02 1.000000000000000021e-02 1.000000000000000021e-02 1.000000000000000021e-02 1.000000000000000021e-02 1.000000000000000021e-02 1.000000000000000021e-02 1.000000000000000021e-02 1.000000000000000021e-02 1.000000000000000021e-02 1.000000000000000021e-02 1.000000000000000021e-02 1.000000000000000021e-02 1.000000000000000021e-02 1.000000000000000021e-02 1.000000000000000021e-02 1.000000000000000021e-02 1.000000000000000021e-02 1.000000000000000021e-02 1.000000000000000021e-02 1.000000000000000021e-02 1.000000000000000021e-02 1.000000000000000021e-02 1.000000000000000021e-02 1.000000000000000021e-02 1.000000000000000021e-02 1.000000000000000021e-02 1.000000000000000021e-02 1.000000000000000021e-02 1.000000000000000021e-02 1.000000000000000021e-02 1.000000000000000021e-02 1.000000000000000021e-02 1.000000000000000021e-02 1.000000000000000021e-02 1.000000000000000021e-02 1.000000000000000021e-02 1.000000000000000021e-02 1.000000000000000021e-02 1.000000000000000021e-02 1.000000000000000021e-02 1.000000000000000021e-02 1.000000000000000021e-02 1.000000000000000021e-02 1.000000000000000021e-02 1.000000000000000021e-02 1.000000000000000021e-02 1.000000000000000021e-02 1.000000000000000021e-02 1.000000000000000021e-02 1.000000000000000021e-02 1.000000000000000021e-02 1.000000000000000021e-02 1.000000000000000021e-02 1.000000000000000021e-02 1.000000000000000021e-02 1.000000000000000021e-02 1.000000000000000021e-02 1.000000000000000021e-02 1.000000000000000021e-02 1.000000000000000021e-02 1.000000000000000021e-02 1.000000000000000021e-02 1.000000000000000021e-02 1.000000000000000021e-02 1.000000000000000021e-02 1.000000000000000021e-02 1.000000000000000021e-02 1.000000000000000021e-02 1.000000000000000021e-02 1.000000000000000021e-02 1.000000000000000021e-02 1.000000000000000021e-02 1.000000000000000021e-02 1.000000000000000021e-02 1.000000000000000021e-02 1.000000000000000021e-02 1.000000000000000021e-02 1.000000000000000021e-02 1.000000000000000021e-02 1.000000000000000021e-02 1.000000000000000021e-02 1.000000000000000021e-02 1.000000000000000021e-02 1.000000000000000021e-02 1.000000000000000021e-02 1.000000000000000021e-02 1.000000000000000021e-02 1.000000000000000021e-02 1.000000000000000021e-02 1.000000000000000021e-02 1.000000000000000021e-02 1.000000000000000021e-02 1.000000000000000021e-02 1.000000000000000021e-02 1.000000000000000021e-02 1.000000000000000021e-02 1.000000000000000021e-02 1.000000000000000021e-02 1.000000000000000021e-02 1.000000000000000021e-02 1.000000000000000021e-02 1.000000000000000021e-02 1.000000000000000021e-02 1.000000000000000021e-02 1.000000000000000021e-02 1.000000000000000021e-02 1.000000000000000021e-02 1.000000000000000021e-02 1.000000000000000021e-02 1.000000000000000021e-02 1.000000000000000021e-02 1.000000000000000021e-02 1.000000000000000021e-02 1.000000000000000021e-02 1.000000000000000021e-02 1.000000000000000021e-02 1.000000000000000021e-02 1.000000000000000021e-02 1.000000000000000021e-02 1.000000000000000021e-02 1.000000000000000021e-02 1.000000000000000021e-02 1.000000000000000021e-02 1.000000000000000021e-02 1.000000000000000021e-02 1.000000000000000021e-02 1.000000000000000021e-02 1.000000000000000021e-02 1.000000000000000021e-02 1.000000000000000021e-02 1.000000000000000021e-02 1.000000000000000021e-02 1.000000000000000021e-02 1.000000000000000021e-02 1.000000000000000021e-02 1.000000000000000021e-02 1.000000000000000021e-02 1.000000000000000021e-02 1.000000000000000021e-02 1.000000000000000021e-02 1.000000000000000021e-02 1.000000000000000021e-02 1.000000000000000021e-02 1.000000000000000021e-02 1.000000000000000021e-02 1.000000000000000021e-02 1.000000000000000021e-02 1.000000000000000021e-02 1.000000000000000021e-02 1.000000000000000021e-02 1.000000000000000021e-02 1.000000000000000021e-02 1.000000000000000021e-02 1.000000000000000021e-02 1.000000000000000021e-02 1.000000000000000021e-02 1.000000000000000021e-02 1.000000000000000021e-02 1.000000000000000021e-02 1.000000000000000021e-02 1.000000000000000021e-02 1.000000000000000021e-02 1.000000000000000021e-02 1.000000000000000021e-02 1.000000000000000021e-02 1.000000000000000021e-02 1.000000000000000021e-02 1.000000000000000021e-02 1.000000000000000021e-02 1.000000000000000021e-02 1.000000000000000021e-02 1.000000000000000021e-02 1.000000000000000021e-02 1.000000000000000021e-02 1.000000000000000021e-02 1.000000000000000021e-02 1.000000000000000021e-02 1.000000000000000021e-02 1.000000000000000021e-02 1.000000000000000021e-02 1.000000000000000021e-02 1.000000000000000021e-02 1.000000000000000021e-02 1.000000000000000021e-02 1.000000000000000021e-02 1.000000000000000021e-02 1.000000000000000021e-02 1.000000000000000021e-02 1.000000000000000021e-02 1.000000000000000021e-02 1.000000000000000021e-02 1.000000000000000021e-02 1.000000000000000021e-02 1.000000000000000021e-02 1.000000000000000021e-02 1.000000000000000021e-02 1.000000000000000021e-02 1.000000000000000021e-02 1.000000000000000021e-02 1.000000000000000021e-02 1.000000000000000021e-02 1.000000000000000021e-02 1.000000000000000021e-02 1.000000000000000021e-02 1.000000000000000021e-02 1.000000000000000021e-02 1.000000000000000021e-02 1.000000000000000021e-02 1.000000000000000021e-02 1.000000000000000021e-02 1.000000000000000021e-02 1.000000000000000021e-02 1.000000000000000021e-02 1.000000000000000021e-02 1.000000000000000021e-02 1.000000000000000021e-02 1.000000000000000021e-02 1.000000000000000021e-02 1.000000000000000021e-02 1.000000000000000021e-02 1.000000000000000021e-02 1.000000000000000021e-02 1.000000000000000021e-02 1.000000000000000021e-02 1.000000000000000021e-02 1.000000000000000021e-02 1.000000000000000021e-02 1.000000000000000021e-02 1.000000000000000021e-02 1.000000000000000021e-02 1.000000000000000021e-02 1.000000000000000021e-02 1.000000000000000021e-02 1.000000000000000021e-02 1.000000000000000021e-02 1.000000000000000021e-02 1.000000000000000021e-02 1.000000000000000021e-02 1.000000000000000021e-02 1.000000000000000021e-02 1.000000000000000021e-02 1.000000000000000021e-02 1.000000000000000021e-02 1.000000000000000021e-02 1.000000000000000021e-02 1.000000000000000021e-02 1.000000000000000021e-02 1.000000000000000021e-02 1.000000000000000021e-02 1.000000000000000021e-02 1.000000000000000021e-02 1.000000000000000021e-02 1.000000000000000021e-02 1.000000000000000021e-02 1.000000000000000021e-02 1.000000000000000021e-02 1.000000000000000021e-02 1.000000000000000021e-02 1.000000000000000021e-02 1.000000000000000021e-02 1.000000000000000021e-02 1.000000000000000021e-02 1.000000000000000021e-02 1.000000000000000021e-02 1.000000000000000021e-02 1.000000000000000021e-02 1.000000000000000021e-02 1.000000000000000021e-02 1.000000000000000021e-02 1.000000000000000021e-02 1.000000000000000021e-02 1.000000000000000021e-02 1.000000000000000021e-02 1.000000000000000021e-02 1.000000000000000021e-02 1.000000000000000021e-02 1.000000000000000021e-02 1.000000000000000021e-02 1.000000000000000021e-02 1.000000000000000021e-02 1.000000000000000021e-02 1.000000000000000021e-02 1.000000000000000021e-02 1.000000000000000021e-02 1.000000000000000021e-02 1.000000000000000021e-02 1.000000000000000021e-02 1.000000000000000021e-02 1.000000000000000021e-02 1.000000000000000021e-02 1.000000000000000021e-02 1.000000000000000021e-02 1.000000000000000021e-02 1.000000000000000021e-02 1.000000000000000021e-02 1.000000000000000021e-02 1.000000000000000021e-02 1.000000000000000021e-02 1.000000000000000021e-02 1.000000000000000021e-02 1.000000000000000021e-02 1.000000000000000021e-02 1.000000000000000021e-02 1.000000000000000021e-02 1.000000000000000021e-02 1.000000000000000021e-02 1.000000000000000021e-02 1.000000000000000021e-02 1.000000000000000021e-02 1.000000000000000021e-02 1.000000000000000021e-02 1.000000000000000021e-02 1.000000000000000021e-02 1.000000000000000021e-02 1.000000000000000021e-02 1.000000000000000021e-02 1.000000000000000021e-02 1.000000000000000021e-02 1.000000000000000021e-02 1.000000000000000021e-02 1.000000000000000021e-02 1.000000000000000021e-02 1.000000000000000021e-02 1.000000000000000021e-02 1.000000000000000021e-02 1.000000000000000021e-02 1.000000000000000021e-02 1.000000000000000021e-02 1.000000000000000021e-02 1.000000000000000021e-02 1.000000000000000021e-02 1.000000000000000021e-02 1.000000000000000021e-02 1.000000000000000021e-02 1.000000000000000021e-02 1.000000000000000021e-02 1.000000000000000021e-02 1.000000000000000021e-02 1.000000000000000021e-02 1.000000000000000021e-02 1.000000000000000021e-02 1.000000000000000021e-02 1.000000000000000021e-02 1.000000000000000021e-02 1.000000000000000021e-02 1.000000000000000021e-02 1.000000000000000021e-02 1.000000000000000021e-02 1.000000000000000021e-02 1.000000000000000021e-02 1.000000000000000021e-02 1.000000000000000021e-02 1.000000000000000021e-02 1.000000000000000021e-02 1.000000000000000021e-02 1.000000000000000021e-02 1.000000000000000021e-02 1.000000000000000021e-02 1.000000000000000021e-02 1.000000000000000021e-02 1.000000000000000021e-02 1.000000000000000021e-02 1.000000000000000021e-02 1.000000000000000021e-02 1.000000000000000021e-02 1.000000000000000021e-02 1.000000000000000021e-02 1.000000000000000021e-02 1.000000000000000021e-02 1.000000000000000021e-02 1.000000000000000021e-02 1.000000000000000021e-02 1.000000000000000021e-02 1.000000000000000021e-02 1.000000000000000021e-02 1.000000000000000021e-02 1.000000000000000021e-02 1.000000000000000021e-02 1.000000000000000021e-02 1.000000000000000021e-02 1.000000000000000021e-02 1.000000000000000021e-02 1.000000000000000021e-02 1.000000000000000021e-02 1.000000000000000021e-02 1.000000000000000021e-02 1.000000000000000021e-02 1.000000000000000021e-02 1.000000000000000021e-02 1.000000000000000021e-02 1.000000000000000021e-02 1.000000000000000021e-02 1.000000000000000021e-02 1.000000000000000021e-02 1.000000000000000021e-02 1.000000000000000021e-02 1.000000000000000021e-02 1.000000000000000021e-02 1.000000000000000021e-02 1.000000000000000021e-02 1.000000000000000021e-02 1.000000000000000021e-02 1.000000000000000021e-02 1.000000000000000021e-02 1.000000000000000021e-02 1.000000000000000021e-02 1.000000000000000021e-02 1.000000000000000021e-02 1.000000000000000021e-02 1.000000000000000021e-02 1.000000000000000021e-02 1.000000000000000021e-02 1.000000000000000021e-02 1.000000000000000021e-02 1.000000000000000021e-02 1.000000000000000021e-02 1.000000000000000021e-02 1.000000000000000021e-02 1.000000000000000021e-02 1.000000000000000021e-02 1.000000000000000021e-02 1.000000000000000021e-02 1.000000000000000021e-02 1.000000000000000021e-02 1.000000000000000021e-02 1.000000000000000021e-02 1.000000000000000021e-02 1.000000000000000021e-02 1.000000000000000021e-02 1.000000000000000021e-02 1.000000000000000021e-02 1.000000000000000021e-02 1.000000000000000021e-02 1.000000000000000021e-02 1.000000000000000021e-02 1.000000000000000021e-02 1.000000000000000021e-02 1.000000000000000021e-02 1.000000000000000021e-02 1.000000000000000021e-02 1.000000000000000021e-02 1.000000000000000021e-02 1.000000000000000021e-02 1.000000000000000021e-02 1.000000000000000021e-02 1.000000000000000021e-02 1.000000000000000021e-02 1.000000000000000021e-02 1.000000000000000021e-02 1.000000000000000021e-02 1.000000000000000021e-02 1.000000000000000021e-02 1.000000000000000021e-02 1.000000000000000021e-02 1.000000000000000021e-02 1.000000000000000021e-02 1.000000000000000021e-02 1.000000000000000021e-02 1.000000000000000021e-02 1.000000000000000021e-02 1.000000000000000021e-02 1.000000000000000021e-02 1.000000000000000021e-02 1.000000000000000021e-02 1.000000000000000021e-02 1.000000000000000021e-02 1.000000000000000021e-02 1.000000000000000021e-02 1.000000000000000021e-02 1.000000000000000021e-02 1.000000000000000021e-02 1.000000000000000021e-02 1.000000000000000021e-02 1.000000000000000021e-02 1.000000000000000021e-02 1.000000000000000021e-02 1.000000000000000021e-02 1.000000000000000021e-02 1.000000000000000021e-02 1.000000000000000021e-02 1.000000000000000021e-02 1.000000000000000021e-02 1.000000000000000021e-02 1.000000000000000021e-02 1.000000000000000021e-02 1.000000000000000021e-02 1.000000000000000021e-02 1.000000000000000021e-02 1.000000000000000021e-02 1.000000000000000021e-02 1.000000000000000021e-02 1.000000000000000021e-02 1.000000000000000021e-02 1.000000000000000021e-02 1.000000000000000021e-02 1.000000000000000021e-02 1.000000000000000021e-02 1.000000000000000021e-02 1.000000000000000021e-02 1.000000000000000021e-02 1.000000000000000021e-02 1.000000000000000021e-02 1.000000000000000021e-02 1.000000000000000021e-02 1.000000000000000021e-02 1.000000000000000021e-02 1.000000000000000021e-02 1.000000000000000021e-02 1.000000000000000021e-02 1.000000000000000021e-02 1.000000000000000021e-02 1.000000000000000021e-02 1.000000000000000021e-02 1.000000000000000021e-02 1.000000000000000021e-02 1.000000000000000021e-02 1.000000000000000021e-02 1.000000000000000021e-02 1.000000000000000021e-02 1.000000000000000021e-02 1.000000000000000021e-02 1.000000000000000021e-02 1.000000000000000021e-02 1.000000000000000021e-02 1.000000000000000021e-02 1.000000000000000021e-02 1.000000000000000021e-02 1.000000000000000021e-02 1.000000000000000021e-02 1.000000000000000021e-02 1.000000000000000021e-02 1.000000000000000021e-02 1.000000000000000021e-02 1.000000000000000021e-02 1.000000000000000021e-02 1.000000000000000021e-02 1.000000000000000021e-02 1.000000000000000021e-02 1.000000000000000021e-02 1.000000000000000021e-02 1.000000000000000021e-02 1.000000000000000021e-02 1.000000000000000021e-02 1.000000000000000021e-02 1.000000000000000021e-02 1.000000000000000021e-02 1.000000000000000021e-02 1.000000000000000021e-02 1.000000000000000021e-02 1.000000000000000021e-02 1.000000000000000021e-02 1.000000000000000021e-02 1.000000000000000021e-02 1.000000000000000021e-02 1.000000000000000021e-02 1.000000000000000021e-02 1.000000000000000021e-02 1.000000000000000021e-02 1.000000000000000021e-02 1.000000000000000021e-02 1.000000000000000021e-02 1.000000000000000021e-02 1.000000000000000021e-02 1.000000000000000021e-02 1.000000000000000021e-02 1.000000000000000021e-02 1.000000000000000021e-02 1.000000000000000021e-02 1.000000000000000021e-02 1.000000000000000021e-02 1.000000000000000021e-02 1.000000000000000021e-02 1.000000000000000021e-02 1.000000000000000021e-02 1.000000000000000021e-02 1.000000000000000021e-02 1.000000000000000021e-02 1.000000000000000021e-02 1.000000000000000021e-02 1.000000000000000021e-02 1.000000000000000021e-02 1.000000000000000021e-02 1.000000000000000021e-02 1.000000000000000021e-02 1.000000000000000021e-02 1.000000000000000021e-02 1.000000000000000021e-02 1.000000000000000021e-02 1.000000000000000021e-02 1.000000000000000021e-02 1.000000000000000021e-02 1.000000000000000021e-02 1.000000000000000021e-02 1.000000000000000021e-02 1.000000000000000021e-02 1.000000000000000021e-02 1.000000000000000021e-02 1.000000000000000021e-02 1.000000000000000021e-02 1.000000000000000021e-02 1.000000000000000021e-02 1.000000000000000021e-02 1.000000000000000021e-02 1.000000000000000021e-02 1.000000000000000021e-02 1.000000000000000021e-02 1.000000000000000021e-02 1.000000000000000021e-02 1.000000000000000021e-02 1.000000000000000021e-02 1.000000000000000021e-02 1.000000000000000021e-02 1.000000000000000021e-02 1.000000000000000021e-02 1.000000000000000021e-02 1.000000000000000021e-02 1.000000000000000021e-02 1.000000000000000021e-02 1.000000000000000021e-02 1.000000000000000021e-02 1.000000000000000021e-02 1.000000000000000021e-02 1.000000000000000021e-02 1.000000000000000021e-02 1.000000000000000021e-02 1.000000000000000021e-02 1.000000000000000021e-02 1.000000000000000021e-02 1.000000000000000021e-02 1.000000000000000021e-02 1.000000000000000021e-02 1.000000000000000021e-02 1.000000000000000021e-02 1.000000000000000021e-02 1.000000000000000021e-02 1.000000000000000021e-02 1.000000000000000021e-02 1.000000000000000021e-02 1.000000000000000021e-02 1.000000000000000021e-02 1.000000000000000021e-02 1.000000000000000021e-02 1.000000000000000021e-02 1.000000000000000021e-02 1.000000000000000021e-02 1.000000000000000021e-02 1.000000000000000021e-02 1.000000000000000021e-02 1.000000000000000021e-02 1.000000000000000021e-02 1.000000000000000021e-02 1.000000000000000021e-02 1.000000000000000021e-02 1.000000000000000021e-02 1.000000000000000021e-02 1.000000000000000021e-02 1.000000000000000021e-02 1.000000000000000021e-02 1.000000000000000021e-02 1.000000000000000021e-02 1.000000000000000021e-02 1.000000000000000021e-02 1.000000000000000021e-02 1.000000000000000021e-02 1.000000000000000021e-02 1.000000000000000021e-02 1.000000000000000021e-02 1.000000000000000021e-02 1.000000000000000021e-02 1.000000000000000021e-02 1.000000000000000021e-02 1.000000000000000021e-02 1.000000000000000021e-02 1.000000000000000021e-02 1.000000000000000021e-02 1.000000000000000021e-02 1.000000000000000021e-02 1.000000000000000021e-02 1.000000000000000021e-02 1.000000000000000021e-02 1.000000000000000021e-02 1.000000000000000021e-02 1.000000000000000021e-02 1.000000000000000021e-02 1.000000000000000021e-02 1.000000000000000021e-02 1.000000000000000021e-02 1.000000000000000021e-02 1.000000000000000021e-02 1.000000000000000021e-02 1.000000000000000021e-02 1.000000000000000021e-02 1.000000000000000021e-02 1.000000000000000021e-02 1.000000000000000021e-02 1.000000000000000021e-02 1.000000000000000021e-02 1.000000000000000021e-02 1.000000000000000021e-02 1.000000000000000021e-02 1.000000000000000021e-02 1.000000000000000021e-02 1.000000000000000021e-02 1.000000000000000021e-02 1.000000000000000021e-02 1.000000000000000021e-02 1.000000000000000021e-02 1.000000000000000021e-02 1.000000000000000021e-02 1.000000000000000021e-02 1.000000000000000021e-02 1.000000000000000021e-02 1.000000000000000021e-02 1.000000000000000021e-02 1.000000000000000021e-02 1.000000000000000021e-02 1.000000000000000021e-02 1.000000000000000021e-02 1.000000000000000021e-02 1.000000000000000021e-02 1.000000000000000021e-02 1.000000000000000021e-02 1.000000000000000021e-02 1.000000000000000021e-02 1.000000000000000021e-02 1.000000000000000021e-02 1.000000000000000021e-02 1.000000000000000021e-02 1.000000000000000021e-02 1.000000000000000021e-02 1.000000000000000021e-02 1.000000000000000021e-02 1.000000000000000021e-02 1.000000000000000021e-02 1.000000000000000021e-02 1.000000000000000021e-02 1.000000000000000021e-02 1.000000000000000021e-02 1.000000000000000021e-02 1.000000000000000021e-02 1.000000000000000021e-02 1.000000000000000021e-02 1.000000000000000021e-02 1.000000000000000021e-02 1.000000000000000021e-02 1.000000000000000021e-02 1.000000000000000021e-02 1.000000000000000021e-02 1.000000000000000021e-02 1.000000000000000021e-02 1.000000000000000021e-02 1.000000000000000021e-02 1.000000000000000021e-02 1.000000000000000021e-02 1.000000000000000021e-02 1.000000000000000021e-02 1.000000000000000021e-02 1.000000000000000021e-02 1.000000000000000021e-02 1.000000000000000021e-02 1.000000000000000021e-02 1.000000000000000021e-02 1.000000000000000021e-02 1.000000000000000021e-02 1.000000000000000021e-02 1.000000000000000021e-02 1.000000000000000021e-02 1.000000000000000021e-02 1.000000000000000021e-02 1.000000000000000021e-02 1.000000000000000021e-02 1.000000000000000021e-02 1.000000000000000021e-02 1.000000000000000021e-02 1.000000000000000021e-02 1.000000000000000021e-02 1.000000000000000021e-02 1.000000000000000021e-02 1.000000000000000021e-02 1.000000000000000021e-02 1.000000000000000021e-02 1.000000000000000021e-02 1.000000000000000021e-02 1.000000000000000021e-02 1.000000000000000021e-02 1.000000000000000021e-02 1.000000000000000021e-02
-1.057436894023061456e+02 1.609165296306199480e+02 3.723755882374113924e+01 -8.358963815818542642e+00 -8.331394668637248913e+01 -1.269237456012260878e+01 -1.972124063564619689e+02 6.835248769755792875e-01 -8.029305180665163277e+01 -1.348509294671584335e+01 -1.883391011994563513e+01 6.229751656843810714e+00 -1.691464738828650116e+00 1.591087514515087662e+02 8.025790903258845788e+01 -3.683724362688926135e+01 -5.014280271879698603e+01 7.512182270952219199e+01 3.114118431410256704e+01 -2.408160999723614282e+01 -7.474769668185996352e+01 -6.995668441514418134e+01 -1.306951443656191181e+01 2.743833365646448641e+01 -1.848313204697511196e+02 -9.359665602146736774e+01 -2.475080447528491234e+01 1.911816168783721537e+02 6.710621509721646305e+01 7.281889320139977428e+01 7.616164719378014070e+01 1.116182210748462245e+00 -7.528397410070009244e+01 1.968351815678106220e+02 -2.322989803216271412e+02 5.588042967976947040e+01 -1.138612445592342652e+02 -3.290970271033207695e+01 3.833481468362903488e+00 1.201827304088934767e+02 -1.165345556960874092e+02 -1.290128147165420636e+01 7.332493279858610435e+01 1.646745483689431637e+02 6.763179560878643315e+01 -6.481759858548782915e+01 3.901492198732322692e+01 -2.694668284219688914e+01 -6.265680091747397995e+01 1.485039321239572985e+02 -6.681110948369763491e+01 -4.938888066102632024e+01 -1.322433188311910044e+02 5.563252524314153291e+00 -4.789975101216482045e+01 3.669570848758520043e+01 -8.416536853740092283e+01 -4.746122761719486505e+01 -9.618844334917180561e+01 -1.474656412138074302e+02 1.839302240091891250e+01 4.309907446937685194e+01 -1.168036660479438922e+02 1.218263158765416243e+01 -7.515901227641484184e+01 4.660188715231447532e+01 1.581433535879995702e+02 -1.368729203991295549e+02 -4.105387682507082303e+01 6.867283052350887651e+00 2.796078207276242900e+00 4.022118052436778157e+01 7.966527144935277249e+01 7.097038184431408991e-01 -8.405153778561455624e+00 -6.639694967668172865e+01 7.421377785114928827e+01 -3.100686715947656324e+01 2.496783286816182468e+01 9.869184079289675537e+01 8.364404018701529253e+01 -4.058678153526703625e+01 5.475908626074924967e+01 1.398494998841984227e+02 1.102567774377299088e+02 -3.770903018949147256e+00 1.652205244047015071e+02 -1.058115761875987459e+02 3.932140806542301359e+00 -3.978601423081831712e+01 1.961799216913452142e+02 -2.013398843106434555e+01 2.764343121742200093e+00 -7.284124020683701417e+01 -6.793572561949140720e+00 -6.051741641866776433e+01 6.431792481895604396e+01 -8.971341189202519217e+01 6.515265241849466804e+01 -4.533441415805846475e+01 -4.717879161610796501e+01 -8.696767866604039909e+01 5.031369894430230971e+01 -5.184769717386815557e+01 -1.416554488250475003e+02 -7.535655595527431672e+01 -9.922317223062108837e+01 -1.491486061854648995e+02 1.289308708169271824e+02 -2.600378082905671917e+01 3.040943178029645466e+01 8.506000383833909950e+01 -9.867038839703626252e+01 5.400515399322739540e+01 -4.108659648120078600e+01 -6.589290799817368338e+01 -8.554097377030713290e+01 1.927205262004547421e+02 -5.381851907311241234e+01 -4.699826147551993927e+01 -4.471260623295338377e+01 7.625876027125778478e+01 -3.930563157960219911e+01 1.308520957679730543e+02 -4.740307436093220872e+01 5.233382100127396086e+01 4.310666503104658709e+00 -7.687827690113344659e+01 6.522146538627724510e+01 2.631715328918128876e+02 -8.737421339039705970e+01 4.501856636120278665e+01 -7.239529564983789101e+01 4.293254242255434150e+01 1.244973745180993205e+02 -4.883215789251074312e+01 1.389080663960430506e+01 -2.558683251894253630e+01 -9.676955207703572626e+01 -1.650931335903780095e+01 4.110912691028121735e+00 -7.402736737455160920e+00 -1.416801798270194013e+01 1.121496910759216661e+02 1.237953474164126533e+02 1.770264165794492044e+02 -2.889659725554600413e+02 3.625727829614842079e+01 -1.499316675854985803e+01 -5.917762493923435585e+01 1.712484411944766123e+02 7.225788104706856529e+01 -2.512630132482186252e+00 -1.100754150826641791e+02 -1.031117368579744564e+01 9.506367145835335464e+01 -1.275829846436593584e+02 -1.601247382488874962e+02 1.020010914906099231e+01 4.027658480228755877e+01 -5.799308256756607705e+01 3.994013217999310683e+01 -1.017161378201883366e+02 -1.437277696533411984e+02 2.001653145451840388e+01 4.615246089157329124e+01 4.598869531913543085e+00 -7.925101234038251619e+01 -8.892804817131077755e+01 -8.006563911714640369e+01 -8.322203241541731700e+01 1.206158374179854142e+01 5.400221263669033078e+01 1.107925583159907745e+02 7.550705023702278140e+01 8.514856004922879151e+01 1.022705417064538977e+02 -7.112989719911844588e+01 -7.848554631536018178e+01 6.710672945768436648e+01 6.529944468839886440e+01 5.637569096872333319e+01 -8.923657778717826616e+00 -8.671393221418782105e+01 5.143135835516729060e+01 -1.706600383760369084e+02 6.402538805695775181e+01 -4.239382354892868676e+01 -9.188762367075440807e+01 7.074712129557877915e+01 -1.638686177067218352e+01 -7.350240371896428826e+01 -5.476262178690772942e+01 -8.767777520794268753e+00 2.316219098152872107e+02 7.348702628550985594e+01 5.236534700442307866e+01 -9.914899838988988279e+01 1.416267112043614702e+02 1.040089446823020625e+00 -8.631993151685823307e+01 1.489415519968740398e+02 -1.473211670757892762e+02 1.508711635391950345e+01 -3.106995167429422011e+01 -2.124881737523975573e+02 -1.288612558055387183e+02 -8.429949204710528932e+01 -2.846581654457746779e+01 -1.152038533445309128e+02 5.569949409161667120e+01 6.284117653595887987e+01 -2.670351673219651900e+01 -9.648980774618307521e+01 1.093196680441906778e+02 1.141981305708957706e+02 4.466765749401517382e+01 1.695176787181605604e+01 2.528136837223653970e+02 4.220085610537665843e+01 -1.156401739822926658e+02 -4.362893493837989212e+01 -1.632882331706897503e+02 3.083640541082323594e+01 1.482741684650028446e+02 -1.434182961417708384e+02 1.274703602603771202e+02 -8.802821953747141492e+01 -1.834633041612841353e+01 -8.161273002434247248e-01 5.119755196033386113e+01 -1.118480982128144063e+01 -2.211715605382168093e+01 -1.816241392375495067e+01 -1.227903470317339014e+02 4.490540335257656324e+01 -2.936034373607215286e+01 -1.247837599237812967e+01 -1.038932724852578282e+01 2.188556472855622985e+02 1.688131479994825384e+02 2.253212812407219872e+02 1.276629797069030872e+02 -8.386089424232578438e+01 7.277557581053734737e+01 2.050567862632695437e+01 4.599416817892257114e+01 -3.838991731273158337e+01 2.474172110933106978e+02 -2.260513886534572947e+01 -1.324787310218715675e+02 -1.446540786063111739e+01 -4.442693751388554091e+01 -7.495608237366998594e+01 4.180909557494122453e+01 -1.134733716026252459e+01 1.762663166309514793e+02 8.942877992700194056e+01 3.960178158364355738e+01 9.492055255913207645e+01 9.176818603214287862e+01 -2.227317448727594140e+01 1.353166044415083320e+02 2.574019281171166540e+01 8.687222482653490374e+01 4.624314248475908329e+01 6.704450694893503204e+00 -1.121836567125904764e+02 -1.123378624674720356e+02 -8.729926164304663416e+01 -1.508062817364463015e+01 8.405430137050900896e+01 -2.966729702209556407e+01 9.585715828137250583e+01 4.249731519146406100e+01 -7.050054903098498471e+01 -2.901362578241700163e+01 -5.678772670118431876e+01 1.703666853289442429e+01 -4.485492923094857076e+01 -1.086200201071220590e+02 1.177791239816944966e+02 1.176498013657782167e+02 -7.658458189183785692e+01 5.201196617669089584e+00 -4.395717904730920367e+01 -3.153696845273718807e+01 -1.099444883894368807e+01 -3.030396720190996263e+01 4.316720532829737067e+01 -1.363128376741533714e+02 -5.125726216429854531e+01 -1.471692592833660171e+02 1.687462755923133102e+02 -1.952689424306583632e+01 5.705337887708336808e+01 1.152171415533605980e+01 1.398707188117936084e+02 4.318068298751985878e+01 3.455353049367557361e+01 1.495314786258511219e+02 -4.770157440378838487e+01 -9.456247478089051128e+01 2.638536584296005216e+01 -1.529764753739117396e+02 -5.170882208416142589e+01 9.907827199376110627e+01 -1.233773499587901341e+02 -3.518147683433784323e+01 8.832992370347911049e+01 -9.135115267094187175e+01 -8.652485193860935908e+01 -7.993119966902500551e+01 -6.167222758220117385e+01 2.409928951758635378e+02 1.917186262010853284e+02 9.957163502346097061e+01 -9.883092055049485225e+01 7.235171862846220847e+01 -6.406605463773030351e+01 -3.047455413909214172e+01 1.607514699542677405e+01 -3.124297807989074016e+01 -9.058222525088164900e+01 -2.759761947503704960e+00 1.422868176936280982e+01 1.051521847921487023e+02 -1.241445488074577952e+02 4.059211210348953358e+01 6.160186894738789221e+01 3.330172733354833525e+01 -8.750404292354070890e+01 -1.434287797133094955e+02 1.864145120967639002e+02 -1.717379422635188391e+01 2.430522598473852369e+01 1.511349563554848032e+02 2.571807991390294390e+01 2.674048796686378893e+01 -4.298046438336977104e+01 8.547203465750926910e+01 -1.314562506581563923e+02 -2.968506918146530538e+01 -5.919787319528079017e+00 -5.145271082050828682e+01 6.139362969316439766e+00 2.045285761116466716e+01 -3.449036047549067519e+01 1.316913503637842631e+01 2.059420077649308780e+02 -2.641136952128041671e+01 -2.700569317402009872e+01 -9.793460290573173666e+01 -1.564873874647570107e+00 -7.775855324993176509e+01 6.121873247675115870e+00 1.079669005697680291e+02 -5.009170482538922187e+01 5.812801422164417531e+00 -5.228187913452233460e+01 3.179079602544424787e+00 8.394401268906862867e+01 -1.115365986998100283e+02 -9.325666650888129539e+01 -9.878264274148688173e+01 6.866265702744003363e+01 8.332558414367180433e+01 -8.874575693651792108e+01 6.033031043932734860e+01 2.488776363744566567e+01 3.724157863456139239e+01 -1.706986845251826779e+01 8.795272639099195544e+01 7.668863969762934119e+01 -7.433633481849470570e+01 1.131847104953234684e+01 7.781969837064200135e+01 7.009004184038145979e+01 -1.917883900636031669e+01 2.400961546399569002e+01 -1.276131264707039321e+02 4.672920137489884240e+01 -3.155591024966433977e+01 -3.147745402976636342e+01 1.666605863812643236e+02 4.561728817205359832e+01 1.156564645930011181e+02 1.837942816626531908e+02 -1.324734113724181270e+02 1.434971348283499992e+02 -6.109817066698013122e+01 -1.300618425277832273e+02 7.920612066699831644e+01 -1.289751010446409509e+02 -2.763898978729225320e+01 5.425681637304292337e+01 7.719771673175021220e+00 -1.618771754505695242e+02 8.111972752313643298e+01 2.430118901911849605e+01 6.647400582967158300e+01 3.495758904504031506e+01 9.102800418485564649e+00 -6.457942525987893134e+01 1.113183824521901357e+02 5.244206528636480158e+01 -5.976559925077032887e+01 -9.742447886789094014e+01 3.741602305161816133e+01 2.479383640726082305e+01 7.930737973118027639e+01 1.768998310364227962e+02 -2.367256405908016959e+01 -1.060108785942054226e+02 -8.144379351400492340e+01 -4.937440296368608728e+01 -4.261725018378063368e+01 -1.411615318488875062e+02 -2.169082190381628550e+01 1.246510942596890033e+02 7.169755757947967822e+01 -1.177347709077375839e+02 -1.443095910349240967e+02 -6.548678088635188033e+01 -7.338751843321608703e+01 1.413052011752843669e+02 -1.640228271309286185e+02 8.331624764582059584e+01 -4.431591926748728483e+00 -4.141948547929955282e+01 1.277198435696935164e+01 8.766540882097984877e+01 4.764635884691776369e+01 1.329636658022672293e+02 -1.531129622728577999e+02 -7.789752364778733806e+01 2.443710597611402235e+01 4.033094814373100689e+01 1.982669722630633657e+02 1.399553375429134690e+02 6.307940936957591305e+01 6.936489441026367331e+01 -3.268050022124737808e+01 1.460079503612857366e+02 -1.725914759880514282e+02 -6.103618647710344902e+01 -5.163614066018977411e+01 -4.982214513384506915e+01 -9.930842300960455304e+01 -1.443515173053378042e+01 -6.601103643090530682e+01 6.843829531469665994e+01 -8.782138874204962420e+00 -5.581617746492019450e+01 -5.980697101136859573e+01 1.733179477208905723e+02 5.682244257130324883e+01 -1.323508471473922654e+01 2.009345738781041746e+02 -1.042424650453610155e+02 -3.397127698579403443e+01 6.441504515797684860e+01 -1.369214218573309438e-01 1.442844164497785364e+01 -1.203860187000928335e+02 1.694652681654098103e+02 -4.704824014568308144e+01 -2.584092061886866531e+01 -1.054777679546005231e+02 1.210027426849272274e+02 9.211606396982448075e+01 -7.449922961232445573e+01 -3.620717330250861465e+01 3.746966038556888634e+01 -1.454875015041138226e+02 -2.137878120637171642e-01 -7.179322719715204926e+01 7.371453518877338240e+00 -1.038516837785071374e+02 -1.523245131460086554e+02 -6.792152394139465343e+01 1.423747413399574384e+02 5.429596642591810962e+01 -8.612101307718808130e+01 8.561906794240486818e+01 3.283582381427309826e+01 8.487809925247348986e+01 -4.044941049386076060e+01 -8.070990978271936456e+01 1.642291117131108251e+02 3.995088098240911734e+01 2.778023168019293010e+01 -7.004262771718525471e+01 -4.061447515478759840e+01 9.108300517568800103e+00 -6.893096234966203717e+00 -1.658669139467195919e+02 -3.323047637698939383e+01 6.178590232691634299e+01 1.070261003551756716e+02 1.494144267580099097e+02 -1.275541385906174874e+01 8.595997674245653286e+01 1.512930681021532280e+02 6.079186185762387140e+01 1.415419068261861355e+02 1.540380175105434546e+01 1.258683734327642725e+02 -8.045024850156866592e+01 5.108815724460171026e+01 2.805299957397649280e+01 7.264552693894489721e+01 -1.017168893664886298e+02 1.896634487153849591e+02 -1.231484746186326618e+02 8.455124873840729549e+01 -1.027127928936746173e+02 4.418713865378350647e+01 1.321446843514012137e+01 8.672177524963014150e+01 -7.040525398321851469e+01 -7.218729323235845641e+01 -1.062731006020816871e+01 8.514363239781553716e+01 -2.827960988340267079e+01 -1.556175391719393630e+01 -1.875033395863417240e+01 4.521093591737339601e+00 9.367429730713986658e+01 -5.967266892810024359e+01 -2.574340645750395229e+00 -1.848097755558446522e+02 1.162791410169151618e+02 -1.189145493061324288e+02 -7.032449737470764717e+01 -2.238455046615801791e+01 -1.027908498701927300e+02 -5.059154543249528757e+01 -5.579034272045921483e+01 -1.876217450306202394e+01 1.296658641550576192e+02 5.146280042673952693e+01 9.557250476270294826e+01 -1.295501450445224805e+02 -1.318928502814108299e+02 -2.729478294143342509e+02 9.729414637990279857e+01 9.918325699395451522e+01 4.030912894980124861e+01 -4.045643202562882124e+01 -3.535293377910817725e+01 -1.748546128638008952e+02 1.390283051894778623e+02 -1.022297786646606141e+02 1.018152205528486860e+02 -1.515072840419692852e+02 -1.363788059756533499e+01 -5.271344502959374978e+01 -1.135337396930711833e+02 -4.389389691896020906e+01 -1.196874536990715399e+01 -8.823737444077374903e+01 -9.847484575871564516e+01 -1.177182516589244266e+01 6.775760912408078696e+01 -1.186182478829877880e+02 -1.488693639037413341e+01 -7.020795818523880882e+01 -1.251065446341486904e+02 6.241735057744320692e+00 9.050279204250486487e+01 1.576434950526857790e+02 -1.813786951975109574e+01 -4.384546155175438287e+01 -1.182816656949784289e+02 -1.558911242054047648e+02 9.890197453449950160e+01 -6.928741384406207260e+01 7.523598407628649909e+01 8.950673144606765774e+00 2.781514558113399360e+01 7.035759504605751147e+01 -8.079774851457167983e+01 7.881480007897167184e+01 1.098844361921855608e+02 1.501739290768348098e+02 -1.110385975771406493e+02 9.911308924753382144e+01 -4.557006648873801424e+01 -8.657120142021670972e+01 2.046246968346569304e+02 4.689517808828475154e+01 7.958538997699719175e+01 2.018724176921261915e+01 -6.037881831882151573e+01 -3.330684993306501696e+01 -2.006070200322147343e+02 1.007312003554401514e+02 7.767997432495511134e+01 -7.217235372117370673e+01 -6.968884674654097466e+01 1.384264826205153440e+02 9.636124202443724585e+01 4.874565087959481957e+01 7.251381562855380025e+01 -7.458689647603531370e+00 9.838301222807534430e+01 -9.878826425595747196e+01 1.776470282599277084e+02 -3.764587345191156231e+01 -1.163401444747169080e+02 -3.597651449315759464e+01 6.839922440936963710e+01 1.404657032098554055e+02 1.221680281696334092e+01 1.657322969788398552e+02 4.974452527733260609e+01 3.208169068234932553e+01 -1.061155557006294003e+02 4.267867932515590468e+01 -1.191429519817362035e+02 4.550936735826690693e+01 3.674969976280851114e+01 -1.176552079832844555e+02 -8.108263602907524614e+01 3.801735191859935981e+01 8.318380483457682217e+00 -2.211349836423217852e+01 3.995215916774268550e+01 -2.040872845566635974e+01 -6.014995522638848513e+01 -2.505859523549327506e+01 -2.135586800101891569e+01 -3.795952963688294091e+01 1.788179069001023436e+01 -7.680115498346992808e+01 1.133954149706784307e+02 -7.078808724762276938e+01 -3.970245711771943853e+00 6.261537148482678816e+01 3.681674000088193122e+00 1.523245594388494872e+01 1.523389800915536085e+01 -1.116417080321110404e+02 -4.195387122277542069e+00 6.200721535226972492e+01 -2.206253368867784275e+02 -8.094838166624347764e+01 -1.074156669412898424e+02 4.176018797219938250e+01 9.171486167383157806e+01 -8.749060832476322958e+01 -1.600369156863006026e+02 -1.765598516891198528e+02 1.901220049937704104e+01 -1.381168487025072977e+02 -6.035660127298285715e+00 1.406331923488921518e+02 -6.718097825817433311e+00 3.534319254230903340e+01 -9.407778992922777661e+01 7.596351557187810499e+01 -1.126997793911603054e+02 -1.468386735527974984e+01 -2.875518030610663445e+01 5.472403470013572502e+01 -8.372430904155196529e+00 1.003265518643108010e+02 -1.159051719925356991e+02 -4.753317206731622235e+01 8.227906638039800669e+01 6.274906793018979556e+01 -7.804341171087700957e+01 -5.160532964911799780e+01 -4.682837322836203953e+01 -2.742848370531702358e+02 1.833742997937332007e+02 7.203364091091191312e+01 -2.230338103028697105e+01 -2.809860744953812528e+01 3.931334602624249897e+01 -7.956180604103978737e+01 9.412559461620330126e+01 5.723624109513790614e+01 7.742807322547010074e+01 -7.951281865542406990e+01 -2.501630800974825775e+01 3.147169383286243516e+01 1.642664816088177915e+01 -4.051409242038035785e+01 1.493082015065235737e+02 -1.632103165893918373e+01 3.347444121010268958e+01 -2.171962223689635891e+02 -7.995437337520425558e+01 -6.907190659551649503e+01 2.175527561267240273e+01 1.031086786299488551e+02 -2.189231988289021444e+02 -1.766488873312335386e+02 2.092769261103319423e+02 -9.973942429913764229e+00 9.067681886828989946e+01 5.911290789763713605e+01 -5.224060532647366983e+01 -1.236947282345619499e+02 -8.985416296594202379e+01 -4.743880514497332967e+01 -3.531016912320819046e+01 -3.698083152880949598e+01 1.521323917033250694e+01 3.516798798455220521e+01 1.575882575680821276e+02 1.164079624392596060e+02 6.632256233911705934e+00 -4.175521713773117760e+00 -1.498669466291951267e+02 1.129829412159033240e+02 1.504022839720722402e+02 -9.771836012514560821e+01 6.960556657332153918e+01 1.566712633794365095e+00 5.189973477895233600e+01 1.183576801643134075e+02 6.698889095592718945e+01 -1.265986988455369868e+02 1.520368682540089722e+01 -2.775386586630601116e+01 1.052851934663530642e+01 -2.178339750476086323e+01 4.280751367248809203e+01 -2.462601660547432800e+02 1.711276457667354975e+02 6.837236396053460119e+00 1.506176060176921112e+02 -9.921998709095264601e+00 1.003137589173752957e+02 6.770507515229931528e+01 -3.965821950910794413e+01 2.834201217444402587e+01 -6.889623451155554790e+01 -8.419945296405573743e+01 -6.813507950457675122e+01 -3.033429113640244168e+01 4.272788802519269069e+01 1.042310551964944381e+02 2.692388607538518741e+01 5.888100701186824182e+01 -9.924773830364615890e+01 -1.298347782923245859e+02 -1.276628678673113626e+01 4.390424603173720186e+01 -4.299515502419209412e+01 8.961956380756710416e+01 5.262952119321393241e+01 -2.617405698820505577e+01 2.835978812453217301e+01 5.817680937388434614e+01 -6.829088110869341222e+01 -1.266958381112425940e+02 1.345926593363645907e+02 7.401521594179087948e+00 4.751767165002183191e+01 -1.415620143802001394e+02 -5.064395139072526320e+01 -3.987091021932469559e-01 -6.245767251777898821e+01 4.035182899196639639e+00 5.342425455856365346e+01 1.769338896539032078e+02 3.714312611774090556e+01 -1.039788778143007697e+01 6.862109105619975935e+01 -4.315998801577897837e+01 -1.034805724937838391e+02 -1.312214013619697539e+02 8.886742550642065197e+00 2.385489565701588788e+01 2.266569936743254488e+01 -5.405699335342324474e+01 1.148152353929621654e+02 -7.682019373869623280e+01 1.219910156847786027e+02 8.299163658599343307e+01 -6.184640517371561685e+01 -8.065302992517018765e+01 8.011749039299692754e+01 1.939776141341573279e+01 -4.999433609065302164e+01 -5.122570592980334681e+01 1.301961698111661860e+02 5.459617553885025387e+01 7.611331142470208988e+01 2.489773634268789237e+01 -4.002408287059097347e+01 1.022811271463783243e+02 -5.198643215528225880e+01 5.580296748276758478e-01 7.290880851492850923e+01 9.492002566358584659e+01 2.435836625419401287e+02 -1.670423529748238423e+02 1.534097218705462637e+02 -6.438229317575276411e+01 -1.453182730194618699e+01 -2.399707878971091901e+01 -1.977401391148919529e+01 -5.255418674417880709e+01 8.877613709467671299e+01 1.756336242265938949e+02 -1.133750723126038764e+02 2.953729878218643279e+01 -1.212084764519863853e+02 6.706440366770939931e+01 -4.247882407798017823e+01 -7.748192736978334949e+01 -5.156630084212668663e+01 3.941963545703593752e+01 1.851720178855467580e+01 -7.822616451576021745e+01 -1.349990515132558073e+02 1.987467179761915759e+01 1.509469612977179338e+02 1.368741219303777790e+01 1.748496868307226180e+02 7.141115992267112134e+00 1.290684633346730834e+02 -3.315914313425582804e+01 8.706463937835333411e+01 -6.852746620368333197e+01 -1.083350673026957907e+02 4.744684893860323882e+01 -5.566955589514582670e+01 -7.542085947376634181e+01 6.995051062336301584e+01 6.233392444840032631e+00 -9.056551890836199448e+01 -1.447441165836405617e+02 1.422276595408067976e+02 -8.575168658333841165e+01 -2.294202283654089403e+00 1.155530891277598329e+02 5.580923532423302191e+01 -9.454484173184206952e+01 1.027204676893672186e+01 2.715915797271291581e+02 5.131912571345063157e+01 -1.519231222673678587e+02 -4.599613525898265465e+01 -5.924443212226424293e+01 9.260520616041713282e+00 1.037047761368608150e+02 -9.981561600197140649e+01 2.083743466184533588e+01 1.258455714943836483e+02 1.810809221739105368e+01 -2.038599908456349965e+02 4.657559562927919217e+01 7.285436009413044189e+01 -1.312958184725766664e+01 3.163732873668011436e+01 1.835174943463473429e-01 2.180257218001301922e+01 2.677331016897343829e+01 1.118436804500350661e+02 9.467885632126069595e+01 1.512562285518108673e+01 1.438734444810863522e+02 -6.181283784657519931e+01 2.381616254452146961e+02 6.281284521170399415e+01 1.368848813337616548e+02 -2.120555848284533340e+01 8.700250544383577278e+01 -4.721616736977201612e+01 -1.413784261275028769e+02 2.525480285554710136e+01 9.170714168063102534e+01 -8.456065333846670740e+01 -1.011776675063652959e+02 -6.427663313829594927e+01 3.538501732562501445e+01 -1.102847975469935591e+02 7.214614001865857063e+01 2.707179456087753877e+01 -9.429596662309789679e+01 1.834503473516289205e+02 -1.136025587271400639e+01 -9.833383263614622649e+01 -1.297456035754934867e+01 -1.974343962875652281e+01 -1.354568237157430701e+02 -3.865372564750224171e+01 5.943389941772421992e+01 1.273430602088196508e+02 2.807269694435322904e+01 2.582518547757818794e+01 4.326979719105567312e+01 -3.448747394891397988e+01 -1.407037152642646447e+02 1.537461499450907176e+01 2.988822963902828533e+01 1.286328130198283475e+02 -9.532252400401809211e+00 -7.354377182026063053e+01 7.072186798183902567e+01 9.326638095858866828e-01 3.068804855557307221e+01 1.344889690022913555e+02 -1.714555777810284667e+02 -8.973187768021534794e+01 1.205305238299419699e+02 -2.025559437001583944e+02 -1.726717218618007053e+02 8.548691594483894107e+01 1.445885475592122020e+02 5.956534050896447496e+01 -4.216123582478167542e+00 1.461906511001037074e+02 -2.061453842931586280e+02 1.006099054932731889e+02 3.978669987933101737e+01 1.193091533459069211e+02 -1.770701446194376558e+02 9.995372886853752448e+01 -2.647979253723990922e+01 -1.255193895763947864e+02 -4.995019781214778298e+00 -8.673711236461055307e+01 -1.519162799067646219e+01 -4.109187353530669995e+00 -1.156703690403486036e+02 -1.157858807501260401e+02 -5.873817551522054714e+01 -1.210203611913524782e+02 1.886923896345537628e+02 -1.513155913414045699e+02 -4.712247082211371918e+01 1.620048496181495068e+02 3.186226122390882765e+01 -2.779202712422845707e+02 -1.193903389018931165e+02 3.332215499899446343e+01 5.133234678583301758e+01 7.992421098819050940e+00 -1.451308031805429550e+02 3.350463013750047736e+01 7.064610631790443129e+00 -6.979074034070394816e+01 1.903665472780897971e+02 1.901827300435654422e+02 4.090566222313646527e+00 -1.958227252047068703e+02 1.182763377368566324e+02 2.886079124516381000e+01 3.605187733774695147e+00 7.188502013576650995e+01 -1.948254722741776561e+02 -1.295766365796301898e+02 1.323871668635432854e+02 1.029614946509297511e+02 4.965649764500783192e+01 1.344073755659265146e+02 -1.673731510356936667e+02 -1.922970485917792516e+01 -1.224179804850429605e+02 4.103150134008176053e+01 -9.753299351065523126e+01 8.176449114518065642e+01 -3.186904295193584247e+01 1.163018000946816777e+01 1.666076623770871663e+02 2.682915365602861968e+01 -2.474696690615577097e+02 -1.186854173544216167e+02 -7.824387522717839261e+01 1.484514313658754361e+02 1.177654908014161883e+01 -5.062967337740305140e+01 2.844186670598724831e+01 5.865184290554770996e+01 -3.711456853610694395e+01 1.009410220376866221e+02 -9.459645231702440071e+01 4.620687411067430617e+01 1.050970992690484138e+02 -3.338500620830627241e+01 -9.213188527600802047e+01 -1.065507961149161105e+02 1.124468624863431074e+02 -4.666020652585552853e+01 1.845425212082508040e+02 5.371092290326194529e+01 1.041599311933145628e+02 1.732789446367843595e+02 8.030367310003128978e+00 -1.167338694036438795e+02 -1.555809654129601256e+02 -1.071775077809726042e+02 3.992926899966446541e+01
-1.244946205386095706e+01 -4.458877009098403121e+00 9.494376648932967555e+01 -2.100615272969265561e+02 1.425351465812884157e+02 5.820698357378287113e+01 1.395346210081196148e+02 -1.184627423923520979e+02 -2.527551619406297689e+00 -2.205595623327421606e+01 -2.012950041965130481e+02 2.997845172262709923e+01 -1.679408380244506560e+01 1.121737415262269479e+02 -1.147552702028642955e+02 5.659690544079182928e+01 1.148651401548324316e+02 -4.214969308529209258e+01 -4.543397809849525260e+01 -2.470782913930473512e+01 5.662307548281052760e+01 5.780454695784920460e+01 2.975495182874294642e+01 -2.131828430219669315e+02 -4.724584599509530136e+01 8.398031707493987597e+01 9.095999841231193983e+00 -9.532370785900841526e+00 -6.098626513738341259e+01 -1.423489460920967176e+01 6.724358557866671049e+01 -1.333149984875128951e+02 -5.683165682790060913e+01 8.211211006514018251e+00 1.903635079680244075e+02 1.944419309658843815e+02 -2.950792107376511808e+01 5.123646905176363475e+01 -2.296359911115441188e-01 -1.280174870056302439e+02 8.797663724116361550e+01 9.828543880266786914e+01 9.947671743044249126e+01 1.069422839929842972e+01 5.671979583291234661e+01 4.410836161799755928e+01 3.563577371711740227e+01 2.693913969854045831e+01 1.010926340801144789e+02 8.222719385681951110e+01 6.010118346001899425e+01 1.494378544868940537e+02 2.272538350347899154e+02 1.793155282169086320e+02 -5.422242693066905872e+01 4.516717234204897125e+01 -5.889661788715839918e+01 5.167479020945418711e+01 -1.762277984156793309e+02 5.179338106504138040e+01 -1.876800910339514985e+02 -1.546789090759932606e+02 1.188036258013352686e+01 -8.508849397158858352e+00 1.553942055945917673e+02 -1.906977845010391377e+02 6.900097302168546776e+01 2.107511046893071693e+02 -6.809506056394438289e+00 -1.786510076383894159e+02 3.254548266908974341e+01 1.807644670448021600e+02 -5.603744975955902419e+01 -2.444619399049922492e+02 -9.404698998927426601e+01 8.206219357078937904e+00 -2.109894421234222932e+02 2.946397880582694029e+01 -1.645764471630780577e+02 -1.701678211289823253e+02 -5.248466061462354304e+01 1.397960621852906797e+02 6.368123513503113742e+01 9.748933718835264273e+00 -8.138645865507832866e+01 -3.908395314310522650e+01 5.847230523148530068e+01 -2.130829780398776450e+02 4.964840204713657812e+01 -6.874520025646387467e+01 -7.175228005645480778e+01 -1.622976532667903200e+02 5.967017968002913619e+01 8.507323965440367886e+01 -1.490068353562051584e+02 1.586701054476845059e+02 -3.660102515641661824e+01 -1.553982560462340068e+01 8.052841075745763533e+01 1.435972865346774938e+02 2.000276617937771206e+01 1.391172724746458869e+02 -1.702145951442857807e+01 -8.331416802215390760e+01 -1.800232759370877744e+01 9.282560927731123002e+01 4.248540632706799158e+01 9.242078337270208976e+01 8.915361231411432641e+01 -7.852607780751097266e+01 -1.605282646713069141e+02 1.162481495898235693e+02 5.123908964284228773e+01 1.537742205721331779e+01 2.888029152229802676e+01 -6.417918538528455485e+01 9.073004434323000567e+01 8.493160530597920399e+01 -1.300110307919075581e+01 -6.734870089146701844e+01 2.897957656863253106e+01 5.946549918824213243e+00 -5.808277617750285060e+01 1.603070095603050333e+02 -3.093306239574927829e+01 1.149434610315919798e+02 -6.624845632816590069e+01 3.629320197187704622e+01 -3.407650780421155901e+01 8.462338378008266204e+01 2.218490133446825752e+01 1.093015570787410411e+02 -1.097471058932833330e+02 7.031476521849685923e+01 1.167581990859336543e+02 -4.225629827383392012e+01 7.268747684420246102e+00 -1.214225533312825966e+01 1.105373781510053703e+02 3.507514954523034412e+00 1.595035177977840419e+02 -1.338127483604492340e+02 1.103629924116548153e+02 -8.634541247062213642e+01 9.070431777790204819e+01 -1.297370058232736199e+02 2.792693578422515799e+01 2.344488945097783983e+01 1.665993205210446471e+00 3.438457099769548364e+01 4.360686108885764867e+01 -1.169888733716874007e+01 1.036543751036095706e+01 1.023791647875885502e+02 1.205042356136663670e+02 -8.215816466582053579e+01 -5.128975787105829198e+01 4.481260728407303873e+01 1.423473837425188515e+00 -1.298145640688083802e+02 -5.227859919256066945e+01 -3.353001758311511793e+01 4.632210433027866969e+01 -6.207895651333299014e+01 2.170584673104888651e+01 1.520550419676991964e+02 -7.532109996848650724e+01 7.668755652839782044e+01 7.971157182641218242e+01 1.072429760606564386e+01 1.171266565084066258e+02 5.966890766132135582e+01 1.594815905070566657e+02 -3.289355105359428677e+01 1.067341229059255312e+02 5.277130681630761444e+01 -1.524525730896580455e+01 1.939171364015907386e+02 -1.318457250379195784e+02 4.647522444432496513e+01 -1.783109646615904751e+02 -8.001576325259051714e+01 3.904386732692517370e+01 -6.869119817483480972e+01 -1.481900673383972844e+02 1.896604989790774596e+02 -8.162331496689374433e+01 -4.520291817732448436e+01 -4.404048719228981668e+01 1.158887097018177315e+02 1.853954226903605900e+02 6.163352465183063345e+01 1.392291369750661829e+02 2.089700900456429622e+02 -1.505371149544864506e+00 1.550603448440243994e+02 6.748991209739412511e+01 1.812925858729187780e+02 -1.198129137068152517e+02 -1.124889536524982070e+01 6.065544741634728787e+00 1.808481717224838690e+02 -8.648621367895303536e+01 -5.766583078344063296e+01 -5.039381652749293039e+01 -1.276639373202127246e+02 4.454343724894379797e+00 -9.609832204999827354e+01 1.468528812535183192e+02 2.240561895077856391e+01 1.140450489628118547e+01 6.884969657827718947e+01 -4.662182645486405264e+00 1.114486385898677270e+02 -1.513167276911597980e+02 4.327401005137692636e+01 -1.626037963885592603e+02 1.118199881546245535e+02 9.155967103631152781e+01 -6.405332265262512692e+01 4.459047405432040279e+01 2.267829706194358153e+02 -2.903337728959241915e+01 3.965679434539448067e+01 -3.112625128744467062e+01 5.518479256080517814e+01 6.117847905454059543e+01 -5.993985701687321033e+00 9.700553772930290108e+01 9.656741543183166243e+01 -1.845901246108062139e+02 -1.458988747754296753e+02 -1.141265721157781599e+02 -8.959702925600602441e+00 -1.425685822854880769e+02 1.100161997960219082e+02 1.050204220776695507e+02 5.619588494070878681e+01 1.063219009903029999e+01 1.500948987845916918e+02 7.992515565491186180e+01 6.427927272314123286e+01 -9.668437681005396200e+01 1.451450117820112951e+02 -3.448408712636704010e+00 1.041154706525275770e+02 8.401169048391423644e+00 3.496983431824141775e+01 -7.201352662329873056e+01 -8.633916536950215459e+01 6.812815956143367657e+01 -3.697136378562609682e+00 1.390669355907101590e+02 -1.193505936594212002e+01 -2.697244467326734174e+00 4.362397452361813066e+01 2.151113852666377113e+01 1.345098301980598876e+02 1.400889728364877129e+01 3.410780610357716824e+01 -1.470712760694946724e+02 6.255961294999330136e+01 1.270389608203342959e+02 -1.667448674172944934e+01 -2.166689727147258395e+02 8.018480438703025470e+01 1.292925340929225229e+02 1.937090116284488062e+01 1.793304745402828360e+02 -4.105702502537459608e+00 4.062205626645452128e+01 -4.135705775505843462e+01 -1.312559089146635642e+02 5.306529312320991210e+01 -4.495046009298438605e+01 -7.660257819638526655e+01 3.900814867390179330e+01 -1.747345237146387262e+02 6.771009719468169408e+01 1.555055213166056376e+02 -9.566960434081688902e+01 1.635311125863349844e+02 -9.218579324107402329e+01 -5.620673682521112546e+00 -9.976934554702859614e+00 7.241160893621086814e+01 -4.404999292592755467e+01 -1.017259481961818324e+02 -8.365157893196247585e+01 1.375936149565215203e+02 5.577771447794578563e+01 -1.244050253651855229e+02 4.154282314774937035e+00 4.092018629020529374e+01 7.782852911430532572e+01 -3.801439898405380546e+01 5.648377883300713620e+01 -6.500487035252966450e+01 -1.529303756864542265e+02 -3.261965509270208230e+01 1.327921180171082369e+02 -1.068626449071453095e+02 -5.996793387633423400e+00 -1.533533018639826366e+02 -4.600330412609140218e+00 -1.373825073580367757e+02 3.104696871726690688e+01 5.674556119596336856e+01 -4.737342601214299265e+01 -7.751640929941578406e+01 5.316632883055422809e+00 7.002757835900281691e+01 -6.377128753619616930e+01 1.266941081577205352e+02 9.934257304284010104e+01 -1.200598222584692252e+02 -9.919532002397805570e+01 1.270187676630985578e+02 6.702192035665144942e+01 1.412130592608442612e+02 9.389900540791441585e+01 7.622542971898735686e+01 -5.664405367803403379e+01 -7.677048223297549612e+01 -7.235299636477550678e+01 1.920230358532910770e+02 2.877127486604868523e+01 -2.340250057124905680e+01 -6.425352395121691984e+01 -4.680563536504217836e+01 -1.231439113053802430e+02 -1.542440443709340592e+01 -1.640676443795143484e+02 1.168856017443187483e+02 4.296125000030358621e+01 -1.076924082573946606e+02 -4.526374011987114443e+01 1.119236894436676835e+02 -9.056190535041926637e+01 9.613874904031492008e+01 -1.107645436064208155e+02 -1.101738361171936731e+01 -8.927206137452702706e+01 8.390564708958652318e+01 -3.969164576924066523e+01 9.555704299741826446e+00 2.744935156138127752e+01 -1.183397203752654150e+02 1.167685404287726669e+01 4.522775982069673262e+01 -2.084890706787792425e+01 -6.423225324870735164e+01 1.893444755737730247e+02 8.079172522130328105e+01 4.398649959023890688e+01 -2.933892689654351926e+01 7.491018351079770810e+01 1.565913231066876108e+02 -8.612904285078391808e+01 1.957116159129889468e+02 -1.243496971875247255e+02 -1.717778107531875662e+02 1.417440307079789079e+02 -2.185710793588974070e+02 -8.569929552533462891e-01 -2.288000247922855408e+02 -1.427811979531498139e+02 6.705502912877106780e+01 -1.359759318501715484e+02 5.450985472068988003e+01 1.027512434871139533e+02 -1.497273453752227397e+02 -2.807985834555366722e+01 7.045718448968644054e+01 1.250698247947567694e+02 -1.738796094574200595e+02 8.175395700211895189e+01 -9.152188027240269719e+01 -9.183400424891448921e+00 -1.291687387467920800e+01 -7.430451393340356958e+01 -8.431568835909901338e+01 1.694185344033248839e+02 -2.030465074425868366e+01 1.274710178829303819e+00 1.216893958452572377e+02 -8.107958393675492914e+01 -3.217596411146434576e+01 -1.006780629059997096e+02 -4.562701285784641669e+01 4.791164495563586811e+00 5.548093511572191261e+01 -1.263727164710387996e+02 2.220165756142993700e+02 -5.044215178296346380e+01 1.148215630966940353e+02 -4.574111930515962854e+01 1.122143204863545662e+02 1.304886602011493721e+02 4.490784416263510792e+01 1.144268421616130098e+02 -4.053619773760197376e+01 1.312719279744117671e+02 -1.468261324610219276e+02 -6.135486980196051832e+01 -5.907840832437890555e+01 2.402781418396434177e+01 -1.522733270803747700e+02 6.805940608256165092e+01 -2.894712671671464932e+01 -7.755334322132671332e+01 8.404979208283174330e+01 -1.418193416498237127e+02 -8.563755211811404422e+01 -4.945174624856431222e+01 3.103265958619575215e+01 1.218178405200367393e+02 1.096224362962150138e+02 6.481995363500659835e+01 -1.431741915505616580e+00 1.642042791462976652e+02 1.150017684597506786e+02 -8.871681228030909949e+01 -7.327976142602861387e+01 5.159399620905518447e+01 9.306436317072924069e+00 9.195927207030106842e+01 1.565551562981036682e+02 6.627297235314370027e+01 2.298319864758125775e+01 -9.596346380964016021e+01 1.611848475836448245e+02 -1.066590233925602718e+02 -1.550837359131363087e+02 6.168656661126197349e+01 1.046394486661540526e+02 1.845479702733604555e+01 -1.302681241443389979e+02 2.785193944861843462e+01 3.976217520900171110e+01 -3.730788599349176837e-01 1.228176268444240407e+02 9.180502745450137070e+01 1.605269306893541525e+01 7.345925457583675211e+01 -1.002162146700614755e+02 -6.008295287620928349e+00 9.221309933097271028e+01 2.784407744095602766e+01 -6.094948194112822648e+01 1.856712672711721268e+02 2.166217364906336798e+02 -1.175404958735295935e+02 -2.591351982967228906e+01 -1.968844166463317436e+02 -6.762557459966184581e+01 1.466277238100800844e+02 3.122226880854986675e+00 -6.649799912944455116e+01 1.533560428128157298e+02 -5.849691787383161312e+01 -1.504258968161254302e+02 1.278890764036142826e+02 -6.288274501287330054e+01 3.236336805685356666e+01 8.080508752346651136e+01 1.292394710874826202e+01 -2.230606314352117465e+02 3.964715581988834003e+01 -5.810906164656486794e+00 8.438543345534183970e+01 -2.206357743967282659e+01 9.458649679266872567e+01 1.593381271909875352e+01 -7.920967704874864523e+01 -1.918276697064908376e+01 -1.640379657503877695e+02 1.076002740744336137e+02 2.367446459495893052e+01 -3.893622129198327997e+01 -4.846623063695615485e+01 -5.892227588473621580e+01 3.851374699524737366e+01 1.504026457996737918e+02 1.241769373069476643e+02 4.026036616585740546e+01 -1.851806731363309382e+02 -3.630899941372130257e+01 4.102258509062468050e+01 1.097741943664586159e+02 8.155904106061740322e+01 1.443056608947393293e+01 -1.740568931613466930e+02 1.231765296525503146e+02 -2.093624090208834900e+02 -1.925915507766268320e+02 -1.693890258204572730e+00 -6.902189573912097842e+01 -2.260821457146719027e+01 8.151010038543508074e+01 5.232206566212303755e+01 -1.040213023965749954e+02 -1.417572191339367293e+02 1.363181924059772854e+01 1.157363218295156173e+02 1.931080281541314392e+01 -5.306366321444754419e+01 -4.836903062779524731e+01 -1.090068694582227593e+01 1.510048563857259580e+02 2.091626439519021474e+01 -1.655430601853509813e+02 1.223253523083535015e+02 -6.370722565567272966e+01 -3.973977335165770786e+00 1.467107552712790266e+02 -4.978186488788187347e+01 -1.867839420594359368e+01 -1.046581188293592248e+02 -5.708453652503524545e+00 -2.270809977532097790e+01 1.254155842756497918e+02 1.143590249654192803e+02 6.438426196274265578e+01 6.238399521908002043e+01 -1.781630585087090068e+01 1.287256044049132981e+02 -1.074551385323839554e+02 -4.044729326329425945e+00 -8.674119059390766040e+01 1.496034768694048864e+02 6.946614741073362609e+01 4.919532967439027971e+01 7.837661930723912818e+00 -5.080279065748636924e+01 3.274905920548540905e+01 6.383532927814787428e+00 3.529257242122261662e+00 2.294069083707590551e+01 5.693735999139296666e+01 1.621842637582711575e+02 -3.704786642787844642e+01 -4.949111415848199158e+01 6.362912437953296063e+01 1.101630365155049276e+02 -1.221307702765930969e+01 8.761474982144902413e+01 9.920794831313824602e+01 2.008159148093762383e+02 -8.241889653874821420e+01 -1.168196934059561301e+02 -2.729226038983088287e+01 5.923255335798356214e+01 -9.667398591867966573e+00 1.022925369005218386e+02 3.548859561837211629e+01 -1.548625295382838658e+02 4.289699173110358998e+01 -8.518251913090020366e+01 -1.288145788825966918e+02 1.280659912015684654e+02 -7.242895800071593726e+01 5.637135335536346759e+01 1.057827056279246420e+02 -9.418868240801498359e+01 2.239381403058985853e+01 -6.864736055123411518e+01 3.836095990062818117e+01 -1.091381903487993412e+02 5.863919563684843439e+01 5.204551263871201883e+01 3.643042533930167082e+00 7.990355871676844401e+01 -1.453776436215551939e+02 7.262387040346395395e+01 -2.792931528306805333e+01 -1.595297698654887029e+02 8.927445715812373805e+01 2.320660018935613778e+01 -1.851479079982926237e+02 2.222069497390343997e+02 -5.146562747848080210e-01 9.928960469631680041e+01 -1.138653421782385493e+02 -1.833642424817144558e+02 -8.811819852824596921e+01 2.381375516305519469e+00 1.348779017478867672e+02 3.710505914827452845e+00 -9.025663356452382402e+01 4.750418807741002070e+01 1.293977448042000731e+02 6.132353113395478061e+01 -4.881694694609952023e+01 -5.585517196725889733e+01 7.978711427166126668e+01 2.897859231287226933e+01 -1.847108174521601427e+02 -1.957156338225408021e+01 1.595854188451617404e+02 9.325389483779667898e+01 -5.415695363345024305e+01 -1.055673506848496999e+02 -4.028255582043465921e+01 -4.540069942327796326e+01 -1.080610378390584714e+02 -1.737395858589198028e+01 -4.310727548156667410e+01 -1.072859359920774125e+02 -1.246022580993173108e+02 -2.547831420771796829e+01 -1.186842981157572439e+02 -1.264174828046917440e+02 -3.619431200721740538e+01 -5.222189692097103375e+01 -1.048643529688725664e+02 1.820744760099685209e+02 1.028406487054527219e+01 -2.750513947447186780e+01 -1.661707976423579680e+01 7.694648213476395426e+01 1.531453739226856570e+01 2.449767948024339148e+01 -2.074034847133525261e+01 -4.531297517437615596e+01 2.044388894719572747e+01 -1.422111944975531515e+02 -1.556817556593505003e+02 -8.835803763745791173e+01 -1.866591686284969285e+02 -8.762988832069574130e+01 8.384948164199465737e+01 6.004855562424226889e+01 -2.546740449941922080e+01 5.943039010406646838e+01 -1.531694721590218933e+02 -4.002956803599489177e+01 -1.136106842917394175e+02 -6.527656118893885662e+01 2.064049029769359720e+02 -2.007796975144859459e+02 2.007523941259826472e+02 2.439154387373950428e+01 -5.518491197145348082e+01 9.014501734226864471e+01 1.213511671374257048e+02 -5.074329475504688247e+01 -1.993219935965854006e+02 -1.458183466667412347e+02 1.000503937011593507e+02 8.191585493451439959e+01 -1.325738659680520186e+02 3.121484525067431903e+01 -3.883609367889020803e+01 -7.570456987730237586e+01 -2.780617410627901620e+01 -5.359885177762240005e+01 -8.450750550708995945e+01 -3.333348905394071693e+01 4.457009338780216545e+00 -3.191071781014877828e+01 -3.431343789085265494e-01 -1.397368363045784179e+01 8.989225326212108769e+01 1.243514402110800319e+02 1.286329250937196278e+01 1.644425954840010462e+01 -6.178540656124067709e+01 -1.917977744510800449e+02 3.310143567107696327e+01 -8.968949233598559090e+01 2.528480285942720940e+01 -7.907299118272237415e+00 1.063710167279982688e+00 7.085267632297713192e+01 1.192308347590021924e+02 -6.896061231960497651e+01 3.716673341176494461e+01 -1.887227393432435463e+02 9.487143755087551256e+00 6.739114318658657510e+00 -1.198907995102820649e+02 -3.296021216557338107e+01 -4.335885617386849589e+01 4.653076432974066812e+00 -9.999596194318186804e+01 2.645399437802515763e+01 -9.549654619519490950e+01 5.478624248727079760e+01 6.640410149777771665e+01 3.610297347542718427e+01 -2.837710271276282370e+01 1.051422297394631755e+02 5.977728616000383255e+01 7.825751747760676835e+01 -6.554912841041657146e+01 1.977940277617398834e+01 1.250495737880832365e+02 -5.721816598904404572e+01 -6.769185347939880693e+00 3.127223075967954458e+01 -1.255935041209369132e+02 9.561872822026288077e+01 8.757928107747163438e+01 -9.894498490839167459e+01 -8.049959901463074630e+01 -5.430244000440493579e+01 -4.465245735720560560e+01 -1.565789657407828486e+02 -1.328120538669569441e+02 -1.294974495261517973e+02 1.032633640897568341e+02 5.846582558620434611e+01 1.559030730390375936e+02 7.049029243755319918e+00 -8.368428425449697272e+01 1.834153831326946360e+01 1.350380338584279016e+01 -6.211976258128159856e+01 7.232566849439125178e+01 1.152936855551853910e+02 9.705955463808308536e+00 1.399463321483711127e+02 2.194505449773006944e+01 1.083052272366250861e+02 1.469477263469972250e+01 -2.028311614344408156e+02 2.131527695612241473e+02 -4.776062989588350405e+01 -1.454452682635044596e+02 -6.556501123043845780e+01 -4.178076814041227749e+01 4.025407132390006382e+01 2.487167822850738830e+01 4.445887037427097255e+01 -7.189716736549621601e+01 1.187798833471321842e+02 -8.370341257061818396e+01 -6.804825569959478848e+00 1.380799892400033571e+02 1.062104678398306845e+02 5.626103316736208626e+01 -1.715067343827463446e+02 2.463043889906388628e+01 1.359041043822376196e+02 2.266644860080644364e+01 9.441170623850015886e+01 1.029055654525890304e+02 -2.044739628282599995e+02 7.433398317993348314e+01 -5.579069514037236388e+01 -2.172378191572099979e+02 8.541995173652821904e+01 2.368196339655974825e+01 -1.171509245450850614e+02 -5.613711883119679413e+01 1.328421519633109256e+02 1.411088666058963668e+02 -7.247454665110831229e+01 -1.219284143688464326e+02 -7.949611467176842439e+01 -1.578710803968251071e+02 1.862328103022107584e+01 3.608381585768665900e+01 -1.616817424824065341e+01 -1.175377242944169076e+01 -8.488098848279179265e+01 -8.359525420129138240e+01 -2.334316782843895766e+01 1.263256268891183112e+02 1.282945948357364045e+02 7.634769022405858152e+01 9.135452013067123289e+01 -7.375300687356958917e+01 -1.695948337308617226e+02 -1.235781960245109978e+01 -2.164167067979089509e+01 -6.657325909372605111e+01 1.383294887010372953e+00 6.841395869427215359e+01 -4.955049972046284523e+01 2.317161300141566826e+01 7.417426394944817503e+01 6.566680798289314680e+01 1.035551161986084452e+02 -1.396905001108465001e+02 3.711612681408829673e+01 7.802875206277205677e+01 8.874646666948953566e+01 5.528868271353431396e+01 -9.668281383871487833e+01 1.282283621023834428e+02 1.194096379005813873e+02 8.977868561343363751e+01 9.509913157714544241e+01 -7.885851918980191044e+01 -1.390917486598735842e+01 -1.214002672836700292e+01 7.213821057243892199e+01 6.085530615394576870e+01 5.248947117879595226e+01 9.135958255303997078e+01 1.091333336374436414e+02 1.161291623676134037e+02 -6.068898124784004011e+01 7.550748682757736674e+01 6.108246481726391153e+01 -1.102033052190478060e+02 1.232654267485800546e+02 -9.380826642906704649e+00 -2.616912205399065883e+01 1.867661555166841367e+02 8.296209782798813137e+01 1.163598057174366147e+02 -1.353462140050783944e+02 -1.479769765103398811e+02 -1.440906234141506843e+02 -1.145641729287325177e+02 -4.154545577334915407e+01 1.029691002199063092e+02 -1.583220182357318606e+02 3.049920666480751308e+01 1.355268009854946456e+02 -5.575140656354601987e+01 -8.579052102657925616e+01 -3.302138052614481012e+01 1.276404848706142587e+02 2.136004524166613407e+02 -6.273057900174838153e+01 1.864407379215675675e+01 -2.601547826270260799e+01 6.442530395041880809e+01 5.664670593931006692e+01 -2.006135914945097625e+02 -8.343939860435952482e+01 1.294960484304912711e+02 1.315699878039164616e+02 8.898522525480989032e+01 -4.694013489120146687e+01 -7.134526478943887184e+01 -4.271072401665501417e+01 -1.663179296276057642e+02 6.698036020539004198e+01 -2.414576504474017327e+01 1.567169950495901958e+02 -2.633501808824921397e+01 -2.964586100971804967e+02 1.364938143743831063e+02 4.728613384030337130e+01 -1.111372562304437679e+02 -2.092487164833373825e+01 3.326236490047210026e+01 -1.957715456076350620e+02 -1.076923417275615691e+02 -1.033882025708088293e+02 -5.313820126166374536e+01 5.917596053908321352e+01 -1.554456161418356999e+02 1.017054993253531450e+02 -5.122490179075496286e+01 2.770040977674890659e+00 -1.258148213220185454e+02 -9.780596761781029613e+01 1.658354379780981276e+02 8.174387053895124211e+01 -3.983310420835709920e+01 3.502194194289621265e+01 -2.644852568208913368e+01 4.089279629016568407e+01 -9.870901533348619239e+01 9.337896986421802126e+01 4.763075675511847606e+01 -1.121840821605516396e+02 1.101657251146939700e+02 -4.632642821954849666e+01 9.427281725400398216e+01 -4.661080515240648481e+01 8.338963885882908755e+01 -1.447709586198265015e+02 1.347381499658522443e+02 2.336719402872317630e+01 9.504482028167780072e+01 1.231443637311649724e+02 -1.384781861423238922e+02 -8.111917840086805143e+01 -9.975570641483730583e+01 6.313703795265186614e+01 -1.618297121639365628e+02 1.431670598289234704e+02 1.344284326416064914e+02 5.002863222639268059e+01 -8.019538266297236362e+01 5.391462544467225371e+01 -1.014240672807979138e+02 -1.030571237783471261e+01 3.302498509734427046e+01 -1.735975761962478998e+02 -7.704970492845700392e+01 -1.278772034444806671e+01 9.654399846442298383e+01 -4.746401753132947476e+01 1.028039136084506282e+02 -6.078010082992432217e+01 -1.992187839445593909e+02 -1.012270968801813638e+02 -3.214195041021186938e+01 -5.688225238277939155e+01 2.843349605571157213e+01 4.865053920723402570e+01 5.981163194318454224e+00 2.405842681840450581e+01 -1.110377612969945886e+02 5.100124351503455955e+01 3.088203350432795702e+01 -6.824542998962948559e+01 8.798436242854133837e+00 5.339592517791415816e+01 -9.028364650687483106e+01 -5.216608859933812425e+01 -2.290232213893467872e+01 9.235450831805441396e+01 -1.622183012969021831e+01 3.974435124636717998e+00 -2.160643989088501655e+02 -8.997180406889515325e+01 9.371588929084563802e+01 -8.441108595822048244e+01 2.967612999098092885e+01 2.941157511553009130e+01 3.588008777533678995e+01 6.259237794565013502e+01 -1.681065431828763792e+02 1.364177943985855563e+02 7.730451831009482078e+01 -7.158305265711752519e+00 -7.655704630407468869e+01 1.059612170319204694e+02 5.884336937720436111e+01 -1.906063848922159991e+02 -4.772521863904955808e+01 -7.744941049830768520e+01 -4.906897617191446415e+01 -5.864485148403299064e+01 -9.379621883693950224e+01 -5.719268903490326039e+01 1.815428198913094491e+02 -1.617960298767719962e+02 6.203501517737646509e+01 2.630045988453958472e+01 -7.127604428671456560e+01 9.865065623435649300e+00 -3.739416905697158455e+01 3.266916575041955983e+00 -9.115481598727816959e+01 -1.873019988212788860e+02 1.743940369762910692e+01 3.970232495560733810e+01 -1.212682001635710449e+01 -8.460142560811240386e+00 -3.770866452948737901e+01 -1.800124295195412856e+02 -2.902858601439798036e+01 -6.195341623341943915e+01 1.319331474343634802e+01 -1.481056823233859454e+01 8.592079751126109954e+01 -5.977210804981417880e+01 -9.829966844816374305e+01 -3.381661590045711563e+01 -8.491341635663493648e+00 4.304531447708792768e+01 -2.095740549790975038e+01 -7.004899137797204389e+01 -1.506613348655037754e+01 1.899157373380115033e+01 4.504556249426478587e+01 -1.080770577989578953e+02 -1.318347133385397001e+02 2.184750873907163111e+02 -2.070478045355158372e+02 -7.199542422502167938e+01 -4.391741953971239099e+01 1.326373231859678583e+02 6.001416885081567187e+01 2.171969940754930519e+02 2.321902924783611297e+02 -5.917512979091126368e+01 1.227740923932906441e+02 -5.320365719939852056e+01 -3.873405595787671984e+01 -9.543013732438492980e+01 -7.573644412284075145e+01 -6.595244500311621039e+01 -8.447470107152419416e+01 -2.312849698330230979e+02 -2.569248936779921451e+02 1.277563528080677600e+02 -2.518996319263805006e+01 5.054313297768899105e+01 1.242346336407292000e+02
