# 
#                 ----------------------------------------------------
#                 Data from a 3D direct N-body simulation. 
# 
#                 rows are i-particle; 
#                 coumns are :mass, tag, x ,y, z, vx, vy, vz, ax, ay, az
# 
#                 NTHU, Computational Physics Lab
# 
#                 ----------------------------------------------------
#                 Time = 7.399999999999887
1.000000000000000000e+00 2.000000000000000000e+00 3.000000000000000000e+00 4.000000000000000000e+00 5.000000000000000000e+00 6.000000000000000000e+00 7.000000000000000000e+00 8.000000000000000000e+00 9.000000000000000000e+00 1.000000000000000000e+01 1.100000000000000000e+01 1.200000000000000000e+01 1.300000000000000000e+01 1.400000000000000000e+01 1.500000000000000000e+01 1.600000000000000000e+01 1.700000000000000000e+01 1.800000000000000000e+01 1.900000000000000000e+01 2.000000000000000000e+01 2.100000000000000000e+01 2.200000000000000000e+01 2.300000000000000000e+01 2.400000000000000000e+01 2.500000000000000000e+01 2.600000000000000000e+01 2.700000000000000000e+01 2.800000000000000000e+01 2.900000000000000000e+01 3.000000000000000000e+01 3.100000000000000000e+01 3.200000000000000000e+01 3.300000000000000000e+01 3.400000000000000000e+01 3.500000000000000000e+01 3.600000000000000000e+01 3.700000000000000000e+01 3.800000000000000000e+01 3.900000000000000000e+01 4.000000000000000000e+01 4.100000000000000000e+01 4.200000000000000000e+01 4.300000000000000000e+01 4.400000000000000000e+01 4.500000000000000000e+01 4.600000000000000000e+01 4.700000000000000000e+01 4.800000000000000000e+01 4.900000000000000000e+01 5.000000000000000000e+01 5.100000000000000000e+01 5.200000000000000000e+01 5.300000000000000000e+01 5.400000000000000000e+01 5.500000000000000000e+01 5.600000000000000000e+01 5.700000000000000000e+01 5.800000000000000000e+01 5.900000000000000000e+01 6.000000000000000000e+01 6.100000000000000000e+01 6.200000000000000000e+01 6.300000000000000000e+01 6.400000000000000000e+01 6.500000000000000000e+01 6.600000000000000000e+01 6.700000000000000000e+01 6.800000000000000000e+01 6.900000000000000000e+01 7.000000000000000000e+01 7.100000000000000000e+01 7.200000000000000000e+01 7.300000000000000000e+01 7.400000000000000000e+01 7.500000000000000000e+01 7.600000000000000000e+01 7.700000000000000000e+01 7.800000000000000000e+01 7.900000000000000000e+01 8.000000000000000000e+01 8.100000000000000000e+01 8.200000000000000000e+01 8.300000000000000000e+01 8.400000000000000000e+01 8.500000000000000000e+01 8.600000000000000000e+01 8.700000000000000000e+01 8.800000000000000000e+01 8.900000000000000000e+01 9.000000000000000000e+01 9.100000000000000000e+01 9.200000000000000000e+01 9.300000000000000000e+01 9.400000000000000000e+01 9.500000000000000000e+01 9.600000000000000000e+01 9.700000000000000000e+01 9.800000000000000000e+01 9.900000000000000000e+01 1.000000000000000000e+02 1.010000000000000000e+02 1.020000000000000000e+02 1.030000000000000000e+02 1.040000000000000000e+02 1.050000000000000000e+02 1.060000000000000000e+02 1.070000000000000000e+02 1.080000000000000000e+02 1.090000000000000000e+02 1.100000000000000000e+02 1.110000000000000000e+02 1.120000000000000000e+02 1.130000000000000000e+02 1.140000000000000000e+02 1.150000000000000000e+02 1.160000000000000000e+02 1.170000000000000000e+02 1.180000000000000000e+02 1.190000000000000000e+02 1.200000000000000000e+02 1.210000000000000000e+02 1.220000000000000000e+02 1.230000000000000000e+02 1.240000000000000000e+02 1.250000000000000000e+02 1.260000000000000000e+02 1.270000000000000000e+02 1.280000000000000000e+02 1.290000000000000000e+02 1.300000000000000000e+02 1.310000000000000000e+02 1.320000000000000000e+02 1.330000000000000000e+02 1.340000000000000000e+02 1.350000000000000000e+02 1.360000000000000000e+02 1.370000000000000000e+02 1.380000000000000000e+02 1.390000000000000000e+02 1.400000000000000000e+02 1.410000000000000000e+02 1.420000000000000000e+02 1.430000000000000000e+02 1.440000000000000000e+02 1.450000000000000000e+02 1.460000000000000000e+02 1.470000000000000000e+02 1.480000000000000000e+02 1.490000000000000000e+02 1.500000000000000000e+02 1.510000000000000000e+02 1.520000000000000000e+02 1.530000000000000000e+02 1.540000000000000000e+02 1.550000000000000000e+02 1.560000000000000000e+02 1.570000000000000000e+02 1.580000000000000000e+02 1.590000000000000000e+02 1.600000000000000000e+02 1.610000000000000000e+02 1.620000000000000000e+02 1.630000000000000000e+02 1.640000000000000000e+02 1.650000000000000000e+02 1.660000000000000000e+02 1.670000000000000000e+02 1.680000000000000000e+02 1.690000000000000000e+02 1.700000000000000000e+02 1.710000000000000000e+02 1.720000000000000000e+02 1.730000000000000000e+02 1.740000000000000000e+02 1.750000000000000000e+02 1.760000000000000000e+02 1.770000000000000000e+02 1.780000000000000000e+02 1.790000000000000000e+02 1.800000000000000000e+02 1.810000000000000000e+02 1.820000000000000000e+02 1.830000000000000000e+02 1.840000000000000000e+02 1.850000000000000000e+02 1.860000000000000000e+02 1.870000000000000000e+02 1.880000000000000000e+02 1.890000000000000000e+02 1.900000000000000000e+02 1.910000000000000000e+02 1.920000000000000000e+02 1.930000000000000000e+02 1.940000000000000000e+02 1.950000000000000000e+02 1.960000000000000000e+02 1.970000000000000000e+02 1.980000000000000000e+02 1.990000000000000000e+02 2.000000000000000000e+02 2.010000000000000000e+02 2.020000000000000000e+02 2.030000000000000000e+02 2.040000000000000000e+02 2.050000000000000000e+02 2.060000000000000000e+02 2.070000000000000000e+02 2.080000000000000000e+02 2.090000000000000000e+02 2.100000000000000000e+02 2.110000000000000000e+02 2.120000000000000000e+02 2.130000000000000000e+02 2.140000000000000000e+02 2.150000000000000000e+02 2.160000000000000000e+02 2.170000000000000000e+02 2.180000000000000000e+02 2.190000000000000000e+02 2.200000000000000000e+02 2.210000000000000000e+02 2.220000000000000000e+02 2.230000000000000000e+02 2.240000000000000000e+02 2.250000000000000000e+02 2.260000000000000000e+02 2.270000000000000000e+02 2.280000000000000000e+02 2.290000000000000000e+02 2.300000000000000000e+02 2.310000000000000000e+02 2.320000000000000000e+02 2.330000000000000000e+02 2.340000000000000000e+02 2.350000000000000000e+02 2.360000000000000000e+02 2.370000000000000000e+02 2.380000000000000000e+02 2.390000000000000000e+02 2.400000000000000000e+02 2.410000000000000000e+02 2.420000000000000000e+02 2.430000000000000000e+02 2.440000000000000000e+02 2.450000000000000000e+02 2.460000000000000000e+02 2.470000000000000000e+02 2.480000000000000000e+02 2.490000000000000000e+02 2.500000000000000000e+02 2.510000000000000000e+02 2.520000000000000000e+02 2.530000000000000000e+02 2.540000000000000000e+02 2.550000000000000000e+02 2.560000000000000000e+02 2.570000000000000000e+02 2.580000000000000000e+02 2.590000000000000000e+02 2.600000000000000000e+02 2.610000000000000000e+02 2.620000000000000000e+02 2.630000000000000000e+02 2.640000000000000000e+02 2.650000000000000000e+02 2.660000000000000000e+02 2.670000000000000000e+02 2.680000000000000000e+02 2.690000000000000000e+02 2.700000000000000000e+02 2.710000000000000000e+02 2.720000000000000000e+02 2.730000000000000000e+02 2.740000000000000000e+02 2.750000000000000000e+02 2.760000000000000000e+02 2.770000000000000000e+02 2.780000000000000000e+02 2.790000000000000000e+02 2.800000000000000000e+02 2.810000000000000000e+02 2.820000000000000000e+02 2.830000000000000000e+02 2.840000000000000000e+02 2.850000000000000000e+02 2.860000000000000000e+02 2.870000000000000000e+02 2.880000000000000000e+02 2.890000000000000000e+02 2.900000000000000000e+02 2.910000000000000000e+02 2.920000000000000000e+02 2.930000000000000000e+02 2.940000000000000000e+02 2.950000000000000000e+02 2.960000000000000000e+02 2.970000000000000000e+02 2.980000000000000000e+02 2.990000000000000000e+02 3.000000000000000000e+02 3.010000000000000000e+02 3.020000000000000000e+02 3.030000000000000000e+02 3.040000000000000000e+02 3.050000000000000000e+02 3.060000000000000000e+02 3.070000000000000000e+02 3.080000000000000000e+02 3.090000000000000000e+02 3.100000000000000000e+02 3.110000000000000000e+02 3.120000000000000000e+02 3.130000000000000000e+02 3.140000000000000000e+02 3.150000000000000000e+02 3.160000000000000000e+02 3.170000000000000000e+02 3.180000000000000000e+02 3.190000000000000000e+02 3.200000000000000000e+02 3.210000000000000000e+02 3.220000000000000000e+02 3.230000000000000000e+02 3.240000000000000000e+02 3.250000000000000000e+02 3.260000000000000000e+02 3.270000000000000000e+02 3.280000000000000000e+02 3.290000000000000000e+02 3.300000000000000000e+02 3.310000000000000000e+02 3.320000000000000000e+02 3.330000000000000000e+02 3.340000000000000000e+02 3.350000000000000000e+02 3.360000000000000000e+02 3.370000000000000000e+02 3.380000000000000000e+02 3.390000000000000000e+02 3.400000000000000000e+02 3.410000000000000000e+02 3.420000000000000000e+02 3.430000000000000000e+02 3.440000000000000000e+02 3.450000000000000000e+02 3.460000000000000000e+02 3.470000000000000000e+02 3.480000000000000000e+02 3.490000000000000000e+02 3.500000000000000000e+02 3.510000000000000000e+02 3.520000000000000000e+02 3.530000000000000000e+02 3.540000000000000000e+02 3.550000000000000000e+02 3.560000000000000000e+02 3.570000000000000000e+02 3.580000000000000000e+02 3.590000000000000000e+02 3.600000000000000000e+02 3.610000000000000000e+02 3.620000000000000000e+02 3.630000000000000000e+02 3.640000000000000000e+02 3.650000000000000000e+02 3.660000000000000000e+02 3.670000000000000000e+02 3.680000000000000000e+02 3.690000000000000000e+02 3.700000000000000000e+02 3.710000000000000000e+02 3.720000000000000000e+02 3.730000000000000000e+02 3.740000000000000000e+02 3.750000000000000000e+02 3.760000000000000000e+02 3.770000000000000000e+02 3.780000000000000000e+02 3.790000000000000000e+02 3.800000000000000000e+02 3.810000000000000000e+02 3.820000000000000000e+02 3.830000000000000000e+02 3.840000000000000000e+02 3.850000000000000000e+02 3.860000000000000000e+02 3.870000000000000000e+02 3.880000000000000000e+02 3.890000000000000000e+02 3.900000000000000000e+02 3.910000000000000000e+02 3.920000000000000000e+02 3.930000000000000000e+02 3.940000000000000000e+02 3.950000000000000000e+02 3.960000000000000000e+02 3.970000000000000000e+02 3.980000000000000000e+02 3.990000000000000000e+02 4.000000000000000000e+02 4.010000000000000000e+02 4.020000000000000000e+02 4.030000000000000000e+02 4.040000000000000000e+02 4.050000000000000000e+02 4.060000000000000000e+02 4.070000000000000000e+02 4.080000000000000000e+02 4.090000000000000000e+02 4.100000000000000000e+02 4.110000000000000000e+02 4.120000000000000000e+02 4.130000000000000000e+02 4.140000000000000000e+02 4.150000000000000000e+02 4.160000000000000000e+02 4.170000000000000000e+02 4.180000000000000000e+02 4.190000000000000000e+02 4.200000000000000000e+02 4.210000000000000000e+02 4.220000000000000000e+02 4.230000000000000000e+02 4.240000000000000000e+02 4.250000000000000000e+02 4.260000000000000000e+02 4.270000000000000000e+02 4.280000000000000000e+02 4.290000000000000000e+02 4.300000000000000000e+02 4.310000000000000000e+02 4.320000000000000000e+02 4.330000000000000000e+02 4.340000000000000000e+02 4.350000000000000000e+02 4.360000000000000000e+02 4.370000000000000000e+02 4.380000000000000000e+02 4.390000000000000000e+02 4.400000000000000000e+02 4.410000000000000000e+02 4.420000000000000000e+02 4.430000000000000000e+02 4.440000000000000000e+02 4.450000000000000000e+02 4.460000000000000000e+02 4.470000000000000000e+02 4.480000000000000000e+02 4.490000000000000000e+02 4.500000000000000000e+02 4.510000000000000000e+02 4.520000000000000000e+02 4.530000000000000000e+02 4.540000000000000000e+02 4.550000000000000000e+02 4.560000000000000000e+02 4.570000000000000000e+02 4.580000000000000000e+02 4.590000000000000000e+02 4.600000000000000000e+02 4.610000000000000000e+02 4.620000000000000000e+02 4.630000000000000000e+02 4.640000000000000000e+02 4.650000000000000000e+02 4.660000000000000000e+02 4.670000000000000000e+02 4.680000000000000000e+02 4.690000000000000000e+02 4.700000000000000000e+02 4.710000000000000000e+02 4.720000000000000000e+02 4.730000000000000000e+02 4.740000000000000000e+02 4.750000000000000000e+02 4.760000000000000000e+02 4.770000000000000000e+02 4.780000000000000000e+02 4.790000000000000000e+02 4.800000000000000000e+02 4.810000000000000000e+02 4.820000000000000000e+02 4.830000000000000000e+02 4.840000000000000000e+02 4.850000000000000000e+02 4.860000000000000000e+02 4.870000000000000000e+02 4.880000000000000000e+02 4.890000000000000000e+02 4.900000000000000000e+02 4.910000000000000000e+02 4.920000000000000000e+02 4.930000000000000000e+02 4.940000000000000000e+02 4.950000000000000000e+02 4.960000000000000000e+02 4.970000000000000000e+02 4.980000000000000000e+02 4.990000000000000000e+02 5.000000000000000000e+02 5.010000000000000000e+02 5.020000000000000000e+02 5.030000000000000000e+02 5.040000000000000000e+02 5.050000000000000000e+02 5.060000000000000000e+02 5.070000000000000000e+02 5.080000000000000000e+02 5.090000000000000000e+02 5.100000000000000000e+02 5.110000000000000000e+02 5.120000000000000000e+02 5.130000000000000000e+02 5.140000000000000000e+02 5.150000000000000000e+02 5.160000000000000000e+02 5.170000000000000000e+02 5.180000000000000000e+02 5.190000000000000000e+02 5.200000000000000000e+02 5.210000000000000000e+02 5.220000000000000000e+02 5.230000000000000000e+02 5.240000000000000000e+02 5.250000000000000000e+02 5.260000000000000000e+02 5.270000000000000000e+02 5.280000000000000000e+02 5.290000000000000000e+02 5.300000000000000000e+02 5.310000000000000000e+02 5.320000000000000000e+02 5.330000000000000000e+02 5.340000000000000000e+02 5.350000000000000000e+02 5.360000000000000000e+02 5.370000000000000000e+02 5.380000000000000000e+02 5.390000000000000000e+02 5.400000000000000000e+02 5.410000000000000000e+02 5.420000000000000000e+02 5.430000000000000000e+02 5.440000000000000000e+02 5.450000000000000000e+02 5.460000000000000000e+02 5.470000000000000000e+02 5.480000000000000000e+02 5.490000000000000000e+02 5.500000000000000000e+02 5.510000000000000000e+02 5.520000000000000000e+02 5.530000000000000000e+02 5.540000000000000000e+02 5.550000000000000000e+02 5.560000000000000000e+02 5.570000000000000000e+02 5.580000000000000000e+02 5.590000000000000000e+02 5.600000000000000000e+02 5.610000000000000000e+02 5.620000000000000000e+02 5.630000000000000000e+02 5.640000000000000000e+02 5.650000000000000000e+02 5.660000000000000000e+02 5.670000000000000000e+02 5.680000000000000000e+02 5.690000000000000000e+02 5.700000000000000000e+02 5.710000000000000000e+02 5.720000000000000000e+02 5.730000000000000000e+02 5.740000000000000000e+02 5.750000000000000000e+02 5.760000000000000000e+02 5.770000000000000000e+02 5.780000000000000000e+02 5.790000000000000000e+02 5.800000000000000000e+02 5.810000000000000000e+02 5.820000000000000000e+02 5.830000000000000000e+02 5.840000000000000000e+02 5.850000000000000000e+02 5.860000000000000000e+02 5.870000000000000000e+02 5.880000000000000000e+02 5.890000000000000000e+02 5.900000000000000000e+02 5.910000000000000000e+02 5.920000000000000000e+02 5.930000000000000000e+02 5.940000000000000000e+02 5.950000000000000000e+02 5.960000000000000000e+02 5.970000000000000000e+02 5.980000000000000000e+02 5.990000000000000000e+02 6.000000000000000000e+02 6.010000000000000000e+02 6.020000000000000000e+02 6.030000000000000000e+02 6.040000000000000000e+02 6.050000000000000000e+02 6.060000000000000000e+02 6.070000000000000000e+02 6.080000000000000000e+02 6.090000000000000000e+02 6.100000000000000000e+02 6.110000000000000000e+02 6.120000000000000000e+02 6.130000000000000000e+02 6.140000000000000000e+02 6.150000000000000000e+02 6.160000000000000000e+02 6.170000000000000000e+02 6.180000000000000000e+02 6.190000000000000000e+02 6.200000000000000000e+02 6.210000000000000000e+02 6.220000000000000000e+02 6.230000000000000000e+02 6.240000000000000000e+02 6.250000000000000000e+02 6.260000000000000000e+02 6.270000000000000000e+02 6.280000000000000000e+02 6.290000000000000000e+02 6.300000000000000000e+02 6.310000000000000000e+02 6.320000000000000000e+02 6.330000000000000000e+02 6.340000000000000000e+02 6.350000000000000000e+02 6.360000000000000000e+02 6.370000000000000000e+02 6.380000000000000000e+02 6.390000000000000000e+02 6.400000000000000000e+02 6.410000000000000000e+02 6.420000000000000000e+02 6.430000000000000000e+02 6.440000000000000000e+02 6.450000000000000000e+02 6.460000000000000000e+02 6.470000000000000000e+02 6.480000000000000000e+02 6.490000000000000000e+02 6.500000000000000000e+02 6.510000000000000000e+02 6.520000000000000000e+02 6.530000000000000000e+02 6.540000000000000000e+02 6.550000000000000000e+02 6.560000000000000000e+02 6.570000000000000000e+02 6.580000000000000000e+02 6.590000000000000000e+02 6.600000000000000000e+02 6.610000000000000000e+02 6.620000000000000000e+02 6.630000000000000000e+02 6.640000000000000000e+02 6.650000000000000000e+02 6.660000000000000000e+02 6.670000000000000000e+02 6.680000000000000000e+02 6.690000000000000000e+02 6.700000000000000000e+02 6.710000000000000000e+02 6.720000000000000000e+02 6.730000000000000000e+02 6.740000000000000000e+02 6.750000000000000000e+02 6.760000000000000000e+02 6.770000000000000000e+02 6.780000000000000000e+02 6.790000000000000000e+02 6.800000000000000000e+02 6.810000000000000000e+02 6.820000000000000000e+02 6.830000000000000000e+02 6.840000000000000000e+02 6.850000000000000000e+02 6.860000000000000000e+02 6.870000000000000000e+02 6.880000000000000000e+02 6.890000000000000000e+02 6.900000000000000000e+02 6.910000000000000000e+02 6.920000000000000000e+02 6.930000000000000000e+02 6.940000000000000000e+02 6.950000000000000000e+02 6.960000000000000000e+02 6.970000000000000000e+02 6.980000000000000000e+02 6.990000000000000000e+02 7.000000000000000000e+02 7.010000000000000000e+02 7.020000000000000000e+02 7.030000000000000000e+02 7.040000000000000000e+02 7.050000000000000000e+02 7.060000000000000000e+02 7.070000000000000000e+02 7.080000000000000000e+02 7.090000000000000000e+02 7.100000000000000000e+02 7.110000000000000000e+02 7.120000000000000000e+02 7.130000000000000000e+02 7.140000000000000000e+02 7.150000000000000000e+02 7.160000000000000000e+02 7.170000000000000000e+02 7.180000000000000000e+02 7.190000000000000000e+02 7.200000000000000000e+02 7.210000000000000000e+02 7.220000000000000000e+02 7.230000000000000000e+02 7.240000000000000000e+02 7.250000000000000000e+02 7.260000000000000000e+02 7.270000000000000000e+02 7.280000000000000000e+02 7.290000000000000000e+02 7.300000000000000000e+02 7.310000000000000000e+02 7.320000000000000000e+02 7.330000000000000000e+02 7.340000000000000000e+02 7.350000000000000000e+02 7.360000000000000000e+02 7.370000000000000000e+02 7.380000000000000000e+02 7.390000000000000000e+02 7.400000000000000000e+02 7.410000000000000000e+02 7.420000000000000000e+02 7.430000000000000000e+02 7.440000000000000000e+02 7.450000000000000000e+02 7.460000000000000000e+02 7.470000000000000000e+02 7.480000000000000000e+02 7.490000000000000000e+02 7.500000000000000000e+02 7.510000000000000000e+02 7.520000000000000000e+02 7.530000000000000000e+02 7.540000000000000000e+02 7.550000000000000000e+02 7.560000000000000000e+02 7.570000000000000000e+02 7.580000000000000000e+02 7.590000000000000000e+02 7.600000000000000000e+02 7.610000000000000000e+02 7.620000000000000000e+02 7.630000000000000000e+02 7.640000000000000000e+02 7.650000000000000000e+02 7.660000000000000000e+02 7.670000000000000000e+02 7.680000000000000000e+02 7.690000000000000000e+02 7.700000000000000000e+02 7.710000000000000000e+02 7.720000000000000000e+02 7.730000000000000000e+02 7.740000000000000000e+02 7.750000000000000000e+02 7.760000000000000000e+02 7.770000000000000000e+02 7.780000000000000000e+02 7.790000000000000000e+02 7.800000000000000000e+02 7.810000000000000000e+02 7.820000000000000000e+02 7.830000000000000000e+02 7.840000000000000000e+02 7.850000000000000000e+02 7.860000000000000000e+02 7.870000000000000000e+02 7.880000000000000000e+02 7.890000000000000000e+02 7.900000000000000000e+02 7.910000000000000000e+02 7.920000000000000000e+02 7.930000000000000000e+02 7.940000000000000000e+02 7.950000000000000000e+02 7.960000000000000000e+02 7.970000000000000000e+02 7.980000000000000000e+02 7.990000000000000000e+02 8.000000000000000000e+02 8.010000000000000000e+02 8.020000000000000000e+02 8.030000000000000000e+02 8.040000000000000000e+02 8.050000000000000000e+02 8.060000000000000000e+02 8.070000000000000000e+02 8.080000000000000000e+02 8.090000000000000000e+02 8.100000000000000000e+02 8.110000000000000000e+02 8.120000000000000000e+02 8.130000000000000000e+02 8.140000000000000000e+02 8.150000000000000000e+02 8.160000000000000000e+02 8.170000000000000000e+02 8.180000000000000000e+02 8.190000000000000000e+02 8.200000000000000000e+02 8.210000000000000000e+02 8.220000000000000000e+02 8.230000000000000000e+02 8.240000000000000000e+02 8.250000000000000000e+02 8.260000000000000000e+02 8.270000000000000000e+02 8.280000000000000000e+02 8.290000000000000000e+02 8.300000000000000000e+02 8.310000000000000000e+02 8.320000000000000000e+02 8.330000000000000000e+02 8.340000000000000000e+02 8.350000000000000000e+02 8.360000000000000000e+02 8.370000000000000000e+02 8.380000000000000000e+02 8.390000000000000000e+02 8.400000000000000000e+02 8.410000000000000000e+02 8.420000000000000000e+02 8.430000000000000000e+02 8.440000000000000000e+02 8.450000000000000000e+02 8.460000000000000000e+02 8.470000000000000000e+02 8.480000000000000000e+02 8.490000000000000000e+02 8.500000000000000000e+02 8.510000000000000000e+02 8.520000000000000000e+02 8.530000000000000000e+02 8.540000000000000000e+02 8.550000000000000000e+02 8.560000000000000000e+02 8.570000000000000000e+02 8.580000000000000000e+02 8.590000000000000000e+02 8.600000000000000000e+02 8.610000000000000000e+02 8.620000000000000000e+02 8.630000000000000000e+02 8.640000000000000000e+02 8.650000000000000000e+02 8.660000000000000000e+02 8.670000000000000000e+02 8.680000000000000000e+02 8.690000000000000000e+02 8.700000000000000000e+02 8.710000000000000000e+02 8.720000000000000000e+02 8.730000000000000000e+02 8.740000000000000000e+02 8.750000000000000000e+02 8.760000000000000000e+02 8.770000000000000000e+02 8.780000000000000000e+02 8.790000000000000000e+02 8.800000000000000000e+02 8.810000000000000000e+02 8.820000000000000000e+02 8.830000000000000000e+02 8.840000000000000000e+02 8.850000000000000000e+02 8.860000000000000000e+02 8.870000000000000000e+02 8.880000000000000000e+02 8.890000000000000000e+02 8.900000000000000000e+02 8.910000000000000000e+02 8.920000000000000000e+02 8.930000000000000000e+02 8.940000000000000000e+02 8.950000000000000000e+02 8.960000000000000000e+02 8.970000000000000000e+02 8.980000000000000000e+02 8.990000000000000000e+02 9.000000000000000000e+02 9.010000000000000000e+02 9.020000000000000000e+02 9.030000000000000000e+02 9.040000000000000000e+02 9.050000000000000000e+02 9.060000000000000000e+02 9.070000000000000000e+02 9.080000000000000000e+02 9.090000000000000000e+02 9.100000000000000000e+02 9.110000000000000000e+02 9.120000000000000000e+02 9.130000000000000000e+02 9.140000000000000000e+02 9.150000000000000000e+02 9.160000000000000000e+02 9.170000000000000000e+02 9.180000000000000000e+02 9.190000000000000000e+02 9.200000000000000000e+02 9.210000000000000000e+02 9.220000000000000000e+02 9.230000000000000000e+02 9.240000000000000000e+02 9.250000000000000000e+02 9.260000000000000000e+02 9.270000000000000000e+02 9.280000000000000000e+02 9.290000000000000000e+02 9.300000000000000000e+02 9.310000000000000000e+02 9.320000000000000000e+02 9.330000000000000000e+02 9.340000000000000000e+02 9.350000000000000000e+02 9.360000000000000000e+02 9.370000000000000000e+02 9.380000000000000000e+02 9.390000000000000000e+02 9.400000000000000000e+02 9.410000000000000000e+02 9.420000000000000000e+02 9.430000000000000000e+02 9.440000000000000000e+02 9.450000000000000000e+02 9.460000000000000000e+02 9.470000000000000000e+02 9.480000000000000000e+02 9.490000000000000000e+02 9.500000000000000000e+02 9.510000000000000000e+02 9.520000000000000000e+02 9.530000000000000000e+02 9.540000000000000000e+02 9.550000000000000000e+02 9.560000000000000000e+02 9.570000000000000000e+02 9.580000000000000000e+02 9.590000000000000000e+02 9.600000000000000000e+02 9.610000000000000000e+02 9.620000000000000000e+02 9.630000000000000000e+02 9.640000000000000000e+02 9.650000000000000000e+02 9.660000000000000000e+02 9.670000000000000000e+02 9.680000000000000000e+02 9.690000000000000000e+02 9.700000000000000000e+02 9.710000000000000000e+02 9.720000000000000000e+02 9.730000000000000000e+02 9.740000000000000000e+02 9.750000000000000000e+02 9.760000000000000000e+02 9.770000000000000000e+02 9.780000000000000000e+02 9.790000000000000000e+02 9.800000000000000000e+02 9.810000000000000000e+02 9.820000000000000000e+02 9.830000000000000000e+02 9.840000000000000000e+02 9.850000000000000000e+02 9.860000000000000000e+02 9.870000000000000000e+02 9.880000000000000000e+02 9.890000000000000000e+02 9.900000000000000000e+02 9.910000000000000000e+02 9.920000000000000000e+02 9.930000000000000000e+02 9.940000000000000000e+02 9.950000000000000000e+02 9.960000000000000000e+02 9.970000000000000000e+02 9.980000000000000000e+02 9.990000000000000000e+02 1.000000000000000000e+03
1.000000000000000021e-02 1.000000000000000021e-02 1.000000000000000021e-02 1.000000000000000021e-02 1.000000000000000021e-02 1.000000000000000021e-02 1.000000000000000021e-02 1.000000000000000021e-02 1.000000000000000021e-02 1.000000000000000021e-02 1.000000000000000021e-02 1.000000000000000021e-02 1.000000000000000021e-02 1.000000000000000021e-02 1.000000000000000021e-02 1.000000000000000021e-02 1.000000000000000021e-02 1.000000000000000021e-02 1.000000000000000021e-02 1.000000000000000021e-02 1.000000000000000021e-02 1.000000000000000021e-02 1.000000000000000021e-02 1.000000000000000021e-02 1.000000000000000021e-02 1.000000000000000021e-02 1.000000000000000021e-02 1.000000000000000021e-02 1.000000000000000021e-02 1.000000000000000021e-02 1.000000000000000021e-02 1.000000000000000021e-02 1.000000000000000021e-02 1.000000000000000021e-02 1.000000000000000021e-02 1.000000000000000021e-02 1.000000000000000021e-02 1.000000000000000021e-02 1.000000000000000021e-02 1.000000000000000021e-02 1.000000000000000021e-02 1.000000000000000021e-02 1.000000000000000021e-02 1.000000000000000021e-02 1.000000000000000021e-02 1.000000000000000021e-02 1.000000000000000021e-02 1.000000000000000021e-02 1.000000000000000021e-02 1.000000000000000021e-02 1.000000000000000021e-02 1.000000000000000021e-02 1.000000000000000021e-02 1.000000000000000021e-02 1.000000000000000021e-02 1.000000000000000021e-02 1.000000000000000021e-02 1.000000000000000021e-02 1.000000000000000021e-02 1.000000000000000021e-02 1.000000000000000021e-02 1.000000000000000021e-02 1.000000000000000021e-02 1.000000000000000021e-02 1.000000000000000021e-02 1.000000000000000021e-02 1.000000000000000021e-02 1.000000000000000021e-02 1.000000000000000021e-02 1.000000000000000021e-02 1.000000000000000021e-02 1.000000000000000021e-02 1.000000000000000021e-02 1.000000000000000021e-02 1.000000000000000021e-02 1.000000000000000021e-02 1.000000000000000021e-02 1.000000000000000021e-02 1.000000000000000021e-02 1.000000000000000021e-02 1.000000000000000021e-02 1.000000000000000021e-02 1.000000000000000021e-02 1.000000000000000021e-02 1.000000000000000021e-02 1.000000000000000021e-02 1.000000000000000021e-02 1.000000000000000021e-02 1.000000000000000021e-02 1.000000000000000021e-02 1.000000000000000021e-02 1.000000000000000021e-02 1.000000000000000021e-02 1.000000000000000021e-02 1.000000000000000021e-02 1.000000000000000021e-02 1.000000000000000021e-02 1.000000000000000021e-02 1.000000000000000021e-02 1.000000000000000021e-02 1.000000000000000021e-02 1.000000000000000021e-02 1.000000000000000021e-02 1.000000000000000021e-02 1.000000000000000021e-02 1.000000000000000021e-02 1.000000000000000021e-02 1.000000000000000021e-02 1.000000000000000021e-02 1.000000000000000021e-02 1.000000000000000021e-02 1.000000000000000021e-02 1.000000000000000021e-02 1.000000000000000021e-02 1.000000000000000021e-02 1.000000000000000021e-02 1.000000000000000021e-02 1.000000000000000021e-02 1.000000000000000021e-02 1.000000000000000021e-02 1.000000000000000021e-02 1.000000000000000021e-02 1.000000000000000021e-02 1.000000000000000021e-02 1.000000000000000021e-02 1.000000000000000021e-02 1.000000000000000021e-02 1.000000000000000021e-02 1.000000000000000021e-02 1.000000000000000021e-02 1.000000000000000021e-02 1.000000000000000021e-02 1.000000000000000021e-02 1.000000000000000021e-02 1.000000000000000021e-02 1.000000000000000021e-02 1.000000000000000021e-02 1.000000000000000021e-02 1.000000000000000021e-02 1.000000000000000021e-02 1.000000000000000021e-02 1.000000000000000021e-02 1.000000000000000021e-02 1.000000000000000021e-02 1.000000000000000021e-02 1.000000000000000021e-02 1.000000000000000021e-02 1.000000000000000021e-02 1.000000000000000021e-02 1.000000000000000021e-02 1.000000000000000021e-02 1.000000000000000021e-02 1.000000000000000021e-02 1.000000000000000021e-02 1.000000000000000021e-02 1.000000000000000021e-02 1.000000000000000021e-02 1.000000000000000021e-02 1.000000000000000021e-02 1.000000000000000021e-02 1.000000000000000021e-02 1.000000000000000021e-02 1.000000000000000021e-02 1.000000000000000021e-02 1.000000000000000021e-02 1.000000000000000021e-02 1.000000000000000021e-02 1.000000000000000021e-02 1.000000000000000021e-02 1.000000000000000021e-02 1.000000000000000021e-02 1.000000000000000021e-02 1.000000000000000021e-02 1.000000000000000021e-02 1.000000000000000021e-02 1.000000000000000021e-02 1.000000000000000021e-02 1.000000000000000021e-02 1.000000000000000021e-02 1.000000000000000021e-02 1.000000000000000021e-02 1.000000000000000021e-02 1.000000000000000021e-02 1.000000000000000021e-02 1.000000000000000021e-02 1.000000000000000021e-02 1.000000000000000021e-02 1.000000000000000021e-02 1.000000000000000021e-02 1.000000000000000021e-02 1.000000000000000021e-02 1.000000000000000021e-02 1.000000000000000021e-02 1.000000000000000021e-02 1.000000000000000021e-02 1.000000000000000021e-02 1.000000000000000021e-02 1.000000000000000021e-02 1.000000000000000021e-02 1.000000000000000021e-02 1.000000000000000021e-02 1.000000000000000021e-02 1.000000000000000021e-02 1.000000000000000021e-02 1.000000000000000021e-02 1.000000000000000021e-02 1.000000000000000021e-02 1.000000000000000021e-02 1.000000000000000021e-02 1.000000000000000021e-02 1.000000000000000021e-02 1.000000000000000021e-02 1.000000000000000021e-02 1.000000000000000021e-02 1.000000000000000021e-02 1.000000000000000021e-02 1.000000000000000021e-02 1.000000000000000021e-02 1.000000000000000021e-02 1.000000000000000021e-02 1.000000000000000021e-02 1.000000000000000021e-02 1.000000000000000021e-02 1.000000000000000021e-02 1.000000000000000021e-02 1.000000000000000021e-02 1.000000000000000021e-02 1.000000000000000021e-02 1.000000000000000021e-02 1.000000000000000021e-02 1.000000000000000021e-02 1.000000000000000021e-02 1.000000000000000021e-02 1.000000000000000021e-02 1.000000000000000021e-02 1.000000000000000021e-02 1.000000000000000021e-02 1.000000000000000021e-02 1.000000000000000021e-02 1.000000000000000021e-02 1.000000000000000021e-02 1.000000000000000021e-02 1.000000000000000021e-02 1.000000000000000021e-02 1.000000000000000021e-02 1.000000000000000021e-02 1.000000000000000021e-02 1.000000000000000021e-02 1.000000000000000021e-02 1.000000000000000021e-02 1.000000000000000021e-02 1.000000000000000021e-02 1.000000000000000021e-02 1.000000000000000021e-02 1.000000000000000021e-02 1.000000000000000021e-02 1.000000000000000021e-02 1.000000000000000021e-02 1.000000000000000021e-02 1.000000000000000021e-02 1.000000000000000021e-02 1.000000000000000021e-02 1.000000000000000021e-02 1.000000000000000021e-02 1.000000000000000021e-02 1.000000000000000021e-02 1.000000000000000021e-02 1.000000000000000021e-02 1.000000000000000021e-02 1.000000000000000021e-02 1.000000000000000021e-02 1.000000000000000021e-02 1.000000000000000021e-02 1.000000000000000021e-02 1.000000000000000021e-02 1.000000000000000021e-02 1.000000000000000021e-02 1.000000000000000021e-02 1.000000000000000021e-02 1.000000000000000021e-02 1.000000000000000021e-02 1.000000000000000021e-02 1.000000000000000021e-02 1.000000000000000021e-02 1.000000000000000021e-02 1.000000000000000021e-02 1.000000000000000021e-02 1.000000000000000021e-02 1.000000000000000021e-02 1.000000000000000021e-02 1.000000000000000021e-02 1.000000000000000021e-02 1.000000000000000021e-02 1.000000000000000021e-02 1.000000000000000021e-02 1.000000000000000021e-02 1.000000000000000021e-02 1.000000000000000021e-02 1.000000000000000021e-02 1.000000000000000021e-02 1.000000000000000021e-02 1.000000000000000021e-02 1.000000000000000021e-02 1.000000000000000021e-02 1.000000000000000021e-02 1.000000000000000021e-02 1.000000000000000021e-02 1.000000000000000021e-02 1.000000000000000021e-02 1.000000000000000021e-02 1.000000000000000021e-02 1.000000000000000021e-02 1.000000000000000021e-02 1.000000000000000021e-02 1.000000000000000021e-02 1.000000000000000021e-02 1.000000000000000021e-02 1.000000000000000021e-02 1.000000000000000021e-02 1.000000000000000021e-02 1.000000000000000021e-02 1.000000000000000021e-02 1.000000000000000021e-02 1.000000000000000021e-02 1.000000000000000021e-02 1.000000000000000021e-02 1.000000000000000021e-02 1.000000000000000021e-02 1.000000000000000021e-02 1.000000000000000021e-02 1.000000000000000021e-02 1.000000000000000021e-02 1.000000000000000021e-02 1.000000000000000021e-02 1.000000000000000021e-02 1.000000000000000021e-02 1.000000000000000021e-02 1.000000000000000021e-02 1.000000000000000021e-02 1.000000000000000021e-02 1.000000000000000021e-02 1.000000000000000021e-02 1.000000000000000021e-02 1.000000000000000021e-02 1.000000000000000021e-02 1.000000000000000021e-02 1.000000000000000021e-02 1.000000000000000021e-02 1.000000000000000021e-02 1.000000000000000021e-02 1.000000000000000021e-02 1.000000000000000021e-02 1.000000000000000021e-02 1.000000000000000021e-02 1.000000000000000021e-02 1.000000000000000021e-02 1.000000000000000021e-02 1.000000000000000021e-02 1.000000000000000021e-02 1.000000000000000021e-02 1.000000000000000021e-02 1.000000000000000021e-02 1.000000000000000021e-02 1.000000000000000021e-02 1.000000000000000021e-02 1.000000000000000021e-02 1.000000000000000021e-02 1.000000000000000021e-02 1.000000000000000021e-02 1.000000000000000021e-02 1.000000000000000021e-02 1.000000000000000021e-02 1.000000000000000021e-02 1.000000000000000021e-02 1.000000000000000021e-02 1.000000000000000021e-02 1.000000000000000021e-02 1.000000000000000021e-02 1.000000000000000021e-02 1.000000000000000021e-02 1.000000000000000021e-02 1.000000000000000021e-02 1.000000000000000021e-02 1.000000000000000021e-02 1.000000000000000021e-02 1.000000000000000021e-02 1.000000000000000021e-02 1.000000000000000021e-02 1.000000000000000021e-02 1.000000000000000021e-02 1.000000000000000021e-02 1.000000000000000021e-02 1.000000000000000021e-02 1.000000000000000021e-02 1.000000000000000021e-02 1.000000000000000021e-02 1.000000000000000021e-02 1.000000000000000021e-02 1.000000000000000021e-02 1.000000000000000021e-02 1.000000000000000021e-02 1.000000000000000021e-02 1.000000000000000021e-02 1.000000000000000021e-02 1.000000000000000021e-02 1.000000000000000021e-02 1.000000000000000021e-02 1.000000000000000021e-02 1.000000000000000021e-02 1.000000000000000021e-02 1.000000000000000021e-02 1.000000000000000021e-02 1.000000000000000021e-02 1.000000000000000021e-02 1.000000000000000021e-02 1.000000000000000021e-02 1.000000000000000021e-02 1.000000000000000021e-02 1.000000000000000021e-02 1.000000000000000021e-02 1.000000000000000021e-02 1.000000000000000021e-02 1.000000000000000021e-02 1.000000000000000021e-02 1.000000000000000021e-02 1.000000000000000021e-02 1.000000000000000021e-02 1.000000000000000021e-02 1.000000000000000021e-02 1.000000000000000021e-02 1.000000000000000021e-02 1.000000000000000021e-02 1.000000000000000021e-02 1.000000000000000021e-02 1.000000000000000021e-02 1.000000000000000021e-02 1.000000000000000021e-02 1.000000000000000021e-02 1.000000000000000021e-02 1.000000000000000021e-02 1.000000000000000021e-02 1.000000000000000021e-02 1.000000000000000021e-02 1.000000000000000021e-02 1.000000000000000021e-02 1.000000000000000021e-02 1.000000000000000021e-02 1.000000000000000021e-02 1.000000000000000021e-02 1.000000000000000021e-02 1.000000000000000021e-02 1.000000000000000021e-02 1.000000000000000021e-02 1.000000000000000021e-02 1.000000000000000021e-02 1.000000000000000021e-02 1.000000000000000021e-02 1.000000000000000021e-02 1.000000000000000021e-02 1.000000000000000021e-02 1.000000000000000021e-02 1.000000000000000021e-02 1.000000000000000021e-02 1.000000000000000021e-02 1.000000000000000021e-02 1.000000000000000021e-02 1.000000000000000021e-02 1.000000000000000021e-02 1.000000000000000021e-02 1.000000000000000021e-02 1.000000000000000021e-02 1.000000000000000021e-02 1.000000000000000021e-02 1.000000000000000021e-02 1.000000000000000021e-02 1.000000000000000021e-02 1.000000000000000021e-02 1.000000000000000021e-02 1.000000000000000021e-02 1.000000000000000021e-02 1.000000000000000021e-02 1.000000000000000021e-02 1.000000000000000021e-02 1.000000000000000021e-02 1.000000000000000021e-02 1.000000000000000021e-02 1.000000000000000021e-02 1.000000000000000021e-02 1.000000000000000021e-02 1.000000000000000021e-02 1.000000000000000021e-02 1.000000000000000021e-02 1.000000000000000021e-02 1.000000000000000021e-02 1.000000000000000021e-02 1.000000000000000021e-02 1.000000000000000021e-02 1.000000000000000021e-02 1.000000000000000021e-02 1.000000000000000021e-02 1.000000000000000021e-02 1.000000000000000021e-02 1.000000000000000021e-02 1.000000000000000021e-02 1.000000000000000021e-02 1.000000000000000021e-02 1.000000000000000021e-02 1.000000000000000021e-02 1.000000000000000021e-02 1.000000000000000021e-02 1.000000000000000021e-02 1.000000000000000021e-02 1.000000000000000021e-02 1.000000000000000021e-02 1.000000000000000021e-02 1.000000000000000021e-02 1.000000000000000021e-02 1.000000000000000021e-02 1.000000000000000021e-02 1.000000000000000021e-02 1.000000000000000021e-02 1.000000000000000021e-02 1.000000000000000021e-02 1.000000000000000021e-02 1.000000000000000021e-02 1.000000000000000021e-02 1.000000000000000021e-02 1.000000000000000021e-02 1.000000000000000021e-02 1.000000000000000021e-02 1.000000000000000021e-02 1.000000000000000021e-02 1.000000000000000021e-02 1.000000000000000021e-02 1.000000000000000021e-02 1.000000000000000021e-02 1.000000000000000021e-02 1.000000000000000021e-02 1.000000000000000021e-02 1.000000000000000021e-02 1.000000000000000021e-02 1.000000000000000021e-02 1.000000000000000021e-02 1.000000000000000021e-02 1.000000000000000021e-02 1.000000000000000021e-02 1.000000000000000021e-02 1.000000000000000021e-02 1.000000000000000021e-02 1.000000000000000021e-02 1.000000000000000021e-02 1.000000000000000021e-02 1.000000000000000021e-02 1.000000000000000021e-02 1.000000000000000021e-02 1.000000000000000021e-02 1.000000000000000021e-02 1.000000000000000021e-02 1.000000000000000021e-02 1.000000000000000021e-02 1.000000000000000021e-02 1.000000000000000021e-02 1.000000000000000021e-02 1.000000000000000021e-02 1.000000000000000021e-02 1.000000000000000021e-02 1.000000000000000021e-02 1.000000000000000021e-02 1.000000000000000021e-02 1.000000000000000021e-02 1.000000000000000021e-02 1.000000000000000021e-02 1.000000000000000021e-02 1.000000000000000021e-02 1.000000000000000021e-02 1.000000000000000021e-02 1.000000000000000021e-02 1.000000000000000021e-02 1.000000000000000021e-02 1.000000000000000021e-02 1.000000000000000021e-02 1.000000000000000021e-02 1.000000000000000021e-02 1.000000000000000021e-02 1.000000000000000021e-02 1.000000000000000021e-02 1.000000000000000021e-02 1.000000000000000021e-02 1.000000000000000021e-02 1.000000000000000021e-02 1.000000000000000021e-02 1.000000000000000021e-02 1.000000000000000021e-02 1.000000000000000021e-02 1.000000000000000021e-02 1.000000000000000021e-02 1.000000000000000021e-02 1.000000000000000021e-02 1.000000000000000021e-02 1.000000000000000021e-02 1.000000000000000021e-02 1.000000000000000021e-02 1.000000000000000021e-02 1.000000000000000021e-02 1.000000000000000021e-02 1.000000000000000021e-02 1.000000000000000021e-02 1.000000000000000021e-02 1.000000000000000021e-02 1.000000000000000021e-02 1.000000000000000021e-02 1.000000000000000021e-02 1.000000000000000021e-02 1.000000000000000021e-02 1.000000000000000021e-02 1.000000000000000021e-02 1.000000000000000021e-02 1.000000000000000021e-02 1.000000000000000021e-02 1.000000000000000021e-02 1.000000000000000021e-02 1.000000000000000021e-02 1.000000000000000021e-02 1.000000000000000021e-02 1.000000000000000021e-02 1.000000000000000021e-02 1.000000000000000021e-02 1.000000000000000021e-02 1.000000000000000021e-02 1.000000000000000021e-02 1.000000000000000021e-02 1.000000000000000021e-02 1.000000000000000021e-02 1.000000000000000021e-02 1.000000000000000021e-02 1.000000000000000021e-02 1.000000000000000021e-02 1.000000000000000021e-02 1.000000000000000021e-02 1.000000000000000021e-02 1.000000000000000021e-02 1.000000000000000021e-02 1.000000000000000021e-02 1.000000000000000021e-02 1.000000000000000021e-02 1.000000000000000021e-02 1.000000000000000021e-02 1.000000000000000021e-02 1.000000000000000021e-02 1.000000000000000021e-02 1.000000000000000021e-02 1.000000000000000021e-02 1.000000000000000021e-02 1.000000000000000021e-02 1.000000000000000021e-02 1.000000000000000021e-02 1.000000000000000021e-02 1.000000000000000021e-02 1.000000000000000021e-02 1.000000000000000021e-02 1.000000000000000021e-02 1.000000000000000021e-02 1.000000000000000021e-02 1.000000000000000021e-02 1.000000000000000021e-02 1.000000000000000021e-02 1.000000000000000021e-02 1.000000000000000021e-02 1.000000000000000021e-02 1.000000000000000021e-02 1.000000000000000021e-02 1.000000000000000021e-02 1.000000000000000021e-02 1.000000000000000021e-02 1.000000000000000021e-02 1.000000000000000021e-02 1.000000000000000021e-02 1.000000000000000021e-02 1.000000000000000021e-02 1.000000000000000021e-02 1.000000000000000021e-02 1.000000000000000021e-02 1.000000000000000021e-02 1.000000000000000021e-02 1.000000000000000021e-02 1.000000000000000021e-02 1.000000000000000021e-02 1.000000000000000021e-02 1.000000000000000021e-02 1.000000000000000021e-02 1.000000000000000021e-02 1.000000000000000021e-02 1.000000000000000021e-02 1.000000000000000021e-02 1.000000000000000021e-02 1.000000000000000021e-02 1.000000000000000021e-02 1.000000000000000021e-02 1.000000000000000021e-02 1.000000000000000021e-02 1.000000000000000021e-02 1.000000000000000021e-02 1.000000000000000021e-02 1.000000000000000021e-02 1.000000000000000021e-02 1.000000000000000021e-02 1.000000000000000021e-02 1.000000000000000021e-02 1.000000000000000021e-02 1.000000000000000021e-02 1.000000000000000021e-02 1.000000000000000021e-02 1.000000000000000021e-02 1.000000000000000021e-02 1.000000000000000021e-02 1.000000000000000021e-02 1.000000000000000021e-02 1.000000000000000021e-02 1.000000000000000021e-02 1.000000000000000021e-02 1.000000000000000021e-02 1.000000000000000021e-02 1.000000000000000021e-02 1.000000000000000021e-02 1.000000000000000021e-02 1.000000000000000021e-02 1.000000000000000021e-02 1.000000000000000021e-02 1.000000000000000021e-02 1.000000000000000021e-02 1.000000000000000021e-02 1.000000000000000021e-02 1.000000000000000021e-02 1.000000000000000021e-02 1.000000000000000021e-02 1.000000000000000021e-02 1.000000000000000021e-02 1.000000000000000021e-02 1.000000000000000021e-02 1.000000000000000021e-02 1.000000000000000021e-02 1.000000000000000021e-02 1.000000000000000021e-02 1.000000000000000021e-02 1.000000000000000021e-02 1.000000000000000021e-02 1.000000000000000021e-02 1.000000000000000021e-02 1.000000000000000021e-02 1.000000000000000021e-02 1.000000000000000021e-02 1.000000000000000021e-02 1.000000000000000021e-02 1.000000000000000021e-02 1.000000000000000021e-02 1.000000000000000021e-02 1.000000000000000021e-02 1.000000000000000021e-02 1.000000000000000021e-02 1.000000000000000021e-02 1.000000000000000021e-02 1.000000000000000021e-02 1.000000000000000021e-02 1.000000000000000021e-02 1.000000000000000021e-02 1.000000000000000021e-02 1.000000000000000021e-02 1.000000000000000021e-02 1.000000000000000021e-02 1.000000000000000021e-02 1.000000000000000021e-02 1.000000000000000021e-02 1.000000000000000021e-02 1.000000000000000021e-02 1.000000000000000021e-02 1.000000000000000021e-02 1.000000000000000021e-02 1.000000000000000021e-02 1.000000000000000021e-02 1.000000000000000021e-02 1.000000000000000021e-02 1.000000000000000021e-02 1.000000000000000021e-02 1.000000000000000021e-02 1.000000000000000021e-02 1.000000000000000021e-02 1.000000000000000021e-02 1.000000000000000021e-02 1.000000000000000021e-02 1.000000000000000021e-02 1.000000000000000021e-02 1.000000000000000021e-02 1.000000000000000021e-02 1.000000000000000021e-02 1.000000000000000021e-02 1.000000000000000021e-02 1.000000000000000021e-02 1.000000000000000021e-02 1.000000000000000021e-02 1.000000000000000021e-02 1.000000000000000021e-02 1.000000000000000021e-02 1.000000000000000021e-02 1.000000000000000021e-02 1.000000000000000021e-02 1.000000000000000021e-02 1.000000000000000021e-02 1.000000000000000021e-02 1.000000000000000021e-02 1.000000000000000021e-02 1.000000000000000021e-02 1.000000000000000021e-02 1.000000000000000021e-02 1.000000000000000021e-02 1.000000000000000021e-02 1.000000000000000021e-02 1.000000000000000021e-02 1.000000000000000021e-02 1.000000000000000021e-02 1.000000000000000021e-02 1.000000000000000021e-02 1.000000000000000021e-02 1.000000000000000021e-02 1.000000000000000021e-02 1.000000000000000021e-02 1.000000000000000021e-02 1.000000000000000021e-02 1.000000000000000021e-02 1.000000000000000021e-02 1.000000000000000021e-02 1.000000000000000021e-02 1.000000000000000021e-02 1.000000000000000021e-02 1.000000000000000021e-02 1.000000000000000021e-02 1.000000000000000021e-02 1.000000000000000021e-02 1.000000000000000021e-02 1.000000000000000021e-02 1.000000000000000021e-02 1.000000000000000021e-02 1.000000000000000021e-02 1.000000000000000021e-02 1.000000000000000021e-02 1.000000000000000021e-02 1.000000000000000021e-02 1.000000000000000021e-02 1.000000000000000021e-02 1.000000000000000021e-02 1.000000000000000021e-02 1.000000000000000021e-02 1.000000000000000021e-02 1.000000000000000021e-02 1.000000000000000021e-02 1.000000000000000021e-02 1.000000000000000021e-02 1.000000000000000021e-02 1.000000000000000021e-02 1.000000000000000021e-02 1.000000000000000021e-02 1.000000000000000021e-02 1.000000000000000021e-02 1.000000000000000021e-02 1.000000000000000021e-02 1.000000000000000021e-02 1.000000000000000021e-02 1.000000000000000021e-02 1.000000000000000021e-02 1.000000000000000021e-02 1.000000000000000021e-02 1.000000000000000021e-02 1.000000000000000021e-02 1.000000000000000021e-02 1.000000000000000021e-02 1.000000000000000021e-02 1.000000000000000021e-02 1.000000000000000021e-02 1.000000000000000021e-02 1.000000000000000021e-02 1.000000000000000021e-02 1.000000000000000021e-02 1.000000000000000021e-02 1.000000000000000021e-02 1.000000000000000021e-02 1.000000000000000021e-02 1.000000000000000021e-02 1.000000000000000021e-02 1.000000000000000021e-02 1.000000000000000021e-02 1.000000000000000021e-02 1.000000000000000021e-02 1.000000000000000021e-02 1.000000000000000021e-02 1.000000000000000021e-02 1.000000000000000021e-02 1.000000000000000021e-02 1.000000000000000021e-02 1.000000000000000021e-02 1.000000000000000021e-02 1.000000000000000021e-02 1.000000000000000021e-02 1.000000000000000021e-02 1.000000000000000021e-02 1.000000000000000021e-02 1.000000000000000021e-02 1.000000000000000021e-02 1.000000000000000021e-02 1.000000000000000021e-02 1.000000000000000021e-02 1.000000000000000021e-02 1.000000000000000021e-02 1.000000000000000021e-02 1.000000000000000021e-02 1.000000000000000021e-02 1.000000000000000021e-02 1.000000000000000021e-02 1.000000000000000021e-02 1.000000000000000021e-02 1.000000000000000021e-02 1.000000000000000021e-02 1.000000000000000021e-02 1.000000000000000021e-02 1.000000000000000021e-02 1.000000000000000021e-02 1.000000000000000021e-02 1.000000000000000021e-02 1.000000000000000021e-02 1.000000000000000021e-02 1.000000000000000021e-02 1.000000000000000021e-02 1.000000000000000021e-02 1.000000000000000021e-02 1.000000000000000021e-02 1.000000000000000021e-02 1.000000000000000021e-02 1.000000000000000021e-02 1.000000000000000021e-02 1.000000000000000021e-02 1.000000000000000021e-02 1.000000000000000021e-02 1.000000000000000021e-02 1.000000000000000021e-02 1.000000000000000021e-02 1.000000000000000021e-02 1.000000000000000021e-02 1.000000000000000021e-02 1.000000000000000021e-02 1.000000000000000021e-02 1.000000000000000021e-02 1.000000000000000021e-02 1.000000000000000021e-02 1.000000000000000021e-02 1.000000000000000021e-02 1.000000000000000021e-02 1.000000000000000021e-02 1.000000000000000021e-02 1.000000000000000021e-02 1.000000000000000021e-02 1.000000000000000021e-02 1.000000000000000021e-02 1.000000000000000021e-02 1.000000000000000021e-02 1.000000000000000021e-02 1.000000000000000021e-02 1.000000000000000021e-02 1.000000000000000021e-02 1.000000000000000021e-02 1.000000000000000021e-02 1.000000000000000021e-02 1.000000000000000021e-02 1.000000000000000021e-02 1.000000000000000021e-02 1.000000000000000021e-02 1.000000000000000021e-02 1.000000000000000021e-02 1.000000000000000021e-02 1.000000000000000021e-02 1.000000000000000021e-02 1.000000000000000021e-02 1.000000000000000021e-02 1.000000000000000021e-02 1.000000000000000021e-02 1.000000000000000021e-02 1.000000000000000021e-02 1.000000000000000021e-02 1.000000000000000021e-02 1.000000000000000021e-02 1.000000000000000021e-02 1.000000000000000021e-02 1.000000000000000021e-02 1.000000000000000021e-02 1.000000000000000021e-02 1.000000000000000021e-02 1.000000000000000021e-02 1.000000000000000021e-02 1.000000000000000021e-02 1.000000000000000021e-02 1.000000000000000021e-02 1.000000000000000021e-02 1.000000000000000021e-02
-1.135422769044468936e+02 1.725249741254723688e+02 4.004458656977070063e+01 -9.003760058163667424e+00 -8.941890226962647148e+01 -1.362679966529376863e+01 -2.115181872103337071e+02 6.898226818837945862e-01 -8.622099184977516018e+01 -1.423509149967489051e+01 -2.017088014085346259e+01 6.617456922214311810e+00 -1.811851841772184057e+00 1.707291180662085708e+02 8.609721562660979544e+01 -3.944053833304108281e+01 -5.369327647125016512e+01 8.060565711031070180e+01 3.339265007666508467e+01 -2.580760176950901652e+01 -8.024054363673795365e+01 -7.511479053009385609e+01 -1.405522555877668189e+01 2.944062551051603194e+01 -1.983450746693875431e+02 -1.004769603663887523e+02 -2.654288186968702945e+01 2.051824441751320194e+02 7.200537441079376322e+01 7.804914545577643992e+01 8.169786638002388202e+01 1.207967462653420254e+00 -8.057999294663495959e+01 2.110426613300741678e+02 -2.491087759626798004e+02 5.983297788156443886e+01 -1.222850979344464832e+02 -3.528473837771304744e+01 4.102065241592412370e+00 1.289359823879989619e+02 -1.250711480362539731e+02 -1.390332665981044080e+01 7.873358234429120728e+01 1.766406608965745590e+02 7.262549483382041160e+01 -6.964459201156958557e+01 4.197589953606615154e+01 -2.887219237901152624e+01 -6.722732923404130645e+01 1.593520192104070645e+02 -7.184775755705801714e+01 -5.304395395402942626e+01 -1.417462566073390633e+02 5.819914399248261816e+00 -5.143923392943893447e+01 3.934090486671612297e+01 -9.029006864449608827e+01 -5.095103149789770214e+01 -1.031981415659044643e+02 -1.581839278534241373e+02 1.981966560077113471e+01 4.613467127488057429e+01 -1.252960950548148134e+02 1.308957098018389509e+01 -8.071582341430564611e+01 4.998607503493298054e+01 1.695478290432276367e+02 -1.468089333254018811e+02 -4.408808518392888942e+01 7.309578740130508123e+00 2.975752346728128828e+00 4.312741042645504308e+01 8.547338954346460582e+01 9.335244377789190251e-01 -8.939066991580526533e+00 -7.128168674161372564e+01 7.966063955923493722e+01 -3.337464830018895157e+01 2.675393292122868161e+01 1.058567848978375565e+02 8.980937391591466223e+01 -4.350670776773738879e+01 5.885578918500841894e+01 1.500638169527959178e+02 1.182710229155554771e+02 -4.109267055295430460e+00 1.773234244748892934e+02 -1.134957935387848522e+02 4.290981236208571303e+00 -4.268486656008350622e+01 2.105326743158714748e+02 -2.160124799999547918e+01 2.923529560888545653e+00 -7.815120593841966468e+01 -7.256390656052803756e+00 -6.499862839277774640e+01 6.897097143000738129e+01 -9.623066840227029672e+01 6.976518496685795867e+01 -4.858816451534805481e+01 -5.065822237349527768e+01 -9.329061587734391026e+01 5.405440284391809769e+01 -5.571066838648758335e+01 -1.520015981981751452e+02 -8.089833464563359655e+01 -1.064882794341913268e+02 -1.600397649427548288e+02 1.383787726754437699e+02 -2.801129626415838203e+01 3.259616534152900869e+01 9.127077072123709911e+01 -1.059487625869969349e+02 5.799839761002758820e+01 -4.409838390863139068e+01 -7.053849637360723079e+01 -9.167360329439675581e+01 2.069380295471163151e+02 -5.776033083779212518e+01 -5.036423334515583150e+01 -4.807813821035534829e+01 8.184409563500749130e+01 -4.214241890435884841e+01 1.404704704596625220e+02 -5.074240953589050918e+01 5.606095968817157882e+01 4.623158915708246219e+00 -8.261574038556938149e+01 7.006552330300601739e+01 2.823464047113112656e+02 -9.365444509030348286e+01 4.835478363867897400e+01 -7.758819687848816216e+01 4.604674258883386528e+01 1.335464510566282570e+02 -5.228703515987859163e+01 1.484242003624910744e+01 -2.740201332514483923e+01 -1.037722339594940735e+02 -1.758726900305560648e+01 4.341308724964522803e+00 -7.966710424974476901e+00 -1.523067937329904176e+01 1.204025228393570899e+02 1.327086284860024818e+02 1.898466534504770209e+02 -3.098626654380935292e+02 3.891608908670445288e+01 -1.603267673782781344e+01 -6.350436145240573182e+01 1.836655111864041601e+02 7.764196230651485564e+01 -2.615569769503857334e+00 -1.181316534386306643e+02 -1.111588224363438471e+01 1.019621728280519335e+02 -1.369359038533727926e+02 -1.718173720631060348e+02 1.093818254081394592e+01 4.324482011956398964e+01 -6.217238747297812296e+01 4.283632376504987604e+01 -1.091363991402390923e+02 -1.542407266962270569e+02 2.152911681454392578e+01 4.952257356850972059e+01 4.890575572268299531e+00 -8.513498568936239508e+01 -9.543302958129426372e+01 -8.600334204605196931e+01 -8.928287290245491192e+01 1.287144007584381988e+01 5.798441538726746813e+01 1.188522375581307529e+02 8.105541346167245820e+01 9.133360216746775961e+01 1.096504323188536318e+02 -7.634911629898100216e+01 -8.424242511047641813e+01 7.200311380036019671e+01 6.989018501276871120e+01 6.049500540375098723e+01 -9.597114470013103471e+00 -9.305128906908188924e+01 5.515968617773135207e+01 -1.828924424311340147e+02 6.864234737983674961e+01 -4.555117989886108631e+01 -9.862537878866841368e+01 7.589314218199567108e+01 -1.751775660651372846e+01 -7.892870169868052699e+01 -5.881958371695841947e+01 -9.356345052082913227e+00 2.484230788585236667e+02 7.864864691380701345e+01 5.615589491258929655e+01 -1.064402514678641438e+02 1.518988924065945980e+02 1.062638067818955978e+00 -9.265134955262118410e+01 1.597115082454401715e+02 -1.580577374243834754e+02 1.617667524518913424e+01 -3.339444092662539987e+01 -2.278993244757623700e+02 -1.383749125822578776e+02 -9.048338854581619728e+01 -3.035529977942647761e+01 -1.236831452459685323e+02 5.981016627205477931e+01 6.739588514716302825e+01 -2.858662523860866855e+01 -1.034154001480156921e+02 1.173019749889074177e+02 1.226268598969802071e+02 4.793933723981430717e+01 1.810591007983744660e+01 2.711413616790031824e+02 4.531747367436492624e+01 -1.239004475697718277e+02 -4.674252777988274232e+01 -1.752596000614032050e+02 3.307857999898718049e+01 1.591610297127600404e+02 -1.540593976930267672e+02 1.367660746207827174e+02 -9.444625041198543158e+01 -1.961860234799178926e+01 -7.684034218944972849e-01 5.488759385758219622e+01 -1.205650682636902182e+01 -2.366240980244944936e+01 -1.965867042420719812e+01 -1.315751476531112587e+02 4.822918220315264648e+01 -3.154533562234809096e+01 -1.349797411779797862e+01 -1.112850807393498265e+01 2.347624709063713624e+02 1.809821179701453104e+02 2.417061819008516181e+02 1.369483672499457327e+02 -8.995713994985490558e+01 7.814536295549264366e+01 2.193497860948458822e+01 4.947324936700967157e+01 -4.130124692429900790e+01 2.654581956310404962e+02 -2.420887101958814469e+01 -1.421089753268291815e+02 -1.554934674488128366e+01 -4.762821884518981363e+01 -8.046526299105164526e+01 4.486659945867795329e+01 -1.217662629907495386e+01 1.891141128354979628e+02 9.608661982921570655e+01 4.251037028891695968e+01 1.019353891876957334e+02 9.822691728867935979e+01 -2.390334935345907397e+01 1.451948549020674477e+02 2.753422517381125800e+01 9.313625726126501547e+01 4.954490558942380574e+01 7.214501730335113550e+00 -1.203954798895197058e+02 -1.204510942848930171e+02 -9.360892463791334706e+01 -1.619881078611365766e+01 9.014758662958315938e+01 -3.189450404637696934e+01 1.028490799419833763e+02 4.555686712254524906e+01 -7.563591585535239403e+01 -3.117226230533103148e+01 -6.094570954415370068e+01 1.826487641960020625e+01 -4.819649416164349987e+01 -1.165323849794791755e+02 1.264093991427683221e+02 1.261922802089621598e+02 -8.210246731756203076e+01 5.681076724323379068e+00 -4.712121896966159795e+01 -3.392953812549329484e+01 -1.179674973766183044e+01 -3.246521313187304969e+01 4.621898709071795253e+01 -1.461343097056203248e+02 -5.493870806137121576e+01 -1.579435878453516295e+02 1.810433582785910573e+02 -2.104804976712194531e+01 6.128761816242391802e+01 1.240619970050241072e+01 1.500925787698592728e+02 4.641182779074036802e+01 3.714630285208099991e+01 1.603790931030318063e+02 -5.118724722308939334e+01 -1.013821892165949379e+02 2.820913876213196403e+01 -1.641304084329947841e+02 -5.545908616660241108e+01 1.062328713722455973e+02 -1.326507410371010849e+02 -3.776384146677452236e+01 9.479912978469316442e+01 -9.812021959966750728e+01 -9.293668562902722385e+01 -8.581294085975217456e+01 -6.627784336634363171e+01 2.585114854634232415e+02 2.057178228597228440e+02 1.069195848080116775e+02 -1.060698280865408520e+02 7.769354217974580479e+01 -6.861248876499959692e+01 -3.238622938408602892e+01 1.722139112555181484e+01 -3.338006118889195761e+01 -9.724200834246678937e+01 -2.811193619717187175e+00 1.535032322022527218e+01 1.127588007691604162e+02 -1.331743114744946581e+02 4.339543986752362770e+01 6.605990185399571146e+01 3.580274407696200711e+01 -9.385827513392985111e+01 -1.537947409408761814e+02 2.000907464652605938e+02 -1.844928380472605056e+01 2.608056165820330463e+01 1.620155050267165109e+02 2.760415101521247294e+01 2.871543279614262900e+01 -4.607617148867370815e+01 9.165643206775179408e+01 -1.410551976682410213e+02 -3.187112202668370031e+01 -6.344731083315566345e+00 -5.524920343205467077e+01 6.385502504059256346e+00 2.203872295077719556e+01 -3.700499710270171505e+01 1.413004701508791072e+01 2.209413544217740650e+02 -2.831018132230974516e+01 -2.890361581696854287e+01 -1.050759621377735158e+02 -1.711988473465680727e+00 -8.346529109559109827e+01 6.624547128673010654e+00 1.158087779224472342e+02 -5.376797151501512673e+01 6.252951422042555940e+00 -5.613534101165898704e+01 3.446880530269517795e+00 9.011080265670177880e+01 -1.197016138265674812e+02 -1.000120353141915785e+02 -1.059467179894460429e+02 7.376234594950878432e+01 8.942375417862379550e+01 -9.536119106131089040e+01 6.466401743645674571e+01 2.666141290475323444e+01 3.996307407952217261e+01 -1.834425177221645953e+01 9.434132842149324460e+01 8.236266338438778689e+01 -7.982635649420828372e+01 1.225374749191524693e+01 8.356251481145368132e+01 7.526037779508112635e+01 -2.052870045491069106e+01 2.580891763297833563e+01 -1.369353087130567417e+02 5.009934111914176924e+01 -3.383902398373474796e+01 -3.371070408650384564e+01 1.788569962312699033e+02 4.899779418456378011e+01 1.241561956328751251e+02 1.971884845621769955e+02 -1.422035350133469933e+02 1.539334770628617548e+02 -6.544818639875585120e+01 -1.395447623539749600e+02 8.501377173782236696e+01 -1.384692414063804620e+02 -2.963959178867465738e+01 5.826864271638946491e+01 8.358122291493577549e+00 -1.735848582353290794e+02 8.696645637095060977e+01 2.603376121656991415e+01 7.135686398439123934e+01 3.745222796044156865e+01 9.787122066260971920e+00 -6.931022609039654014e+01 1.195247048552626836e+02 5.626258344220072161e+01 -6.415547526869990236e+01 -1.045421502319339311e+02 4.023000718017910771e+01 2.649270401394084473e+01 8.506635922987884157e+01 1.897099468971447607e+02 -2.544628696379322008e+01 -1.137307909354650519e+02 -8.751473571397333728e+01 -5.299454949419087058e+01 -4.584090132855305200e+01 -1.515178604153379069e+02 -2.322591128249264969e+01 1.336935539276325926e+02 7.697536826256008169e+01 -1.263533823856152054e+02 -1.546870381240658503e+02 -7.032935088275510793e+01 -7.886656180555110041e+01 1.514969181208960265e+02 -1.759872574551882849e+02 8.933055429246701351e+01 -4.757943359966385621e+00 -4.441250848448194688e+01 1.374304820848290554e+01 9.414392812159665880e+01 5.121864656921972880e+01 1.426853639645393059e+02 -1.642817466093849816e+02 -8.359393769877974023e+01 2.614622858434673347e+01 4.329606833167736113e+01 2.128299290589218629e+02 1.501483095801057175e+02 6.763287009153586382e+01 7.443676432731425052e+01 -3.535385573078102084e+01 1.567485286179407922e+02 -1.851021208499720387e+02 -6.543431390544579074e+01 -5.542233828522459049e+01 -5.346676166082259840e+01 -1.066323494461071562e+02 -1.546252083128809218e+01 -7.086214894664253450e+01 7.348679777369876831e+01 -9.464161476573909937e+00 -5.999174507289526304e+01 -6.433643193672280347e+01 1.860001290104912357e+02 6.087641286305613164e+01 -1.413278898281485496e+01 2.155944475114489762e+02 -1.117998700308692150e+02 -3.647726313168172396e+01 6.910589601580316810e+01 -1.313520243763629247e-01 1.540658933315928714e+01 -1.290510930210066931e+02 1.818266470360169365e+02 -5.057684221392020874e+01 -2.782259211907625485e+01 -1.132057125874241024e+02 1.298477477511632969e+02 9.894576519977408680e+01 -7.998259306744132857e+01 -3.873176179025576005e+01 4.015726161741758204e+01 -1.561649750796042895e+02 -1.357182990430285119e-01 -7.703991895236825371e+01 7.952913991335853083e+00 -1.115018721833668849e+02 -1.634652888465330705e+02 -7.286600548289199253e+01 1.527433269029206144e+02 5.834584170492729527e+01 -9.236292216805286159e+01 9.192992787043168335e+01 3.530068881305055584e+01 9.097931312644955426e+01 -4.339465655379178344e+01 -8.665600285248363832e+01 1.761842974315020172e+02 4.292798027876329314e+01 2.982917126811628350e+01 -7.520637593080095940e+01 -4.357296216969582758e+01 9.855714633715741968e+00 -7.367160510831872955e+00 -1.779431675666410513e+02 -3.562011191791027898e+01 6.632193246631375416e+01 1.149068509464831180e+02 1.602526506687541428e+02 -1.364916345844623358e+01 9.221986043685922141e+01 1.622629772824823249e+02 6.525555980183291638e+01 1.520482917128725546e+02 1.652011651699950434e+01 1.350220948568639301e+02 -8.630845653850192889e+01 5.487307516941328345e+01 3.017151690664989161e+01 7.797392429561806182e+01 -1.091229306206022471e+02 2.034082518369449417e+02 -1.323060757303091748e+02 9.066314253034512660e+01 -1.103313461367176842e+02 4.735729241653361754e+01 1.415988853227060318e+01 9.310090893267205558e+01 -7.560932052783039126e+01 -7.747310213235509480e+01 -1.146394851169529794e+01 9.137812499009933731e+01 -3.033789115695299898e+01 -1.672886447913010244e+01 -2.012807825793312588e+01 4.856609275797915792e+00 1.005752428357663746e+02 -6.411243860207149226e+01 -2.784487824298266467e+00 -1.983262865171898000e+02 1.246418441721729238e+02 -1.275899581533406888e+02 -7.549579507357871933e+01 -2.406268151323693516e+01 -1.102652098146387232e+02 -5.431976002212911681e+01 -5.983107309931724416e+01 -2.008727828407572957e+01 1.392252446056178030e+02 5.522813488709775953e+01 1.026095279360762760e+02 -1.390333173128439626e+02 -1.415769862730728903e+02 -2.926876500630805822e+02 1.043396756232453129e+02 1.065387429030203919e+02 4.317797343799189491e+01 -4.332190485423160453e+01 -3.803562494673423089e+01 -1.875973980250660134e+02 1.493129604950241003e+02 -1.097518376193480520e+02 1.092784229580573054e+02 -1.626902978144291865e+02 -1.461563876306108867e+01 -5.657887169170245301e+01 -1.218395933265153559e+02 -4.709726341072911993e+01 -1.274808551956622971e+01 -9.467066360840412642e+01 -1.057697267443850961e+02 -1.262217586789639334e+01 7.276513737904041079e+01 -1.273695188253072104e+02 -1.601825944667224633e+01 -7.537921952746111742e+01 -1.343077639876628382e+02 6.838515506331920513e+00 9.730055731144847186e+01 1.691618795683200176e+02 -1.950032192013236454e+01 -4.708335563120476763e+01 -1.268971924591373863e+02 -1.672114578400343703e+02 1.060797179085064528e+02 -7.438023061398314439e+01 8.080435381342736889e+01 9.617891975028754814e+00 2.992207998031943106e+01 7.552597874988450144e+01 -8.664082922120523733e+01 8.453884132161208242e+01 1.178945889580037800e+02 1.609949521451124212e+02 -1.192669246652610866e+02 1.063141796387613596e+02 -4.884960978574575563e+01 -9.287288810094320013e+01 2.194675065005001215e+02 5.039711211568771887e+01 8.538105285674816969e+01 2.179506045993091590e+01 -6.461090325436852311e+01 -3.574015355253370529e+01 -2.151978761333172656e+02 1.080517125555386002e+02 8.338635999969766033e+01 -7.744085370432308935e+01 -7.484721973012628382e+01 1.485361247838926317e+02 1.033892751382672088e+02 5.228653879230387957e+01 7.784018942774658001e+01 -8.093151723195669334e+00 1.055740788578550422e+02 -1.059044595171918388e+02 1.907136788275010133e+02 -4.039160850007217363e+01 -1.247926554320892762e+02 -3.852060524574185507e+01 7.340019866042108276e+01 1.507432448585112468e+02 1.324036526666059999e+01 1.778309269020472243e+02 5.341704773866798917e+01 3.438451494123671637e+01 -1.138938239547809985e+02 4.585755121373678378e+01 -1.279400507482530429e+02 4.878634503438352255e+01 3.955158517193400058e+01 -1.261790315266859608e+02 -8.699851154521022067e+01 4.074795581995367399e+01 8.928040879104472083e+00 -2.378132525684324605e+01 4.281219421440484751e+01 -2.189213853149271216e+01 -6.455200444549524263e+01 -2.672637484721643730e+01 -2.298700818674572588e+01 -4.075358162178203969e+01 1.921829300171732413e+01 -8.234271863570062067e+01 1.217059826773100184e+02 -7.606272595696398753e+01 -4.407427454497795161e+00 6.700889169557449065e+01 3.996145198628860307e+00 1.630655918837778273e+01 1.632198632654836246e+01 -1.198523312190137915e+02 -4.524512349279432577e+00 6.655900935918296568e+01 -2.367898484376722479e+02 -8.680069775747141136e+01 -1.153387874915290752e+02 4.479752898150088214e+01 9.844782488867393511e+01 -9.385925526570625266e+01 -1.717627108598623806e+02 -1.893953590978550494e+02 2.043856005115148378e+01 -1.482729865406593888e+02 -6.460263951968623353e+00 1.509255697511363792e+02 -7.279648882841693869e+00 3.797291690915578499e+01 -1.010749570218173119e+02 8.152152321332332008e+01 -1.209941688096985217e+02 -1.571153766799121598e+01 -3.092677362571724231e+01 5.869360877790384023e+01 -9.065378252020758865e+00 1.076975263330330534e+02 -1.243298933827119299e+02 -5.100356852661910523e+01 8.808802862884006402e+01 6.733026962157416051e+01 -8.381836774139645740e+01 -5.533611437147645518e+01 -5.019230664405218079e+01 -2.942278361421739419e+02 1.967358191777765342e+02 7.737172410510785880e+01 -2.399306046009139592e+01 -3.013478964800733095e+01 4.218506251715343325e+01 -8.548825007772433082e+01 1.010810980753039843e+02 6.135665718346248099e+01 8.327048356086127967e+01 -8.534030225833100758e+01 -2.697813755408549952e+01 3.384448578257743634e+01 1.763218881373155966e+01 -4.341463727782945625e+01 1.601124828069271473e+02 -1.754002463541516832e+01 3.586768256662256960e+01 -2.329555496474895051e+02 -8.585339896567094797e+01 -7.416340196397158024e+01 2.332438251340002466e+01 1.106519657921337085e+02 -2.347340630406543198e+02 -1.895129820688383120e+02 2.246183938658520276e+02 -1.071097264054086828e+01 9.735135820818467778e+01 6.356867786387853414e+01 -5.610923021384301279e+01 -1.327313270569681265e+02 -9.641686333367707107e+01 -5.092977920680630888e+01 -3.793970889050500972e+01 -3.966946566635757421e+01 1.639659763653107305e+01 3.761485772751245094e+01 1.689939303751554860e+02 1.248023427848047930e+02 7.005217389433908259e+00 -4.436612646346922872e+00 -1.608975113615841792e+02 1.212204664951188846e+02 1.614236139814605622e+02 -1.047601369095731485e+02 7.470317507238095800e+01 1.813273481703481682e+00 5.560026692786702540e+01 1.271023775384013419e+02 7.187443644069108473e+01 -1.357804529888576610e+02 1.636890955226900246e+01 -2.977301693492356449e+01 1.128557139701817391e+01 -2.349422698595714110e+01 4.596798668267808807e+01 -2.640211857832387636e+02 1.836859366689651267e+02 7.427444956470747428e+00 1.616497778165559964e+02 -1.072061968913997099e+01 1.077069288717394926e+02 7.266368263875851596e+01 -4.262857173503181230e+01 3.032228750928978656e+01 -7.385799701877694190e+01 -9.028929742278340598e+01 -7.317557954094742456e+01 -3.253415321127587134e+01 4.588217035816051492e+01 1.118891524561411899e+02 2.895212834961171566e+01 6.305669736356774990e+01 -1.064760695893344291e+02 -1.393282169473184808e+02 -1.370110735733624807e+01 4.716113708783557001e+01 -4.627498794425893891e+01 9.606713736980540830e+01 5.641995421317821524e+01 -2.811141482758652188e+01 3.045013339562788346e+01 6.238144115312743310e+01 -7.332679951345180314e+01 -1.359665409109313714e+02 1.444919563723057934e+02 7.949352025143890721e+00 5.100613829581801184e+01 -1.518678395045967875e+02 -5.433685664927593706e+01 -4.794547189950694177e-01 -6.686555753128237711e+01 4.352139975477128608e+00 5.729046547736499662e+01 1.898153077678445868e+02 3.983854211973091708e+01 -1.116759582890789737e+01 7.352383176675139964e+01 -4.633995155033979074e+01 -1.110311631066785196e+02 -1.408272875369480914e+02 9.556827671486525233e+00 2.559736802443257631e+01 2.424576198888255263e+01 -5.798990044402615496e+01 1.232178877830914274e+02 -8.245022123284998372e+01 1.308990943684817410e+02 8.906268348701985360e+01 -6.636533241452784182e+01 -8.640113522338776875e+01 8.591969699412368300e+01 2.091959540068515366e+01 -5.357076503803855871e+01 -5.497893690708135495e+01 1.395339716607022353e+02 5.850649987888302661e+01 8.157127258461326846e+01 2.670574126846132756e+01 -4.299905360913901831e+01 1.098115412585914612e+02 -5.575300589558731446e+01 5.383111404763759600e-01 7.827200628181822140e+01 1.017898341030225708e+02 2.611540171399560109e+02 -1.790676686609131707e+02 1.645913261850682545e+02 -6.915163892380228106e+01 -1.557078792532591471e+01 -2.561407520988833753e+01 -2.121557627147906189e+01 -5.648374849602649306e+01 9.511223541735704146e+01 1.884833630049404007e+02 -1.216812708502420008e+02 3.168661071413680475e+01 -1.300382262601591492e+02 7.194279664761369020e+01 -4.563140752298541258e+01 -8.304023997302998339e+01 -5.526600301746240973e+01 4.224398907327260133e+01 1.990963090395645096e+01 -8.398762167041915916e+01 -1.448799829262929393e+02 2.134258704752540581e+01 1.619642636430113498e+02 1.468313450389352681e+01 1.876132533576759158e+02 7.679944145521182541e+00 1.384627984357707930e+02 -3.560048008334476322e+01 9.333816313090110839e+01 -7.354189999269733846e+01 -1.162496253095587093e+02 5.090934575770528170e+01 -5.976954667954388611e+01 -8.089406356237843454e+01 7.514897146900183600e+01 6.631966050265930335e+00 -9.723775491065440235e+01 -1.552489606280065289e+02 1.525589415848007775e+02 -9.201292520551844234e+01 -2.407490863541279946e+00 1.239508146193005587e+02 5.993257168034683247e+01 -1.014079653292999978e+02 1.095982213283459217e+01 2.913923253738607286e+02 5.511571393317504430e+01 -1.630558049111919843e+02 -4.932410484809688000e+01 -6.363926163000440539e+01 9.968772308956459938e+00 1.112659086964149964e+02 -1.070446322088870943e+02 2.230409341996680084e+01 1.350682482190507301e+02 1.943962429623419297e+01 -2.187007327901959570e+02 5.007481073427551621e+01 7.815420467614961808e+01 -1.405061356716479892e+01 3.397525870991396602e+01 1.289648544332475388e-01 2.327975774012864107e+01 2.872560851795385162e+01 1.199409952379275950e+02 1.015036716044478879e+02 1.607307515245129892e+01 1.543553955223452476e+02 -6.631060343564517723e+01 2.554707974987800299e+02 6.734929345979574578e+01 1.467561787287563106e+02 -2.276693990405302159e+01 9.329286315379381733e+01 -5.083503191663396592e+01 -1.516467356991355473e+02 2.714734022263610669e+01 9.854201492469081813e+01 -9.079606304439396069e+01 -1.085266251721625537e+02 -6.894605408931350610e+01 3.790748263171527555e+01 -1.183938860246776557e+02 7.745278449387737396e+01 2.910612210566690905e+01 -1.011600433155090712e+02 1.968628251074924265e+02 -1.219256897111004179e+01 -1.054395840339480372e+02 -1.385454308169101623e+01 -2.117889497835673041e+01 -1.453484399528663005e+02 -4.150325624380315048e+01 6.374074212749022905e+01 1.365695835079359597e+02 3.006682001459207498e+01 2.775304949833711632e+01 4.642559042094257649e+01 -3.707873639031127055e+01 -1.508974970076196200e+02 1.641593902619715450e+01 3.214260102471669711e+01 1.379487203031288800e+02 -1.032145694154685067e+01 -7.893508352506964343e+01 7.589244785002458116e+01 1.042390960573925218e+00 3.314555086197960065e+01 1.444144960866926510e+02 -1.840771877286921949e+02 -9.625208374639093734e+01 1.293020691211747817e+02 -2.173281463943472147e+02 -1.852636846217414188e+02 9.164269705504167973e+01 1.551279121975964301e+02 6.383328024929465982e+01 -4.470993216548333038e+00 1.569393085745756764e+02 -2.210816101732083894e+02 1.079446135958465902e+02 4.269413581082907427e+01 1.280143179939545064e+02 -1.899793096224959186e+02 1.073828794264846778e+02 -2.851077484410152607e+01 -1.346866467451235962e+02 -5.367265984551448987e+00 -9.309347590868871691e+01 -1.646454469359003525e+01 -4.293583448635149402e+00 -1.240963788191558166e+02 -1.242248000030824784e+02 -6.304050687338617109e+01 -1.298833892888717116e+02 2.024829527505465592e+02 -1.621764372144820641e+02 -5.053140218635241609e+01 1.738029783905215027e+02 3.417216648159953252e+01 -2.981542388930841412e+02 -1.279973685562708283e+02 3.579319355951240311e+01 5.504087957842889267e+01 8.687761019919451044e+00 -1.557806753298413867e+02 3.595051746014442529e+01 7.508211200717292755e+00 -7.487246882411093907e+01 2.041868557692768889e+02 2.040958669163956642e+02 4.356200953907884532e+00 -2.100491641211237663e+02 1.269205610312078534e+02 3.100589881214891719e+01 3.760198376268311993e+00 7.720850321993243881e+01 -2.089785263758692793e+02 -1.390572406510196686e+02 1.420889403115906191e+02 1.104401340760799286e+02 5.333173729040143485e+01 1.442963920753549303e+02 -1.795673719007607474e+02 -2.057145339259509953e+01 -1.314000151262374629e+02 4.387915178182007025e+01 -1.046195747850691475e+02 8.767232582038263899e+01 -3.410824190739089090e+01 1.247157426788519530e+01 1.787177826446365998e+02 2.868247718158233894e+01 -2.654905637480773066e+02 -1.272664435011087960e+02 -8.396709409200778396e+01 1.592558691059184071e+02 1.262409274720447883e+01 -5.418060514755741508e+01 3.062628309332693988e+01 6.298670797420957257e+01 -3.988391795005036045e+01 1.082982594344635032e+02 -1.014652745121398567e+02 4.957081777324145122e+01 1.127393502772367953e+02 -3.567544284159957613e+01 -9.883645442304239737e+01 -1.142231550253803931e+02 1.206281038677985862e+02 -5.001109189033579838e+01 1.979802565512256365e+02 5.762014472250603347e+01 1.117674636782728470e+02 1.857176932168308667e+02 8.625800599461680207e+00 -1.251662831646630849e+02 -1.669858923287126515e+02 -1.150301152138470968e+02 4.276818823342744480e+01
-1.341313854841768460e+01 -4.725914655634916528e+00 1.019051948150786728e+02 -2.253206028023920169e+02 1.529101491279234040e+02 6.251076845968911755e+01 1.496795789337616611e+02 -1.270669130532640025e+02 -2.744731146228152951e+00 -2.369294096066384014e+01 -2.159323378595873351e+02 3.221928778527404091e+01 -1.803232472504089401e+01 1.203141486507554134e+02 -1.230214923853232278e+02 6.070989229029457590e+01 1.232882556566767960e+02 -4.519579553834874730e+01 -4.888125076394684498e+01 -2.663346220618099380e+01 6.069469943818158697e+01 6.210900031261800791e+01 3.188421237201443859e+01 -2.287729491886772735e+02 -5.080734227821091764e+01 8.999571178536520222e+01 9.739623642068485410e+00 -1.017560107979765327e+01 -6.546113393753930154e+01 -1.519469973096800075e+01 7.214892564049928581e+01 -1.430489011773453853e+02 -6.088734415652387355e+01 8.855366886833355267e+00 2.041200276326333096e+02 2.085896684993415136e+02 -3.153054167301309008e+01 5.497893026406566719e+01 -2.759390551987239149e-01 -1.373987831008599585e+02 9.442804068392170791e+01 1.055051424142706082e+02 1.067579709779541020e+02 1.150778660004378651e+01 6.089620484377803677e+01 4.734475691009176757e+01 3.825628769223611414e+01 2.883830928606932531e+01 1.084968144815636606e+02 8.826695469199871980e+01 6.454428554878613511e+01 1.603186934404772614e+02 2.436060828887608238e+02 1.923814988715661229e+02 -5.816288628717847331e+01 4.846292651825165620e+01 -6.325405683641442067e+01 5.550781878719449480e+01 -1.890044529569760243e+02 5.558150645496996844e+01 -2.014494948178793550e+02 -1.659601971285889874e+02 1.272918755958757231e+01 -9.080841691584181419e+00 1.667860484378375929e+02 -2.045354787063484139e+02 7.406326064143506471e+01 2.260611410848686944e+02 -7.195972691369407315e+00 -1.915278488692492260e+02 3.502290057276578494e+01 1.940314080755146335e+02 -6.010828736797397909e+01 -2.621492847500745142e+02 -1.009059670214857647e+02 8.677718694668497434e+00 -2.263845021861937425e+02 3.149186942195224859e+01 -1.765888453685672062e+02 -1.826450487501119255e+02 -5.618478953206867743e+01 1.500923286986361518e+02 6.843181523308696512e+01 1.043588956564125958e+01 -8.723811410122181087e+01 -4.195050141002105448e+01 6.278028860211873763e+01 -2.285305946455663957e+02 5.328667389830332723e+01 -7.389581997934760693e+01 -7.691876601512811362e+01 -1.741483800446447674e+02 6.412849707571501767e+01 9.139003368656977955e+01 -1.599312992287761688e+02 1.702081324725886873e+02 -3.932063858105215814e+01 -1.666763830688056203e+01 8.626868336460124453e+01 1.540258337220019769e+02 2.135832961768250726e+01 1.492474358777408554e+02 -1.819069715143384514e+01 -8.940141268326041768e+01 -1.934011229467708759e+01 9.964098241489723762e+01 4.557091875001813719e+01 9.913052815614135227e+01 9.566590988418604979e+01 -8.415130736740987061e+01 -1.721868195782673183e+02 1.247091679886628555e+02 5.498756268484045506e+01 1.636548326372514239e+01 3.099424691728317427e+01 -6.884467530255372480e+01 9.734425660330786911e+01 9.105315348573537904e+01 -1.384792032103584702e+01 -7.221308783264971964e+01 3.120551585399128314e+01 6.357795347182707779e+00 -6.239881452558920216e+01 1.718936999775185086e+02 -3.346673019105567448e+01 1.233192020162591120e+02 -7.111121417842221604e+01 3.893121945424945096e+01 -3.664157982636705668e+01 9.074048032228657235e+01 2.382909935826841874e+01 1.172516623147195816e+02 -1.176787293918084885e+02 7.543432580652677188e+01 1.253191602457066409e+02 -4.538702940858824775e+01 7.685388406299916042e+00 -1.283486902794789053e+01 1.185220107420750537e+02 3.576207934914215070e+00 1.712623199584445217e+02 -1.435809146421081550e+02 1.184927305837322677e+02 -9.277780422169458063e+01 9.724184968841720433e+01 -1.392089176841857068e+02 2.999199202060354352e+01 2.513088700147791243e+01 1.855676657680233710e+00 3.689678516293158594e+01 4.662737532557916609e+01 -1.264311615023688873e+01 1.095862251798799214e+01 1.098580879572268145e+02 1.293654014056830306e+02 -8.809703817382536783e+01 -5.513470993304604661e+01 4.816812157833020791e+01 1.572969426346866317e+00 -1.392520526639828802e+02 -5.600880565740905581e+01 -3.607641502966688307e+01 4.976443197695390808e+01 -6.670077232145864343e+01 2.333401910676989743e+01 1.631654926497658664e+02 -8.087599572819478055e+01 8.221044991949696623e+01 8.560352590614718338e+01 1.141753307917520210e+01 1.256717037795193193e+02 6.403757956895547920e+01 1.711523885939300555e+02 -3.517720740603505902e+01 1.145880087087048906e+02 5.659069416155099930e+01 -1.638916607229091227e+01 2.080591532140933566e+02 -1.415158282649200601e+02 4.983487790911072324e+01 -1.912835739472987768e+02 -8.586824639859788988e+01 4.184353684888110081e+01 -7.366851123738771889e+01 -1.590401352560475061e+02 2.034236547260568670e+02 -8.755996980463424961e+01 -4.847945807074466984e+01 -4.725217378787104394e+01 1.243053553727847884e+02 1.988967843929751211e+02 6.612897027289844232e+01 1.493581709793517405e+02 2.241218861056370315e+02 -1.668658534978263885e+00 1.664062556641982269e+02 7.241091140969197681e+01 1.944793720880120702e+02 -1.284677504560258683e+02 -1.213590997971684260e+01 6.467082645348111392e+00 1.940452329401295799e+02 -9.286856560885051692e+01 -6.175174751748637902e+01 -5.409628778649457814e+01 -1.368197890829971470e+02 4.761172297560062106e+00 -1.031158603871897270e+02 1.574017791320479489e+02 2.408583097338090084e+01 1.227585316438570473e+01 7.386797315815175580e+01 -5.051776565957269760e+00 1.194535447254754530e+02 -1.622572740826737743e+02 4.637486321836242098e+01 -1.745520972165550972e+02 1.199554565657978458e+02 9.806954961126996295e+01 -6.877702408346110019e+01 4.776011549821365065e+01 2.432677814705559172e+02 -3.110458056107618674e+01 4.256110539001677040e+01 -3.337372428825059245e+01 5.918246379003966240e+01 6.568128264238949043e+01 -6.402148249777947164e+00 1.041300468128618775e+02 1.037155231210303441e+02 -1.980407913727042342e+02 -1.565329480568269958e+02 -1.223712991198000708e+02 -9.664491980096737933e+00 -1.530112991978943739e+02 1.180167144572330784e+02 1.127232568238893577e+02 6.022066458783842080e+01 1.139742298097832851e+01 1.610541383340468258e+02 8.575087265606175890e+01 6.892469178021379150e+01 -1.038143152945206253e+02 1.555504751250086315e+02 -3.643155683048229676e+00 1.116305025800342747e+02 8.999917944862685815e+00 3.752204682833752969e+01 -7.731106124853084793e+01 -9.266778768778750930e+01 7.308055973523094906e+01 -3.903669005180769425e+00 1.493217197341162148e+02 -1.284249446173987508e+01 -2.920701722743647366e+00 4.680129474649312016e+01 2.311476642585026653e+01 1.443142833493030253e+02 1.491431190432830434e+01 3.656425463575726553e+01 -1.578478735502311849e+02 6.718599500019647053e+01 1.363434897882211203e+02 -1.804895087036733869e+01 -2.325081615738729965e+02 8.605429495095691550e+01 1.386806211266959110e+02 2.066620955347032762e+01 1.923065655334327175e+02 -4.196574831396254979e+00 4.363093301465186613e+01 -4.429382549371877076e+01 -1.409055654312776937e+02 5.686197635607206280e+01 -4.819806985230014362e+01 -8.231026201472994330e+01 4.182570291686698738e+01 -1.875245378788306141e+02 7.278556534442114412e+01 1.667114188909649499e+02 -1.026587357024074407e+02 1.753533894528181918e+02 -9.902240174949488960e+01 -6.072916808049805049e+00 -1.065161611723882729e+01 7.760653372042588671e+01 -4.717035702287208210e+01 -1.092064967038470371e+02 -8.964301103468622500e+01 1.475753207337600941e+02 5.982253276103533324e+01 -1.332923857927756899e+02 4.500356490128656795e+00 4.395414291675459850e+01 8.352283523539739463e+01 -4.079530474159575704e+01 6.067603524639651624e+01 -6.974065450900815222e+01 -1.641754561277811604e+02 -3.501833819891142952e+01 1.425183821079407664e+02 -1.145757620282561788e+02 -6.497818699899077899e+00 -1.646656311178348346e+02 -4.808482551763143320e+00 -1.473960467239612626e+02 3.322376366470018638e+01 6.074482389565410756e+01 -5.084279186746095291e+01 -8.323031392867660827e+01 5.683787139203239747e+00 7.511994406237258204e+01 -6.842908271813803367e+01 1.360070577350188614e+02 1.064915484981853382e+02 -1.288381877190147122e+02 -1.064203985158035266e+02 1.363099745097323421e+02 7.199040566679286712e+01 1.515115407955558453e+02 1.011262794966392278e+02 8.187333194623897725e+01 -6.076317182902229064e+01 -8.245690657144545810e+01 -7.770052003915930072e+01 2.061171629398522782e+02 3.075186363357132890e+01 -2.508177548189107497e+01 -6.905712642868034834e+01 -5.039900528028326931e+01 -1.321202932257558302e+02 -1.662256967645009809e+01 -1.760252818489926483e+02 1.254555300847332830e+02 4.618156005138658315e+01 -1.156278743044126287e+02 -4.853750211297717243e+01 1.201399900545821851e+02 -9.730589706310853160e+01 1.031481980626988957e+02 -1.188197675820850918e+02 -1.179935917626272257e+01 -9.579803421566828092e+01 8.997542633093408426e+01 -4.261308549825341174e+01 1.037571644568684448e+01 2.940679262565430818e+01 -1.270284602190651952e+02 1.253924517023797058e+01 4.845852388034186475e+01 -2.248281780034857391e+01 -6.893487007327148319e+01 2.030330292786919983e+02 8.667233664405425486e+01 4.726470196323283091e+01 -3.150354774526740087e+01 8.045114017290931940e+01 1.680157388778269194e+02 -9.252857256556919197e+01 2.099609095967112466e+02 -1.334226783905695015e+02 -1.843832360495396756e+02 1.522350326961723397e+02 -2.345052655677795030e+02 -1.007673386605395294e+00 -2.454964967176492223e+02 -1.532922314624116780e+02 7.191911272643449138e+01 -1.459891076276524586e+02 5.852341109267819519e+01 1.101308896438208222e+02 -1.607622480338149558e+02 -3.021809057050774783e+01 7.557138817827872401e+01 1.342422861700086401e+02 -1.865026207118437753e+02 8.765181303957569980e+01 -9.817272232196275183e+01 -9.904342921516139597e+00 -1.392747448967478441e+01 -7.976936540917375851e+01 -9.052728278518601712e+01 1.817773141658823022e+02 -2.171631448261003783e+01 1.330361728643704611e+00 1.305307239252174440e+02 -8.688217953158202533e+01 -3.451273322023028101e+01 -1.079355181249461140e+02 -4.898565390954727405e+01 5.205062634902727581e+00 5.958420691847400263e+01 -1.355925321731317581e+02 2.381933384766658151e+02 -5.416645410228982627e+01 1.233178165379407716e+02 -4.909370730981039799e+01 1.204872466438210381e+02 1.398893177743203466e+02 4.831007839096622547e+01 1.228777394065666471e+02 -4.350008346825561745e+01 1.408730072297262268e+02 -1.574618625073015039e+02 -6.582784062870121033e+01 -6.339898585264113962e+01 2.569406484283602765e+01 -1.634282223820556226e+02 7.306085850610918442e+01 -3.105087487197447871e+01 -8.322259054403586731e+01 9.024761733763637039e+01 -1.521683814625987452e+02 -9.185386439868949537e+01 -5.296378693418020589e+01 3.332160819942588859e+01 1.307540851401585940e+02 1.177176244635064535e+02 6.963541731375097754e+01 -1.632134288798333444e+00 1.760910918402771870e+02 1.233980676246615644e+02 -9.509294828718154236e+01 -7.872512061619941903e+01 5.586516632176973474e+01 1.006712591987893113e+01 9.866891796754812560e+01 1.678197802375234460e+02 7.107242311218944053e+01 2.454380997285862520e+01 -1.028900774119610020e+02 1.730003573711311162e+02 -1.144612273192267793e+02 -1.663987251579842450e+02 6.615378483599685921e+01 1.122114041119231160e+02 1.975129810766497940e+01 -1.397388116837815346e+02 2.993316269804758534e+01 4.270213024500159804e+01 -3.064649264930760508e-01 1.317181110627065834e+02 9.814155189780085209e+01 1.720625495020399853e+01 7.880776328120049357e+01 -1.076673945887768156e+02 -6.331028156583165867e+00 9.888377855859627630e+01 2.984807028062769163e+01 -6.540019988465638789e+01 1.991087679168477109e+02 2.323522807213946351e+02 -1.262117750937877787e+02 -2.774418078071112248e+01 -2.113225127742688301e+02 -7.255359726624081418e+01 1.574300597779335078e+02 3.435577046247182853e+00 -7.133813936922207688e+01 1.646168881414244538e+02 -6.282943091085969201e+01 -1.613672629176247426e+02 1.371962376220097610e+02 -6.754610247395197575e+01 3.460018332121701690e+01 8.676188872927960460e+01 1.383703084674747608e+01 -2.392764903916620369e+02 4.246442182244054919e+01 -6.146209806302825207e+00 9.046016819238371909e+01 -2.366121981360761239e+01 1.016102215908701396e+02 1.702998439866839320e+01 -8.513805973948940675e+01 -2.055846377037515538e+01 -1.759464974227230982e+02 1.154759095587488105e+02 2.537088882076283625e+01 -4.180594565908860005e+01 -5.203068403226669858e+01 -6.311711130725628038e+01 4.126218747753139127e+01 1.613432537877750121e+02 1.332483747346950338e+02 4.325465375563250348e+01 -1.986651516590879396e+02 -3.895021700542869780e+01 4.398587108953186942e+01 1.178292961760523809e+02 8.759683496131754055e+01 1.552399189899528942e+01 -1.868069016511603309e+02 1.322711197295092518e+02 -2.246796370325402279e+02 -2.066541576564466425e+02 -1.861883782418635613e+00 -7.408215342429060968e+01 -2.416669900126278492e+01 8.749301271439246364e+01 5.615356034181133538e+01 -1.116769789809415414e+02 -1.520618851530321649e+02 1.465959056867838761e+01 1.242023139720134708e+02 2.080226109090252606e+01 -5.694428524560014182e+01 -5.181473804145539219e+01 -1.184636935781275291e+01 1.620391770671553218e+02 2.247213445196763004e+01 -1.774885997290191426e+02 1.311043559536264524e+02 -6.826413328088676735e+01 -4.269755112017633358e+00 1.574104256607643606e+02 -5.347899865716087930e+01 -2.001174324456559006e+01 -1.122879809523310968e+02 -6.145943738678697699e+00 -2.439322976085582795e+01 1.346513157010016926e+02 1.227737318284044505e+02 6.908272846637278519e+01 6.685470461947825527e+01 -1.913119677200095836e+01 1.382454002733189498e+02 -1.152450101522526467e+02 -4.361694183812706349e+00 -9.307734077980339293e+01 1.606549436253457088e+02 7.457148649098186866e+01 5.285662386993398343e+01 8.472809145668280806e+00 -5.445284990897889799e+01 3.514841439893002217e+01 6.911496467050640469e+00 3.659325952854273645e+00 2.465992097212520662e+01 6.110189367935363691e+01 1.740220415703993240e+02 -3.967308928609207896e+01 -5.314668530423639936e+01 6.825748993221800731e+01 1.182333999576117520e+02 -1.308888214364832514e+01 9.393908972051860928e+01 1.062985063852053145e+02 2.153763670895975508e+02 -8.845578300596903887e+01 -1.253997696675820208e+02 -2.926154786257588825e+01 6.349164861800086612e+01 -1.036814535059152220e+01 1.097673279950578547e+02 3.803921526637738282e+01 -1.661719851658556593e+02 4.604288935252412784e+01 -9.139947558904160019e+01 -1.382269698587156199e+02 1.373977943190293445e+02 -7.764330210208837002e+01 6.039443864301877340e+01 1.135941441043168254e+02 -1.011547779908808309e+02 2.395883994050853971e+01 -7.367359363934578198e+01 4.109510490425669360e+01 -1.169580779249494782e+02 6.283784643413895310e+01 5.579031838491134465e+01 4.023069731467445287e+00 8.581307094753249487e+01 -1.560865284961657551e+02 7.794300822136703744e+01 -2.982125724565581848e+01 -1.711470681356499313e+02 9.569505822216639501e+01 2.482874490626555541e+01 -1.987446400824141506e+02 2.382988757204676347e+02 -5.347363276404115684e-01 1.065498413148432206e+02 -1.221778815725903229e+02 -1.967397409099868355e+02 -9.453301208844791859e+01 2.498035859655850288e+00 1.447823283745452443e+02 4.078138650975488666e+00 -9.681108737069217796e+01 5.108762587084390105e+01 1.388361204345574436e+02 6.584505538882078213e+01 -5.243273722585540497e+01 -5.990867842279116928e+01 8.561367704194300643e+01 3.116799548224682681e+01 -1.980826923212280235e+02 -2.100585195323070309e+01 1.712504925468802242e+02 1.001406682366985308e+02 -5.806077052729693833e+01 -1.132645096648035974e+02 -4.324306816901511041e+01 -4.870796815781289979e+01 -1.159482625798354860e+02 -1.874560776861236988e+01 -4.626197565989689764e+01 -1.150967876041391236e+02 -1.335846036109011550e+02 -2.726585583698841120e+01 -1.272935699866364843e+02 -1.355045582248983749e+02 -3.883168829304134562e+01 -5.608646438105817822e+01 -1.124328753027153027e+02 1.954084900601294237e+02 1.105845707260773914e+01 -2.953778008773912589e+01 -1.786090375404317498e+01 8.257940986066580535e+01 1.641049489132411665e+01 2.629427029647517955e+01 -2.236913897416058106e+01 -4.850629185133978893e+01 2.196574203174734308e+01 -1.525848618240623296e+02 -1.671248626387659897e+02 -9.495770399296256414e+01 -2.003396291196623622e+02 -9.409122855360047311e+01 9.009581955385455387e+01 6.443265492757228685e+01 -2.736633829169997156e+01 6.379527151884157377e+01 -1.643294515677557683e+02 -4.282200690739110627e+01 -1.218967398616567550e+02 -7.007841671853906007e+01 2.214062268817744155e+02 -2.155020886187835174e+02 2.154846482394733300e+02 2.625724424536090851e+01 -5.930074959738065843e+01 9.686494230034260511e+01 1.302624586888476870e+02 -5.447589243556148375e+01 -2.138479489413133763e+02 -1.565221934312688177e+02 1.073493578426156887e+02 8.793348891102996845e+01 -1.423454506098157424e+02 3.356222872399646207e+01 -4.162597976593782789e+01 -8.125216717513742992e+01 -2.983736323253154055e+01 -5.756692453394458653e+01 -9.075624571567968246e+01 -3.571717261459641435e+01 4.676869631099139113e+00 -3.436087930350728215e+01 -4.293106366063995094e-01 -1.509650839857328819e+01 9.658031237581461426e+01 1.333914954585835630e+02 1.382986587826888147e+01 1.761759529073300001e+01 -6.623039754044559402e+01 -2.057582826857831151e+02 3.554251552306130435e+01 -9.631375040966878487e+01 2.710744885978234109e+01 -8.618916824626758455e+00 1.047258330652493186e+00 7.581815649388268241e+01 1.279393245766362099e+02 -7.395627983289269025e+01 3.989031037461477069e+01 -2.024058115769936421e+02 1.014093154191403912e+01 7.381070111325358063e+00 -1.286398122859339708e+02 -3.541515818445027719e+01 -4.653289503843181762e+01 5.014410964392954639e+00 -1.073480186224948341e+02 2.840572931991865602e+01 -1.025175198421953979e+02 5.894321356786306865e+01 7.120895219792519981e+01 3.870566008416892601e+01 -3.046382998685632160e+01 1.127758355853620600e+02 6.408655695294797283e+01 8.395738745292004523e+01 -7.030177617434348747e+01 2.132609037672347085e+01 1.342228139819962394e+02 -6.134677917348738418e+01 -7.251080757862714776e+00 3.357228776494072520e+01 -1.347080930168183386e+02 1.026392056271667315e+02 9.397034639198955119e+01 -1.060675630115776471e+02 -8.638721858094791628e+01 -5.822486923133728709e+01 -4.774388154174713605e+01 -1.681081943255037459e+02 -1.425523782157953576e+02 -1.388973595240347265e+02 1.107832390426269313e+02 6.264578026176933179e+01 1.672092015480365603e+02 7.537140867332465355e+00 -8.989897116008312139e+01 1.961653017763921270e+01 1.449886954860748567e+01 -6.652135385334777595e+01 7.758519695836334051e+01 1.236910557658297733e+02 1.048552820675180008e+01 1.502535938046095225e+02 2.359115967807202452e+01 1.162244939714718726e+02 1.582527657651253250e+01 -2.175874354843150229e+02 2.286695775858525792e+02 -5.124123420123238049e+01 -1.561599483893295144e+02 -7.034310920101862052e+01 -4.496612912314549249e+01 4.306702707650241280e+01 2.664837976500567862e+01 4.761357949463600647e+01 -7.717392820665210706e+01 1.273599622407148360e+02 -8.975355607970844574e+01 -7.291608578493055326e+00 1.481910969024806377e+02 1.140117591468295331e+02 6.027175109460544178e+01 -1.839631105913618399e+02 2.642399326571386098e+01 1.458571919982231861e+02 2.434115858044401648e+01 1.012901785771488932e+02 1.104352896487316968e+02 -2.192193986684731044e+02 7.975557109419038682e+01 -5.986490880408656068e+01 -2.330272000435162454e+02 9.164178487286277175e+01 2.543920692384584115e+01 -1.257278113088082279e+02 -6.025898512089761283e+01 1.426544876234652577e+02 1.513662813222933039e+02 -7.767561061734133432e+01 -1.308121166936636826e+02 -8.532777835175326686e+01 -1.694429690560302504e+02 1.995857651822475631e+01 3.865300927344732429e+01 -1.723795907274172023e+01 -1.259165260960773480e+01 -9.097873459014688535e+01 -8.979787316874794101e+01 -2.500698801440827168e+01 1.355199523448857803e+02 1.377776343587028691e+02 8.196956482850269765e+01 9.798680834995374767e+01 -7.929297445464410998e+01 -1.818913646884319917e+02 -1.334075888941543298e+01 -2.333196124416926054e+01 -7.138366322606420056e+01 1.512820089037326676e+00 7.347390750731990750e+01 -5.321654765051263070e+01 2.474454550120661622e+01 7.959775989318379175e+01 7.046604883893397187e+01 1.110996773119583167e+02 -1.499861218759601513e+02 3.985612219770871434e+01 8.375382676217920164e+01 9.526232707361907615e+01 5.939598859408759068e+01 -1.037891936753119069e+02 1.376701614148137764e+02 1.281243525461248396e+02 9.633681116828564939e+01 1.020659329889216878e+02 -8.467984336809810486e+01 -1.495803011997462661e+01 -1.298466696150275368e+01 7.747989141963341808e+01 6.530936729199453339e+01 5.624180444189771322e+01 9.811321953076817692e+01 1.170791006970446659e+02 1.245004702694114656e+02 -6.528163894542009871e+01 8.101518929767331656e+01 6.560166943909517556e+01 -1.182806002495693320e+02 1.323011027290106654e+02 -1.009998340426582430e+01 -2.806502989583133001e+01 2.003625417509774422e+02 8.895354899748058131e+01 1.248011162797548508e+02 -1.451755975873697935e+02 -1.587296943288393436e+02 -1.547337287930619993e+02 -1.229616965927219780e+02 -4.457365277733968867e+01 1.105785473926057705e+02 -1.698154694630432004e+02 3.277438267080483314e+01 1.454157117624715170e+02 -5.978303014503455870e+01 -9.206317993413566114e+01 -3.538110048862372992e+01 1.370006873666813476e+02 2.292021318414421387e+02 -6.718457121195342552e+01 1.998098830434959083e+01 -2.795050023258322724e+01 6.909685616279080023e+01 6.081805577124966078e+01 -2.151893990353077299e+02 -8.948679163771609524e+01 1.388709769794861302e+02 1.411454755854445864e+02 9.545668096982217321e+01 -5.028093703964965044e+01 -7.657298972965263317e+01 -4.588239112114115414e+01 -1.783021043991126362e+02 7.190294001058009599e+01 -2.594756894394304680e+01 1.681308595146042819e+02 -2.821331315519464411e+01 -3.178872969109136761e+02 1.464442785376352276e+02 5.087819478442710874e+01 -1.192679625520385116e+02 -2.237135610952605802e+01 3.571020692182608514e+01 -2.099776532582132518e+02 -1.155772855429325148e+02 -1.108113641967822645e+02 -5.709706881590780370e+01 6.353649970383994372e+01 -1.666987185857844338e+02 1.091969209161532746e+02 -5.494299645136239008e+01 2.935904983374895583e+00 -1.349787868015587833e+02 -1.047859952239606542e+02 1.779442312737041050e+02 8.769135810427660260e+01 -4.274266826087282567e+01 3.763717034439614650e+01 -2.840515035714800618e+01 4.372778721862541573e+01 -1.058978587150638049e+02 1.000264178219669304e+02 5.114658606564574228e+01 -1.203939266958567060e+02 1.182229868208237633e+02 -4.977208553759976439e+01 1.011819445727609974e+02 -5.004376195916098879e+01 8.952661347319353524e+01 -1.553891377017312152e+02 1.445296218565098627e+02 2.509798803663665012e+01 1.019451883415725035e+02 1.321169854203783984e+02 -1.485752232856667376e+02 -8.703096068872392266e+01 -1.070323069545549544e+02 6.777865720152720996e+01 -1.736454460367660317e+02 1.535010894277856437e+02 1.443455765071051928e+02 5.371157380859732910e+01 -8.605655146995761129e+01 5.783294068028632751e+01 -1.087612249996255969e+02 -1.111771443548274263e+01 3.548087663549147663e+01 -1.863031415739514216e+02 -8.274715637791703671e+01 -1.372583766948027773e+01 1.036667215961070525e+02 -5.091502189809466472e+01 1.102360690405389221e+02 -6.527183505074405900e+01 -2.138725692242683749e+02 -1.086554845456008138e+02 -3.459394745368138757e+01 -6.108067891362252766e+01 3.055081174883067519e+01 5.212019953184748999e+01 6.451400596362197426e+00 2.565332353531394460e+01 -1.190434787905823555e+02 5.462826848305444827e+01 3.312120673738576215e+01 -7.330539258668562752e+01 9.392618448146119903e+00 5.716238634138827024e+01 -9.689974102030586778e+01 -5.592444224964092570e+01 -2.450661307760350383e+01 9.914633926794813590e+01 -1.739848489653876129e+01 4.258691735264249267e+00 -2.316628024372852224e+02 -9.657120342026108517e+01 1.005121396941790977e+02 -9.070023645042712701e+01 3.184979877016149885e+01 3.157356292498350925e+01 3.857200064537122586e+01 6.716460275320409323e+01 -1.803589102566164399e+02 1.463205209215398099e+02 8.278288607578366509e+01 -7.628258936989645633e+00 -8.214134778340120135e+01 1.137925178863899163e+02 6.312167826268296977e+01 -2.044091723871783017e+02 -5.122978051402280641e+01 -8.303601566484303476e+01 -5.272369511171361012e+01 -6.299012139390519849e+01 -1.007348702038244994e+02 -6.138843516971997616e+01 1.946822121857959473e+02 -1.736715454930282760e+02 6.659333797765661700e+01 2.820672164251392999e+01 -7.643667184738247045e+01 1.055048887477909325e+01 -4.007136212611145965e+01 3.480082298818025777e+00 -9.774635384349927847e+01 -2.008864006139635876e+02 1.870394688587388643e+01 4.263345056911982311e+01 -1.301835636090103421e+01 -9.201482868247730096e+00 -4.045922312495363116e+01 -1.931835435486029553e+02 -3.118257634322394622e+01 -6.648998259481197692e+01 1.422201427679616614e+01 -1.587450536218121222e+01 9.208323078662435535e+01 -6.411485944208536125e+01 -1.054917918732155755e+02 -3.638187941886278054e+01 -9.185818253595256166e+00 4.632251765855918535e+01 -2.253624890292000771e+01 -7.497825984773645303e+01 -1.614432818458269026e+01 2.042569153505126422e+01 4.832921600457551392e+01 -1.160135591075132311e+02 -1.414667749940263377e+02 2.343661051093422998e+02 -2.220933758136037568e+02 -7.729961124751567070e+01 -4.717094190271937038e+01 1.423325667940303845e+02 6.440150563327162558e+01 2.328788951352021002e+02 2.490687234115736430e+02 -6.342542770714226918e+01 1.317800974851551246e+02 -5.691137018643632928e+01 -4.152881270231691246e+01 -1.024507578298634201e+02 -8.126430957588027582e+01 -7.082296073976775119e+01 -9.056390847673753797e+01 -2.481061729346595541e+02 -2.757110026107482668e+02 1.371064300665369444e+02 -2.699531739069828618e+01 5.421185041422488382e+01 1.331789110454570277e+02
