# 
#                 ----------------------------------------------------
#                 Data from a 3D direct N-body simulation. 
# 
#                 rows are i-particle; 
#                 coumns are :mass, tag, x ,y, z, vx, vy, vz, ax, ay, az
# 
#                 NTHU, Computational Physics Lab
# 
#                 ----------------------------------------------------
#                 Time = 2.099999999999999
1.000000000000000000e+00 2.000000000000000000e+00 3.000000000000000000e+00 4.000000000000000000e+00 5.000000000000000000e+00 6.000000000000000000e+00 7.000000000000000000e+00 8.000000000000000000e+00 9.000000000000000000e+00 1.000000000000000000e+01 1.100000000000000000e+01 1.200000000000000000e+01 1.300000000000000000e+01 1.400000000000000000e+01 1.500000000000000000e+01 1.600000000000000000e+01 1.700000000000000000e+01 1.800000000000000000e+01 1.900000000000000000e+01 2.000000000000000000e+01 2.100000000000000000e+01 2.200000000000000000e+01 2.300000000000000000e+01 2.400000000000000000e+01 2.500000000000000000e+01 2.600000000000000000e+01 2.700000000000000000e+01 2.800000000000000000e+01 2.900000000000000000e+01 3.000000000000000000e+01 3.100000000000000000e+01 3.200000000000000000e+01 3.300000000000000000e+01 3.400000000000000000e+01 3.500000000000000000e+01 3.600000000000000000e+01 3.700000000000000000e+01 3.800000000000000000e+01 3.900000000000000000e+01 4.000000000000000000e+01 4.100000000000000000e+01 4.200000000000000000e+01 4.300000000000000000e+01 4.400000000000000000e+01 4.500000000000000000e+01 4.600000000000000000e+01 4.700000000000000000e+01 4.800000000000000000e+01 4.900000000000000000e+01 5.000000000000000000e+01 5.100000000000000000e+01 5.200000000000000000e+01 5.300000000000000000e+01 5.400000000000000000e+01 5.500000000000000000e+01 5.600000000000000000e+01 5.700000000000000000e+01 5.800000000000000000e+01 5.900000000000000000e+01 6.000000000000000000e+01 6.100000000000000000e+01 6.200000000000000000e+01 6.300000000000000000e+01 6.400000000000000000e+01 6.500000000000000000e+01 6.600000000000000000e+01 6.700000000000000000e+01 6.800000000000000000e+01 6.900000000000000000e+01 7.000000000000000000e+01 7.100000000000000000e+01 7.200000000000000000e+01 7.300000000000000000e+01 7.400000000000000000e+01 7.500000000000000000e+01 7.600000000000000000e+01 7.700000000000000000e+01 7.800000000000000000e+01 7.900000000000000000e+01 8.000000000000000000e+01 8.100000000000000000e+01 8.200000000000000000e+01 8.300000000000000000e+01 8.400000000000000000e+01 8.500000000000000000e+01 8.600000000000000000e+01 8.700000000000000000e+01 8.800000000000000000e+01 8.900000000000000000e+01 9.000000000000000000e+01 9.100000000000000000e+01 9.200000000000000000e+01 9.300000000000000000e+01 9.400000000000000000e+01 9.500000000000000000e+01 9.600000000000000000e+01 9.700000000000000000e+01 9.800000000000000000e+01 9.900000000000000000e+01 1.000000000000000000e+02 1.010000000000000000e+02 1.020000000000000000e+02 1.030000000000000000e+02 1.040000000000000000e+02 1.050000000000000000e+02 1.060000000000000000e+02 1.070000000000000000e+02 1.080000000000000000e+02 1.090000000000000000e+02 1.100000000000000000e+02 1.110000000000000000e+02 1.120000000000000000e+02 1.130000000000000000e+02 1.140000000000000000e+02 1.150000000000000000e+02 1.160000000000000000e+02 1.170000000000000000e+02 1.180000000000000000e+02 1.190000000000000000e+02 1.200000000000000000e+02 1.210000000000000000e+02 1.220000000000000000e+02 1.230000000000000000e+02 1.240000000000000000e+02 1.250000000000000000e+02 1.260000000000000000e+02 1.270000000000000000e+02 1.280000000000000000e+02 1.290000000000000000e+02 1.300000000000000000e+02 1.310000000000000000e+02 1.320000000000000000e+02 1.330000000000000000e+02 1.340000000000000000e+02 1.350000000000000000e+02 1.360000000000000000e+02 1.370000000000000000e+02 1.380000000000000000e+02 1.390000000000000000e+02 1.400000000000000000e+02 1.410000000000000000e+02 1.420000000000000000e+02 1.430000000000000000e+02 1.440000000000000000e+02 1.450000000000000000e+02 1.460000000000000000e+02 1.470000000000000000e+02 1.480000000000000000e+02 1.490000000000000000e+02 1.500000000000000000e+02 1.510000000000000000e+02 1.520000000000000000e+02 1.530000000000000000e+02 1.540000000000000000e+02 1.550000000000000000e+02 1.560000000000000000e+02 1.570000000000000000e+02 1.580000000000000000e+02 1.590000000000000000e+02 1.600000000000000000e+02 1.610000000000000000e+02 1.620000000000000000e+02 1.630000000000000000e+02 1.640000000000000000e+02 1.650000000000000000e+02 1.660000000000000000e+02 1.670000000000000000e+02 1.680000000000000000e+02 1.690000000000000000e+02 1.700000000000000000e+02 1.710000000000000000e+02 1.720000000000000000e+02 1.730000000000000000e+02 1.740000000000000000e+02 1.750000000000000000e+02 1.760000000000000000e+02 1.770000000000000000e+02 1.780000000000000000e+02 1.790000000000000000e+02 1.800000000000000000e+02 1.810000000000000000e+02 1.820000000000000000e+02 1.830000000000000000e+02 1.840000000000000000e+02 1.850000000000000000e+02 1.860000000000000000e+02 1.870000000000000000e+02 1.880000000000000000e+02 1.890000000000000000e+02 1.900000000000000000e+02 1.910000000000000000e+02 1.920000000000000000e+02 1.930000000000000000e+02 1.940000000000000000e+02 1.950000000000000000e+02 1.960000000000000000e+02 1.970000000000000000e+02 1.980000000000000000e+02 1.990000000000000000e+02 2.000000000000000000e+02 2.010000000000000000e+02 2.020000000000000000e+02 2.030000000000000000e+02 2.040000000000000000e+02 2.050000000000000000e+02 2.060000000000000000e+02 2.070000000000000000e+02 2.080000000000000000e+02 2.090000000000000000e+02 2.100000000000000000e+02 2.110000000000000000e+02 2.120000000000000000e+02 2.130000000000000000e+02 2.140000000000000000e+02 2.150000000000000000e+02 2.160000000000000000e+02 2.170000000000000000e+02 2.180000000000000000e+02 2.190000000000000000e+02 2.200000000000000000e+02 2.210000000000000000e+02 2.220000000000000000e+02 2.230000000000000000e+02 2.240000000000000000e+02 2.250000000000000000e+02 2.260000000000000000e+02 2.270000000000000000e+02 2.280000000000000000e+02 2.290000000000000000e+02 2.300000000000000000e+02 2.310000000000000000e+02 2.320000000000000000e+02 2.330000000000000000e+02 2.340000000000000000e+02 2.350000000000000000e+02 2.360000000000000000e+02 2.370000000000000000e+02 2.380000000000000000e+02 2.390000000000000000e+02 2.400000000000000000e+02 2.410000000000000000e+02 2.420000000000000000e+02 2.430000000000000000e+02 2.440000000000000000e+02 2.450000000000000000e+02 2.460000000000000000e+02 2.470000000000000000e+02 2.480000000000000000e+02 2.490000000000000000e+02 2.500000000000000000e+02 2.510000000000000000e+02 2.520000000000000000e+02 2.530000000000000000e+02 2.540000000000000000e+02 2.550000000000000000e+02 2.560000000000000000e+02 2.570000000000000000e+02 2.580000000000000000e+02 2.590000000000000000e+02 2.600000000000000000e+02 2.610000000000000000e+02 2.620000000000000000e+02 2.630000000000000000e+02 2.640000000000000000e+02 2.650000000000000000e+02 2.660000000000000000e+02 2.670000000000000000e+02 2.680000000000000000e+02 2.690000000000000000e+02 2.700000000000000000e+02 2.710000000000000000e+02 2.720000000000000000e+02 2.730000000000000000e+02 2.740000000000000000e+02 2.750000000000000000e+02 2.760000000000000000e+02 2.770000000000000000e+02 2.780000000000000000e+02 2.790000000000000000e+02 2.800000000000000000e+02 2.810000000000000000e+02 2.820000000000000000e+02 2.830000000000000000e+02 2.840000000000000000e+02 2.850000000000000000e+02 2.860000000000000000e+02 2.870000000000000000e+02 2.880000000000000000e+02 2.890000000000000000e+02 2.900000000000000000e+02 2.910000000000000000e+02 2.920000000000000000e+02 2.930000000000000000e+02 2.940000000000000000e+02 2.950000000000000000e+02 2.960000000000000000e+02 2.970000000000000000e+02 2.980000000000000000e+02 2.990000000000000000e+02 3.000000000000000000e+02 3.010000000000000000e+02 3.020000000000000000e+02 3.030000000000000000e+02 3.040000000000000000e+02 3.050000000000000000e+02 3.060000000000000000e+02 3.070000000000000000e+02 3.080000000000000000e+02 3.090000000000000000e+02 3.100000000000000000e+02 3.110000000000000000e+02 3.120000000000000000e+02 3.130000000000000000e+02 3.140000000000000000e+02 3.150000000000000000e+02 3.160000000000000000e+02 3.170000000000000000e+02 3.180000000000000000e+02 3.190000000000000000e+02 3.200000000000000000e+02 3.210000000000000000e+02 3.220000000000000000e+02 3.230000000000000000e+02 3.240000000000000000e+02 3.250000000000000000e+02 3.260000000000000000e+02 3.270000000000000000e+02 3.280000000000000000e+02 3.290000000000000000e+02 3.300000000000000000e+02 3.310000000000000000e+02 3.320000000000000000e+02 3.330000000000000000e+02 3.340000000000000000e+02 3.350000000000000000e+02 3.360000000000000000e+02 3.370000000000000000e+02 3.380000000000000000e+02 3.390000000000000000e+02 3.400000000000000000e+02 3.410000000000000000e+02 3.420000000000000000e+02 3.430000000000000000e+02 3.440000000000000000e+02 3.450000000000000000e+02 3.460000000000000000e+02 3.470000000000000000e+02 3.480000000000000000e+02 3.490000000000000000e+02 3.500000000000000000e+02 3.510000000000000000e+02 3.520000000000000000e+02 3.530000000000000000e+02 3.540000000000000000e+02 3.550000000000000000e+02 3.560000000000000000e+02 3.570000000000000000e+02 3.580000000000000000e+02 3.590000000000000000e+02 3.600000000000000000e+02 3.610000000000000000e+02 3.620000000000000000e+02 3.630000000000000000e+02 3.640000000000000000e+02 3.650000000000000000e+02 3.660000000000000000e+02 3.670000000000000000e+02 3.680000000000000000e+02 3.690000000000000000e+02 3.700000000000000000e+02 3.710000000000000000e+02 3.720000000000000000e+02 3.730000000000000000e+02 3.740000000000000000e+02 3.750000000000000000e+02 3.760000000000000000e+02 3.770000000000000000e+02 3.780000000000000000e+02 3.790000000000000000e+02 3.800000000000000000e+02 3.810000000000000000e+02 3.820000000000000000e+02 3.830000000000000000e+02 3.840000000000000000e+02 3.850000000000000000e+02 3.860000000000000000e+02 3.870000000000000000e+02 3.880000000000000000e+02 3.890000000000000000e+02 3.900000000000000000e+02 3.910000000000000000e+02 3.920000000000000000e+02 3.930000000000000000e+02 3.940000000000000000e+02 3.950000000000000000e+02 3.960000000000000000e+02 3.970000000000000000e+02 3.980000000000000000e+02 3.990000000000000000e+02 4.000000000000000000e+02 4.010000000000000000e+02 4.020000000000000000e+02 4.030000000000000000e+02 4.040000000000000000e+02 4.050000000000000000e+02 4.060000000000000000e+02 4.070000000000000000e+02 4.080000000000000000e+02 4.090000000000000000e+02 4.100000000000000000e+02 4.110000000000000000e+02 4.120000000000000000e+02 4.130000000000000000e+02 4.140000000000000000e+02 4.150000000000000000e+02 4.160000000000000000e+02 4.170000000000000000e+02 4.180000000000000000e+02 4.190000000000000000e+02 4.200000000000000000e+02 4.210000000000000000e+02 4.220000000000000000e+02 4.230000000000000000e+02 4.240000000000000000e+02 4.250000000000000000e+02 4.260000000000000000e+02 4.270000000000000000e+02 4.280000000000000000e+02 4.290000000000000000e+02 4.300000000000000000e+02 4.310000000000000000e+02 4.320000000000000000e+02 4.330000000000000000e+02 4.340000000000000000e+02 4.350000000000000000e+02 4.360000000000000000e+02 4.370000000000000000e+02 4.380000000000000000e+02 4.390000000000000000e+02 4.400000000000000000e+02 4.410000000000000000e+02 4.420000000000000000e+02 4.430000000000000000e+02 4.440000000000000000e+02 4.450000000000000000e+02 4.460000000000000000e+02 4.470000000000000000e+02 4.480000000000000000e+02 4.490000000000000000e+02 4.500000000000000000e+02 4.510000000000000000e+02 4.520000000000000000e+02 4.530000000000000000e+02 4.540000000000000000e+02 4.550000000000000000e+02 4.560000000000000000e+02 4.570000000000000000e+02 4.580000000000000000e+02 4.590000000000000000e+02 4.600000000000000000e+02 4.610000000000000000e+02 4.620000000000000000e+02 4.630000000000000000e+02 4.640000000000000000e+02 4.650000000000000000e+02 4.660000000000000000e+02 4.670000000000000000e+02 4.680000000000000000e+02 4.690000000000000000e+02 4.700000000000000000e+02 4.710000000000000000e+02 4.720000000000000000e+02 4.730000000000000000e+02 4.740000000000000000e+02 4.750000000000000000e+02 4.760000000000000000e+02 4.770000000000000000e+02 4.780000000000000000e+02 4.790000000000000000e+02 4.800000000000000000e+02 4.810000000000000000e+02 4.820000000000000000e+02 4.830000000000000000e+02 4.840000000000000000e+02 4.850000000000000000e+02 4.860000000000000000e+02 4.870000000000000000e+02 4.880000000000000000e+02 4.890000000000000000e+02 4.900000000000000000e+02 4.910000000000000000e+02 4.920000000000000000e+02 4.930000000000000000e+02 4.940000000000000000e+02 4.950000000000000000e+02 4.960000000000000000e+02 4.970000000000000000e+02 4.980000000000000000e+02 4.990000000000000000e+02 5.000000000000000000e+02 5.010000000000000000e+02 5.020000000000000000e+02 5.030000000000000000e+02 5.040000000000000000e+02 5.050000000000000000e+02 5.060000000000000000e+02 5.070000000000000000e+02 5.080000000000000000e+02 5.090000000000000000e+02 5.100000000000000000e+02 5.110000000000000000e+02 5.120000000000000000e+02 5.130000000000000000e+02 5.140000000000000000e+02 5.150000000000000000e+02 5.160000000000000000e+02 5.170000000000000000e+02 5.180000000000000000e+02 5.190000000000000000e+02 5.200000000000000000e+02 5.210000000000000000e+02 5.220000000000000000e+02 5.230000000000000000e+02 5.240000000000000000e+02 5.250000000000000000e+02 5.260000000000000000e+02 5.270000000000000000e+02 5.280000000000000000e+02 5.290000000000000000e+02 5.300000000000000000e+02 5.310000000000000000e+02 5.320000000000000000e+02 5.330000000000000000e+02 5.340000000000000000e+02 5.350000000000000000e+02 5.360000000000000000e+02 5.370000000000000000e+02 5.380000000000000000e+02 5.390000000000000000e+02 5.400000000000000000e+02 5.410000000000000000e+02 5.420000000000000000e+02 5.430000000000000000e+02 5.440000000000000000e+02 5.450000000000000000e+02 5.460000000000000000e+02 5.470000000000000000e+02 5.480000000000000000e+02 5.490000000000000000e+02 5.500000000000000000e+02 5.510000000000000000e+02 5.520000000000000000e+02 5.530000000000000000e+02 5.540000000000000000e+02 5.550000000000000000e+02 5.560000000000000000e+02 5.570000000000000000e+02 5.580000000000000000e+02 5.590000000000000000e+02 5.600000000000000000e+02 5.610000000000000000e+02 5.620000000000000000e+02 5.630000000000000000e+02 5.640000000000000000e+02 5.650000000000000000e+02 5.660000000000000000e+02 5.670000000000000000e+02 5.680000000000000000e+02 5.690000000000000000e+02 5.700000000000000000e+02 5.710000000000000000e+02 5.720000000000000000e+02 5.730000000000000000e+02 5.740000000000000000e+02 5.750000000000000000e+02 5.760000000000000000e+02 5.770000000000000000e+02 5.780000000000000000e+02 5.790000000000000000e+02 5.800000000000000000e+02 5.810000000000000000e+02 5.820000000000000000e+02 5.830000000000000000e+02 5.840000000000000000e+02 5.850000000000000000e+02 5.860000000000000000e+02 5.870000000000000000e+02 5.880000000000000000e+02 5.890000000000000000e+02 5.900000000000000000e+02 5.910000000000000000e+02 5.920000000000000000e+02 5.930000000000000000e+02 5.940000000000000000e+02 5.950000000000000000e+02 5.960000000000000000e+02 5.970000000000000000e+02 5.980000000000000000e+02 5.990000000000000000e+02 6.000000000000000000e+02 6.010000000000000000e+02 6.020000000000000000e+02 6.030000000000000000e+02 6.040000000000000000e+02 6.050000000000000000e+02 6.060000000000000000e+02 6.070000000000000000e+02 6.080000000000000000e+02 6.090000000000000000e+02 6.100000000000000000e+02 6.110000000000000000e+02 6.120000000000000000e+02 6.130000000000000000e+02 6.140000000000000000e+02 6.150000000000000000e+02 6.160000000000000000e+02 6.170000000000000000e+02 6.180000000000000000e+02 6.190000000000000000e+02 6.200000000000000000e+02 6.210000000000000000e+02 6.220000000000000000e+02 6.230000000000000000e+02 6.240000000000000000e+02 6.250000000000000000e+02 6.260000000000000000e+02 6.270000000000000000e+02 6.280000000000000000e+02 6.290000000000000000e+02 6.300000000000000000e+02 6.310000000000000000e+02 6.320000000000000000e+02 6.330000000000000000e+02 6.340000000000000000e+02 6.350000000000000000e+02 6.360000000000000000e+02 6.370000000000000000e+02 6.380000000000000000e+02 6.390000000000000000e+02 6.400000000000000000e+02 6.410000000000000000e+02 6.420000000000000000e+02 6.430000000000000000e+02 6.440000000000000000e+02 6.450000000000000000e+02 6.460000000000000000e+02 6.470000000000000000e+02 6.480000000000000000e+02 6.490000000000000000e+02 6.500000000000000000e+02 6.510000000000000000e+02 6.520000000000000000e+02 6.530000000000000000e+02 6.540000000000000000e+02 6.550000000000000000e+02 6.560000000000000000e+02 6.570000000000000000e+02 6.580000000000000000e+02 6.590000000000000000e+02 6.600000000000000000e+02 6.610000000000000000e+02 6.620000000000000000e+02 6.630000000000000000e+02 6.640000000000000000e+02 6.650000000000000000e+02 6.660000000000000000e+02 6.670000000000000000e+02 6.680000000000000000e+02 6.690000000000000000e+02 6.700000000000000000e+02 6.710000000000000000e+02 6.720000000000000000e+02 6.730000000000000000e+02 6.740000000000000000e+02 6.750000000000000000e+02 6.760000000000000000e+02 6.770000000000000000e+02 6.780000000000000000e+02 6.790000000000000000e+02 6.800000000000000000e+02 6.810000000000000000e+02 6.820000000000000000e+02 6.830000000000000000e+02 6.840000000000000000e+02 6.850000000000000000e+02 6.860000000000000000e+02 6.870000000000000000e+02 6.880000000000000000e+02 6.890000000000000000e+02 6.900000000000000000e+02 6.910000000000000000e+02 6.920000000000000000e+02 6.930000000000000000e+02 6.940000000000000000e+02 6.950000000000000000e+02 6.960000000000000000e+02 6.970000000000000000e+02 6.980000000000000000e+02 6.990000000000000000e+02 7.000000000000000000e+02 7.010000000000000000e+02 7.020000000000000000e+02 7.030000000000000000e+02 7.040000000000000000e+02 7.050000000000000000e+02 7.060000000000000000e+02 7.070000000000000000e+02 7.080000000000000000e+02 7.090000000000000000e+02 7.100000000000000000e+02 7.110000000000000000e+02 7.120000000000000000e+02 7.130000000000000000e+02 7.140000000000000000e+02 7.150000000000000000e+02 7.160000000000000000e+02 7.170000000000000000e+02 7.180000000000000000e+02 7.190000000000000000e+02 7.200000000000000000e+02 7.210000000000000000e+02 7.220000000000000000e+02 7.230000000000000000e+02 7.240000000000000000e+02 7.250000000000000000e+02 7.260000000000000000e+02 7.270000000000000000e+02 7.280000000000000000e+02 7.290000000000000000e+02 7.300000000000000000e+02 7.310000000000000000e+02 7.320000000000000000e+02 7.330000000000000000e+02 7.340000000000000000e+02 7.350000000000000000e+02 7.360000000000000000e+02 7.370000000000000000e+02 7.380000000000000000e+02 7.390000000000000000e+02 7.400000000000000000e+02 7.410000000000000000e+02 7.420000000000000000e+02 7.430000000000000000e+02 7.440000000000000000e+02 7.450000000000000000e+02 7.460000000000000000e+02 7.470000000000000000e+02 7.480000000000000000e+02 7.490000000000000000e+02 7.500000000000000000e+02 7.510000000000000000e+02 7.520000000000000000e+02 7.530000000000000000e+02 7.540000000000000000e+02 7.550000000000000000e+02 7.560000000000000000e+02 7.570000000000000000e+02 7.580000000000000000e+02 7.590000000000000000e+02 7.600000000000000000e+02 7.610000000000000000e+02 7.620000000000000000e+02 7.630000000000000000e+02 7.640000000000000000e+02 7.650000000000000000e+02 7.660000000000000000e+02 7.670000000000000000e+02 7.680000000000000000e+02 7.690000000000000000e+02 7.700000000000000000e+02 7.710000000000000000e+02 7.720000000000000000e+02 7.730000000000000000e+02 7.740000000000000000e+02 7.750000000000000000e+02 7.760000000000000000e+02 7.770000000000000000e+02 7.780000000000000000e+02 7.790000000000000000e+02 7.800000000000000000e+02 7.810000000000000000e+02 7.820000000000000000e+02 7.830000000000000000e+02 7.840000000000000000e+02 7.850000000000000000e+02 7.860000000000000000e+02 7.870000000000000000e+02 7.880000000000000000e+02 7.890000000000000000e+02 7.900000000000000000e+02 7.910000000000000000e+02 7.920000000000000000e+02 7.930000000000000000e+02 7.940000000000000000e+02 7.950000000000000000e+02 7.960000000000000000e+02 7.970000000000000000e+02 7.980000000000000000e+02 7.990000000000000000e+02 8.000000000000000000e+02 8.010000000000000000e+02 8.020000000000000000e+02 8.030000000000000000e+02 8.040000000000000000e+02 8.050000000000000000e+02 8.060000000000000000e+02 8.070000000000000000e+02 8.080000000000000000e+02 8.090000000000000000e+02 8.100000000000000000e+02 8.110000000000000000e+02 8.120000000000000000e+02 8.130000000000000000e+02 8.140000000000000000e+02 8.150000000000000000e+02 8.160000000000000000e+02 8.170000000000000000e+02 8.180000000000000000e+02 8.190000000000000000e+02 8.200000000000000000e+02 8.210000000000000000e+02 8.220000000000000000e+02 8.230000000000000000e+02 8.240000000000000000e+02 8.250000000000000000e+02 8.260000000000000000e+02 8.270000000000000000e+02 8.280000000000000000e+02 8.290000000000000000e+02 8.300000000000000000e+02 8.310000000000000000e+02 8.320000000000000000e+02 8.330000000000000000e+02 8.340000000000000000e+02 8.350000000000000000e+02 8.360000000000000000e+02 8.370000000000000000e+02 8.380000000000000000e+02 8.390000000000000000e+02 8.400000000000000000e+02 8.410000000000000000e+02 8.420000000000000000e+02 8.430000000000000000e+02 8.440000000000000000e+02 8.450000000000000000e+02 8.460000000000000000e+02 8.470000000000000000e+02 8.480000000000000000e+02 8.490000000000000000e+02 8.500000000000000000e+02 8.510000000000000000e+02 8.520000000000000000e+02 8.530000000000000000e+02 8.540000000000000000e+02 8.550000000000000000e+02 8.560000000000000000e+02 8.570000000000000000e+02 8.580000000000000000e+02 8.590000000000000000e+02 8.600000000000000000e+02 8.610000000000000000e+02 8.620000000000000000e+02 8.630000000000000000e+02 8.640000000000000000e+02 8.650000000000000000e+02 8.660000000000000000e+02 8.670000000000000000e+02 8.680000000000000000e+02 8.690000000000000000e+02 8.700000000000000000e+02 8.710000000000000000e+02 8.720000000000000000e+02 8.730000000000000000e+02 8.740000000000000000e+02 8.750000000000000000e+02 8.760000000000000000e+02 8.770000000000000000e+02 8.780000000000000000e+02 8.790000000000000000e+02 8.800000000000000000e+02 8.810000000000000000e+02 8.820000000000000000e+02 8.830000000000000000e+02 8.840000000000000000e+02 8.850000000000000000e+02 8.860000000000000000e+02 8.870000000000000000e+02 8.880000000000000000e+02 8.890000000000000000e+02 8.900000000000000000e+02 8.910000000000000000e+02 8.920000000000000000e+02 8.930000000000000000e+02 8.940000000000000000e+02 8.950000000000000000e+02 8.960000000000000000e+02 8.970000000000000000e+02 8.980000000000000000e+02 8.990000000000000000e+02 9.000000000000000000e+02 9.010000000000000000e+02 9.020000000000000000e+02 9.030000000000000000e+02 9.040000000000000000e+02 9.050000000000000000e+02 9.060000000000000000e+02 9.070000000000000000e+02 9.080000000000000000e+02 9.090000000000000000e+02 9.100000000000000000e+02 9.110000000000000000e+02 9.120000000000000000e+02 9.130000000000000000e+02 9.140000000000000000e+02 9.150000000000000000e+02 9.160000000000000000e+02 9.170000000000000000e+02 9.180000000000000000e+02 9.190000000000000000e+02 9.200000000000000000e+02 9.210000000000000000e+02 9.220000000000000000e+02 9.230000000000000000e+02 9.240000000000000000e+02 9.250000000000000000e+02 9.260000000000000000e+02 9.270000000000000000e+02 9.280000000000000000e+02 9.290000000000000000e+02 9.300000000000000000e+02 9.310000000000000000e+02 9.320000000000000000e+02 9.330000000000000000e+02 9.340000000000000000e+02 9.350000000000000000e+02 9.360000000000000000e+02 9.370000000000000000e+02 9.380000000000000000e+02 9.390000000000000000e+02 9.400000000000000000e+02 9.410000000000000000e+02 9.420000000000000000e+02 9.430000000000000000e+02 9.440000000000000000e+02 9.450000000000000000e+02 9.460000000000000000e+02 9.470000000000000000e+02 9.480000000000000000e+02 9.490000000000000000e+02 9.500000000000000000e+02 9.510000000000000000e+02 9.520000000000000000e+02 9.530000000000000000e+02 9.540000000000000000e+02 9.550000000000000000e+02 9.560000000000000000e+02 9.570000000000000000e+02 9.580000000000000000e+02 9.590000000000000000e+02 9.600000000000000000e+02 9.610000000000000000e+02 9.620000000000000000e+02 9.630000000000000000e+02 9.640000000000000000e+02 9.650000000000000000e+02 9.660000000000000000e+02 9.670000000000000000e+02 9.680000000000000000e+02 9.690000000000000000e+02 9.700000000000000000e+02 9.710000000000000000e+02 9.720000000000000000e+02 9.730000000000000000e+02 9.740000000000000000e+02 9.750000000000000000e+02 9.760000000000000000e+02 9.770000000000000000e+02 9.780000000000000000e+02 9.790000000000000000e+02 9.800000000000000000e+02 9.810000000000000000e+02 9.820000000000000000e+02 9.830000000000000000e+02 9.840000000000000000e+02 9.850000000000000000e+02 9.860000000000000000e+02 9.870000000000000000e+02 9.880000000000000000e+02 9.890000000000000000e+02 9.900000000000000000e+02 9.910000000000000000e+02 9.920000000000000000e+02 9.930000000000000000e+02 9.940000000000000000e+02 9.950000000000000000e+02 9.960000000000000000e+02 9.970000000000000000e+02 9.980000000000000000e+02 9.990000000000000000e+02 1.000000000000000000e+03
1.000000000000000021e-02 1.000000000000000021e-02 1.000000000000000021e-02 1.000000000000000021e-02 1.000000000000000021e-02 1.000000000000000021e-02 1.000000000000000021e-02 1.000000000000000021e-02 1.000000000000000021e-02 1.000000000000000021e-02 1.000000000000000021e-02 1.000000000000000021e-02 1.000000000000000021e-02 1.000000000000000021e-02 1.000000000000000021e-02 1.000000000000000021e-02 1.000000000000000021e-02 1.000000000000000021e-02 1.000000000000000021e-02 1.000000000000000021e-02 1.000000000000000021e-02 1.000000000000000021e-02 1.000000000000000021e-02 1.000000000000000021e-02 1.000000000000000021e-02 1.000000000000000021e-02 1.000000000000000021e-02 1.000000000000000021e-02 1.000000000000000021e-02 1.000000000000000021e-02 1.000000000000000021e-02 1.000000000000000021e-02 1.000000000000000021e-02 1.000000000000000021e-02 1.000000000000000021e-02 1.000000000000000021e-02 1.000000000000000021e-02 1.000000000000000021e-02 1.000000000000000021e-02 1.000000000000000021e-02 1.000000000000000021e-02 1.000000000000000021e-02 1.000000000000000021e-02 1.000000000000000021e-02 1.000000000000000021e-02 1.000000000000000021e-02 1.000000000000000021e-02 1.000000000000000021e-02 1.000000000000000021e-02 1.000000000000000021e-02 1.000000000000000021e-02 1.000000000000000021e-02 1.000000000000000021e-02 1.000000000000000021e-02 1.000000000000000021e-02 1.000000000000000021e-02 1.000000000000000021e-02 1.000000000000000021e-02 1.000000000000000021e-02 1.000000000000000021e-02 1.000000000000000021e-02 1.000000000000000021e-02 1.000000000000000021e-02 1.000000000000000021e-02 1.000000000000000021e-02 1.000000000000000021e-02 1.000000000000000021e-02 1.000000000000000021e-02 1.000000000000000021e-02 1.000000000000000021e-02 1.000000000000000021e-02 1.000000000000000021e-02 1.000000000000000021e-02 1.000000000000000021e-02 1.000000000000000021e-02 1.000000000000000021e-02 1.000000000000000021e-02 1.000000000000000021e-02 1.000000000000000021e-02 1.000000000000000021e-02 1.000000000000000021e-02 1.000000000000000021e-02 1.000000000000000021e-02 1.000000000000000021e-02 1.000000000000000021e-02 1.000000000000000021e-02 1.000000000000000021e-02 1.000000000000000021e-02 1.000000000000000021e-02 1.000000000000000021e-02 1.000000000000000021e-02 1.000000000000000021e-02 1.000000000000000021e-02 1.000000000000000021e-02 1.000000000000000021e-02 1.000000000000000021e-02 1.000000000000000021e-02 1.000000000000000021e-02 1.000000000000000021e-02 1.000000000000000021e-02 1.000000000000000021e-02 1.000000000000000021e-02 1.000000000000000021e-02 1.000000000000000021e-02 1.000000000000000021e-02 1.000000000000000021e-02 1.000000000000000021e-02 1.000000000000000021e-02 1.000000000000000021e-02 1.000000000000000021e-02 1.000000000000000021e-02 1.000000000000000021e-02 1.000000000000000021e-02 1.000000000000000021e-02 1.000000000000000021e-02 1.000000000000000021e-02 1.000000000000000021e-02 1.000000000000000021e-02 1.000000000000000021e-02 1.000000000000000021e-02 1.000000000000000021e-02 1.000000000000000021e-02 1.000000000000000021e-02 1.000000000000000021e-02 1.000000000000000021e-02 1.000000000000000021e-02 1.000000000000000021e-02 1.000000000000000021e-02 1.000000000000000021e-02 1.000000000000000021e-02 1.000000000000000021e-02 1.000000000000000021e-02 1.000000000000000021e-02 1.000000000000000021e-02 1.000000000000000021e-02 1.000000000000000021e-02 1.000000000000000021e-02 1.000000000000000021e-02 1.000000000000000021e-02 1.000000000000000021e-02 1.000000000000000021e-02 1.000000000000000021e-02 1.000000000000000021e-02 1.000000000000000021e-02 1.000000000000000021e-02 1.000000000000000021e-02 1.000000000000000021e-02 1.000000000000000021e-02 1.000000000000000021e-02 1.000000000000000021e-02 1.000000000000000021e-02 1.000000000000000021e-02 1.000000000000000021e-02 1.000000000000000021e-02 1.000000000000000021e-02 1.000000000000000021e-02 1.000000000000000021e-02 1.000000000000000021e-02 1.000000000000000021e-02 1.000000000000000021e-02 1.000000000000000021e-02 1.000000000000000021e-02 1.000000000000000021e-02 1.000000000000000021e-02 1.000000000000000021e-02 1.000000000000000021e-02 1.000000000000000021e-02 1.000000000000000021e-02 1.000000000000000021e-02 1.000000000000000021e-02 1.000000000000000021e-02 1.000000000000000021e-02 1.000000000000000021e-02 1.000000000000000021e-02 1.000000000000000021e-02 1.000000000000000021e-02 1.000000000000000021e-02 1.000000000000000021e-02 1.000000000000000021e-02 1.000000000000000021e-02 1.000000000000000021e-02 1.000000000000000021e-02 1.000000000000000021e-02 1.000000000000000021e-02 1.000000000000000021e-02 1.000000000000000021e-02 1.000000000000000021e-02 1.000000000000000021e-02 1.000000000000000021e-02 1.000000000000000021e-02 1.000000000000000021e-02 1.000000000000000021e-02 1.000000000000000021e-02 1.000000000000000021e-02 1.000000000000000021e-02 1.000000000000000021e-02 1.000000000000000021e-02 1.000000000000000021e-02 1.000000000000000021e-02 1.000000000000000021e-02 1.000000000000000021e-02 1.000000000000000021e-02 1.000000000000000021e-02 1.000000000000000021e-02 1.000000000000000021e-02 1.000000000000000021e-02 1.000000000000000021e-02 1.000000000000000021e-02 1.000000000000000021e-02 1.000000000000000021e-02 1.000000000000000021e-02 1.000000000000000021e-02 1.000000000000000021e-02 1.000000000000000021e-02 1.000000000000000021e-02 1.000000000000000021e-02 1.000000000000000021e-02 1.000000000000000021e-02 1.000000000000000021e-02 1.000000000000000021e-02 1.000000000000000021e-02 1.000000000000000021e-02 1.000000000000000021e-02 1.000000000000000021e-02 1.000000000000000021e-02 1.000000000000000021e-02 1.000000000000000021e-02 1.000000000000000021e-02 1.000000000000000021e-02 1.000000000000000021e-02 1.000000000000000021e-02 1.000000000000000021e-02 1.000000000000000021e-02 1.000000000000000021e-02 1.000000000000000021e-02 1.000000000000000021e-02 1.000000000000000021e-02 1.000000000000000021e-02 1.000000000000000021e-02 1.000000000000000021e-02 1.000000000000000021e-02 1.000000000000000021e-02 1.000000000000000021e-02 1.000000000000000021e-02 1.000000000000000021e-02 1.000000000000000021e-02 1.000000000000000021e-02 1.000000000000000021e-02 1.000000000000000021e-02 1.000000000000000021e-02 1.000000000000000021e-02 1.000000000000000021e-02 1.000000000000000021e-02 1.000000000000000021e-02 1.000000000000000021e-02 1.000000000000000021e-02 1.000000000000000021e-02 1.000000000000000021e-02 1.000000000000000021e-02 1.000000000000000021e-02 1.000000000000000021e-02 1.000000000000000021e-02 1.000000000000000021e-02 1.000000000000000021e-02 1.000000000000000021e-02 1.000000000000000021e-02 1.000000000000000021e-02 1.000000000000000021e-02 1.000000000000000021e-02 1.000000000000000021e-02 1.000000000000000021e-02 1.000000000000000021e-02 1.000000000000000021e-02 1.000000000000000021e-02 1.000000000000000021e-02 1.000000000000000021e-02 1.000000000000000021e-02 1.000000000000000021e-02 1.000000000000000021e-02 1.000000000000000021e-02 1.000000000000000021e-02 1.000000000000000021e-02 1.000000000000000021e-02 1.000000000000000021e-02 1.000000000000000021e-02 1.000000000000000021e-02 1.000000000000000021e-02 1.000000000000000021e-02 1.000000000000000021e-02 1.000000000000000021e-02 1.000000000000000021e-02 1.000000000000000021e-02 1.000000000000000021e-02 1.000000000000000021e-02 1.000000000000000021e-02 1.000000000000000021e-02 1.000000000000000021e-02 1.000000000000000021e-02 1.000000000000000021e-02 1.000000000000000021e-02 1.000000000000000021e-02 1.000000000000000021e-02 1.000000000000000021e-02 1.000000000000000021e-02 1.000000000000000021e-02 1.000000000000000021e-02 1.000000000000000021e-02 1.000000000000000021e-02 1.000000000000000021e-02 1.000000000000000021e-02 1.000000000000000021e-02 1.000000000000000021e-02 1.000000000000000021e-02 1.000000000000000021e-02 1.000000000000000021e-02 1.000000000000000021e-02 1.000000000000000021e-02 1.000000000000000021e-02 1.000000000000000021e-02 1.000000000000000021e-02 1.000000000000000021e-02 1.000000000000000021e-02 1.000000000000000021e-02 1.000000000000000021e-02 1.000000000000000021e-02 1.000000000000000021e-02 1.000000000000000021e-02 1.000000000000000021e-02 1.000000000000000021e-02 1.000000000000000021e-02 1.000000000000000021e-02 1.000000000000000021e-02 1.000000000000000021e-02 1.000000000000000021e-02 1.000000000000000021e-02 1.000000000000000021e-02 1.000000000000000021e-02 1.000000000000000021e-02 1.000000000000000021e-02 1.000000000000000021e-02 1.000000000000000021e-02 1.000000000000000021e-02 1.000000000000000021e-02 1.000000000000000021e-02 1.000000000000000021e-02 1.000000000000000021e-02 1.000000000000000021e-02 1.000000000000000021e-02 1.000000000000000021e-02 1.000000000000000021e-02 1.000000000000000021e-02 1.000000000000000021e-02 1.000000000000000021e-02 1.000000000000000021e-02 1.000000000000000021e-02 1.000000000000000021e-02 1.000000000000000021e-02 1.000000000000000021e-02 1.000000000000000021e-02 1.000000000000000021e-02 1.000000000000000021e-02 1.000000000000000021e-02 1.000000000000000021e-02 1.000000000000000021e-02 1.000000000000000021e-02 1.000000000000000021e-02 1.000000000000000021e-02 1.000000000000000021e-02 1.000000000000000021e-02 1.000000000000000021e-02 1.000000000000000021e-02 1.000000000000000021e-02 1.000000000000000021e-02 1.000000000000000021e-02 1.000000000000000021e-02 1.000000000000000021e-02 1.000000000000000021e-02 1.000000000000000021e-02 1.000000000000000021e-02 1.000000000000000021e-02 1.000000000000000021e-02 1.000000000000000021e-02 1.000000000000000021e-02 1.000000000000000021e-02 1.000000000000000021e-02 1.000000000000000021e-02 1.000000000000000021e-02 1.000000000000000021e-02 1.000000000000000021e-02 1.000000000000000021e-02 1.000000000000000021e-02 1.000000000000000021e-02 1.000000000000000021e-02 1.000000000000000021e-02 1.000000000000000021e-02 1.000000000000000021e-02 1.000000000000000021e-02 1.000000000000000021e-02 1.000000000000000021e-02 1.000000000000000021e-02 1.000000000000000021e-02 1.000000000000000021e-02 1.000000000000000021e-02 1.000000000000000021e-02 1.000000000000000021e-02 1.000000000000000021e-02 1.000000000000000021e-02 1.000000000000000021e-02 1.000000000000000021e-02 1.000000000000000021e-02 1.000000000000000021e-02 1.000000000000000021e-02 1.000000000000000021e-02 1.000000000000000021e-02 1.000000000000000021e-02 1.000000000000000021e-02 1.000000000000000021e-02 1.000000000000000021e-02 1.000000000000000021e-02 1.000000000000000021e-02 1.000000000000000021e-02 1.000000000000000021e-02 1.000000000000000021e-02 1.000000000000000021e-02 1.000000000000000021e-02 1.000000000000000021e-02 1.000000000000000021e-02 1.000000000000000021e-02 1.000000000000000021e-02 1.000000000000000021e-02 1.000000000000000021e-02 1.000000000000000021e-02 1.000000000000000021e-02 1.000000000000000021e-02 1.000000000000000021e-02 1.000000000000000021e-02 1.000000000000000021e-02 1.000000000000000021e-02 1.000000000000000021e-02 1.000000000000000021e-02 1.000000000000000021e-02 1.000000000000000021e-02 1.000000000000000021e-02 1.000000000000000021e-02 1.000000000000000021e-02 1.000000000000000021e-02 1.000000000000000021e-02 1.000000000000000021e-02 1.000000000000000021e-02 1.000000000000000021e-02 1.000000000000000021e-02 1.000000000000000021e-02 1.000000000000000021e-02 1.000000000000000021e-02 1.000000000000000021e-02 1.000000000000000021e-02 1.000000000000000021e-02 1.000000000000000021e-02 1.000000000000000021e-02 1.000000000000000021e-02 1.000000000000000021e-02 1.000000000000000021e-02 1.000000000000000021e-02 1.000000000000000021e-02 1.000000000000000021e-02 1.000000000000000021e-02 1.000000000000000021e-02 1.000000000000000021e-02 1.000000000000000021e-02 1.000000000000000021e-02 1.000000000000000021e-02 1.000000000000000021e-02 1.000000000000000021e-02 1.000000000000000021e-02 1.000000000000000021e-02 1.000000000000000021e-02 1.000000000000000021e-02 1.000000000000000021e-02 1.000000000000000021e-02 1.000000000000000021e-02 1.000000000000000021e-02 1.000000000000000021e-02 1.000000000000000021e-02 1.000000000000000021e-02 1.000000000000000021e-02 1.000000000000000021e-02 1.000000000000000021e-02 1.000000000000000021e-02 1.000000000000000021e-02 1.000000000000000021e-02 1.000000000000000021e-02 1.000000000000000021e-02 1.000000000000000021e-02 1.000000000000000021e-02 1.000000000000000021e-02 1.000000000000000021e-02 1.000000000000000021e-02 1.000000000000000021e-02 1.000000000000000021e-02 1.000000000000000021e-02 1.000000000000000021e-02 1.000000000000000021e-02 1.000000000000000021e-02 1.000000000000000021e-02 1.000000000000000021e-02 1.000000000000000021e-02 1.000000000000000021e-02 1.000000000000000021e-02 1.000000000000000021e-02 1.000000000000000021e-02 1.000000000000000021e-02 1.000000000000000021e-02 1.000000000000000021e-02 1.000000000000000021e-02 1.000000000000000021e-02 1.000000000000000021e-02 1.000000000000000021e-02 1.000000000000000021e-02 1.000000000000000021e-02 1.000000000000000021e-02 1.000000000000000021e-02 1.000000000000000021e-02 1.000000000000000021e-02 1.000000000000000021e-02 1.000000000000000021e-02 1.000000000000000021e-02 1.000000000000000021e-02 1.000000000000000021e-02 1.000000000000000021e-02 1.000000000000000021e-02 1.000000000000000021e-02 1.000000000000000021e-02 1.000000000000000021e-02 1.000000000000000021e-02 1.000000000000000021e-02 1.000000000000000021e-02 1.000000000000000021e-02 1.000000000000000021e-02 1.000000000000000021e-02 1.000000000000000021e-02 1.000000000000000021e-02 1.000000000000000021e-02 1.000000000000000021e-02 1.000000000000000021e-02 1.000000000000000021e-02 1.000000000000000021e-02 1.000000000000000021e-02 1.000000000000000021e-02 1.000000000000000021e-02 1.000000000000000021e-02 1.000000000000000021e-02 1.000000000000000021e-02 1.000000000000000021e-02 1.000000000000000021e-02 1.000000000000000021e-02 1.000000000000000021e-02 1.000000000000000021e-02 1.000000000000000021e-02 1.000000000000000021e-02 1.000000000000000021e-02 1.000000000000000021e-02 1.000000000000000021e-02 1.000000000000000021e-02 1.000000000000000021e-02 1.000000000000000021e-02 1.000000000000000021e-02 1.000000000000000021e-02 1.000000000000000021e-02 1.000000000000000021e-02 1.000000000000000021e-02 1.000000000000000021e-02 1.000000000000000021e-02 1.000000000000000021e-02 1.000000000000000021e-02 1.000000000000000021e-02 1.000000000000000021e-02 1.000000000000000021e-02 1.000000000000000021e-02 1.000000000000000021e-02 1.000000000000000021e-02 1.000000000000000021e-02 1.000000000000000021e-02 1.000000000000000021e-02 1.000000000000000021e-02 1.000000000000000021e-02 1.000000000000000021e-02 1.000000000000000021e-02 1.000000000000000021e-02 1.000000000000000021e-02 1.000000000000000021e-02 1.000000000000000021e-02 1.000000000000000021e-02 1.000000000000000021e-02 1.000000000000000021e-02 1.000000000000000021e-02 1.000000000000000021e-02 1.000000000000000021e-02 1.000000000000000021e-02 1.000000000000000021e-02 1.000000000000000021e-02 1.000000000000000021e-02 1.000000000000000021e-02 1.000000000000000021e-02 1.000000000000000021e-02 1.000000000000000021e-02 1.000000000000000021e-02 1.000000000000000021e-02 1.000000000000000021e-02 1.000000000000000021e-02 1.000000000000000021e-02 1.000000000000000021e-02 1.000000000000000021e-02 1.000000000000000021e-02 1.000000000000000021e-02 1.000000000000000021e-02 1.000000000000000021e-02 1.000000000000000021e-02 1.000000000000000021e-02 1.000000000000000021e-02 1.000000000000000021e-02 1.000000000000000021e-02 1.000000000000000021e-02 1.000000000000000021e-02 1.000000000000000021e-02 1.000000000000000021e-02 1.000000000000000021e-02 1.000000000000000021e-02 1.000000000000000021e-02 1.000000000000000021e-02 1.000000000000000021e-02 1.000000000000000021e-02 1.000000000000000021e-02 1.000000000000000021e-02 1.000000000000000021e-02 1.000000000000000021e-02 1.000000000000000021e-02 1.000000000000000021e-02 1.000000000000000021e-02 1.000000000000000021e-02 1.000000000000000021e-02 1.000000000000000021e-02 1.000000000000000021e-02 1.000000000000000021e-02 1.000000000000000021e-02 1.000000000000000021e-02 1.000000000000000021e-02 1.000000000000000021e-02 1.000000000000000021e-02 1.000000000000000021e-02 1.000000000000000021e-02 1.000000000000000021e-02 1.000000000000000021e-02 1.000000000000000021e-02 1.000000000000000021e-02 1.000000000000000021e-02 1.000000000000000021e-02 1.000000000000000021e-02 1.000000000000000021e-02 1.000000000000000021e-02 1.000000000000000021e-02 1.000000000000000021e-02 1.000000000000000021e-02 1.000000000000000021e-02 1.000000000000000021e-02 1.000000000000000021e-02 1.000000000000000021e-02 1.000000000000000021e-02 1.000000000000000021e-02 1.000000000000000021e-02 1.000000000000000021e-02 1.000000000000000021e-02 1.000000000000000021e-02 1.000000000000000021e-02 1.000000000000000021e-02 1.000000000000000021e-02 1.000000000000000021e-02 1.000000000000000021e-02 1.000000000000000021e-02 1.000000000000000021e-02 1.000000000000000021e-02 1.000000000000000021e-02 1.000000000000000021e-02 1.000000000000000021e-02 1.000000000000000021e-02 1.000000000000000021e-02 1.000000000000000021e-02 1.000000000000000021e-02 1.000000000000000021e-02 1.000000000000000021e-02 1.000000000000000021e-02 1.000000000000000021e-02 1.000000000000000021e-02 1.000000000000000021e-02 1.000000000000000021e-02 1.000000000000000021e-02 1.000000000000000021e-02 1.000000000000000021e-02 1.000000000000000021e-02 1.000000000000000021e-02 1.000000000000000021e-02 1.000000000000000021e-02 1.000000000000000021e-02 1.000000000000000021e-02 1.000000000000000021e-02 1.000000000000000021e-02 1.000000000000000021e-02 1.000000000000000021e-02 1.000000000000000021e-02 1.000000000000000021e-02 1.000000000000000021e-02 1.000000000000000021e-02 1.000000000000000021e-02 1.000000000000000021e-02 1.000000000000000021e-02 1.000000000000000021e-02 1.000000000000000021e-02 1.000000000000000021e-02 1.000000000000000021e-02 1.000000000000000021e-02 1.000000000000000021e-02 1.000000000000000021e-02 1.000000000000000021e-02 1.000000000000000021e-02 1.000000000000000021e-02 1.000000000000000021e-02 1.000000000000000021e-02 1.000000000000000021e-02 1.000000000000000021e-02 1.000000000000000021e-02 1.000000000000000021e-02 1.000000000000000021e-02 1.000000000000000021e-02 1.000000000000000021e-02 1.000000000000000021e-02 1.000000000000000021e-02 1.000000000000000021e-02 1.000000000000000021e-02 1.000000000000000021e-02 1.000000000000000021e-02 1.000000000000000021e-02 1.000000000000000021e-02 1.000000000000000021e-02 1.000000000000000021e-02 1.000000000000000021e-02 1.000000000000000021e-02 1.000000000000000021e-02 1.000000000000000021e-02 1.000000000000000021e-02 1.000000000000000021e-02 1.000000000000000021e-02 1.000000000000000021e-02 1.000000000000000021e-02 1.000000000000000021e-02 1.000000000000000021e-02 1.000000000000000021e-02 1.000000000000000021e-02 1.000000000000000021e-02 1.000000000000000021e-02 1.000000000000000021e-02 1.000000000000000021e-02 1.000000000000000021e-02 1.000000000000000021e-02 1.000000000000000021e-02 1.000000000000000021e-02 1.000000000000000021e-02 1.000000000000000021e-02 1.000000000000000021e-02 1.000000000000000021e-02 1.000000000000000021e-02 1.000000000000000021e-02 1.000000000000000021e-02 1.000000000000000021e-02 1.000000000000000021e-02 1.000000000000000021e-02 1.000000000000000021e-02 1.000000000000000021e-02 1.000000000000000021e-02 1.000000000000000021e-02 1.000000000000000021e-02 1.000000000000000021e-02 1.000000000000000021e-02 1.000000000000000021e-02 1.000000000000000021e-02 1.000000000000000021e-02 1.000000000000000021e-02 1.000000000000000021e-02 1.000000000000000021e-02 1.000000000000000021e-02 1.000000000000000021e-02 1.000000000000000021e-02 1.000000000000000021e-02 1.000000000000000021e-02 1.000000000000000021e-02 1.000000000000000021e-02 1.000000000000000021e-02 1.000000000000000021e-02 1.000000000000000021e-02 1.000000000000000021e-02 1.000000000000000021e-02 1.000000000000000021e-02 1.000000000000000021e-02 1.000000000000000021e-02 1.000000000000000021e-02 1.000000000000000021e-02 1.000000000000000021e-02 1.000000000000000021e-02 1.000000000000000021e-02 1.000000000000000021e-02 1.000000000000000021e-02 1.000000000000000021e-02 1.000000000000000021e-02 1.000000000000000021e-02 1.000000000000000021e-02 1.000000000000000021e-02 1.000000000000000021e-02 1.000000000000000021e-02 1.000000000000000021e-02 1.000000000000000021e-02 1.000000000000000021e-02 1.000000000000000021e-02 1.000000000000000021e-02 1.000000000000000021e-02 1.000000000000000021e-02 1.000000000000000021e-02 1.000000000000000021e-02 1.000000000000000021e-02 1.000000000000000021e-02 1.000000000000000021e-02 1.000000000000000021e-02 1.000000000000000021e-02 1.000000000000000021e-02 1.000000000000000021e-02 1.000000000000000021e-02 1.000000000000000021e-02 1.000000000000000021e-02 1.000000000000000021e-02 1.000000000000000021e-02 1.000000000000000021e-02 1.000000000000000021e-02 1.000000000000000021e-02 1.000000000000000021e-02 1.000000000000000021e-02 1.000000000000000021e-02 1.000000000000000021e-02 1.000000000000000021e-02 1.000000000000000021e-02 1.000000000000000021e-02 1.000000000000000021e-02 1.000000000000000021e-02 1.000000000000000021e-02 1.000000000000000021e-02 1.000000000000000021e-02 1.000000000000000021e-02 1.000000000000000021e-02 1.000000000000000021e-02 1.000000000000000021e-02 1.000000000000000021e-02 1.000000000000000021e-02 1.000000000000000021e-02 1.000000000000000021e-02 1.000000000000000021e-02 1.000000000000000021e-02 1.000000000000000021e-02 1.000000000000000021e-02 1.000000000000000021e-02 1.000000000000000021e-02 1.000000000000000021e-02 1.000000000000000021e-02 1.000000000000000021e-02 1.000000000000000021e-02 1.000000000000000021e-02 1.000000000000000021e-02 1.000000000000000021e-02 1.000000000000000021e-02 1.000000000000000021e-02 1.000000000000000021e-02 1.000000000000000021e-02 1.000000000000000021e-02 1.000000000000000021e-02 1.000000000000000021e-02 1.000000000000000021e-02 1.000000000000000021e-02 1.000000000000000021e-02 1.000000000000000021e-02 1.000000000000000021e-02 1.000000000000000021e-02 1.000000000000000021e-02 1.000000000000000021e-02 1.000000000000000021e-02 1.000000000000000021e-02 1.000000000000000021e-02 1.000000000000000021e-02 1.000000000000000021e-02 1.000000000000000021e-02 1.000000000000000021e-02 1.000000000000000021e-02 1.000000000000000021e-02 1.000000000000000021e-02 1.000000000000000021e-02 1.000000000000000021e-02 1.000000000000000021e-02 1.000000000000000021e-02 1.000000000000000021e-02 1.000000000000000021e-02 1.000000000000000021e-02 1.000000000000000021e-02 1.000000000000000021e-02 1.000000000000000021e-02 1.000000000000000021e-02 1.000000000000000021e-02 1.000000000000000021e-02 1.000000000000000021e-02 1.000000000000000021e-02 1.000000000000000021e-02 1.000000000000000021e-02 1.000000000000000021e-02 1.000000000000000021e-02 1.000000000000000021e-02 1.000000000000000021e-02 1.000000000000000021e-02 1.000000000000000021e-02 1.000000000000000021e-02 1.000000000000000021e-02 1.000000000000000021e-02 1.000000000000000021e-02 1.000000000000000021e-02 1.000000000000000021e-02 1.000000000000000021e-02 1.000000000000000021e-02 1.000000000000000021e-02 1.000000000000000021e-02 1.000000000000000021e-02 1.000000000000000021e-02 1.000000000000000021e-02 1.000000000000000021e-02 1.000000000000000021e-02 1.000000000000000021e-02 1.000000000000000021e-02 1.000000000000000021e-02 1.000000000000000021e-02 1.000000000000000021e-02 1.000000000000000021e-02 1.000000000000000021e-02 1.000000000000000021e-02 1.000000000000000021e-02 1.000000000000000021e-02 1.000000000000000021e-02 1.000000000000000021e-02 1.000000000000000021e-02 1.000000000000000021e-02 1.000000000000000021e-02 1.000000000000000021e-02 1.000000000000000021e-02 1.000000000000000021e-02 1.000000000000000021e-02 1.000000000000000021e-02 1.000000000000000021e-02 1.000000000000000021e-02 1.000000000000000021e-02 1.000000000000000021e-02 1.000000000000000021e-02 1.000000000000000021e-02 1.000000000000000021e-02 1.000000000000000021e-02 1.000000000000000021e-02 1.000000000000000021e-02 1.000000000000000021e-02 1.000000000000000021e-02 1.000000000000000021e-02 1.000000000000000021e-02 1.000000000000000021e-02 1.000000000000000021e-02 1.000000000000000021e-02 1.000000000000000021e-02 1.000000000000000021e-02 1.000000000000000021e-02 1.000000000000000021e-02 1.000000000000000021e-02 1.000000000000000021e-02 1.000000000000000021e-02 1.000000000000000021e-02 1.000000000000000021e-02 1.000000000000000021e-02 1.000000000000000021e-02 1.000000000000000021e-02 1.000000000000000021e-02 1.000000000000000021e-02 1.000000000000000021e-02 1.000000000000000021e-02 1.000000000000000021e-02 1.000000000000000021e-02 1.000000000000000021e-02 1.000000000000000021e-02 1.000000000000000021e-02 1.000000000000000021e-02 1.000000000000000021e-02 1.000000000000000021e-02 1.000000000000000021e-02 1.000000000000000021e-02 1.000000000000000021e-02
-1.065367084443274308e+02 1.620969931297700555e+02 3.752299547803907842e+01 -8.424531016473732592e+00 -8.393474754798975823e+01 -1.278739446985384021e+01 -1.986671876124464404e+02 6.841582582102948562e-01 -8.089585906496090217e+01 -1.356135870707099578e+01 -1.896986680729974140e+01 6.269178205701663842e+00 -1.703723053120246522e+00 1.602904312798267767e+02 8.085169884996740564e+01 -3.710195129547874160e+01 -5.050385199187535790e+01 7.567945104091457154e+01 3.137011945627741838e+01 -2.425712952516882837e+01 -7.530625148848110939e+01 -7.048121056361217995e+01 -1.316976668620168844e+01 2.764195272377135737e+01 -1.862055414006533169e+02 -9.429627661118539095e+01 -2.493303023487166570e+01 1.926053744338958325e+02 6.760440160143112109e+01 7.335076719528554179e+01 7.672459031274976837e+01 1.125512357301256205e+00 -7.582248942851128959e+01 1.982799604766929633e+02 -2.340084211432319705e+02 5.628237167685910691e+01 -1.147178471462232778e+02 -3.315122568252318302e+01 3.860788515462306059e+00 1.210728499278446151e+02 -1.174026367761481993e+02 -1.300318726232470112e+01 7.387491531177136039e+01 1.658913934889894222e+02 6.813960168272238604e+01 -6.530847047074072975e+01 3.931597348573989592e+01 -2.714246911194046774e+01 -6.312156735099225813e+01 1.496070893682490635e+02 -6.732329328078603226e+01 -4.976060088438213569e+01 -1.332097039240738923e+02 5.589349673731397239e+00 -4.825965500243837170e+01 3.696469728898039619e+01 -8.478818610371510545e+01 -4.781612433029471987e+01 -9.690125873650545429e+01 -1.485555381606533842e+02 1.853811023817691606e+01 4.340775589071786555e+01 -1.176672343187756979e+02 1.227485615270602537e+01 -7.572408060327943247e+01 4.694602209161298134e+01 1.593030795947910576e+02 -1.378833291445540397e+02 -4.136236662193690705e+01 6.912238339136239418e+00 2.814330691075412894e+00 4.051671337099022452e+01 8.025589422059499611e+01 7.324670151238497073e-01 -8.459448953454216991e+00 -6.689369796982052208e+01 7.476768010799833064e+01 -3.124758040933535241e+01 2.514947197413999902e+01 9.942044786240786891e+01 8.427100492543105759e+01 -4.088369752566692483e+01 5.517568578800629808e+01 1.408881878524667286e+02 1.110717590733219566e+02 -3.805319021587473483e+00 1.664512648658541707e+02 -1.065929956953438591e+02 3.968615150450658380e+00 -4.008076789470725743e+01 1.976394656488627390e+02 -2.028319491837877209e+01 2.780528353146330733e+00 -7.338122972239737862e+01 -6.840636997752896242e+00 -6.097308519694169604e+01 6.479106800971656810e+01 -9.037612810601414992e+01 6.562171087066059272e+01 -4.566529271057861905e+01 -4.753259580596154166e+01 -8.761064325998046343e+01 5.069407157658252316e+01 -5.224049787752672813e+01 -1.427075380791786756e+02 -7.592010691781074172e+01 -9.996192999166964910e+01 -1.502561378513826469e+02 1.298916378970290850e+02 -2.620789523068943794e+01 3.063181685008784783e+01 8.569153370677413761e+01 -9.941047304686487962e+01 5.441120909286618712e+01 -4.139286642606919742e+01 -6.636531129356193048e+01 -8.616459781316405042e+01 1.941663115730132176e+02 -5.421935098212427562e+01 -4.734057868950764458e+01 -4.505484260556890774e+01 7.682672608457512808e+01 -3.959409992661483102e+01 1.318301989939926955e+02 -4.774262071058888779e+01 5.271282365806461456e+01 4.342445205436399114e+00 -7.746169924580163979e+01 6.571408611711437686e+01 2.651214749884386492e+02 -8.801282555280208442e+01 4.535778884059298122e+01 -7.292334032833383617e+01 4.324921167019233081e+01 1.254175767493009914e+02 -4.918346810376322509e+01 1.398756037045543366e+01 -2.577143577110544115e+01 -9.748166005920339217e+01 -1.661911448295225213e+01 4.134335232927858428e+00 -7.460088779599670872e+00 -1.427607572314092366e+01 1.129889018494561554e+02 1.247017297014218826e+02 1.783301182645885206e+02 -2.910910155309719585e+02 3.652766487730381328e+01 -1.509873044793967267e+01 -5.961757458221007511e+01 1.725112670288811785e+02 7.280535689133544963e+01 -2.523058427741660559e+00 -1.108946352874867358e+02 -1.039301807140250489e+01 9.576516847200689142e+01 -1.285340614648929147e+02 -1.613137757536439096e+02 1.027514905823236546e+01 4.057836835230154549e+01 -5.841806780459265269e+01 4.023463710343227717e+01 -1.024707073319086419e+02 -1.447968072577275791e+02 2.017033225845007394e+01 4.649514814385435812e+01 4.628518351706772727e+00 -7.984934505357341550e+01 -8.958950648911907422e+01 -8.066937724249812902e+01 -8.383834595361122410e+01 1.214393437129452025e+01 5.440716365891511686e+01 1.116121359841497309e+02 7.607125176015534862e+01 8.577748095887865531e+01 1.030209722940440713e+02 -7.166064479661176279e+01 -7.907095259931951148e+01 6.760460535995426312e+01 6.576627960669868855e+01 5.679455439253441540e+01 -8.992188389015668193e+00 -8.735836365928260250e+01 5.181048328739066022e+01 -1.719039774152725215e+02 6.449488077068861003e+01 -4.271491151411720466e+01 -9.257275454516779689e+01 7.127043171471466110e+01 -1.650185117095577425e+01 -7.405416821520603321e+01 -5.517516110306358712e+01 -8.827624113844249720e+00 2.333304409736952607e+02 7.401191636364872295e+01 5.275077392241458085e+01 -9.989043324562811677e+01 1.426712881387354344e+02 1.042363603288583906e+00 -8.696378927067236475e+01 1.500367515055415595e+02 -1.484129420518266897e+02 1.519792433560147416e+01 -3.130629830343216469e+01 -2.140553620439136182e+02 -1.298286452452360038e+02 -8.492829650447824008e+01 -2.865795954552597635e+01 -1.160661057776655127e+02 5.611742558202266196e+01 6.330432657963529408e+01 -2.689511409514559759e+01 -9.719407718632511717e+01 1.101313792625162193e+02 1.150552332635186303e+02 4.500035146596816560e+01 1.706916987542971142e+01 2.546774913703341099e+02 4.251774542226857534e+01 -1.164801382226913944e+02 -4.394556561345788737e+01 -1.645055702331125644e+02 3.106438408253142924e+01 1.493812208473066505e+02 -1.445003630539332846e+02 1.284156156211673192e+02 -8.868082827226052700e+01 -1.847569861034648042e+01 -8.113079739029651627e-01 5.157278692942266929e+01 -1.127342261111008526e+01 -2.227430053369864282e+01 -1.831452551245641658e+01 -1.236836714707174139e+02 4.524336536496817018e+01 -2.958253671577278965e+01 -1.258205101523910763e+01 -1.046457082256791615e+01 2.204732415526115119e+02 1.700506392643667937e+02 2.269874781155679386e+02 1.286071805501605354e+02 -8.448080671378247075e+01 7.332158401928990088e+01 2.065103284072935352e+01 4.634795143398950046e+01 -3.868595099414147853e+01 2.492518323802314342e+02 -2.276822544942446314e+01 -1.334579827711186795e+02 -1.457563501072544732e+01 -4.475248341769261629e+01 -7.551623833104572725e+01 4.211998021833005623e+01 -1.143168652936761021e+01 1.775727742690352216e+02 9.010579476729513715e+01 3.989749700876922134e+01 9.563387178457684001e+01 9.242497053524002126e+01 -2.243894849044164630e+01 1.363210859558317054e+02 2.592259837116888121e+01 8.750922247375284257e+01 4.657887199646800269e+01 6.756279436856080345e+00 -1.130186393866857202e+02 -1.131628880551711944e+02 -8.794090799943234060e+01 -1.519428425759561918e+01 8.467390004998455311e+01 -2.989376136009682838e+01 9.656812417737751275e+01 4.280842975220572555e+01 -7.102271601977044213e+01 -2.923312510227419381e+01 -5.721056279736718864e+01 1.716150949410096516e+01 -4.519472592304583713e+01 -1.094246112718671355e+02 1.186567232574089275e+02 1.185184650491346048e+02 -7.714566909344317480e+01 5.249979156377461820e+00 -4.427888355827649036e+01 -3.178026678624237888e+01 -1.107601821255460273e+01 -3.052376350703025665e+01 4.347753009421398929e+01 -1.373115108174565933e+02 -5.163163837928411937e+01 -1.482648706006605153e+02 1.699966040574986437e+02 -1.968157106617496410e+01 5.748386631710296513e+01 1.161163800950115643e+01 1.409101533154725416e+02 4.350921781082951867e+01 3.481713832033046430e+01 1.506345952603763010e+02 -4.805603855021060866e+01 -9.525588736125401113e+01 2.657083910921152281e+01 -1.541107292858695814e+02 -5.209018197233249481e+01 9.980577818851270422e+01 -1.243203052508530675e+02 -3.544405251868063544e+01 8.898776035221459324e+01 -9.203945346427138929e+01 -8.717683504169264097e+01 -8.052925994382729868e+01 -6.214053524128489414e+01 2.427743853107778307e+02 1.931422142324326217e+02 1.003188372762379004e+02 -9.956704798572863524e+01 7.289488053666953249e+01 -6.452838537901781990e+01 -3.066905620675600375e+01 1.619167352123820081e+01 -3.146028630375048252e+01 -9.125944949900635095e+01 -2.765012178737398241e+00 1.434273119948328379e+01 1.059256639568293537e+02 -1.250627880572468769e+02 4.087719456600938628e+01 6.205516009764088636e+01 3.355607885426480408e+01 -8.815018521239437632e+01 -1.444829096469696310e+02 1.878052459092344009e+02 -1.730351463063835382e+01 2.448573784145447974e+01 1.522414091222765080e+02 2.590981040489565146e+01 2.694131131024517956e+01 -4.329523025560404648e+01 8.610088791041037837e+01 -1.324323087231892941e+02 -2.990737720838336244e+01 -5.963001121077207145e+00 -5.183873237842002624e+01 6.164402661075146561e+00 2.061411183572947792e+01 -3.474608701401078292e+01 1.326684098519452348e+01 2.074673085193687427e+02 -2.660446315167715170e+01 -2.719870162524766499e+01 -9.866082268256485577e+01 -1.579846942374804275e+00 -7.833886345237981175e+01 6.172947810547952052e+00 1.087642939731722436e+02 -5.046555480610611966e+01 5.857543959291935387e+00 -5.267374539907544317e+01 3.206296989113479157e+00 8.457109417067147206e+01 -1.123668521754856897e+02 -9.394361962488149231e+01 -9.951116621501658699e+01 6.918125167902401529e+01 8.394568516683300174e+01 -8.941842843646408312e+01 6.077100715492309035e+01 2.506809748991404163e+01 3.751835279783554711e+01 -1.719946096374493294e+01 8.860232583692037167e+01 7.726559228615369079e+01 -7.489457359204320142e+01 1.141358191402175670e+01 7.840366850783081532e+01 7.061576076336245933e+01 -1.931613007643055724e+01 2.419264774278956764e+01 -1.285610602117620545e+02 4.707189373514668063e+01 -3.178807035898029554e+01 -3.170453642166672381e+01 1.679008225747382141e+02 4.596101409615849320e+01 1.165207356281060811e+02 1.851563289189081729e+02 -1.334628440912580913e+02 1.445583177816498619e+02 -6.154047169799572714e+01 -1.310261407455527944e+02 7.979667298040034495e+01 -1.299405762905245467e+02 -2.784247530693881956e+01 5.466479507815617467e+01 7.784663097595339032e+00 -1.630677212268694802e+02 8.171422274711447642e+01 2.447736558704313481e+01 6.697052063016215584e+01 3.521124387519706289e+01 9.172407139355883032e+00 -6.506046360820312202e+01 1.121528438472236928e+02 5.283051819374747282e+01 -6.021197604750684462e+01 -9.814824518309777091e+01 3.770215016752523951e+01 2.496658550383473241e+01 7.989296722000169382e+01 1.782024860499522561e+02 -2.385296459069409636e+01 -1.067958728579856427e+02 -8.206110164753320646e+01 -4.974250892819977565e+01 -4.294503667108494938e+01 -1.422146235893204107e+02 -2.184693294451927059e+01 1.255706769769594331e+02 7.223422287748526571e+01 -1.186111647507865285e+02 -1.453648213034924765e+02 -6.597917678024805355e+01 -7.394466851266592755e+01 1.423415773812945986e+02 -1.652394853823123810e+02 8.392783551454445501e+01 -4.464763984967111021e+00 -4.172382057031056490e+01 1.287069741743774287e+01 8.832419359286802774e+01 4.800960069835783628e+01 1.339522496672355771e+02 -1.542486549713976842e+02 -7.847677029280478678e+01 2.461088578631970236e+01 4.063246127298575061e+01 1.997478556861214827e+02 1.409918454303486612e+02 6.354240158467437993e+01 6.988062531321209292e+01 -3.295213209852242642e+01 1.471001285733596546e+02 -1.738636501038076858e+02 -6.148337114663231517e+01 -5.202111617000281285e+01 -5.019277764276723275e+01 -1.000530734655860954e+02 -1.453965074973426574e+01 -6.650433239876281277e+01 6.895167940766579306e+01 -8.851477887655100574e+00 -5.624073261494611131e+01 -6.026757391095051020e+01 1.746075817809079922e+02 5.723474556031701610e+01 -1.332640281271557292e+01 2.024252896410155529e+02 -1.050109595284587982e+02 -3.422608355640412725e+01 6.489204048565206051e+01 -1.363314022694577243e-01 1.452791093944702538e+01 -1.212670969594648085e+02 1.707222450403709502e+02 -4.740703048234796313e+01 -2.604243620756775357e+01 -1.062635841036678102e+02 1.219020382910061642e+02 9.281052165783414409e+01 -7.505681761171203448e+01 -3.646387542005165727e+01 3.774297818026791873e+01 -1.465732444869090045e+02 -2.058955404543379719e-01 -7.232674903673310496e+01 7.430583225985995632e+00 -1.046296456701628159e+02 -1.534573659320301431e+02 -6.842449296556272031e+01 1.434290933325186188e+02 5.470772020064084273e+01 -8.675571258617550541e+01 8.626081673740635836e+01 3.308642728127315280e+01 8.549851783612969314e+01 -4.074886706239066569e+01 -8.131451093847977063e+01 1.654448171004757171e+02 4.025362069457682423e+01 2.798857838684833510e+01 -7.056771399201244321e+01 -4.091531428196820741e+01 9.184294875785155909e+00 -6.941291418777878697e+00 -1.670949000489637513e+02 -3.347343903512995666e+01 6.224713110131414595e+01 1.078274543654907660e+02 1.505165274883763402e+02 -1.284629367278047063e+01 8.659651469518807687e+01 1.524085189756932834e+02 6.124575506501560085e+01 1.426102776687851872e+02 1.551731856647374030e+01 1.267991877393136946e+02 -8.104593217833121344e+01 5.147297201964816082e+01 2.826843342144115567e+01 7.318739259049652901e+01 -1.024699991906017971e+02 1.910611671463721564e+02 -1.240796399677129784e+02 8.517275153662791354e+01 -1.034874765371822605e+02 4.450944512871051728e+01 1.331060289900948490e+01 8.737043828660658562e+01 -7.093440206201545095e+01 -7.272481033955288865e+01 -1.071237372309450109e+01 8.577758554194495844e+01 -2.848889815100752898e+01 -1.568043424911486561e+01 -1.889044772297437191e+01 4.555240172055098569e+00 9.437600318264399846e+01 -6.012411907080308282e+01 -2.595702925712336295e+00 -1.861842285172580489e+02 1.171294981104617960e+02 -1.197967319867454137e+02 -7.085004653895352078e+01 -2.255517500543415821e+01 -1.035508846103568459e+02 -5.097063578925109795e+01 -5.620120349466401422e+01 -1.889690949157430211e+01 1.306379125209348331e+02 5.184567251207137417e+01 9.628807089626930349e+01 -1.305144321650885502e+02 -1.328775826841352057e+02 -2.749552326920461383e+02 9.801060741498174878e+01 9.993127505075078432e+01 4.060086148501425640e+01 -4.074779195855312253e+01 -3.562571857267742104e+01 -1.761504270269454082e+02 1.400741174697335509e+02 -1.029946453291380095e+02 1.025740220292173746e+02 -1.526444078158651507e+02 -1.373730733826828043e+01 -5.310649822759387462e+01 -1.143783589938004042e+02 -4.421963332041882211e+01 -1.204797597385420360e+01 -8.889152571050576057e+01 -9.921664319133067522e+01 -1.185829923347296422e+01 6.826679286888645493e+01 -1.195081094277311422e+02 -1.500197090184822812e+01 -7.073376552060079803e+01 -1.260421859764925046e+02 6.302400506230559252e+00 9.119404977431099724e+01 1.588147483191782214e+02 -1.827641496194275561e+01 -4.417471043724182067e+01 -1.191577427896976360e+02 -1.570422532222140433e+02 9.963186223919254303e+01 -6.980526432437113726e+01 7.580219018019785437e+01 9.018503293025903034e+00 2.802940875808916488e+01 7.088310252658037314e+01 -8.139190863915297314e+01 7.939684068400028139e+01 1.106989729404481153e+02 1.512742844016452750e+02 -1.118752317473466746e+02 9.984534059339485168e+01 -4.590353561838336560e+01 -8.721197414802180958e+01 2.061340981720067873e+02 4.725130350701746096e+01 8.017469630871741515e+01 2.035072177999349208e+01 -6.080917123257997048e+01 -3.355428666874453825e+01 -2.020907615858386066e+02 1.014756302251553279e+02 7.826020627783383077e+01 -7.270808948515654890e+01 -7.021335050845314640e+01 1.394545313996586344e+02 9.707588458513860985e+01 4.910567668538070052e+01 7.305541612783532912e+01 -7.523198012980838456e+00 9.911418861005320480e+01 -9.951185375931547128e+01 1.789757631330935794e+02 -3.792506186729823270e+01 -1.171996844292339830e+02 -3.623522186462392369e+01 6.890774934397305174e+01 1.415108012576718295e+02 1.232090606664698740e+01 1.669626058098680801e+02 5.011797377146140775e+01 3.231585336214605064e+01 -1.069064988353002548e+02 4.300189822749089785e+01 -1.200375109205640172e+02 4.584258972874239646e+01 3.703455732686595780e+01 -1.185219760333675509e+02 -8.168425340279982549e+01 3.829492779823663540e+01 8.380369682497958550e+00 -2.228309450895439880e+01 4.024295440867967244e+01 -2.055953902869442373e+01 -6.059758383384017577e+01 -2.522824526295253733e+01 -2.152172171749538876e+01 -3.824361377717139732e+01 1.801767000566971433e+01 -7.736465516863486869e+01 1.142404627859638850e+02 -7.132443561663679077e+01 -4.014704427457147062e+00 6.306214679635645126e+01 3.713661197360095922e+00 1.534168913882405327e+01 1.534455982476402980e+01 -1.124766101049111882e+02 -4.228851794213338344e+00 6.247011155902603008e+01 -2.222691130407731350e+02 -8.154348812204642627e+01 -1.082213459773291220e+02 4.206912601605489499e+01 9.239945170214056702e+01 -8.813818694574023027e+01 -1.612293170018695321e+02 -1.778650726049371826e+02 1.915723042598020953e+01 -1.391495832490082876e+02 -6.078848202397511002e+00 1.416798017029465484e+02 -6.775191178948726467e+00 3.561037408676453708e+01 -9.478924769284908791e+01 7.652867152023846131e+01 -1.135432374726198077e+02 -1.478836929529188282e+01 -2.897599651271835342e+01 5.512766238693983922e+01 -8.442893882937834604e+00 1.010760680331803485e+02 -1.167618781332258777e+02 -4.788606390803659707e+01 8.286976224966285542e+01 6.321489657854676381e+01 -7.863062709927550031e+01 -5.198470223110366106e+01 -4.717041730444879732e+01 -2.763128985846007595e+02 1.847330222318476842e+02 7.257634819006989346e+01 -2.247522739650095502e+01 -2.830566928165975327e+01 3.960556145836100939e+01 -8.016445025112774658e+01 9.483289189710616540e+01 5.765523830140438832e+01 7.802216997682675981e+01 -8.010537221345281012e+01 -2.521561002749423608e+01 3.171297542191837948e+01 1.654924290636382267e+01 -4.080902822416467757e+01 1.504068452192634311e+02 -1.644495982935068312e+01 3.371779474912831631e+01 -2.187987928137175970e+02 -8.055418863317868272e+01 -6.958961479916490589e+01 2.191484726173790065e+01 1.038757313298934264e+02 -2.205310137829446830e+02 -1.779570514220217206e+02 2.108370108086258767e+02 -1.004887465705751559e+01 9.135551767321992145e+01 5.956595643824081066e+01 -5.263394924515353068e+01 -1.246135921932575457e+02 -9.052147016611694141e+01 -4.779376461793782482e+01 -3.557756875651585204e+01 -3.725424112963862910e+01 1.533356320458151956e+01 3.541675745064836889e+01 1.587480809689502621e+02 1.172615954316115108e+02 6.670277090137463283e+00 -4.202052412197705422e+00 -1.509885831405449892e+02 1.138205717228063776e+02 1.515229832129000158e+02 -9.843442931619523506e+01 7.012394151034615675e+01 1.591725808915511520e+00 5.227602062854725062e+01 1.192468830769344379e+02 6.748572093385786275e+01 -1.275323325282049183e+02 1.532218171323549605e+01 -2.795919808095051806e+01 1.060567813532072634e+01 -2.195733166000605507e+01 4.312886535203210059e+01 -2.480663350484266232e+02 1.724046670900743550e+02 6.897293625598518219e+00 1.517394286632375611e+02 -1.000319552099976761e+01 1.010655374432639633e+02 6.820929787196826055e+01 -3.996023348793176666e+01 2.854337143313725278e+01 -6.940088564003019656e+01 -8.481868606307574510e+01 -6.864763532860246187e+01 -3.055815156023924928e+01 4.304868783998693260e+01 1.050098376071405823e+02 2.713010634142455757e+01 5.930562615203303523e+01 -9.998279840198054558e+01 -1.308001628317472296e+02 -1.286131351356656971e+01 4.423543737603140613e+01 -4.332867713108803542e+01 9.027521346671588276e+01 5.301495116517861561e+01 -2.637106104487285663e+01 2.857234988393193120e+01 5.860439119323052637e+01 -6.880296865074906520e+01 -1.276385589013734574e+02 1.355993427208001378e+02 7.457227893310116151e+00 4.787236741308466748e+01 -1.426099853749630029e+02 -5.101945414393003375e+01 -4.069024282321446750e-01 -6.290592761705347158e+01 4.067395295178402037e+00 5.381741683604949600e+01 1.782438111934212941e+02 3.741719935634117888e+01 -1.047615644696299242e+01 6.911964877450773770e+01 -4.348334835411218080e+01 -1.042483966403858062e+02 -1.321981891403771101e+02 8.954899763970095350e+00 2.403209203758826362e+01 2.282638975362094769e+01 -5.445691210592690368e+01 1.156696751595882944e+02 -7.739267373732781152e+01 1.228968468970595893e+02 8.360897747535197766e+01 -6.230581257248164206e+01 -8.123755355891194085e+01 8.070757923204675421e+01 1.955253034062202389e+01 -5.035802743766466705e+01 -5.160736563084904560e+01 1.311457092364045991e+02 5.499374260324599106e+01 7.666834202030265999e+01 2.508159616791772351e+01 -4.032657195170114051e+01 1.030468612560114821e+02 -5.236943395856525996e+01 5.560506194162295746e-01 7.345416171141212658e+01 9.561858758281454129e+01 2.453704149864638850e+02 -1.682652127320585862e+02 1.545467622395496505e+02 -6.486726096592494173e+01 -1.463745467759038199e+01 -2.416150726669716775e+01 -1.992057934059586444e+01 -5.295377217369273382e+01 8.942046319551447198e+01 1.769403153374927626e+02 -1.142197147706870766e+02 2.975586854684562610e+01 -1.221063750231395773e+02 6.756043687649662388e+01 -4.279937745565079865e+01 -7.804714545687316729e+01 -5.194255367433785864e+01 3.970682882966451643e+01 1.865881742836117141e+01 -7.881202185496151458e+01 -1.360038323939810709e+02 2.002391265281011812e+01 1.520673179493092562e+02 1.378870755485353250e+01 1.761476286028157574e+02 7.195891054680950027e+00 1.300237550891078513e+02 -3.340740165852309929e+01 8.770254808614492958e+01 -6.903737182448566045e+01 -1.091398927646458361e+02 4.779893398876872368e+01 -5.608649378677175434e+01 -7.597742783273562850e+01 7.047911143071016227e+01 6.273921625326794427e+00 -9.124402342115421050e+01 -1.458123295612514312e+02 1.432782304174357364e+02 -8.638836885704293422e+01 -2.305701822041028137e+00 1.164070413427856465e+02 5.622852971471119332e+01 -9.524272574618868248e+01 1.034197525984242638e+01 2.736051669187154971e+02 5.170521193913189961e+01 -1.530552162401560565e+02 -4.633451981658856056e+01 -5.969133538536539874e+01 9.332509522768926757e+00 1.044736418771626063e+02 -1.005507409213974910e+02 2.098656573344545606e+01 1.267834146820705143e+02 1.824344928020463286e+01 -2.053691528765483270e+02 4.693143615767277765e+01 7.339328709896874159e+01 -1.322325451327753321e+01 3.187505349793335085e+01 1.779569390645707738e-01 2.195282290339355313e+01 2.697184243284025484e+01 1.126670623272755591e+02 9.537284045812714339e+01 1.522195873068783101e+01 1.449393260283854659e+02 -6.227022327558730552e+01 2.399218455884953585e+02 6.327418181337414183e+01 1.378893255419046966e+02 -2.136433469366277649e+01 8.764214106827724038e+01 -4.758415761602566363e+01 -1.424226160134215888e+02 2.544723812669059271e+01 9.240217129637679250e+01 -8.519472746557703147e+01 -1.019250056738725618e+02 -6.475144519555887257e+01 3.564153835073604881e+01 -1.111093415171374374e+02 7.268576008578872916e+01 2.727863170563943029e+01 -9.499396525338144670e+01 1.848142648129948782e+02 -1.144489774095870693e+01 -9.905642632673522030e+01 -1.306403136357260664e+01 -1.988938406303277517e+01 -1.364627274414380906e+02 -3.894349861437071070e+01 5.987186088571647247e+01 1.282812877909590270e+02 2.827545611733244968e+01 2.602123078188133221e+01 4.359071404508692638e+01 -3.475094267082667443e+01 -1.417402822372157800e+02 1.548034870856612244e+01 3.011748753884441143e+01 1.295801481796879386e+02 -9.612511205579547635e+00 -7.409201728802317177e+01 7.124761365491272613e+01 9.438159207185720101e-01 3.093795731608268440e+01 1.354976594273867079e+02 -1.727390591396244020e+02 -9.039488811252799394e+01 1.214224969711500250e+02 -2.040581422688409816e+02 -1.739522148672850221e+02 8.611289765582118605e+01 1.456602921459227957e+02 5.999935215795456145e+01 -4.242032622574863687e+00 1.472836625082942987e+02 -2.076642443377416214e+02 1.013557469760860670e+02 4.008234604308191251e+01 1.201943497018709053e+02 -1.783829086590030215e+02 1.007091848338541809e+02 -2.668631434363792465e+01 -1.264515538126550354e+02 -5.032831899358454208e+00 -8.738345415472645072e+01 -1.532106707134593471e+01 -4.127933831676311449e+00 -1.165272115939964976e+02 -1.166440259746901233e+02 -5.917566261670112482e+01 -1.219216405997001544e+02 1.900947808451329308e+02 -1.524200456359000952e+02 -4.746910577154555710e+01 1.632046213581223526e+02 3.209715163470540489e+01 -2.799779233087427883e+02 -1.202655780843319349e+02 3.357340275980916999e+01 5.170945508890834219e+01 8.063102935844927543e+00 -1.462138066338364695e+02 3.375335015204453981e+01 7.109717453579455615e+00 -7.030748411053829727e+01 1.917719418465148635e+02 1.915975615794139628e+02 4.117583268135351915e+00 -1.972694004520067494e+02 1.191553699680608105e+02 2.907891521595751527e+01 3.620948433802818833e+00 7.242635557980875660e+01 -1.962647229417174799e+02 -1.305407087407270410e+02 1.333737233076028588e+02 1.037220115117194439e+02 5.003021461961314031e+01 1.354129936606018134e+02 -1.686131789614395871e+02 -1.936613586697055567e+01 -1.233313523551023110e+02 4.132112775628312562e+01 -9.825362524547094267e+01 8.236524684289206277e+01 -3.209676259176119117e+01 1.171573034216312159e+01 1.678391362094359636e+02 2.701761973934260297e+01 -2.493022883783161205e+02 -1.195580185676506346e+02 -7.882585578703945828e+01 1.495501312333864234e+02 1.186273470084241666e+01 -5.099077289811940972e+01 2.866399907209608244e+01 5.909265289266480892e+01 -3.739616798261485542e+01 1.016891696605258772e+02 -9.529492222135337443e+01 4.654896018634203614e+01 1.058742544936046102e+02 -3.361795536416516228e+01 -9.281366915314032440e+01 -1.073309823505664440e+02 1.132788184181354865e+02 -4.700095098774483660e+01 1.859090068353195875e+02 5.410842933281005429e+01 1.049335276640867960e+02 1.745438811674432031e+02 8.090918791478344474e+00 -1.175914052048107692e+02 -1.567407336352253822e+02 -1.079760307548785931e+02 4.021798606371783791e+01
-1.254744872466929273e+01 -4.486031786009151645e+00 9.565166096603050505e+01 -2.116132508992222654e+02 1.435901737289566427e+02 5.864461451414688042e+01 1.405662852554782773e+02 -1.193376955499126097e+02 -2.549631806932173284e+00 -2.222242521517706138e+01 -2.027834876747282919e+02 3.020631119267466502e+01 -1.691998622299320232e+01 1.130015483245188079e+02 -1.155958538822722375e+02 5.701513327132477116e+01 1.157216832524364207e+02 -4.245943452889143543e+01 -4.578450874091066680e+01 -2.490362486707947909e+01 5.703712062011385342e+01 5.824224097317775062e+01 2.997146409224815855e+01 -2.147682278592924092e+02 -4.760801407039991773e+01 8.459200505074436194e+01 9.161448308315145894e+00 -9.597777877707034833e+00 -6.144131274231310869e+01 -1.433253309828463351e+01 6.774240455128186511e+01 -1.343048471272076085e+02 -5.724409274537365633e+01 8.276718030662857828e+00 1.917624524809561706e+02 1.958806323879466049e+02 -2.971360091644037738e+01 5.161703340227039405e+01 -2.343276271176041314e-01 -1.289714833778088519e+02 8.863267698464012767e+01 9.901961713327931136e+01 1.002171502521387652e+02 1.077696106071353199e+01 5.714449714080378584e+01 4.443748203663255936e+01 3.590221144956392152e+01 2.713224630752398170e+01 1.018455595369116793e+02 8.284138970082459252e+01 6.055297308476654905e+01 1.505443459561471968e+02 2.289167489095738972e+02 1.806442164358759044e+02 -5.462312227023981848e+01 4.550231847284469211e+01 -5.933972238957650802e+01 5.206456970009266172e+01 -1.775270640997566716e+02 5.217859882890612511e+01 -1.890802986435435287e+02 -1.558260832875795643e+02 1.196667701779645121e+01 -8.567016236654636074e+00 1.565526364782463418e+02 -1.921049303662460943e+02 6.951576322601393088e+01 2.123080122969356296e+02 -6.848781092116616342e+00 -1.799605115480691211e+02 3.279738107598456764e+01 1.821135673996232640e+02 -5.645142343267753660e+01 -2.462606344745810532e+02 -9.474444992622767359e+01 8.254162513408306978e+00 -2.125549947327035056e+02 2.967017631588326765e+01 -1.657979755763273602e+02 -1.714366411106965415e+02 -5.286092976144995248e+01 1.408430640939539273e+02 6.416430191929737248e+01 9.818794749037705216e+00 -8.198152528236479952e+01 -3.937545134660653900e+01 5.891038694127124842e+01 -2.146538677083131859e+02 5.001843842206285018e+01 -6.926892074930589160e+01 -7.227766622002485519e+01 -1.635027354076549670e+02 6.012347869758958296e+01 8.571556253293326222e+01 -1.501177362835375106e+02 1.598433750320588160e+02 -3.687758488119679612e+01 -1.565451014549413955e+01 8.111214987408686738e+01 1.446577612753257256e+02 2.014064428182990341e+01 1.401474085526810711e+02 -1.714034986344886846e+01 -8.393317969187651784e+01 -1.813835914053805709e+01 9.351866727370045851e+01 4.279915524058637288e+01 9.310310311407972961e+01 8.981585873982558610e+01 -7.909811704338022764e+01 -1.617138238101390186e+02 1.171085363448766259e+02 5.162032744510508309e+01 1.547788540528947721e+01 2.909525934229274569e+01 -6.465359609447048683e+01 9.140263169772416063e+01 8.555411206717077732e+01 -1.308720050058197693e+01 -6.784333640397119325e+01 2.920591138329765712e+01 5.988373186844571983e+00 -5.852167842254949193e+01 1.614852662360593172e+02 -3.119072969192171385e+01 1.157951796278578627e+02 -6.674295586670700686e+01 3.656148541593658763e+01 -3.433731121201476100e+01 8.524544807583603756e+01 2.235209179248607825e+01 1.101099347289477350e+02 -1.105536329114546135e+02 7.083538222740543233e+01 1.176287566962251532e+02 -4.257464290510127114e+01 7.311135604237835928e+00 -1.221272131302516684e+01 1.113493273013218499e+02 3.514685252115576919e+00 1.606992554947536576e+02 -1.348060447572012492e+02 1.111896848646131701e+02 -8.699952340378369797e+01 9.136911482955595432e+01 -1.307002108859561531e+02 2.813693823391746207e+01 2.361636932527433075e+01 1.685102672753697739e+00 3.464003632848969261e+01 4.391416896187690355e+01 -1.179489217969432424e+01 1.042581113782842372e+01 1.031396870611174705e+02 1.214052915944723026e+02 -8.276209493473766088e+01 -5.168073538934272904e+01 4.515382367727135460e+01 1.438681454019661299e+00 -1.307742193293900641e+02 -5.265791485280732331e+01 -3.378894680000822603e+01 4.667213389951763958e+01 -6.254894324119316451e+01 2.187142079458841692e+01 1.531848447690925639e+02 -7.588597185819790525e+01 7.724917168168873616e+01 8.031069844988121531e+01 1.079478395416093761e+01 1.179955855549337542e+02 6.011319457628400897e+01 1.606683964286115156e+02 -3.312578265305779013e+01 1.075327648266443390e+02 5.315969728996146415e+01 -1.536156792756170120e+01 1.953552380450844339e+02 -1.328290661916471720e+02 4.681687512622561087e+01 -1.796301599611603024e+02 -8.061088805374292576e+01 3.932858675830331663e+01 -6.919732658762841027e+01 -1.492934266923431039e+02 1.910600994744540060e+02 -8.222700963025279464e+01 -4.553605005045943699e+01 -4.436706580066192629e+01 1.167445807673216791e+02 1.867683638857192250e+02 6.209066266726350136e+01 1.402591088963366985e+02 2.105108591062915195e+02 -1.521972191894354287e+00 1.562141087494440512e+02 6.799033227045943306e+01 1.826335526337844044e+02 -1.206930222092018283e+02 -1.133910737544403347e+01 6.106378866990430865e+00 1.821901895565383143e+02 -8.713521395621793886e+01 -5.808133528729464956e+01 -5.077034057361284880e+01 -1.285950115199132711e+02 4.485531752530147465e+00 -9.681191402096143861e+01 1.479255796617839849e+02 2.257648721176244422e+01 1.149309363543087947e+01 6.936000137937450916e+01 -4.701757601520830221e+00 1.122626461270350831e+02 -1.524292819785628126e+02 4.358934106246132956e+01 -1.638188293912712084e+02 1.126472718603508838e+02 9.222168113004327950e+01 -6.453365992201692336e+01 4.491279748098707358e+01 2.284593242917251814e+02 -2.924399620402843425e+01 3.995213109149178621e+01 -3.135482807454862098e+01 5.559129977132554501e+01 6.163635771817384779e+01 -6.035496378921830107e+00 9.772996867477381500e+01 9.729425394159484597e+01 -1.859579291901677891e+02 -1.469802372788236937e+02 -1.149649598081554700e+02 -9.031393791103685231e+00 -1.436304970350604719e+02 1.108297677494966109e+02 1.058037105850007720e+02 5.660514811195626805e+01 1.071001841467523086e+01 1.512093625713786196e+02 8.051761349554526248e+01 6.475167301643605811e+01 -9.740941402458828691e+01 1.462031264865426579e+02 -3.468185564605673399e+00 1.048796504187798035e+02 8.462081988852027337e+00 3.522932372926421607e+01 -7.255224599810537711e+01 -8.698268838512854018e+01 6.863176943436150168e+01 -3.718131211619861709e+00 1.401097113576314257e+02 -1.202732726513279182e+01 -2.719961936764039301e+00 4.394697042518239982e+01 2.167421342255811112e+01 1.355068026016196256e+02 1.410098721300537861e+01 3.435762777756748676e+01 -1.481671132293130597e+02 6.303006685835807588e+01 1.279851269019831221e+02 -1.681407268626525564e+01 -2.182796779521666792e+02 8.078161593615558900e+01 1.302471445295261674e+02 1.950261880938242243e+01 1.806500182707121667e+02 -4.114949357856871437e+00 4.092804547692325912e+01 -4.165569065763612855e+01 -1.322371808579619028e+02 5.345136904871547046e+01 -4.528067944216348195e+01 -7.718293743857294942e+01 3.929467258012785180e+01 -1.760351695382947526e+02 6.822614615232352264e+01 1.566449996927492805e+02 -9.638030176720411646e+01 1.647333115663382728e+02 -9.288093504378389298e+01 -5.666624907284618651e+00 -1.004554551105734994e+01 7.293987924118233934e+01 -4.436728755715090955e+01 -1.024865840854886869e+02 -8.426083786485364158e+01 1.386086122774291027e+02 5.618900930431536977e+01 -1.253088067238717258e+02 4.189483856378906523e+00 4.122856082453453297e+01 7.840757239772598552e+01 -3.829721379980148299e+01 5.691007590196464605e+01 -6.548644657255456991e+01 -1.540738555329616304e+02 -3.286355324752612006e+01 1.337811902308046399e+02 -1.076469298110200583e+02 -6.047797151837357887e+00 -1.545036200908774902e+02 -4.621498761794978094e+00 -1.384007548979257649e+02 3.126832126496031705e+01 5.715220154282339138e+01 -4.772619018707362670e+01 -7.809741320905457940e+01 5.353962603511758012e+00 7.054536675425062242e+01 -6.424489588160531639e+01 1.276411170946808653e+02 1.000695622070829387e+02 -1.209525038870313978e+02 -9.992999879533793717e+01 1.279635875128958418e+02 6.752711924335041260e+01 1.422602983177317810e+02 9.463378042617689800e+01 7.679970973053100636e+01 -5.706286164581119635e+01 -7.734871143610320132e+01 -7.289672885807438263e+01 1.934562483355483096e+02 2.897268284298705510e+01 -2.357326936968143372e+01 -6.474197959314598450e+01 -4.717100605182922379e+01 -1.240567200075899450e+02 -1.554622532172564497e+01 -1.652836443098337327e+02 1.177570855650075430e+02 4.328866138883171999e+01 -1.084993451674792766e+02 -4.559662448853953265e+01 1.127591709701030993e+02 -9.124767428776760880e+01 9.685149965163058994e+01 -1.115836614419638835e+02 -1.109688430739211817e+01 -8.993556944892210936e+01 8.452287456404167187e+01 -3.998867589975341019e+01 9.639097463656813858e+00 2.764846129252733675e+01 -1.192232653459553404e+02 1.176454924294984572e+01 4.555630289445726078e+01 -2.101501570987458223e+01 -6.471038205275854693e+01 1.907364524276433428e+02 8.138966157670269297e+01 4.431985976635484548e+01 -2.955901516446006028e+01 7.547363615176578833e+01 1.577530907389041488e+02 -8.677977836899981412e+01 1.971605927790898534e+02 -1.252722714982011354e+02 -1.730596531219115946e+02 1.428108296664629790e+02 -2.201914352661345617e+02 -8.722396995492350813e-01 -2.304979291863143089e+02 -1.438500249269805806e+02 6.754961913272582308e+01 -1.369941742911236986e+02 5.491797289730160259e+01 1.035016782166861304e+02 -1.508494534968062339e+02 -2.829727636563114501e+01 7.097723571113354524e+01 1.260025449249001781e+02 -1.751632253145624247e+02 8.235372114453740267e+01 -9.219816845515947534e+01 -9.256748860354575115e+00 -1.301975005758416515e+01 -7.486022540261858182e+01 -8.494728699367921365e+01 1.706752652611750989e+02 -2.044818946822068639e+01 1.280381239307097685e+00 1.225884565126140728e+02 -8.166966808748368578e+01 -3.241359709935896660e+01 -1.014160368587495924e+02 -4.596852628148185005e+01 4.833243161329224158e+00 5.589817520089081881e+01 -1.273102606257233020e+02 2.236616167512594302e+02 -5.082087530406410281e+01 1.156855020986809990e+02 -4.608201433669912461e+01 1.130555980015672617e+02 1.314446020868137168e+02 4.525377460170855670e+01 1.152861777299164032e+02 -4.083756147767299893e+01 1.322482255258184125e+02 -1.479076439135633336e+02 -6.180970751564704813e+01 -5.951775075559022099e+01 2.419724128346206271e+01 -1.534076502980376233e+02 6.856797184955088653e+01 -2.916109157864797652e+01 -7.812981650034103609e+01 8.468004838498477227e+01 -1.428717428107941601e+02 -8.626966187689791354e+01 -4.980886155359213774e+01 3.126540841263609849e+01 1.227265154057047738e+02 1.104456270513249478e+02 6.530960871764715137e+01 -1.451999177452890866e+00 1.654129946051734805e+02 1.158555581370643495e+02 -8.936519177455780039e+01 -7.383346013371254912e+01 5.202830509469687570e+01 9.383804177522890200e+00 9.264155274357392500e+01 1.577006519059757466e+02 6.676100675368810755e+01 2.314185301205090539e+01 -9.666779533556261583e+01 1.623863113774080205e+02 -1.074524207066314432e+02 -1.562343473703826646e+02 6.214082329744064026e+01 1.054094255909776052e+02 1.858661890348670909e+01 -1.312311531358458296e+02 2.806357710379673165e+01 4.006113704586204705e+01 -3.663039962995536802e-01 1.237226793503808437e+02 9.244947225157886805e+01 1.617000231027211399e+01 7.400313969912450318e+01 -1.009738914907685086e+02 -6.041116487143010083e+00 9.289139278961931723e+01 2.804792812112997780e+01 -6.140207034606259384e+01 1.870377129589298022e+02 2.182213930608407679e+02 -1.184222496917466145e+02 -2.609966473117711416e+01 -1.983526054620831189e+02 -6.812670231327190606e+01 1.477260966396859772e+02 3.154077055326075296e+00 -6.699018361136977262e+01 1.545011253073168120e+02 -5.893745082035827920e+01 -1.515384663291264360e+02 1.288355076765345189e+02 -6.335696297012573552e+01 3.259084486349163967e+01 8.141078264343958892e+01 1.301674188985142244e+01 -2.247096156014602002e+02 3.993364213904219895e+01 -5.845126905176311283e+00 8.500314887104073591e+01 -2.222604304184202562e+01 9.530068741841452606e+01 1.604527978195557125e+01 -7.981253155505743280e+01 -1.932266298836790597e+01 -1.652489200345528104e+02 1.084010832648423275e+02 2.384688023574381788e+01 -3.922802720435799984e+01 -4.882892760129738008e+01 -5.934883492589099063e+01 3.879320793169416248e+01 1.515151624548689426e+02 1.250993682266465044e+02 4.056480949436561190e+01 -1.865518942377564429e+02 -3.657756809135062070e+01 4.132390860063521387e+01 1.105933274934866262e+02 8.217300235128725205e+01 1.454173664585549730e+01 -1.753534245126002702e+02 1.241013026603335874e+02 -2.109199912134210138e+02 -1.940215437523352477e+02 -1.710959449200387672e+00 -6.953641042441559250e+01 -2.276668468759410402e+01 8.211847969045082607e+01 5.271165540761603552e+01 -1.047997597122478766e+02 -1.428050803324788944e+02 1.373634905691847408e+01 1.165971870508314367e+02 1.946245647267995338e+01 -5.345821205423875710e+01 -4.871942055582700704e+01 -1.099679883690493121e+01 1.521269211233150429e+02 2.107449514009814351e+01 -1.667578440896874952e+02 1.232180780987894337e+02 -6.417061900923972928e+01 -4.004028440599250338e+00 1.477987646476050827e+02 -5.015780172443822948e+01 -1.881395933076433380e+01 -1.054339488718930653e+02 -5.752949374296939311e+00 -2.287944016815777104e+01 1.263547141334414619e+02 1.152146333646180523e+02 6.486206331694917537e+01 6.283857090860802685e+01 -1.794999107884763490e+01 1.296936426082820901e+02 -1.082472517185904763e+02 -4.076955809873044956e+00 -8.738549067016880656e+01 1.507272353159019929e+02 6.998531011622398523e+01 4.956764341207611579e+01 7.902238751021124052e+00 -5.117371539517951362e+01 3.299303227225972535e+01 6.437252042580830391e+00 3.542503682858607839e+00 2.311551285611244566e+01 5.736085213708246044e+01 1.633880164119065910e+02 -3.731479797401382115e+01 -4.986282711415248059e+01 6.409976166387622243e+01 1.109836914477164669e+02 -1.230213786271784748e+01 8.825795123084215277e+01 9.992903832625927407e+01 2.022965557115691695e+02 -8.303276775097603490e+01 -1.176921398967186576e+02 -2.749251652140642577e+01 5.966564770162115394e+01 -9.738635283085846694e+00 1.030525126598737415e+02 3.574801091319764623e+01 -1.560125631867669540e+02 4.321688163089638124e+01 -8.581467441302211796e+01 -1.297717103255050972e+02 1.290149051607776585e+02 -7.295919459063071599e+01 5.678045363173363569e+01 1.065769929949783403e+02 -9.489700076778404991e+01 2.255297910683967544e+01 -6.915840667243118389e+01 3.863896553295189307e+01 -1.099333753808330982e+02 5.906613938808390429e+01 5.242628359376964653e+01 3.681702197583903047e+00 8.050443949729357485e+01 -1.464665839138111778e+02 7.316481381781677840e+01 -2.812169457011509976e+01 -1.607111174512555465e+02 8.992733197752032481e+01 2.337153434095225535e+01 -1.865305555504579615e+02 2.238433582437675966e+02 -5.167239331251037848e-01 1.000278807668532011e+02 -1.147106434364633287e+02 -1.847243867518102718e+02 -8.877049362226082962e+01 2.393227683904695091e+00 1.358850394362004863e+02 3.747939551688848958e+00 -9.092312944411411024e+01 4.786860769840271246e+01 1.303575234192238952e+02 6.178332147158116783e+01 -4.918462883500108518e+01 -5.626733703770462114e+01 8.037953261390651960e+01 2.920123426998447869e+01 -1.860706073266431702e+02 -1.971740162266475593e+01 1.607716140151270849e+02 9.395418300079616358e+01 -5.455394688461168329e+01 -1.063500326429099232e+02 -4.058359267331636033e+01 -4.573699654642840073e+01 -1.088630744503078915e+02 -1.751341302131048039e+01 -4.342807170446933895e+01 -1.080802049541834577e+02 -1.255157160935952447e+02 -2.566007539318698605e+01 -1.195597606053723041e+02 -1.273415163930054206e+02 -3.646251066454037471e+01 -5.261486994487333391e+01 -1.056339993759225706e+02 1.834303633516683760e+02 1.036284332651844053e+01 -2.771180066240511763e+01 -1.674353577949431582e+01 7.751927299302309393e+01 1.542587790437039530e+01 2.468035643419831970e+01 -2.090598695996096268e+01 -4.563766331883178395e+01 2.059858836942356675e+01 -1.432660502552541288e+02 -1.568453512302279478e+02 -8.902916079157765239e+01 -1.880502714429315176e+02 -8.828689113703299540e+01 8.448467661629513259e+01 6.049433267527285807e+01 -2.566045530935325303e+01 5.987422291487821013e+01 -1.543043657702737619e+02 -4.031354221692149054e+01 -1.144532526219308295e+02 -6.576480638473053375e+01 2.079303766363033219e+02 -2.022767983053652472e+02 2.022504846560713645e+02 2.458121466429462743e+01 -5.560341751351763406e+01 9.082833163581460667e+01 1.222572930573170993e+02 -5.112285205785765640e+01 -2.007991268125132649e+02 -1.469068081555568597e+02 1.007925967708120680e+02 8.252772904890795758e+01 -1.335675171087663955e+02 3.145354541092625666e+01 -3.911978151201235221e+01 -7.626865378491713443e+01 -2.801268946797409143e+01 -5.400234702945900267e+01 -8.514292181508317015e+01 -3.357588934011771897e+01 4.479273021850557868e+00 -3.215986144455165174e+01 -3.519070532287034148e-01 -1.408787976089444349e+01 9.057235501346852402e+01 1.252706806255010576e+02 1.296158136718420195e+01 1.656357250501644884e+01 -6.223739630260141098e+01 -1.932174276327328926e+02 3.334965037465442350e+01 -9.036307186110936129e+01 2.547013881759178489e+01 -7.979653846785486060e+00 1.062063304726344359e+00 7.135761290736083140e+01 1.201164295998783871e+02 -6.946862055001572855e+01 3.744367714481925447e+01 -1.901141961805895448e+02 9.553617911250439576e+00 6.804592919565657816e+00 -1.207804892019903775e+02 -3.320987511113323620e+01 -4.368159675776942663e+01 4.689830106058934689e+00 -1.007435561672006230e+02 2.665251986025038988e+01 -9.621044928532130314e+01 5.520894746949834087e+01 6.689268964783127558e+01 3.636755486585332875e+01 -2.858928002723068218e+01 1.059184663190707028e+02 6.021550653507131301e+01 7.883711560621841841e+01 -6.603242356672609503e+01 1.993668573599413207e+01 1.259824078845661006e+02 -5.763802530800580115e+01 -6.818181786014499757e+00 3.150611632003823814e+01 -1.265203649172190978e+02 9.633262748114523788e+01 8.822911627899432574e+01 -9.966930804457743420e+01 -8.109831614118965604e+01 -5.470127126863986433e+01 -4.496681048929828250e+01 -1.577513589495665371e+02 -1.338024693389086792e+02 -1.304532892344030870e+02 1.040280812540574686e+02 5.889088821433076504e+01 1.570528047752493421e+02 7.098620584364462083e+00 -8.431620464609659393e+01 1.847116903158800483e+01 1.360498416897366170e+01 -6.256734264978220494e+01 7.286048391429147841e+01 1.161475969705047646e+02 9.785250453609821264e+00 1.409944377222278433e+02 2.211245001694435430e+01 1.091105366309649725e+02 1.480973341868029181e+01 -2.043317222650663609e+02 2.147306742498392111e+02 -4.811453777400485166e+01 -1.465347987538772827e+02 -6.605087018149825440e+01 -4.210469165276859371e+01 4.054012301426480747e+01 2.505231907941571379e+01 4.477974097296518607e+01 -7.243375971532654489e+01 1.196523551076690524e+02 -8.431860608815030389e+01 -6.854322793872317021e+00 1.391081549263168711e+02 1.070037670232678835e+02 5.666886581367131015e+01 -1.727734246089847261e+02 2.481274810853283697e+01 1.369161841607846100e+02 2.283673637129354006e+01 9.511113473410546248e+01 1.036712541517959210e+02 -2.059734308154625069e+02 7.488530941286579434e+01 -5.620497249739831602e+01 -2.188434454984217439e+02 8.605262601739407557e+01 2.386064761356980313e+01 -1.180230487835013520e+02 -5.655626148192486369e+01 1.338399174997974228e+02 1.421519517077177852e+02 -7.300340572634314640e+01 -1.228317901809664221e+02 -8.008913476431993672e+01 -1.590477896359239480e+02 1.875906176965202121e+01 3.634507319564824712e+01 -1.627694463265476088e+01 -1.183896427064686030e+01 -8.550106097444106013e+01 -8.422595945981933596e+01 -2.351238407512136774e+01 1.272606076026535362e+02 1.292589326414648951e+02 7.691935974817056376e+01 9.202893120203806632e+01 -7.431635267320741889e+01 -1.708452786118307927e+02 -1.245778284591208340e+01 -2.181355652252910815e+01 -6.706237865850786761e+01 1.396496029590406529e+00 6.892847821862012836e+01 -4.992327638475236284e+01 2.333157857209335617e+01 7.472578327003081711e+01 6.615483461138994414e+01 1.043222635383273911e+02 -1.407373940440500633e+02 3.739475393677601289e+01 7.861098178724530783e+01 8.940902537647663451e+01 5.570635677787944928e+01 -9.740544852492514849e+01 1.291884728975383609e+02 1.202957840980724598e+02 9.044557232771695965e+01 9.580756544189682700e+01 -7.945046958587526831e+01 -1.401584472840667139e+01 -1.222592414212896550e+01 7.268138486598692793e+01 6.130822820633156311e+01 5.287105033156633738e+01 9.204637188758627531e+01 1.099413279151879550e+02 1.169804232987044657e+02 -6.115597658023283856e+01 7.606754304699876457e+01 6.154206128588708680e+01 -1.110246141430730233e+02 1.241842319853383998e+02 -9.453950771013863275e+00 -2.636191478277682165e+01 1.881487800678870883e+02 8.357131982395746661e+01 1.172182156094626038e+02 -1.363457364404459611e+02 -1.490704105536070756e+02 -1.451729015278686461e+02 -1.154180993465404725e+02 -4.185345141169188565e+01 1.037428882366061771e+02 -1.594907960810910197e+02 3.073056567201147260e+01 1.365324026615908508e+02 -5.616135272071060314e+01 -8.642839229725784378e+01 -3.326135608683537015e+01 1.285923088859274230e+02 2.151870090261584778e+02 -6.318351319196940352e+01 1.878001363277968494e+01 -2.621224059386641869e+01 6.490034611123245156e+01 5.707089636058298510e+01 -2.020958208810266683e+02 -8.405435757288371690e+01 1.304493562353287359e+02 1.325437059387547549e+02 8.964329726178112878e+01 -4.727985454219785311e+01 -7.187686951737141783e+01 -4.303323837044653999e+01 -1.675366150552843010e+02 6.748093904411211952e+01 -2.432898760838146046e+01 1.578776701265344400e+02 -2.652602916140822131e+01 -2.986377568655256596e+02 1.375056854283412235e+02 4.765138978955715032e+01 -1.119640599058271846e+02 -2.107189182874712685e+01 3.351126470620072695e+01 -1.972161726725495612e+02 -1.084941547301875886e+02 -1.041430569922668212e+02 -5.354074659636540190e+01 5.961937524931053645e+01 -1.565899499057764785e+02 1.024672665805989595e+02 -5.160298458700725632e+01 2.786922347310834880e+00 -1.267466953114552695e+02 -9.851571470092171978e+01 1.670667493994636743e+02 8.234866556424704243e+01 -4.012894545580292771e+01 3.528790700135365199e+01 -2.664749573418142603e+01 4.118107966239865192e+01 -9.944006780195165618e+01 9.405502806042234454e+01 4.798802829540104398e+01 -1.130189510585071559e+02 1.109850771662731432e+02 -4.667681614162655279e+01 9.497537544861579306e+01 -4.695980345094810104e+01 8.401371406090990490e+01 -1.458507249522597533e+02 1.357338241348552117e+02 2.354319277481276274e+01 9.574651104287104886e+01 1.240567366568571259e+02 -1.395049427602322680e+02 -8.172034471112139897e+01 -1.004956640611698901e+02 6.360903566067366199e+01 -1.630312401184131375e+02 1.442179669862777303e+02 1.354368724685641894e+02 5.040308146400853673e+01 -8.079139457193147678e+01 5.431305644223346007e+01 -1.021701437293091743e+02 -1.038828870277145811e+01 3.327473012824427911e+01 -1.748896242282569631e+02 -7.762904182892739868e+01 -1.288309730426778366e+01 9.726829285059324093e+01 -4.781495016352111094e+01 1.035596711759751400e+02 -6.123686543858037368e+01 -2.007089421548519965e+02 -1.019824964141660075e+02 -3.239129077109704014e+01 -5.730919536521618340e+01 2.864875251816293300e+01 4.900364349978225675e+01 6.028983267126913681e+00 2.422061736855550862e+01 -1.118518353333290207e+02 5.137008843919039691e+01 3.110974003200042759e+01 -6.875994156152357561e+01 8.858846254771469475e+00 5.377890971536328379e+01 -9.095646130564738030e+01 -5.254827735456446902e+01 -2.306545311217612593e+01 9.304516294949391408e+01 -1.634148585168916767e+01 4.003341199682597384e+00 -2.176506428029992435e+02 -9.064287068675950820e+01 9.440696241010203948e+01 -8.505064625302317438e+01 2.989715623791635224e+01 2.963141388094685169e+01 3.615382693312222528e+01 6.305731634167756283e+01 -1.693525030581170370e+02 1.374247785971569442e+02 7.786158815959863944e+01 -7.206096057538026400e+00 -7.712492372807611218e+01 1.067575950007853720e+02 5.927841757553996160e+01 -1.920100148893212690e+02 -4.808159305963361163e+01 -7.801752599585603321e+01 -4.944059193286281584e+01 -5.908671037200707588e+01 -9.450179925070706588e+01 -5.761937430661410531e+01 1.828789881518174525e+02 -1.630036534121199452e+02 6.249854426535158325e+01 2.649431368315393698e+01 -7.180082452616767341e+01 9.934770114297510446e+00 -3.766641769956787300e+01 3.288590161229273612e+00 -9.182509377826544039e+01 -1.886833853174748015e+02 1.756802232681680920e+01 4.000039657425990924e+01 -1.221749244330244011e+01 -8.535532001762556220e+00 -3.798837897876897784e+01 -1.813518068987388574e+02 -2.924761636720458569e+01 -6.241473145573099401e+01 1.329792582671031909e+01 -1.491877116640865708e+01 8.654743731540774832e+01 -6.021374086967725958e+01 -9.903104119519923643e+01 -3.407747224560525723e+01 -8.561961561692493561e+00 4.337855354510816142e+01 -2.111795067096043255e+01 -7.055026389312240553e+01 -1.517577959172328050e+01 1.913740892549939332e+01 4.537947255929692858e+01 -1.088841251146004510e+02 -1.328141844811738679e+02 2.200910763605864986e+02 -2.085777938453530851e+02 -7.253480635344409677e+01 -4.424826221676047311e+01 1.336232202034552472e+02 6.046031430663409623e+01 2.187917116411732081e+02 2.339066964708399610e+02 -5.960734803108689306e+01 1.236899105002759995e+02 -5.358068393627016945e+01 -3.901824704871019378e+01 -9.614404853260907657e+01 -7.629857750795328286e+01 -6.644772519971543545e+01 -8.509393457465625943e+01 -2.329955771840652687e+02 -2.588352903264046745e+02 1.287072195038773543e+02 -2.537354868569340383e+01 5.091619903182489537e+01 1.251441608452131504e+02
