# 
#                 ----------------------------------------------------
#                 Data from a 3D direct N-body simulation. 
# 
#                 rows are i-particle; 
#                 coumns are :mass, tag, x ,y, z, vx, vy, vz, ax, ay, az
# 
#                 NTHU, Computational Physics Lab
# 
#                 ----------------------------------------------------
#                 Time = 3.1999999999999758
1.000000000000000000e+00 2.000000000000000000e+00 3.000000000000000000e+00 4.000000000000000000e+00 5.000000000000000000e+00 6.000000000000000000e+00 7.000000000000000000e+00 8.000000000000000000e+00 9.000000000000000000e+00 1.000000000000000000e+01 1.100000000000000000e+01 1.200000000000000000e+01 1.300000000000000000e+01 1.400000000000000000e+01 1.500000000000000000e+01 1.600000000000000000e+01 1.700000000000000000e+01 1.800000000000000000e+01 1.900000000000000000e+01 2.000000000000000000e+01 2.100000000000000000e+01 2.200000000000000000e+01 2.300000000000000000e+01 2.400000000000000000e+01 2.500000000000000000e+01 2.600000000000000000e+01 2.700000000000000000e+01 2.800000000000000000e+01 2.900000000000000000e+01 3.000000000000000000e+01 3.100000000000000000e+01 3.200000000000000000e+01 3.300000000000000000e+01 3.400000000000000000e+01 3.500000000000000000e+01 3.600000000000000000e+01 3.700000000000000000e+01 3.800000000000000000e+01 3.900000000000000000e+01 4.000000000000000000e+01 4.100000000000000000e+01 4.200000000000000000e+01 4.300000000000000000e+01 4.400000000000000000e+01 4.500000000000000000e+01 4.600000000000000000e+01 4.700000000000000000e+01 4.800000000000000000e+01 4.900000000000000000e+01 5.000000000000000000e+01 5.100000000000000000e+01 5.200000000000000000e+01 5.300000000000000000e+01 5.400000000000000000e+01 5.500000000000000000e+01 5.600000000000000000e+01 5.700000000000000000e+01 5.800000000000000000e+01 5.900000000000000000e+01 6.000000000000000000e+01 6.100000000000000000e+01 6.200000000000000000e+01 6.300000000000000000e+01 6.400000000000000000e+01 6.500000000000000000e+01 6.600000000000000000e+01 6.700000000000000000e+01 6.800000000000000000e+01 6.900000000000000000e+01 7.000000000000000000e+01 7.100000000000000000e+01 7.200000000000000000e+01 7.300000000000000000e+01 7.400000000000000000e+01 7.500000000000000000e+01 7.600000000000000000e+01 7.700000000000000000e+01 7.800000000000000000e+01 7.900000000000000000e+01 8.000000000000000000e+01 8.100000000000000000e+01 8.200000000000000000e+01 8.300000000000000000e+01 8.400000000000000000e+01 8.500000000000000000e+01 8.600000000000000000e+01 8.700000000000000000e+01 8.800000000000000000e+01 8.900000000000000000e+01 9.000000000000000000e+01 9.100000000000000000e+01 9.200000000000000000e+01 9.300000000000000000e+01 9.400000000000000000e+01 9.500000000000000000e+01 9.600000000000000000e+01 9.700000000000000000e+01 9.800000000000000000e+01 9.900000000000000000e+01 1.000000000000000000e+02 1.010000000000000000e+02 1.020000000000000000e+02 1.030000000000000000e+02 1.040000000000000000e+02 1.050000000000000000e+02 1.060000000000000000e+02 1.070000000000000000e+02 1.080000000000000000e+02 1.090000000000000000e+02 1.100000000000000000e+02 1.110000000000000000e+02 1.120000000000000000e+02 1.130000000000000000e+02 1.140000000000000000e+02 1.150000000000000000e+02 1.160000000000000000e+02 1.170000000000000000e+02 1.180000000000000000e+02 1.190000000000000000e+02 1.200000000000000000e+02 1.210000000000000000e+02 1.220000000000000000e+02 1.230000000000000000e+02 1.240000000000000000e+02 1.250000000000000000e+02 1.260000000000000000e+02 1.270000000000000000e+02 1.280000000000000000e+02 1.290000000000000000e+02 1.300000000000000000e+02 1.310000000000000000e+02 1.320000000000000000e+02 1.330000000000000000e+02 1.340000000000000000e+02 1.350000000000000000e+02 1.360000000000000000e+02 1.370000000000000000e+02 1.380000000000000000e+02 1.390000000000000000e+02 1.400000000000000000e+02 1.410000000000000000e+02 1.420000000000000000e+02 1.430000000000000000e+02 1.440000000000000000e+02 1.450000000000000000e+02 1.460000000000000000e+02 1.470000000000000000e+02 1.480000000000000000e+02 1.490000000000000000e+02 1.500000000000000000e+02 1.510000000000000000e+02 1.520000000000000000e+02 1.530000000000000000e+02 1.540000000000000000e+02 1.550000000000000000e+02 1.560000000000000000e+02 1.570000000000000000e+02 1.580000000000000000e+02 1.590000000000000000e+02 1.600000000000000000e+02 1.610000000000000000e+02 1.620000000000000000e+02 1.630000000000000000e+02 1.640000000000000000e+02 1.650000000000000000e+02 1.660000000000000000e+02 1.670000000000000000e+02 1.680000000000000000e+02 1.690000000000000000e+02 1.700000000000000000e+02 1.710000000000000000e+02 1.720000000000000000e+02 1.730000000000000000e+02 1.740000000000000000e+02 1.750000000000000000e+02 1.760000000000000000e+02 1.770000000000000000e+02 1.780000000000000000e+02 1.790000000000000000e+02 1.800000000000000000e+02 1.810000000000000000e+02 1.820000000000000000e+02 1.830000000000000000e+02 1.840000000000000000e+02 1.850000000000000000e+02 1.860000000000000000e+02 1.870000000000000000e+02 1.880000000000000000e+02 1.890000000000000000e+02 1.900000000000000000e+02 1.910000000000000000e+02 1.920000000000000000e+02 1.930000000000000000e+02 1.940000000000000000e+02 1.950000000000000000e+02 1.960000000000000000e+02 1.970000000000000000e+02 1.980000000000000000e+02 1.990000000000000000e+02 2.000000000000000000e+02 2.010000000000000000e+02 2.020000000000000000e+02 2.030000000000000000e+02 2.040000000000000000e+02 2.050000000000000000e+02 2.060000000000000000e+02 2.070000000000000000e+02 2.080000000000000000e+02 2.090000000000000000e+02 2.100000000000000000e+02 2.110000000000000000e+02 2.120000000000000000e+02 2.130000000000000000e+02 2.140000000000000000e+02 2.150000000000000000e+02 2.160000000000000000e+02 2.170000000000000000e+02 2.180000000000000000e+02 2.190000000000000000e+02 2.200000000000000000e+02 2.210000000000000000e+02 2.220000000000000000e+02 2.230000000000000000e+02 2.240000000000000000e+02 2.250000000000000000e+02 2.260000000000000000e+02 2.270000000000000000e+02 2.280000000000000000e+02 2.290000000000000000e+02 2.300000000000000000e+02 2.310000000000000000e+02 2.320000000000000000e+02 2.330000000000000000e+02 2.340000000000000000e+02 2.350000000000000000e+02 2.360000000000000000e+02 2.370000000000000000e+02 2.380000000000000000e+02 2.390000000000000000e+02 2.400000000000000000e+02 2.410000000000000000e+02 2.420000000000000000e+02 2.430000000000000000e+02 2.440000000000000000e+02 2.450000000000000000e+02 2.460000000000000000e+02 2.470000000000000000e+02 2.480000000000000000e+02 2.490000000000000000e+02 2.500000000000000000e+02 2.510000000000000000e+02 2.520000000000000000e+02 2.530000000000000000e+02 2.540000000000000000e+02 2.550000000000000000e+02 2.560000000000000000e+02 2.570000000000000000e+02 2.580000000000000000e+02 2.590000000000000000e+02 2.600000000000000000e+02 2.610000000000000000e+02 2.620000000000000000e+02 2.630000000000000000e+02 2.640000000000000000e+02 2.650000000000000000e+02 2.660000000000000000e+02 2.670000000000000000e+02 2.680000000000000000e+02 2.690000000000000000e+02 2.700000000000000000e+02 2.710000000000000000e+02 2.720000000000000000e+02 2.730000000000000000e+02 2.740000000000000000e+02 2.750000000000000000e+02 2.760000000000000000e+02 2.770000000000000000e+02 2.780000000000000000e+02 2.790000000000000000e+02 2.800000000000000000e+02 2.810000000000000000e+02 2.820000000000000000e+02 2.830000000000000000e+02 2.840000000000000000e+02 2.850000000000000000e+02 2.860000000000000000e+02 2.870000000000000000e+02 2.880000000000000000e+02 2.890000000000000000e+02 2.900000000000000000e+02 2.910000000000000000e+02 2.920000000000000000e+02 2.930000000000000000e+02 2.940000000000000000e+02 2.950000000000000000e+02 2.960000000000000000e+02 2.970000000000000000e+02 2.980000000000000000e+02 2.990000000000000000e+02 3.000000000000000000e+02 3.010000000000000000e+02 3.020000000000000000e+02 3.030000000000000000e+02 3.040000000000000000e+02 3.050000000000000000e+02 3.060000000000000000e+02 3.070000000000000000e+02 3.080000000000000000e+02 3.090000000000000000e+02 3.100000000000000000e+02 3.110000000000000000e+02 3.120000000000000000e+02 3.130000000000000000e+02 3.140000000000000000e+02 3.150000000000000000e+02 3.160000000000000000e+02 3.170000000000000000e+02 3.180000000000000000e+02 3.190000000000000000e+02 3.200000000000000000e+02 3.210000000000000000e+02 3.220000000000000000e+02 3.230000000000000000e+02 3.240000000000000000e+02 3.250000000000000000e+02 3.260000000000000000e+02 3.270000000000000000e+02 3.280000000000000000e+02 3.290000000000000000e+02 3.300000000000000000e+02 3.310000000000000000e+02 3.320000000000000000e+02 3.330000000000000000e+02 3.340000000000000000e+02 3.350000000000000000e+02 3.360000000000000000e+02 3.370000000000000000e+02 3.380000000000000000e+02 3.390000000000000000e+02 3.400000000000000000e+02 3.410000000000000000e+02 3.420000000000000000e+02 3.430000000000000000e+02 3.440000000000000000e+02 3.450000000000000000e+02 3.460000000000000000e+02 3.470000000000000000e+02 3.480000000000000000e+02 3.490000000000000000e+02 3.500000000000000000e+02 3.510000000000000000e+02 3.520000000000000000e+02 3.530000000000000000e+02 3.540000000000000000e+02 3.550000000000000000e+02 3.560000000000000000e+02 3.570000000000000000e+02 3.580000000000000000e+02 3.590000000000000000e+02 3.600000000000000000e+02 3.610000000000000000e+02 3.620000000000000000e+02 3.630000000000000000e+02 3.640000000000000000e+02 3.650000000000000000e+02 3.660000000000000000e+02 3.670000000000000000e+02 3.680000000000000000e+02 3.690000000000000000e+02 3.700000000000000000e+02 3.710000000000000000e+02 3.720000000000000000e+02 3.730000000000000000e+02 3.740000000000000000e+02 3.750000000000000000e+02 3.760000000000000000e+02 3.770000000000000000e+02 3.780000000000000000e+02 3.790000000000000000e+02 3.800000000000000000e+02 3.810000000000000000e+02 3.820000000000000000e+02 3.830000000000000000e+02 3.840000000000000000e+02 3.850000000000000000e+02 3.860000000000000000e+02 3.870000000000000000e+02 3.880000000000000000e+02 3.890000000000000000e+02 3.900000000000000000e+02 3.910000000000000000e+02 3.920000000000000000e+02 3.930000000000000000e+02 3.940000000000000000e+02 3.950000000000000000e+02 3.960000000000000000e+02 3.970000000000000000e+02 3.980000000000000000e+02 3.990000000000000000e+02 4.000000000000000000e+02 4.010000000000000000e+02 4.020000000000000000e+02 4.030000000000000000e+02 4.040000000000000000e+02 4.050000000000000000e+02 4.060000000000000000e+02 4.070000000000000000e+02 4.080000000000000000e+02 4.090000000000000000e+02 4.100000000000000000e+02 4.110000000000000000e+02 4.120000000000000000e+02 4.130000000000000000e+02 4.140000000000000000e+02 4.150000000000000000e+02 4.160000000000000000e+02 4.170000000000000000e+02 4.180000000000000000e+02 4.190000000000000000e+02 4.200000000000000000e+02 4.210000000000000000e+02 4.220000000000000000e+02 4.230000000000000000e+02 4.240000000000000000e+02 4.250000000000000000e+02 4.260000000000000000e+02 4.270000000000000000e+02 4.280000000000000000e+02 4.290000000000000000e+02 4.300000000000000000e+02 4.310000000000000000e+02 4.320000000000000000e+02 4.330000000000000000e+02 4.340000000000000000e+02 4.350000000000000000e+02 4.360000000000000000e+02 4.370000000000000000e+02 4.380000000000000000e+02 4.390000000000000000e+02 4.400000000000000000e+02 4.410000000000000000e+02 4.420000000000000000e+02 4.430000000000000000e+02 4.440000000000000000e+02 4.450000000000000000e+02 4.460000000000000000e+02 4.470000000000000000e+02 4.480000000000000000e+02 4.490000000000000000e+02 4.500000000000000000e+02 4.510000000000000000e+02 4.520000000000000000e+02 4.530000000000000000e+02 4.540000000000000000e+02 4.550000000000000000e+02 4.560000000000000000e+02 4.570000000000000000e+02 4.580000000000000000e+02 4.590000000000000000e+02 4.600000000000000000e+02 4.610000000000000000e+02 4.620000000000000000e+02 4.630000000000000000e+02 4.640000000000000000e+02 4.650000000000000000e+02 4.660000000000000000e+02 4.670000000000000000e+02 4.680000000000000000e+02 4.690000000000000000e+02 4.700000000000000000e+02 4.710000000000000000e+02 4.720000000000000000e+02 4.730000000000000000e+02 4.740000000000000000e+02 4.750000000000000000e+02 4.760000000000000000e+02 4.770000000000000000e+02 4.780000000000000000e+02 4.790000000000000000e+02 4.800000000000000000e+02 4.810000000000000000e+02 4.820000000000000000e+02 4.830000000000000000e+02 4.840000000000000000e+02 4.850000000000000000e+02 4.860000000000000000e+02 4.870000000000000000e+02 4.880000000000000000e+02 4.890000000000000000e+02 4.900000000000000000e+02 4.910000000000000000e+02 4.920000000000000000e+02 4.930000000000000000e+02 4.940000000000000000e+02 4.950000000000000000e+02 4.960000000000000000e+02 4.970000000000000000e+02 4.980000000000000000e+02 4.990000000000000000e+02 5.000000000000000000e+02 5.010000000000000000e+02 5.020000000000000000e+02 5.030000000000000000e+02 5.040000000000000000e+02 5.050000000000000000e+02 5.060000000000000000e+02 5.070000000000000000e+02 5.080000000000000000e+02 5.090000000000000000e+02 5.100000000000000000e+02 5.110000000000000000e+02 5.120000000000000000e+02 5.130000000000000000e+02 5.140000000000000000e+02 5.150000000000000000e+02 5.160000000000000000e+02 5.170000000000000000e+02 5.180000000000000000e+02 5.190000000000000000e+02 5.200000000000000000e+02 5.210000000000000000e+02 5.220000000000000000e+02 5.230000000000000000e+02 5.240000000000000000e+02 5.250000000000000000e+02 5.260000000000000000e+02 5.270000000000000000e+02 5.280000000000000000e+02 5.290000000000000000e+02 5.300000000000000000e+02 5.310000000000000000e+02 5.320000000000000000e+02 5.330000000000000000e+02 5.340000000000000000e+02 5.350000000000000000e+02 5.360000000000000000e+02 5.370000000000000000e+02 5.380000000000000000e+02 5.390000000000000000e+02 5.400000000000000000e+02 5.410000000000000000e+02 5.420000000000000000e+02 5.430000000000000000e+02 5.440000000000000000e+02 5.450000000000000000e+02 5.460000000000000000e+02 5.470000000000000000e+02 5.480000000000000000e+02 5.490000000000000000e+02 5.500000000000000000e+02 5.510000000000000000e+02 5.520000000000000000e+02 5.530000000000000000e+02 5.540000000000000000e+02 5.550000000000000000e+02 5.560000000000000000e+02 5.570000000000000000e+02 5.580000000000000000e+02 5.590000000000000000e+02 5.600000000000000000e+02 5.610000000000000000e+02 5.620000000000000000e+02 5.630000000000000000e+02 5.640000000000000000e+02 5.650000000000000000e+02 5.660000000000000000e+02 5.670000000000000000e+02 5.680000000000000000e+02 5.690000000000000000e+02 5.700000000000000000e+02 5.710000000000000000e+02 5.720000000000000000e+02 5.730000000000000000e+02 5.740000000000000000e+02 5.750000000000000000e+02 5.760000000000000000e+02 5.770000000000000000e+02 5.780000000000000000e+02 5.790000000000000000e+02 5.800000000000000000e+02 5.810000000000000000e+02 5.820000000000000000e+02 5.830000000000000000e+02 5.840000000000000000e+02 5.850000000000000000e+02 5.860000000000000000e+02 5.870000000000000000e+02 5.880000000000000000e+02 5.890000000000000000e+02 5.900000000000000000e+02 5.910000000000000000e+02 5.920000000000000000e+02 5.930000000000000000e+02 5.940000000000000000e+02 5.950000000000000000e+02 5.960000000000000000e+02 5.970000000000000000e+02 5.980000000000000000e+02 5.990000000000000000e+02 6.000000000000000000e+02 6.010000000000000000e+02 6.020000000000000000e+02 6.030000000000000000e+02 6.040000000000000000e+02 6.050000000000000000e+02 6.060000000000000000e+02 6.070000000000000000e+02 6.080000000000000000e+02 6.090000000000000000e+02 6.100000000000000000e+02 6.110000000000000000e+02 6.120000000000000000e+02 6.130000000000000000e+02 6.140000000000000000e+02 6.150000000000000000e+02 6.160000000000000000e+02 6.170000000000000000e+02 6.180000000000000000e+02 6.190000000000000000e+02 6.200000000000000000e+02 6.210000000000000000e+02 6.220000000000000000e+02 6.230000000000000000e+02 6.240000000000000000e+02 6.250000000000000000e+02 6.260000000000000000e+02 6.270000000000000000e+02 6.280000000000000000e+02 6.290000000000000000e+02 6.300000000000000000e+02 6.310000000000000000e+02 6.320000000000000000e+02 6.330000000000000000e+02 6.340000000000000000e+02 6.350000000000000000e+02 6.360000000000000000e+02 6.370000000000000000e+02 6.380000000000000000e+02 6.390000000000000000e+02 6.400000000000000000e+02 6.410000000000000000e+02 6.420000000000000000e+02 6.430000000000000000e+02 6.440000000000000000e+02 6.450000000000000000e+02 6.460000000000000000e+02 6.470000000000000000e+02 6.480000000000000000e+02 6.490000000000000000e+02 6.500000000000000000e+02 6.510000000000000000e+02 6.520000000000000000e+02 6.530000000000000000e+02 6.540000000000000000e+02 6.550000000000000000e+02 6.560000000000000000e+02 6.570000000000000000e+02 6.580000000000000000e+02 6.590000000000000000e+02 6.600000000000000000e+02 6.610000000000000000e+02 6.620000000000000000e+02 6.630000000000000000e+02 6.640000000000000000e+02 6.650000000000000000e+02 6.660000000000000000e+02 6.670000000000000000e+02 6.680000000000000000e+02 6.690000000000000000e+02 6.700000000000000000e+02 6.710000000000000000e+02 6.720000000000000000e+02 6.730000000000000000e+02 6.740000000000000000e+02 6.750000000000000000e+02 6.760000000000000000e+02 6.770000000000000000e+02 6.780000000000000000e+02 6.790000000000000000e+02 6.800000000000000000e+02 6.810000000000000000e+02 6.820000000000000000e+02 6.830000000000000000e+02 6.840000000000000000e+02 6.850000000000000000e+02 6.860000000000000000e+02 6.870000000000000000e+02 6.880000000000000000e+02 6.890000000000000000e+02 6.900000000000000000e+02 6.910000000000000000e+02 6.920000000000000000e+02 6.930000000000000000e+02 6.940000000000000000e+02 6.950000000000000000e+02 6.960000000000000000e+02 6.970000000000000000e+02 6.980000000000000000e+02 6.990000000000000000e+02 7.000000000000000000e+02 7.010000000000000000e+02 7.020000000000000000e+02 7.030000000000000000e+02 7.040000000000000000e+02 7.050000000000000000e+02 7.060000000000000000e+02 7.070000000000000000e+02 7.080000000000000000e+02 7.090000000000000000e+02 7.100000000000000000e+02 7.110000000000000000e+02 7.120000000000000000e+02 7.130000000000000000e+02 7.140000000000000000e+02 7.150000000000000000e+02 7.160000000000000000e+02 7.170000000000000000e+02 7.180000000000000000e+02 7.190000000000000000e+02 7.200000000000000000e+02 7.210000000000000000e+02 7.220000000000000000e+02 7.230000000000000000e+02 7.240000000000000000e+02 7.250000000000000000e+02 7.260000000000000000e+02 7.270000000000000000e+02 7.280000000000000000e+02 7.290000000000000000e+02 7.300000000000000000e+02 7.310000000000000000e+02 7.320000000000000000e+02 7.330000000000000000e+02 7.340000000000000000e+02 7.350000000000000000e+02 7.360000000000000000e+02 7.370000000000000000e+02 7.380000000000000000e+02 7.390000000000000000e+02 7.400000000000000000e+02 7.410000000000000000e+02 7.420000000000000000e+02 7.430000000000000000e+02 7.440000000000000000e+02 7.450000000000000000e+02 7.460000000000000000e+02 7.470000000000000000e+02 7.480000000000000000e+02 7.490000000000000000e+02 7.500000000000000000e+02 7.510000000000000000e+02 7.520000000000000000e+02 7.530000000000000000e+02 7.540000000000000000e+02 7.550000000000000000e+02 7.560000000000000000e+02 7.570000000000000000e+02 7.580000000000000000e+02 7.590000000000000000e+02 7.600000000000000000e+02 7.610000000000000000e+02 7.620000000000000000e+02 7.630000000000000000e+02 7.640000000000000000e+02 7.650000000000000000e+02 7.660000000000000000e+02 7.670000000000000000e+02 7.680000000000000000e+02 7.690000000000000000e+02 7.700000000000000000e+02 7.710000000000000000e+02 7.720000000000000000e+02 7.730000000000000000e+02 7.740000000000000000e+02 7.750000000000000000e+02 7.760000000000000000e+02 7.770000000000000000e+02 7.780000000000000000e+02 7.790000000000000000e+02 7.800000000000000000e+02 7.810000000000000000e+02 7.820000000000000000e+02 7.830000000000000000e+02 7.840000000000000000e+02 7.850000000000000000e+02 7.860000000000000000e+02 7.870000000000000000e+02 7.880000000000000000e+02 7.890000000000000000e+02 7.900000000000000000e+02 7.910000000000000000e+02 7.920000000000000000e+02 7.930000000000000000e+02 7.940000000000000000e+02 7.950000000000000000e+02 7.960000000000000000e+02 7.970000000000000000e+02 7.980000000000000000e+02 7.990000000000000000e+02 8.000000000000000000e+02 8.010000000000000000e+02 8.020000000000000000e+02 8.030000000000000000e+02 8.040000000000000000e+02 8.050000000000000000e+02 8.060000000000000000e+02 8.070000000000000000e+02 8.080000000000000000e+02 8.090000000000000000e+02 8.100000000000000000e+02 8.110000000000000000e+02 8.120000000000000000e+02 8.130000000000000000e+02 8.140000000000000000e+02 8.150000000000000000e+02 8.160000000000000000e+02 8.170000000000000000e+02 8.180000000000000000e+02 8.190000000000000000e+02 8.200000000000000000e+02 8.210000000000000000e+02 8.220000000000000000e+02 8.230000000000000000e+02 8.240000000000000000e+02 8.250000000000000000e+02 8.260000000000000000e+02 8.270000000000000000e+02 8.280000000000000000e+02 8.290000000000000000e+02 8.300000000000000000e+02 8.310000000000000000e+02 8.320000000000000000e+02 8.330000000000000000e+02 8.340000000000000000e+02 8.350000000000000000e+02 8.360000000000000000e+02 8.370000000000000000e+02 8.380000000000000000e+02 8.390000000000000000e+02 8.400000000000000000e+02 8.410000000000000000e+02 8.420000000000000000e+02 8.430000000000000000e+02 8.440000000000000000e+02 8.450000000000000000e+02 8.460000000000000000e+02 8.470000000000000000e+02 8.480000000000000000e+02 8.490000000000000000e+02 8.500000000000000000e+02 8.510000000000000000e+02 8.520000000000000000e+02 8.530000000000000000e+02 8.540000000000000000e+02 8.550000000000000000e+02 8.560000000000000000e+02 8.570000000000000000e+02 8.580000000000000000e+02 8.590000000000000000e+02 8.600000000000000000e+02 8.610000000000000000e+02 8.620000000000000000e+02 8.630000000000000000e+02 8.640000000000000000e+02 8.650000000000000000e+02 8.660000000000000000e+02 8.670000000000000000e+02 8.680000000000000000e+02 8.690000000000000000e+02 8.700000000000000000e+02 8.710000000000000000e+02 8.720000000000000000e+02 8.730000000000000000e+02 8.740000000000000000e+02 8.750000000000000000e+02 8.760000000000000000e+02 8.770000000000000000e+02 8.780000000000000000e+02 8.790000000000000000e+02 8.800000000000000000e+02 8.810000000000000000e+02 8.820000000000000000e+02 8.830000000000000000e+02 8.840000000000000000e+02 8.850000000000000000e+02 8.860000000000000000e+02 8.870000000000000000e+02 8.880000000000000000e+02 8.890000000000000000e+02 8.900000000000000000e+02 8.910000000000000000e+02 8.920000000000000000e+02 8.930000000000000000e+02 8.940000000000000000e+02 8.950000000000000000e+02 8.960000000000000000e+02 8.970000000000000000e+02 8.980000000000000000e+02 8.990000000000000000e+02 9.000000000000000000e+02 9.010000000000000000e+02 9.020000000000000000e+02 9.030000000000000000e+02 9.040000000000000000e+02 9.050000000000000000e+02 9.060000000000000000e+02 9.070000000000000000e+02 9.080000000000000000e+02 9.090000000000000000e+02 9.100000000000000000e+02 9.110000000000000000e+02 9.120000000000000000e+02 9.130000000000000000e+02 9.140000000000000000e+02 9.150000000000000000e+02 9.160000000000000000e+02 9.170000000000000000e+02 9.180000000000000000e+02 9.190000000000000000e+02 9.200000000000000000e+02 9.210000000000000000e+02 9.220000000000000000e+02 9.230000000000000000e+02 9.240000000000000000e+02 9.250000000000000000e+02 9.260000000000000000e+02 9.270000000000000000e+02 9.280000000000000000e+02 9.290000000000000000e+02 9.300000000000000000e+02 9.310000000000000000e+02 9.320000000000000000e+02 9.330000000000000000e+02 9.340000000000000000e+02 9.350000000000000000e+02 9.360000000000000000e+02 9.370000000000000000e+02 9.380000000000000000e+02 9.390000000000000000e+02 9.400000000000000000e+02 9.410000000000000000e+02 9.420000000000000000e+02 9.430000000000000000e+02 9.440000000000000000e+02 9.450000000000000000e+02 9.460000000000000000e+02 9.470000000000000000e+02 9.480000000000000000e+02 9.490000000000000000e+02 9.500000000000000000e+02 9.510000000000000000e+02 9.520000000000000000e+02 9.530000000000000000e+02 9.540000000000000000e+02 9.550000000000000000e+02 9.560000000000000000e+02 9.570000000000000000e+02 9.580000000000000000e+02 9.590000000000000000e+02 9.600000000000000000e+02 9.610000000000000000e+02 9.620000000000000000e+02 9.630000000000000000e+02 9.640000000000000000e+02 9.650000000000000000e+02 9.660000000000000000e+02 9.670000000000000000e+02 9.680000000000000000e+02 9.690000000000000000e+02 9.700000000000000000e+02 9.710000000000000000e+02 9.720000000000000000e+02 9.730000000000000000e+02 9.740000000000000000e+02 9.750000000000000000e+02 9.760000000000000000e+02 9.770000000000000000e+02 9.780000000000000000e+02 9.790000000000000000e+02 9.800000000000000000e+02 9.810000000000000000e+02 9.820000000000000000e+02 9.830000000000000000e+02 9.840000000000000000e+02 9.850000000000000000e+02 9.860000000000000000e+02 9.870000000000000000e+02 9.880000000000000000e+02 9.890000000000000000e+02 9.900000000000000000e+02 9.910000000000000000e+02 9.920000000000000000e+02 9.930000000000000000e+02 9.940000000000000000e+02 9.950000000000000000e+02 9.960000000000000000e+02 9.970000000000000000e+02 9.980000000000000000e+02 9.990000000000000000e+02 1.000000000000000000e+03
1.000000000000000021e-02 1.000000000000000021e-02 1.000000000000000021e-02 1.000000000000000021e-02 1.000000000000000021e-02 1.000000000000000021e-02 1.000000000000000021e-02 1.000000000000000021e-02 1.000000000000000021e-02 1.000000000000000021e-02 1.000000000000000021e-02 1.000000000000000021e-02 1.000000000000000021e-02 1.000000000000000021e-02 1.000000000000000021e-02 1.000000000000000021e-02 1.000000000000000021e-02 1.000000000000000021e-02 1.000000000000000021e-02 1.000000000000000021e-02 1.000000000000000021e-02 1.000000000000000021e-02 1.000000000000000021e-02 1.000000000000000021e-02 1.000000000000000021e-02 1.000000000000000021e-02 1.000000000000000021e-02 1.000000000000000021e-02 1.000000000000000021e-02 1.000000000000000021e-02 1.000000000000000021e-02 1.000000000000000021e-02 1.000000000000000021e-02 1.000000000000000021e-02 1.000000000000000021e-02 1.000000000000000021e-02 1.000000000000000021e-02 1.000000000000000021e-02 1.000000000000000021e-02 1.000000000000000021e-02 1.000000000000000021e-02 1.000000000000000021e-02 1.000000000000000021e-02 1.000000000000000021e-02 1.000000000000000021e-02 1.000000000000000021e-02 1.000000000000000021e-02 1.000000000000000021e-02 1.000000000000000021e-02 1.000000000000000021e-02 1.000000000000000021e-02 1.000000000000000021e-02 1.000000000000000021e-02 1.000000000000000021e-02 1.000000000000000021e-02 1.000000000000000021e-02 1.000000000000000021e-02 1.000000000000000021e-02 1.000000000000000021e-02 1.000000000000000021e-02 1.000000000000000021e-02 1.000000000000000021e-02 1.000000000000000021e-02 1.000000000000000021e-02 1.000000000000000021e-02 1.000000000000000021e-02 1.000000000000000021e-02 1.000000000000000021e-02 1.000000000000000021e-02 1.000000000000000021e-02 1.000000000000000021e-02 1.000000000000000021e-02 1.000000000000000021e-02 1.000000000000000021e-02 1.000000000000000021e-02 1.000000000000000021e-02 1.000000000000000021e-02 1.000000000000000021e-02 1.000000000000000021e-02 1.000000000000000021e-02 1.000000000000000021e-02 1.000000000000000021e-02 1.000000000000000021e-02 1.000000000000000021e-02 1.000000000000000021e-02 1.000000000000000021e-02 1.000000000000000021e-02 1.000000000000000021e-02 1.000000000000000021e-02 1.000000000000000021e-02 1.000000000000000021e-02 1.000000000000000021e-02 1.000000000000000021e-02 1.000000000000000021e-02 1.000000000000000021e-02 1.000000000000000021e-02 1.000000000000000021e-02 1.000000000000000021e-02 1.000000000000000021e-02 1.000000000000000021e-02 1.000000000000000021e-02 1.000000000000000021e-02 1.000000000000000021e-02 1.000000000000000021e-02 1.000000000000000021e-02 1.000000000000000021e-02 1.000000000000000021e-02 1.000000000000000021e-02 1.000000000000000021e-02 1.000000000000000021e-02 1.000000000000000021e-02 1.000000000000000021e-02 1.000000000000000021e-02 1.000000000000000021e-02 1.000000000000000021e-02 1.000000000000000021e-02 1.000000000000000021e-02 1.000000000000000021e-02 1.000000000000000021e-02 1.000000000000000021e-02 1.000000000000000021e-02 1.000000000000000021e-02 1.000000000000000021e-02 1.000000000000000021e-02 1.000000000000000021e-02 1.000000000000000021e-02 1.000000000000000021e-02 1.000000000000000021e-02 1.000000000000000021e-02 1.000000000000000021e-02 1.000000000000000021e-02 1.000000000000000021e-02 1.000000000000000021e-02 1.000000000000000021e-02 1.000000000000000021e-02 1.000000000000000021e-02 1.000000000000000021e-02 1.000000000000000021e-02 1.000000000000000021e-02 1.000000000000000021e-02 1.000000000000000021e-02 1.000000000000000021e-02 1.000000000000000021e-02 1.000000000000000021e-02 1.000000000000000021e-02 1.000000000000000021e-02 1.000000000000000021e-02 1.000000000000000021e-02 1.000000000000000021e-02 1.000000000000000021e-02 1.000000000000000021e-02 1.000000000000000021e-02 1.000000000000000021e-02 1.000000000000000021e-02 1.000000000000000021e-02 1.000000000000000021e-02 1.000000000000000021e-02 1.000000000000000021e-02 1.000000000000000021e-02 1.000000000000000021e-02 1.000000000000000021e-02 1.000000000000000021e-02 1.000000000000000021e-02 1.000000000000000021e-02 1.000000000000000021e-02 1.000000000000000021e-02 1.000000000000000021e-02 1.000000000000000021e-02 1.000000000000000021e-02 1.000000000000000021e-02 1.000000000000000021e-02 1.000000000000000021e-02 1.000000000000000021e-02 1.000000000000000021e-02 1.000000000000000021e-02 1.000000000000000021e-02 1.000000000000000021e-02 1.000000000000000021e-02 1.000000000000000021e-02 1.000000000000000021e-02 1.000000000000000021e-02 1.000000000000000021e-02 1.000000000000000021e-02 1.000000000000000021e-02 1.000000000000000021e-02 1.000000000000000021e-02 1.000000000000000021e-02 1.000000000000000021e-02 1.000000000000000021e-02 1.000000000000000021e-02 1.000000000000000021e-02 1.000000000000000021e-02 1.000000000000000021e-02 1.000000000000000021e-02 1.000000000000000021e-02 1.000000000000000021e-02 1.000000000000000021e-02 1.000000000000000021e-02 1.000000000000000021e-02 1.000000000000000021e-02 1.000000000000000021e-02 1.000000000000000021e-02 1.000000000000000021e-02 1.000000000000000021e-02 1.000000000000000021e-02 1.000000000000000021e-02 1.000000000000000021e-02 1.000000000000000021e-02 1.000000000000000021e-02 1.000000000000000021e-02 1.000000000000000021e-02 1.000000000000000021e-02 1.000000000000000021e-02 1.000000000000000021e-02 1.000000000000000021e-02 1.000000000000000021e-02 1.000000000000000021e-02 1.000000000000000021e-02 1.000000000000000021e-02 1.000000000000000021e-02 1.000000000000000021e-02 1.000000000000000021e-02 1.000000000000000021e-02 1.000000000000000021e-02 1.000000000000000021e-02 1.000000000000000021e-02 1.000000000000000021e-02 1.000000000000000021e-02 1.000000000000000021e-02 1.000000000000000021e-02 1.000000000000000021e-02 1.000000000000000021e-02 1.000000000000000021e-02 1.000000000000000021e-02 1.000000000000000021e-02 1.000000000000000021e-02 1.000000000000000021e-02 1.000000000000000021e-02 1.000000000000000021e-02 1.000000000000000021e-02 1.000000000000000021e-02 1.000000000000000021e-02 1.000000000000000021e-02 1.000000000000000021e-02 1.000000000000000021e-02 1.000000000000000021e-02 1.000000000000000021e-02 1.000000000000000021e-02 1.000000000000000021e-02 1.000000000000000021e-02 1.000000000000000021e-02 1.000000000000000021e-02 1.000000000000000021e-02 1.000000000000000021e-02 1.000000000000000021e-02 1.000000000000000021e-02 1.000000000000000021e-02 1.000000000000000021e-02 1.000000000000000021e-02 1.000000000000000021e-02 1.000000000000000021e-02 1.000000000000000021e-02 1.000000000000000021e-02 1.000000000000000021e-02 1.000000000000000021e-02 1.000000000000000021e-02 1.000000000000000021e-02 1.000000000000000021e-02 1.000000000000000021e-02 1.000000000000000021e-02 1.000000000000000021e-02 1.000000000000000021e-02 1.000000000000000021e-02 1.000000000000000021e-02 1.000000000000000021e-02 1.000000000000000021e-02 1.000000000000000021e-02 1.000000000000000021e-02 1.000000000000000021e-02 1.000000000000000021e-02 1.000000000000000021e-02 1.000000000000000021e-02 1.000000000000000021e-02 1.000000000000000021e-02 1.000000000000000021e-02 1.000000000000000021e-02 1.000000000000000021e-02 1.000000000000000021e-02 1.000000000000000021e-02 1.000000000000000021e-02 1.000000000000000021e-02 1.000000000000000021e-02 1.000000000000000021e-02 1.000000000000000021e-02 1.000000000000000021e-02 1.000000000000000021e-02 1.000000000000000021e-02 1.000000000000000021e-02 1.000000000000000021e-02 1.000000000000000021e-02 1.000000000000000021e-02 1.000000000000000021e-02 1.000000000000000021e-02 1.000000000000000021e-02 1.000000000000000021e-02 1.000000000000000021e-02 1.000000000000000021e-02 1.000000000000000021e-02 1.000000000000000021e-02 1.000000000000000021e-02 1.000000000000000021e-02 1.000000000000000021e-02 1.000000000000000021e-02 1.000000000000000021e-02 1.000000000000000021e-02 1.000000000000000021e-02 1.000000000000000021e-02 1.000000000000000021e-02 1.000000000000000021e-02 1.000000000000000021e-02 1.000000000000000021e-02 1.000000000000000021e-02 1.000000000000000021e-02 1.000000000000000021e-02 1.000000000000000021e-02 1.000000000000000021e-02 1.000000000000000021e-02 1.000000000000000021e-02 1.000000000000000021e-02 1.000000000000000021e-02 1.000000000000000021e-02 1.000000000000000021e-02 1.000000000000000021e-02 1.000000000000000021e-02 1.000000000000000021e-02 1.000000000000000021e-02 1.000000000000000021e-02 1.000000000000000021e-02 1.000000000000000021e-02 1.000000000000000021e-02 1.000000000000000021e-02 1.000000000000000021e-02 1.000000000000000021e-02 1.000000000000000021e-02 1.000000000000000021e-02 1.000000000000000021e-02 1.000000000000000021e-02 1.000000000000000021e-02 1.000000000000000021e-02 1.000000000000000021e-02 1.000000000000000021e-02 1.000000000000000021e-02 1.000000000000000021e-02 1.000000000000000021e-02 1.000000000000000021e-02 1.000000000000000021e-02 1.000000000000000021e-02 1.000000000000000021e-02 1.000000000000000021e-02 1.000000000000000021e-02 1.000000000000000021e-02 1.000000000000000021e-02 1.000000000000000021e-02 1.000000000000000021e-02 1.000000000000000021e-02 1.000000000000000021e-02 1.000000000000000021e-02 1.000000000000000021e-02 1.000000000000000021e-02 1.000000000000000021e-02 1.000000000000000021e-02 1.000000000000000021e-02 1.000000000000000021e-02 1.000000000000000021e-02 1.000000000000000021e-02 1.000000000000000021e-02 1.000000000000000021e-02 1.000000000000000021e-02 1.000000000000000021e-02 1.000000000000000021e-02 1.000000000000000021e-02 1.000000000000000021e-02 1.000000000000000021e-02 1.000000000000000021e-02 1.000000000000000021e-02 1.000000000000000021e-02 1.000000000000000021e-02 1.000000000000000021e-02 1.000000000000000021e-02 1.000000000000000021e-02 1.000000000000000021e-02 1.000000000000000021e-02 1.000000000000000021e-02 1.000000000000000021e-02 1.000000000000000021e-02 1.000000000000000021e-02 1.000000000000000021e-02 1.000000000000000021e-02 1.000000000000000021e-02 1.000000000000000021e-02 1.000000000000000021e-02 1.000000000000000021e-02 1.000000000000000021e-02 1.000000000000000021e-02 1.000000000000000021e-02 1.000000000000000021e-02 1.000000000000000021e-02 1.000000000000000021e-02 1.000000000000000021e-02 1.000000000000000021e-02 1.000000000000000021e-02 1.000000000000000021e-02 1.000000000000000021e-02 1.000000000000000021e-02 1.000000000000000021e-02 1.000000000000000021e-02 1.000000000000000021e-02 1.000000000000000021e-02 1.000000000000000021e-02 1.000000000000000021e-02 1.000000000000000021e-02 1.000000000000000021e-02 1.000000000000000021e-02 1.000000000000000021e-02 1.000000000000000021e-02 1.000000000000000021e-02 1.000000000000000021e-02 1.000000000000000021e-02 1.000000000000000021e-02 1.000000000000000021e-02 1.000000000000000021e-02 1.000000000000000021e-02 1.000000000000000021e-02 1.000000000000000021e-02 1.000000000000000021e-02 1.000000000000000021e-02 1.000000000000000021e-02 1.000000000000000021e-02 1.000000000000000021e-02 1.000000000000000021e-02 1.000000000000000021e-02 1.000000000000000021e-02 1.000000000000000021e-02 1.000000000000000021e-02 1.000000000000000021e-02 1.000000000000000021e-02 1.000000000000000021e-02 1.000000000000000021e-02 1.000000000000000021e-02 1.000000000000000021e-02 1.000000000000000021e-02 1.000000000000000021e-02 1.000000000000000021e-02 1.000000000000000021e-02 1.000000000000000021e-02 1.000000000000000021e-02 1.000000000000000021e-02 1.000000000000000021e-02 1.000000000000000021e-02 1.000000000000000021e-02 1.000000000000000021e-02 1.000000000000000021e-02 1.000000000000000021e-02 1.000000000000000021e-02 1.000000000000000021e-02 1.000000000000000021e-02 1.000000000000000021e-02 1.000000000000000021e-02 1.000000000000000021e-02 1.000000000000000021e-02 1.000000000000000021e-02 1.000000000000000021e-02 1.000000000000000021e-02 1.000000000000000021e-02 1.000000000000000021e-02 1.000000000000000021e-02 1.000000000000000021e-02 1.000000000000000021e-02 1.000000000000000021e-02 1.000000000000000021e-02 1.000000000000000021e-02 1.000000000000000021e-02 1.000000000000000021e-02 1.000000000000000021e-02 1.000000000000000021e-02 1.000000000000000021e-02 1.000000000000000021e-02 1.000000000000000021e-02 1.000000000000000021e-02 1.000000000000000021e-02 1.000000000000000021e-02 1.000000000000000021e-02 1.000000000000000021e-02 1.000000000000000021e-02 1.000000000000000021e-02 1.000000000000000021e-02 1.000000000000000021e-02 1.000000000000000021e-02 1.000000000000000021e-02 1.000000000000000021e-02 1.000000000000000021e-02 1.000000000000000021e-02 1.000000000000000021e-02 1.000000000000000021e-02 1.000000000000000021e-02 1.000000000000000021e-02 1.000000000000000021e-02 1.000000000000000021e-02 1.000000000000000021e-02 1.000000000000000021e-02 1.000000000000000021e-02 1.000000000000000021e-02 1.000000000000000021e-02 1.000000000000000021e-02 1.000000000000000021e-02 1.000000000000000021e-02 1.000000000000000021e-02 1.000000000000000021e-02 1.000000000000000021e-02 1.000000000000000021e-02 1.000000000000000021e-02 1.000000000000000021e-02 1.000000000000000021e-02 1.000000000000000021e-02 1.000000000000000021e-02 1.000000000000000021e-02 1.000000000000000021e-02 1.000000000000000021e-02 1.000000000000000021e-02 1.000000000000000021e-02 1.000000000000000021e-02 1.000000000000000021e-02 1.000000000000000021e-02 1.000000000000000021e-02 1.000000000000000021e-02 1.000000000000000021e-02 1.000000000000000021e-02 1.000000000000000021e-02 1.000000000000000021e-02 1.000000000000000021e-02 1.000000000000000021e-02 1.000000000000000021e-02 1.000000000000000021e-02 1.000000000000000021e-02 1.000000000000000021e-02 1.000000000000000021e-02 1.000000000000000021e-02 1.000000000000000021e-02 1.000000000000000021e-02 1.000000000000000021e-02 1.000000000000000021e-02 1.000000000000000021e-02 1.000000000000000021e-02 1.000000000000000021e-02 1.000000000000000021e-02 1.000000000000000021e-02 1.000000000000000021e-02 1.000000000000000021e-02 1.000000000000000021e-02 1.000000000000000021e-02 1.000000000000000021e-02 1.000000000000000021e-02 1.000000000000000021e-02 1.000000000000000021e-02 1.000000000000000021e-02 1.000000000000000021e-02 1.000000000000000021e-02 1.000000000000000021e-02 1.000000000000000021e-02 1.000000000000000021e-02 1.000000000000000021e-02 1.000000000000000021e-02 1.000000000000000021e-02 1.000000000000000021e-02 1.000000000000000021e-02 1.000000000000000021e-02 1.000000000000000021e-02 1.000000000000000021e-02 1.000000000000000021e-02 1.000000000000000021e-02 1.000000000000000021e-02 1.000000000000000021e-02 1.000000000000000021e-02 1.000000000000000021e-02 1.000000000000000021e-02 1.000000000000000021e-02 1.000000000000000021e-02 1.000000000000000021e-02 1.000000000000000021e-02 1.000000000000000021e-02 1.000000000000000021e-02 1.000000000000000021e-02 1.000000000000000021e-02 1.000000000000000021e-02 1.000000000000000021e-02 1.000000000000000021e-02 1.000000000000000021e-02 1.000000000000000021e-02 1.000000000000000021e-02 1.000000000000000021e-02 1.000000000000000021e-02 1.000000000000000021e-02 1.000000000000000021e-02 1.000000000000000021e-02 1.000000000000000021e-02 1.000000000000000021e-02 1.000000000000000021e-02 1.000000000000000021e-02 1.000000000000000021e-02 1.000000000000000021e-02 1.000000000000000021e-02 1.000000000000000021e-02 1.000000000000000021e-02 1.000000000000000021e-02 1.000000000000000021e-02 1.000000000000000021e-02 1.000000000000000021e-02 1.000000000000000021e-02 1.000000000000000021e-02 1.000000000000000021e-02 1.000000000000000021e-02 1.000000000000000021e-02 1.000000000000000021e-02 1.000000000000000021e-02 1.000000000000000021e-02 1.000000000000000021e-02 1.000000000000000021e-02 1.000000000000000021e-02 1.000000000000000021e-02 1.000000000000000021e-02 1.000000000000000021e-02 1.000000000000000021e-02 1.000000000000000021e-02 1.000000000000000021e-02 1.000000000000000021e-02 1.000000000000000021e-02 1.000000000000000021e-02 1.000000000000000021e-02 1.000000000000000021e-02 1.000000000000000021e-02 1.000000000000000021e-02 1.000000000000000021e-02 1.000000000000000021e-02 1.000000000000000021e-02 1.000000000000000021e-02 1.000000000000000021e-02 1.000000000000000021e-02 1.000000000000000021e-02 1.000000000000000021e-02 1.000000000000000021e-02 1.000000000000000021e-02 1.000000000000000021e-02 1.000000000000000021e-02 1.000000000000000021e-02 1.000000000000000021e-02 1.000000000000000021e-02 1.000000000000000021e-02 1.000000000000000021e-02 1.000000000000000021e-02 1.000000000000000021e-02 1.000000000000000021e-02 1.000000000000000021e-02 1.000000000000000021e-02 1.000000000000000021e-02 1.000000000000000021e-02 1.000000000000000021e-02 1.000000000000000021e-02 1.000000000000000021e-02 1.000000000000000021e-02 1.000000000000000021e-02 1.000000000000000021e-02 1.000000000000000021e-02 1.000000000000000021e-02 1.000000000000000021e-02 1.000000000000000021e-02 1.000000000000000021e-02 1.000000000000000021e-02 1.000000000000000021e-02 1.000000000000000021e-02 1.000000000000000021e-02 1.000000000000000021e-02 1.000000000000000021e-02 1.000000000000000021e-02 1.000000000000000021e-02 1.000000000000000021e-02 1.000000000000000021e-02 1.000000000000000021e-02 1.000000000000000021e-02 1.000000000000000021e-02 1.000000000000000021e-02 1.000000000000000021e-02 1.000000000000000021e-02 1.000000000000000021e-02 1.000000000000000021e-02 1.000000000000000021e-02 1.000000000000000021e-02 1.000000000000000021e-02 1.000000000000000021e-02 1.000000000000000021e-02 1.000000000000000021e-02 1.000000000000000021e-02 1.000000000000000021e-02 1.000000000000000021e-02 1.000000000000000021e-02 1.000000000000000021e-02 1.000000000000000021e-02 1.000000000000000021e-02 1.000000000000000021e-02 1.000000000000000021e-02 1.000000000000000021e-02 1.000000000000000021e-02 1.000000000000000021e-02 1.000000000000000021e-02 1.000000000000000021e-02 1.000000000000000021e-02 1.000000000000000021e-02 1.000000000000000021e-02 1.000000000000000021e-02 1.000000000000000021e-02 1.000000000000000021e-02 1.000000000000000021e-02 1.000000000000000021e-02 1.000000000000000021e-02 1.000000000000000021e-02 1.000000000000000021e-02 1.000000000000000021e-02 1.000000000000000021e-02 1.000000000000000021e-02 1.000000000000000021e-02 1.000000000000000021e-02 1.000000000000000021e-02 1.000000000000000021e-02 1.000000000000000021e-02 1.000000000000000021e-02 1.000000000000000021e-02 1.000000000000000021e-02 1.000000000000000021e-02 1.000000000000000021e-02 1.000000000000000021e-02 1.000000000000000021e-02 1.000000000000000021e-02 1.000000000000000021e-02 1.000000000000000021e-02 1.000000000000000021e-02 1.000000000000000021e-02 1.000000000000000021e-02 1.000000000000000021e-02 1.000000000000000021e-02 1.000000000000000021e-02 1.000000000000000021e-02 1.000000000000000021e-02 1.000000000000000021e-02 1.000000000000000021e-02 1.000000000000000021e-02 1.000000000000000021e-02 1.000000000000000021e-02 1.000000000000000021e-02 1.000000000000000021e-02 1.000000000000000021e-02 1.000000000000000021e-02 1.000000000000000021e-02 1.000000000000000021e-02 1.000000000000000021e-02 1.000000000000000021e-02 1.000000000000000021e-02 1.000000000000000021e-02 1.000000000000000021e-02 1.000000000000000021e-02 1.000000000000000021e-02 1.000000000000000021e-02 1.000000000000000021e-02 1.000000000000000021e-02 1.000000000000000021e-02 1.000000000000000021e-02 1.000000000000000021e-02 1.000000000000000021e-02 1.000000000000000021e-02 1.000000000000000021e-02 1.000000000000000021e-02 1.000000000000000021e-02 1.000000000000000021e-02 1.000000000000000021e-02 1.000000000000000021e-02 1.000000000000000021e-02 1.000000000000000021e-02 1.000000000000000021e-02 1.000000000000000021e-02 1.000000000000000021e-02 1.000000000000000021e-02 1.000000000000000021e-02 1.000000000000000021e-02 1.000000000000000021e-02 1.000000000000000021e-02 1.000000000000000021e-02 1.000000000000000021e-02 1.000000000000000021e-02 1.000000000000000021e-02 1.000000000000000021e-02 1.000000000000000021e-02 1.000000000000000021e-02 1.000000000000000021e-02 1.000000000000000021e-02 1.000000000000000021e-02 1.000000000000000021e-02 1.000000000000000021e-02 1.000000000000000021e-02 1.000000000000000021e-02 1.000000000000000021e-02 1.000000000000000021e-02 1.000000000000000021e-02 1.000000000000000021e-02 1.000000000000000021e-02 1.000000000000000021e-02 1.000000000000000021e-02 1.000000000000000021e-02 1.000000000000000021e-02 1.000000000000000021e-02 1.000000000000000021e-02 1.000000000000000021e-02 1.000000000000000021e-02 1.000000000000000021e-02 1.000000000000000021e-02 1.000000000000000021e-02 1.000000000000000021e-02 1.000000000000000021e-02 1.000000000000000021e-02 1.000000000000000021e-02 1.000000000000000021e-02 1.000000000000000021e-02 1.000000000000000021e-02 1.000000000000000021e-02 1.000000000000000021e-02 1.000000000000000021e-02 1.000000000000000021e-02 1.000000000000000021e-02 1.000000000000000021e-02 1.000000000000000021e-02 1.000000000000000021e-02 1.000000000000000021e-02 1.000000000000000021e-02 1.000000000000000021e-02 1.000000000000000021e-02 1.000000000000000021e-02 1.000000000000000021e-02 1.000000000000000021e-02 1.000000000000000021e-02 1.000000000000000021e-02 1.000000000000000021e-02 1.000000000000000021e-02 1.000000000000000021e-02 1.000000000000000021e-02 1.000000000000000021e-02 1.000000000000000021e-02 1.000000000000000021e-02 1.000000000000000021e-02 1.000000000000000021e-02 1.000000000000000021e-02 1.000000000000000021e-02 1.000000000000000021e-02 1.000000000000000021e-02 1.000000000000000021e-02 1.000000000000000021e-02 1.000000000000000021e-02 1.000000000000000021e-02 1.000000000000000021e-02 1.000000000000000021e-02 1.000000000000000021e-02 1.000000000000000021e-02 1.000000000000000021e-02 1.000000000000000021e-02 1.000000000000000021e-02 1.000000000000000021e-02 1.000000000000000021e-02 1.000000000000000021e-02 1.000000000000000021e-02 1.000000000000000021e-02 1.000000000000000021e-02 1.000000000000000021e-02 1.000000000000000021e-02 1.000000000000000021e-02 1.000000000000000021e-02 1.000000000000000021e-02 1.000000000000000021e-02 1.000000000000000021e-02 1.000000000000000021e-02 1.000000000000000021e-02 1.000000000000000021e-02 1.000000000000000021e-02 1.000000000000000021e-02 1.000000000000000021e-02 1.000000000000000021e-02 1.000000000000000021e-02 1.000000000000000021e-02 1.000000000000000021e-02 1.000000000000000021e-02 1.000000000000000021e-02 1.000000000000000021e-02 1.000000000000000021e-02 1.000000000000000021e-02 1.000000000000000021e-02 1.000000000000000021e-02 1.000000000000000021e-02 1.000000000000000021e-02 1.000000000000000021e-02 1.000000000000000021e-02 1.000000000000000021e-02 1.000000000000000021e-02 1.000000000000000021e-02 1.000000000000000021e-02 1.000000000000000021e-02 1.000000000000000021e-02 1.000000000000000021e-02 1.000000000000000021e-02 1.000000000000000021e-02 1.000000000000000021e-02 1.000000000000000021e-02 1.000000000000000021e-02 1.000000000000000021e-02 1.000000000000000021e-02 1.000000000000000021e-02 1.000000000000000021e-02 1.000000000000000021e-02 1.000000000000000021e-02 1.000000000000000021e-02 1.000000000000000021e-02 1.000000000000000021e-02 1.000000000000000021e-02 1.000000000000000021e-02 1.000000000000000021e-02 1.000000000000000021e-02 1.000000000000000021e-02 1.000000000000000021e-02 1.000000000000000021e-02 1.000000000000000021e-02 1.000000000000000021e-02 1.000000000000000021e-02 1.000000000000000021e-02 1.000000000000000021e-02 1.000000000000000021e-02 1.000000000000000021e-02 1.000000000000000021e-02 1.000000000000000021e-02 1.000000000000000021e-02 1.000000000000000021e-02 1.000000000000000021e-02 1.000000000000000021e-02 1.000000000000000021e-02 1.000000000000000021e-02 1.000000000000000021e-02 1.000000000000000021e-02 1.000000000000000021e-02 1.000000000000000021e-02 1.000000000000000021e-02 1.000000000000000021e-02 1.000000000000000021e-02 1.000000000000000021e-02 1.000000000000000021e-02 1.000000000000000021e-02 1.000000000000000021e-02 1.000000000000000021e-02 1.000000000000000021e-02 1.000000000000000021e-02 1.000000000000000021e-02 1.000000000000000021e-02 1.000000000000000021e-02 1.000000000000000021e-02 1.000000000000000021e-02 1.000000000000000021e-02 1.000000000000000021e-02 1.000000000000000021e-02 1.000000000000000021e-02 1.000000000000000021e-02 1.000000000000000021e-02 1.000000000000000021e-02 1.000000000000000021e-02 1.000000000000000021e-02 1.000000000000000021e-02 1.000000000000000021e-02 1.000000000000000021e-02 1.000000000000000021e-02 1.000000000000000021e-02 1.000000000000000021e-02 1.000000000000000021e-02 1.000000000000000021e-02 1.000000000000000021e-02 1.000000000000000021e-02 1.000000000000000021e-02 1.000000000000000021e-02 1.000000000000000021e-02 1.000000000000000021e-02 1.000000000000000021e-02 1.000000000000000021e-02 1.000000000000000021e-02 1.000000000000000021e-02 1.000000000000000021e-02 1.000000000000000021e-02 1.000000000000000021e-02 1.000000000000000021e-02 1.000000000000000021e-02 1.000000000000000021e-02
-1.079906117398991228e+02 1.642612104272092495e+02 3.804631047437452196e+01 -8.544740772234000303e+00 -8.507290804456616229e+01 -1.296160151782130932e+01 -2.013343132822674875e+02 6.853237732135074589e-01 -8.200102643220041898e+01 -1.370118246301957754e+01 -1.921912460603076056e+01 6.341460887430890203e+00 -1.726187172873282050e+00 1.624568761377296937e+02 8.194033660063458058e+01 -3.758726944314982887e+01 -5.116578528085838684e+01 7.670179989176712354e+01 3.178985058565917399e+01 -2.457891842548666261e+01 -7.633029282759353862e+01 -7.144285827301236225e+01 -1.335355614508830691e+01 2.801525667729807623e+01 -1.887249824071142257e+02 -9.557895775497892998e+01 -2.526712257964073771e+01 1.952156302933043719e+02 6.851776364393018071e+01 7.432587918198865395e+01 7.775669052568359518e+01 1.142620026088705831e+00 -7.680980582508492205e+01 2.009287519193755713e+02 -2.371424141720087562e+02 5.701927267123520693e+01 -1.162883219746784960e+02 -3.359402149052359476e+01 3.910855423305243050e+00 1.227047610655923506e+02 -1.189941473109691401e+02 -1.319001278226267893e+01 7.488324675819562515e+01 1.681223051971511495e+02 6.907059635149541066e+01 -6.620840756918583736e+01 3.986794067749838177e+01 -2.750142793731799884e+01 -6.397365925467892822e+01 1.516295674492531020e+02 -6.826230766499375591e+01 -5.044207712561031798e+01 -1.349814192728952094e+02 5.637196916758308696e+00 -4.891950542067616681e+01 3.745785206893275898e+01 -8.593003855074631758e+01 -4.846676745374293915e+01 -9.820810839138673032e+01 -1.505537423781136681e+02 1.880410127041313473e+01 4.397368601841534286e+01 -1.192504845060742156e+02 1.244393851815033081e+01 -7.676005808560870491e+01 4.757694815388192922e+01 1.614292750342516172e+02 -1.397357653885940181e+02 -4.192797574450986531e+01 6.994670882065665118e+00 2.847805393145625086e+00 4.105853328561558868e+01 8.133872287684103242e+01 7.741984600540771089e-01 -8.558990763738190566e+00 -6.780440594646977104e+01 7.578317723559898411e+01 -3.168893532635735255e+01 2.548247591459006145e+01 1.007562465296585543e+02 8.542045144530878531e+01 -4.142805907211962335e+01 5.593946032339689367e+01 1.427924832585320871e+02 1.125659079562644536e+02 -3.868411301594940621e+00 1.687076606488585924e+02 -1.080256141271861310e+02 4.035495623567718404e+00 -4.062117695879160095e+01 2.003153315025285508e+02 -2.055674401788228778e+01 2.810203284407252422e+00 -7.437121473349989742e+01 -6.926922891611829058e+00 -6.180850696025956381e+01 6.565852646187988739e+01 -9.159114164577809447e+01 6.648165906106844147e+01 -4.627191026976196753e+01 -4.818125891990404597e+01 -8.878943962498767917e+01 5.139144446762925611e+01 -5.296065916425105513e+01 -1.446364057881555709e+02 -7.695329569306055362e+01 -1.013163597736687507e+02 -1.522866391898389793e+02 1.316530664002484627e+02 -2.658212914732496657e+01 3.103951954311946082e+01 8.684938322462802773e+01 -1.007673490124531668e+02 5.515566562621231839e+01 -4.195436955913881150e+01 -6.723140189172656278e+01 -8.730792874867590569e+01 1.968169560406598748e+02 -5.495422789577722256e+01 -4.796815106366067027e+01 -4.568228886391731436e+01 7.786801765391082597e+01 -4.012296980167530336e+01 1.336234104726298142e+02 -4.836515093357235884e+01 5.340767916634827372e+01 4.400706272772004546e+00 -7.853133636451843813e+01 6.661722113692607650e+01 2.686963961059220765e+02 -8.918364808065838645e+01 4.597972950186712637e+01 -7.389145077542515594e+01 4.382978959662312946e+01 1.271046402160895212e+02 -4.982755707778066778e+01 1.416495466719849539e+01 -2.610986976519248159e+01 -9.878720911922866321e+01 -1.682031086809175235e+01 4.177281161827266942e+00 -7.565234909558392395e+00 -1.447418737928716936e+01 1.145274915625291783e+02 1.263634628133521431e+02 1.807202691704738413e+02 -2.949869546616604339e+02 3.702337424145068212e+01 -1.529235184681318493e+01 -6.042418376029831961e+01 1.748264051244509858e+02 7.380909779059852838e+01 -2.542201117898164053e+00 -1.123965743910626713e+02 -1.054306028268480233e+01 9.705127396028103703e+01 -1.302777433535610783e+02 -1.634937044677197946e+02 1.041273346592653226e+01 4.113168137194731599e+01 -5.919722493420994880e+01 4.077457683152262291e+01 -1.038541049946613555e+02 -1.467567561500285365e+02 2.045231339335397891e+01 4.712343003960557297e+01 4.682884375146262990e+00 -8.094631113544276957e+01 -9.080221972286932441e+01 -8.177628890446739263e+01 -8.496828030696082124e+01 1.229491502431827499e+01 5.514958527202022509e+01 1.131147258043098418e+02 7.710564480438110024e+01 8.693054303360970891e+01 1.043968022883673115e+02 -7.263369448441807208e+01 -8.014422118075601986e+01 6.851741521854438588e+01 6.662215580630623890e+01 5.756250100922164137e+01 -9.117801209118200134e+00 -8.853984900679741088e+01 5.250556215243580027e+01 -1.741845531402300651e+02 6.535563478570117013e+01 -4.330357233882977397e+01 -9.382886705709243813e+01 7.222984239943302498e+01 -1.671267531116237848e+01 -7.506577449623669906e+01 -5.593150324572794574e+01 -8.937347561812897467e+00 2.364627859646462582e+02 7.497422728357028632e+01 5.345742183373336331e+01 -1.012497601444902244e+02 1.445863772444881761e+02 1.046544317369650701e+00 -8.814420444598853521e+01 1.520446478407742745e+02 -1.504145779146328152e+02 1.540106901608452183e+01 -3.173962605417114347e+01 -2.169285693705638778e+02 -1.316022540027230718e+02 -8.608114503004763662e+01 -2.901022647940368060e+01 -1.176469313680270830e+02 5.688369566392659493e+01 6.415345972088340432e+01 -2.724631884859770281e+01 -9.848525485157851733e+01 1.116195461703276521e+02 1.166266223628717000e+02 4.561030208966460719e+01 1.728438772538236634e+01 2.580944866502406398e+02 4.309874250046185296e+01 -1.180201113806673874e+02 -4.452605876213294778e+01 -1.667374096179838148e+02 3.148236873506232314e+01 1.514108691757954261e+02 -1.464842003467896348e+02 1.301486272666500952e+02 -8.987732169165965956e+01 -1.871288303973791400e+01 -8.024518801786180155e-01 5.226073201245576882e+01 -1.143590018351249782e+01 -2.256239877565842988e+01 -1.859342712606214576e+01 -1.253214603779644278e+02 4.586299237607941137e+01 -2.998989632395024074e+01 -1.277212974950842295e+01 -1.060247343682650545e+01 2.234388607122290296e+02 1.723193921104604840e+02 2.300422114149212973e+02 1.303382615488071394e+02 -8.561734009207853546e+01 7.432264280509451737e+01 2.091751458661147112e+01 4.699656739436208142e+01 -3.922869992518474191e+01 2.526153382410139727e+02 -2.306722043403267364e+01 -1.352533355575098426e+02 -1.477772054531986079e+01 -4.534932254395341999e+01 -7.654325160474458301e+01 4.268996459678635347e+01 -1.158631768111698257e+01 1.799680061221424978e+02 9.134702124105430698e+01 4.043968709053942234e+01 9.694165649010048469e+01 9.362909714761902080e+01 -2.274287145007794209e+01 1.381626878543621046e+02 2.625703366675256589e+01 8.867706522933015378e+01 4.719440222788302464e+01 6.851323499723856791e+00 -1.145495126865024531e+02 -1.146754644493244371e+02 -8.911726825249816386e+01 -1.540268869233173277e+01 8.580986589067907744e+01 -3.030896503654331653e+01 9.787160846087287780e+01 4.337882244673485843e+01 -7.198006691201011620e+01 -2.963555458914558116e+01 -5.798576815160439679e+01 1.739042207732454770e+01 -4.581770074221996936e+01 -1.108997291904099569e+02 1.202656891841313183e+02 1.201110536891475533e+02 -7.817436164228941209e+01 5.339425354783750244e+00 -4.486871308426901095e+01 -3.222632206431205759e+01 -1.122557451698917141e+01 -3.092671816260755691e+01 4.404647460033373818e+01 -1.391424853519080784e+02 -5.231799971050337206e+01 -1.502735418780504517e+02 1.722890063173673525e+02 -1.996515547909939059e+01 5.827316201947357399e+01 1.177651286686574217e+01 1.428158298460721767e+02 4.411156579152595469e+01 3.530045821617859758e+01 1.526569943827082909e+02 -4.870589623144048375e+01 -9.652721489460903115e+01 2.691087047302817581e+01 -1.561902217428901452e+02 -5.278935566929308720e+01 1.011395882818775078e+02 -1.260491178758145736e+02 -3.592546411460432410e+01 9.019382379491106860e+01 -9.330138622199103793e+01 -8.837217864467848472e+01 -8.162575421255323249e+01 -6.299913579959674337e+01 2.460404878916676523e+02 1.957521615401924464e+02 1.016887364772232871e+02 -1.009166347822936984e+02 7.389072260682610249e+01 -6.537600298785649500e+01 -3.102557420366510144e+01 1.640533020979136225e+01 -3.185869840251991292e+01 -9.250105269714018164e+01 -2.774625452705504536e+00 1.455183142569052634e+01 1.073437546742587898e+02 -1.267462519935198060e+02 4.139984667738485768e+01 6.288623529547701452e+01 3.402238329672024975e+01 -8.933481025704315925e+01 -1.464155028382531327e+02 1.903549669247353222e+02 -1.754132981967828897e+01 2.481669493327255793e+01 1.542699326230252836e+02 2.626136085553931210e+01 2.730949874501224883e+01 -4.387233252949123141e+01 8.725382716205147915e+01 -1.342218129756162739e+02 -3.031494328684610906e+01 -6.042227151883804659e+00 -5.254647646539887518e+01 6.210303496394669054e+00 2.090975698630742841e+01 -3.521491854876761352e+01 1.344597707681112553e+01 2.102637275855994119e+02 -2.695847174986802841e+01 -2.755255090193830725e+01 -9.999223785344938165e+01 -1.607290071449164914e+00 -7.940278739758520032e+01 6.266611800151891565e+00 1.102262339564338163e+02 -5.115095114532915943e+01 5.939583148509804289e+00 -5.339217368181918744e+01 3.256205631566010172e+00 8.572077389594316799e+01 -1.138890364834975344e+02 -9.520305405944912991e+01 -1.008468091420200494e+02 7.013201934539920046e+01 8.508256857224806424e+01 -9.065171081597225111e+01 6.157896285473790954e+01 2.539873224228858106e+01 3.802576480243848778e+01 -1.743705078921216156e+01 8.979331227825929318e+01 7.832337929629188977e+01 -7.591805298622547582e+01 1.158795309130391615e+01 7.947430788443253391e+01 7.157962619615756239e+01 -1.956782013150027311e+01 2.452817331730782513e+01 -1.302989902761518124e+02 4.770018352935822747e+01 -3.221371001614352991e+01 -3.212087093125160209e+01 1.701746355360258462e+02 4.659121110177577663e+01 1.181052984212201977e+02 1.876534611976061626e+02 -1.352768474633209621e+02 1.465039048254642751e+02 -6.235140132442624150e+01 -1.327940612171771306e+02 8.087938640257998202e+01 -1.317106327981294669e+02 -2.821551099707923527e+01 5.541275843836142201e+01 7.903646277144605214e+00 -1.652504286381960128e+02 8.280418355069565450e+01 2.480036649308837937e+01 6.788082636265232850e+01 3.567630038342279164e+01 9.300010626081625986e+00 -6.594240369225249765e+01 1.136827383174145467e+02 5.354272712138845947e+01 -6.103036467825778999e+01 -9.947518940060807324e+01 3.822674128328697662e+01 2.528330257080355992e+01 8.096658768782663174e+01 1.805907286845759359e+02 -2.418368563518929193e+01 -1.082350786032181986e+02 -8.319287937128164856e+01 -5.041739698194226094e+01 -4.354600436782631334e+01 -1.441453490287413217e+02 -2.213313653096651379e+01 1.272565732728295558e+02 7.321814643233815900e+01 -1.202179324873325044e+02 -1.472994729451550029e+02 -6.688194443989929994e+01 -7.496613508028043782e+01 1.442416427679850983e+02 -1.674700641065405193e+02 8.504910214590417183e+01 -4.525589144540080433e+00 -4.228179259041123572e+01 1.305169518519996963e+01 8.953199470237709079e+01 4.867556939404807537e+01 1.357646919640329202e+02 -1.563308286740480355e+02 -7.953875264772739229e+01 2.492949986127345596e+01 4.118525024374886812e+01 2.024628665274965158e+02 1.428921497231061153e+02 6.439126417225102728e+01 7.082616395618013883e+01 -3.345027845885770290e+01 1.491025063327681437e+02 -1.761960269768421483e+02 -6.230325983578912741e+01 -5.272694230991107389e+01 -5.087227417467855872e+01 -1.014183605242264576e+02 -1.473121963854027250e+01 -6.740873114218983631e+01 6.989289750742318574e+01 -8.978611206090906904e+00 -5.701913170151537713e+01 -6.111202486414060786e+01 1.769719590936978761e+02 5.799061367942805845e+01 -1.349380350178160271e+01 2.051583408534556554e+02 -1.064198996470864529e+02 -3.469325279798960082e+01 6.576655643665181117e+01 -1.352640478091445830e-01 1.471027338651827243e+01 -1.228824774775238637e+02 1.730267710684894382e+02 -4.806484321491952727e+01 -2.641188772222136905e+01 -1.077042935647241535e+02 1.235508651925824068e+02 9.408374766049368532e+01 -7.607908793273395531e+01 -3.693451773955171547e+01 3.824405930960698896e+01 -1.485638351350391133e+02 -1.913978506132322510e-01 -7.330489674952094958e+01 7.538988854656253125e+00 -1.060559234670682827e+02 -1.555343280066092575e+02 -6.934651071155208513e+01 1.453621208349329663e+02 5.546266166319946933e+01 -8.791937144964555273e+01 8.743737668005772434e+01 3.354590394834373512e+01 8.663597855685726756e+01 -4.129790722349553533e+01 -8.242299885099124879e+01 1.676736566383281684e+02 4.080865330917146849e+01 2.837055950502115920e+01 -7.153039688705337085e+01 -4.146686724785080713e+01 9.323626273507002793e+00 -7.029658248155198130e+00 -1.693462732426864648e+02 -3.391890174340542785e+01 6.309275514025685538e+01 1.092966509100769201e+02 1.525371011116991724e+02 -1.301291267489873071e+01 8.776353761964482203e+01 1.544535931018991732e+02 6.207791826926862910e+01 1.445690032605735666e+02 1.572543688349677993e+01 1.285057247981157502e+02 -8.213805911770077728e+01 5.217852131842732177e+01 2.866340075471416782e+01 7.418081600028712330e+01 -1.038507290647582550e+02 1.936236862228914219e+02 -1.257868470722999348e+02 8.631220110798568612e+01 -1.049077811494380796e+02 4.510039016759869668e+01 1.348685541835551049e+01 8.855969174403007571e+01 -7.190455491868922877e+01 -7.371027222897718900e+01 -1.086833488600218267e+01 8.693987128330573455e+01 -2.887261057246495355e+01 -1.589802023557373190e+01 -1.914732042194826533e+01 4.617826240019043738e+00 9.566251581369785129e+01 -6.095180916988062592e+01 -2.634872336387529046e+00 -1.887041242708896505e+02 1.186885391793072557e+02 -1.214141047527585187e+02 -7.181377002298916068e+01 -2.286800665556283718e+01 -1.049443237834795042e+02 -5.166566520843522170e+01 -5.695448540517111979e+01 -1.914393674199686757e+01 1.324200572552098834e+02 5.254763102821119247e+01 9.759998065747785745e+01 -1.322823546718727528e+02 -1.346829831907713810e+02 -2.786354939821210337e+02 9.932413949508637074e+01 1.013026546877842975e+02 4.113571320580606283e+01 -4.128197868272147275e+01 -3.612584318969216213e+01 -1.785261241857890013e+02 1.419914915653076832e+02 -1.043969547500926041e+02 1.039652454152904255e+02 -1.547292150049381121e+02 -1.391959352467608824e+01 -5.382712072064929743e+01 -1.159268542728711253e+02 -4.481683479127098479e+01 -1.219324690442293146e+01 -9.009085256159281130e+01 -1.005766382657266291e+02 -1.201683646070106803e+01 6.920033069851116636e+01 -1.211395819569012389e+02 -1.521287674347524543e+01 -7.169779643913945222e+01 -1.277575745745339049e+02 6.413635108577872224e+00 9.246138018744956355e+01 1.609621115466812000e+02 -1.853042036772271217e+01 -4.477835071320007643e+01 -1.207639317091085474e+02 -1.591527118372599148e+02 1.009700214731442856e+02 -7.075469526766680417e+01 7.684027653213655640e+01 9.142872337290643969e+00 2.842222539392181702e+01 7.184658813900237817e+01 -8.248123346681441603e+01 8.046395481624699642e+01 1.121923237871798023e+02 1.532916557976269587e+02 -1.134091492889568258e+02 1.011878396636987958e+02 -4.651492246703257649e+01 -8.838677082776726479e+01 2.089013563641559585e+02 4.790420211691980512e+01 8.125514182023891863e+01 2.065045150354941939e+01 -6.159816895854481089e+01 -3.400793143358828274e+01 -2.048109996009812050e+02 1.028404359407317088e+02 7.932401264960455478e+01 -7.369029839693499184e+01 -7.117498727839137018e+01 1.413393183082985161e+02 9.838610680696470467e+01 4.976576315965232311e+01 7.404838966689352731e+01 -7.641471368325142066e+00 1.004547506966238046e+02 -1.008384899677705420e+02 1.814118239167883644e+02 -3.843693097576583284e+01 -1.187755303377595908e+02 -3.670952687811643500e+01 6.984007471688128987e+01 1.434268603490519922e+02 1.251175452208959449e+01 1.692182086576547135e+02 5.080264658451337567e+01 3.274516563204245045e+01 -1.083566021025648638e+02 4.359450083508660612e+01 -1.216775728930813472e+02 4.645351495744468906e+01 3.755684471882854325e+01 -1.201110880503491245e+02 -8.278721706180378703e+01 3.880388533802881312e+01 8.494022722043943929e+00 -2.259402890799917429e+01 4.077611269813835548e+01 -2.083605186344953353e+01 -6.141825894137502218e+01 -2.553924268001875930e+01 -2.182580200533731229e+01 -3.876446917594196862e+01 1.826680406613661134e+01 -7.839776833005672074e+01 1.157897746929778577e+02 -7.230777476401551951e+01 -4.096212356099029783e+00 6.388124905870373027e+01 3.772300087401634361e+00 1.554194853663987530e+01 1.554743434731464546e+01 -1.140073104517567941e+02 -4.290207193727431978e+00 6.331875305820907585e+01 -2.252827467763528375e+02 -8.263454357874157097e+01 -1.096984619391700164e+02 4.263547854994814656e+01 9.365460551556606106e+01 -8.932546328818780523e+01 -1.634154178012119587e+02 -1.802580292377566593e+02 1.942313297236452385e+01 -1.410429865421967861e+02 -6.158021465684354823e+00 1.435986299570514575e+02 -6.879870563459541621e+00 3.610035852077582064e+01 -9.609365900779289404e+01 7.756483034410616995e+01 -1.150896011673386283e+02 -1.497996034248533270e+01 -2.938084068418470451e+01 5.586768163486726024e+01 -8.572079495709049368e+00 1.024502262823783809e+02 -1.183325335150860838e+02 -4.853305035242055254e+01 8.395273263292686750e+01 6.406895017051486718e+01 -7.970723018017096706e+01 -5.268023645883145178e+01 -4.779752907916753202e+01 -2.800310357497558016e+02 1.872240596493207079e+02 7.357140142843991271e+01 -2.279027058470237321e+01 -2.868528727058894034e+01 4.014118144186002013e+01 -8.126932532858823777e+01 9.612962902859038650e+01 5.842341696888328784e+01 7.911137570293746535e+01 -8.119176403875886194e+01 -2.558112148855714452e+01 3.215533698379545058e+01 1.677400147679976072e+01 -4.134976491056279713e+01 1.524210839439573419e+02 -1.667218413960010182e+01 3.416395934645830579e+01 -2.217368830094011400e+02 -8.165390191875557946e+01 -7.053878962272888486e+01 2.220739432176543104e+01 1.052820319105282749e+02 -2.234787167340403471e+02 -1.803553820048499006e+02 2.136972053581622504e+02 -1.018626258801979745e+01 9.259984013364923783e+01 6.039659420027025050e+01 -5.335512584671776892e+01 -1.262982443704590878e+02 -9.174491905189339036e+01 -4.844455701097713529e+01 -3.606780818905145480e+01 -3.775549868268791442e+01 1.555416791585519753e+01 3.587287417219415886e+01 1.608744697074887142e+02 1.188266090585226067e+02 6.739926163787768765e+00 -4.250704758187130672e+00 -1.530449871719384021e+02 1.153562786405045699e+02 1.535776676825801133e+02 -9.974724942453651977e+01 7.107431122794159251e+01 1.637619585647747122e+00 5.296590210274888477e+01 1.208771421317665471e+02 6.839657905044118991e+01 -1.292440575377626146e+02 1.553942373071948424e+01 -2.833564362535412329e+01 1.074704036621007042e+01 -2.227624043379860908e+01 4.371804193609774103e+01 -2.513776670111930116e+02 1.747459293756723469e+02 7.007376709670159798e+00 1.537961603964454014e+02 -1.015206785223538333e+01 1.024438401724235632e+02 6.913373150205174511e+01 -4.051395958671809439e+01 2.891254518192450362e+01 -7.032604007052927386e+01 -8.595399138788916105e+01 -6.958734374417174706e+01 -3.096847455511359115e+01 4.363680527586118529e+01 1.064376097324709605e+02 2.750820216427723608e+01 6.008411117192760997e+01 -1.013304234364174761e+02 -1.325700647388840139e+02 -1.303555321802311440e+01 4.484263239899022579e+01 -4.394014660473725797e+01 9.147725955182814062e+01 5.372159572738218714e+01 -2.673224449294512794e+01 2.896205602481717278e+01 5.938829599201557841e+01 -6.974181996483534363e+01 -1.293669183707847594e+02 1.374449440093268606e+02 7.559359332690619659e+00 4.852268158526822361e+01 -1.445313135602890782e+02 -5.170790443354491828e+01 -4.219344527163215175e-01 -6.372773133007284940e+01 4.126463848227905906e+00 5.453822091433380592e+01 1.806453663474154325e+02 3.791968941759438394e+01 -1.061965310112927696e+01 7.003368707538238880e+01 -4.407619133769642872e+01 -1.056560940039961451e+02 -1.339890166252594383e+02 9.079846758932951900e+00 2.435695458185526618e+01 2.312098563250149752e+01 -5.519011957974689153e+01 1.172361889324727429e+02 -7.844225999447017728e+01 1.245575830821964303e+02 8.474080165746542548e+01 -6.314814717372012609e+01 -8.230919813384620909e+01 8.178938834335212960e+01 1.983626966823238646e+01 -5.102480297853594493e+01 -5.230709019667195747e+01 1.328865725704436045e+02 5.572267211233953077e+01 7.768590805385615283e+01 2.541867558791409110e+01 -4.088116591592790172e+01 1.044507501734923380e+02 -5.307162792216226421e+01 5.524064004553780327e-01 7.445401042144119685e+01 9.689932258160823153e+01 2.486461662413707927e+02 -1.705071549238916475e+02 1.566313799828349147e+02 -6.575639927620585468e+01 -1.483112296996492141e+01 -2.446296677569516831e+01 -2.018930340177674410e+01 -5.368636432458748686e+01 9.060174156514894150e+01 1.793359533767069536e+02 -1.157682597689874910e+02 3.015658241275158957e+01 -1.237525479717041890e+02 6.846987667993033710e+01 -4.338708798035495562e+01 -7.908339931963533331e+01 -5.263234331285018897e+01 4.023336765802426385e+01 1.891843802743540337e+01 -7.988612620502362915e+01 -1.378459669025148742e+02 2.029754436365733028e+01 1.541213336967924192e+02 1.397439417286222429e+01 1.785272177277710455e+02 7.296324767885485230e+00 1.317751624219262681e+02 -3.386255020796070170e+01 8.887209408509798436e+01 -6.997222120910089416e+01 -1.106154333870872364e+02 4.844444348854178628e+01 -5.685088618480319411e+01 -7.699782058646836447e+01 7.144824762187640488e+01 6.348227399095216938e+00 -9.248796539742151879e+01 -1.477707663586137130e+02 1.452043182780178654e+02 -8.755565242261340586e+01 -2.326797180137962773e+00 1.179726531188794354e+02 5.699725306948324999e+01 -9.652221671137363046e+01 1.047018646835967104e+01 2.772967725916651602e+02 5.241304123791839231e+01 -1.551307481349895170e+02 -4.695492367691735325e+01 -6.051067538823059522e+01 9.464511503830642880e+00 1.058832673544804805e+02 -1.018984877366929851e+02 2.125998527633526791e+01 1.285028280104356213e+02 1.849163610071270725e+01 -2.081359900318437894e+02 4.758381766759205078e+01 7.438134442212341924e+01 -1.339498258884593440e+01 3.231090098657892895e+01 1.677704056750175254e-01 2.222826528340196006e+01 2.733582223434062541e+01 1.141766406728995094e+02 9.664518422995912772e+01 1.539858385251257111e+01 1.468934905718174662e+02 -6.310877199042506902e+01 2.431489369100876559e+02 6.411996406445622654e+01 1.397304690626480692e+02 -2.165542948095706066e+01 8.881484385268045401e+01 -4.825882453165444730e+01 -1.443369914823840077e+02 2.580005242840327995e+01 9.367641796320882008e+01 -8.635721817643504039e+01 -1.032951338661327867e+02 -6.562196093436654110e+01 3.611182742718919059e+01 -1.126210716338836022e+02 7.367508706516990458e+01 2.765785962499939288e+01 -9.627365558699831638e+01 1.873148186933909471e+02 -1.160007458358917454e+01 -1.003811966639605799e+02 -1.322807293535052509e+01 -2.015696960870871735e+01 -1.383068984947535114e+02 -3.947475502764606148e+01 6.067480393518153647e+01 1.300014099416326019e+02 2.864720126856030546e+01 2.638065244928740327e+01 4.417906850643264249e+01 -3.523399872809488897e+01 -1.436407090190561746e+02 1.567428543856388323e+01 3.053779377323759903e+01 1.313169569319850325e+02 -9.759651889406276482e+00 -7.509714828372895568e+01 7.221152698667675907e+01 9.642654237385073213e-01 3.139612759267013686e+01 1.373473246879647434e+02 -1.750921521839107697e+02 -9.161044457621464687e+01 1.230578104824820400e+02 -2.068122090496332532e+02 -1.762998130837463293e+02 8.726054894297062958e+01 1.476251907892107340e+02 6.079504995934321698e+01 -4.289538457693841345e+00 1.492875608025995859e+02 -2.104488685707256082e+02 1.027231601243124430e+02 4.062437938922528957e+01 1.218172550530124596e+02 -1.807896624260328622e+02 1.020942183675401509e+02 -2.706494904148385672e+01 -1.281605819605443912e+02 -5.102180488453458729e+00 -8.856845539340027074e+01 -1.555837818329339228e+01 -4.162305789813830259e+00 -1.180981138011640326e+02 -1.182173225765118190e+02 -5.997774545803801516e+01 -1.235740138249267517e+02 1.926658550678205586e+02 -1.544449019093060258e+02 -4.810462511453152246e+01 1.654042259627566125e+02 3.252779330475428310e+01 -2.837503094745692920e+02 -1.218702148375836174e+02 3.403405056196513101e+01 5.240083894088472505e+01 8.192705038400411865e+00 -1.481993338677700081e+02 3.420934553028684633e+01 7.192416410115462178e+00 -7.125487333348212360e+01 1.943485353561483180e+02 1.941914581449027821e+02 4.167112480444610689e+00 -1.999216877851814331e+02 1.207669541847975410e+02 2.947882286407696029e+01 3.649844937840717840e+00 7.341882561177895639e+01 -1.989033752947104574e+02 -1.323082090706026577e+02 1.351824493667723743e+02 1.051163062034680848e+02 5.071538441608762326e+01 1.372566539568003066e+02 -1.708866013712339793e+02 -1.961627029783060649e+01 -1.250059011111902834e+02 4.185208840990158308e+01 -9.957480625037204902e+01 8.346665724667958841e+01 -3.251424599072219479e+01 1.187258183075109486e+01 1.700968770334604869e+02 2.736314551268750606e+01 -2.526620989944450173e+02 -1.211578151297845665e+02 -7.989284550821439268e+01 1.515644486814575771e+02 1.202074487019364923e+01 -5.165279609413021689e+01 2.907124882492215434e+01 5.990081897280585110e+01 -3.791245144753949603e+01 1.030608016203063499e+02 -9.657548343029306182e+01 4.717612400917877125e+01 1.072990529581184944e+02 -3.404501468224643901e+01 -9.406362858084280276e+01 -1.087613564117223319e+02 1.148040920451727658e+02 -4.762566348087372603e+01 1.884142692365080620e+02 5.483721645099452502e+01 1.063518188615580868e+02 1.768629442114482231e+02 8.201930485259483206e+00 -1.191635528577709948e+02 -1.588670087192731728e+02 -1.094400182843941423e+02 4.074729240213314085e+01
-1.272709966336460496e+01 -4.535816517304103179e+00 9.694949632336013678e+01 -2.144581059558560696e+02 1.455244253488457105e+02 5.944696350910354710e+01 1.424576857539221351e+02 -1.209418050573960954e+02 -2.590115716925601497e+00 -2.252762083007309002e+01 -2.055124098736821452e+02 3.062406707537441974e+01 -1.715081973878742616e+01 1.145192131030371598e+02 -1.171369538092551750e+02 5.778190985729340667e+01 1.172920396276756918e+02 -4.302731310530263897e+01 -4.642717223764902457e+01 -2.526260280985875184e+01 5.779621452243279123e+01 5.904470858584084425e+01 3.036841703118666302e+01 -2.176747969356169108e+02 -4.827199980697562154e+01 8.571346162727547835e+01 9.281440058618660061e+00 -9.717694624675710102e+00 -6.227558115203813571e+01 -1.451151805070278655e+01 6.865692373203232535e+01 -1.361195938104611400e+02 -5.800022938870147016e+01 8.396814438804154790e+00 1.943271984276159117e+02 1.985182829988801814e+02 -3.009068694105827646e+01 5.231474987087015904e+01 -2.429394119025621579e-01 -1.307204972388722979e+02 8.983543790451025757e+01 1.003656282418295120e+02 1.015746308671646005e+02 1.092863886855311684e+01 5.792312729847046171e+01 4.504087219886180549e+01 3.639071428062833746e+01 2.748629286508487013e+01 1.032259484771025200e+02 8.396742582226831075e+01 6.138128518477879680e+01 1.525729346052323763e+02 2.319654404952034668e+02 1.830801780003069723e+02 -5.535774830540060520e+01 4.611676235277811742e+01 -6.015209577127881602e+01 5.277917760699641292e+01 -1.799090846966436175e+02 5.288484065740959750e+01 -1.916473889337779895e+02 -1.579292818619154843e+02 1.212492424086888931e+01 -8.673656577530756806e+00 1.586764639280025619e+02 -1.946847447632500518e+02 7.045955663447220729e+01 2.151623704145384295e+02 -6.920801579141480531e+00 -1.823612719571980278e+02 3.325922065495421265e+01 1.845869667517252992e+02 -5.721038110420776235e+01 -2.495582523913091109e+02 -9.602316486685010943e+01 8.342061956073386852e+00 -2.154252029175790994e+02 3.004822242853621361e+01 -1.680374877246420056e+02 -1.737628418560763350e+02 -5.355076577390462944e+01 1.427626138126575484e+02 6.504995054812555111e+01 9.946872626966669628e+00 -8.307249097987856601e+01 -3.990987392708735371e+01 5.971354786387586699e+01 -2.175338651637244709e+02 5.069681238965831938e+01 -7.022911852101803731e+01 -7.324088585387413275e+01 -1.657120991754170802e+02 6.095458121729836165e+01 8.689319270389627548e+01 -1.521544253719960977e+02 1.619944234524774345e+02 -3.738461780932725986e+01 -1.586477016945159235e+01 8.218234886531108430e+01 1.466019986644421067e+02 2.039340608519017195e+01 1.420360217868892505e+02 -1.735832472604181120e+01 -8.506805278318326202e+01 -1.838775903348764729e+01 9.478929232417482353e+01 4.337438102325737077e+01 9.435403916702664162e+01 9.102999002983285948e+01 -8.014686685379741959e+01 -1.638873833268280862e+02 1.186859459791974984e+02 5.231924093752884630e+01 1.566207873338415979e+01 2.948937351978514343e+01 -6.552337697912095393e+01 9.263573548189273765e+01 8.669538879310229618e+01 -1.324505777439303955e+01 -6.875019703036834073e+01 2.962087804282196402e+01 6.065048145195252260e+00 -5.932634282206512921e+01 1.636454343732353038e+02 -3.166311622191286901e+01 1.173566951785021075e+02 -6.764954942230218649e+01 3.705333205863308876e+01 -3.481548207709810328e+01 8.638590738178898221e+01 2.265861733048975779e+01 1.115920257330851513e+02 -1.120323136722133768e+02 7.178985660570353389e+01 1.192248085279127281e+02 -4.315829589178404291e+01 7.388836071597238764e+00 -1.234189002458177953e+01 1.128379297211250361e+02 3.527719211076882022e+00 1.628914854642017360e+02 -1.366271346302580127e+02 1.127053245622250728e+02 -8.819874537361144462e+01 9.258793175078298532e+01 -1.324661112776194329e+02 2.852194471135980081e+01 2.393073536265736934e+01 1.720245428698056633e+00 3.510839796428504656e+01 4.447748428123405517e+01 -1.197091224485984284e+01 1.053646568197321187e+01 1.045340059416768526e+02 1.230572758903523010e+02 -8.386931438726725219e+01 -5.239754851163115035e+01 4.577940069298632864e+01 1.466559278961014234e+00 -1.325336416708492777e+02 -5.335334367024943703e+01 -3.426366643573156523e+01 4.731387760416068744e+01 -6.341060286705481985e+01 2.217497495236607108e+01 1.552561946137608970e+02 -7.692159024910307608e+01 7.827882075830227393e+01 8.140913075649093855e+01 1.092401641203558427e+01 1.195886578661986448e+02 6.092771118083915383e+01 1.628442406463948373e+02 -3.355154338973764538e+01 1.089969771555513631e+02 5.387175974069795359e+01 -1.557481564410102948e+01 1.979917999974907445e+02 -1.346318942746769380e+02 4.744324015735414690e+01 -1.820487169729547645e+02 -8.170197629883095658e+01 3.985056796331188167e+01 -7.012525238931671367e+01 -1.513162748357952125e+02 1.936260595195964811e+02 -8.333380314039496284e+01 -4.614683742173438930e+01 -4.496581371805776683e+01 1.183137135860950480e+02 1.892854705581815722e+02 6.292876481506078079e+01 1.421474510935430828e+02 2.133356580347998204e+02 -1.552410141289203516e+00 1.583293775185261723e+02 6.890778172300501581e+01 1.850920295225031111e+02 -1.223065814455151639e+02 -1.150449180043026409e+01 6.181241565280308770e+00 1.846505897304930386e+02 -8.832507968241051799e+01 -5.884310116327502271e+01 -5.146063364413888763e+01 -1.303019987387210676e+02 4.542718846950439371e+00 -9.812020000348405802e+01 1.498922364968074987e+02 2.288974613301916605e+01 1.165552013627878836e+01 7.029557745613830377e+01 -4.774338549888348382e+00 1.137550240631680936e+02 -1.544689913808500137e+02 4.416745399772708680e+01 -1.660464194649219110e+02 1.141639903673707579e+02 9.343537326395123443e+01 -6.541430204339523868e+01 4.550373163173230751e+01 2.315326805499225316e+02 -2.963013813710714217e+01 4.049359208388587206e+01 -3.177387318480931455e+01 5.633658478502579214e+01 6.247582232957007164e+01 -6.111597740056085470e+00 9.905815010384179686e+01 9.862684453519096905e+01 -1.884656072497247692e+02 -1.489627769576736398e+02 -1.165020398829737474e+02 -9.162816670792871321e+00 -1.455773750594296416e+02 1.123213356442724518e+02 1.072397702875934158e+02 5.735548606271810002e+01 1.085269900609317695e+01 1.532525675435668973e+02 8.160377808979799852e+01 6.561774946170487510e+01 -9.873867401317025383e+01 1.481430448194909388e+02 -3.504460059735200694e+00 1.062806835872098077e+02 8.573741712720940100e+00 3.570508935922539706e+01 -7.353990606233492144e+01 -8.816252052043829224e+01 6.955506867486283795e+01 -3.756626903810885487e+00 1.420215177275240706e+02 -1.219649336587126420e+01 -2.761614816885717527e+00 4.453920366403812636e+01 2.197318766453654604e+01 1.373346404615417669e+02 1.426981039015670483e+01 3.481562607129975362e+01 -1.501762014729111741e+02 6.389258124484351953e+01 1.297197994726573143e+02 -1.707009762494833893e+01 -2.212326738572798774e+02 8.187582255260407749e+01 1.319973305018406222e+02 1.974410641468646332e+01 1.830692175050851631e+02 -4.131898616933984414e+00 4.148902453514308064e+01 -4.220319736641972952e+01 -1.340362092511848289e+02 5.415919160232972018e+01 -4.588610963990875291e+01 -7.824697997399462679e+01 3.981997057816241181e+01 -1.784197072890781612e+02 6.917229704131612777e+01 1.587341069184938078e+02 -9.768328456868754017e+01 1.669373834378024810e+02 -9.415542653025374875e+01 -5.750892828385683053e+00 -1.017133269305450050e+01 7.390839119905302823e+01 -4.494901287371148868e+01 -1.038811426847075268e+02 -8.537783626850979601e+01 1.404694962683046526e+02 5.694307585815283090e+01 -1.269657501468769567e+02 4.254015432044232270e+00 4.179401265503955187e+01 7.946917514447342512e+01 -3.881570098535829061e+01 5.769164124148448991e+01 -6.636935385811712251e+01 -1.561702885456293188e+02 -3.331072156519231697e+01 1.355945132542064755e+02 -1.090848462309220110e+02 -6.141272779169953289e+00 -1.566125904154446573e+02 -4.660307200245818571e+00 -1.402675897533293892e+02 3.167414426028597418e+01 5.789774811386574527e+01 -4.837295648501397949e+01 -7.916263025782870955e+01 5.422405287984124023e+00 7.149469375855298381e+01 -6.511321783980110922e+01 1.293773431239586387e+02 1.014023910477660877e+02 -1.225891072362579450e+02 -1.012769555234751522e+02 1.296957866173572427e+02 6.845336012730111008e+01 1.441802755624431995e+02 9.598100131378527067e+01 7.785260684907532891e+01 -5.783072824912409260e+01 -7.840882938983629913e+01 -7.389362252695718780e+01 1.960838584075715687e+02 2.934193557148007869e+01 -2.388634850655868647e+01 -6.563750975647525365e+01 -4.784088678640434011e+01 -1.257302291298259576e+02 -1.576957969823634897e+01 -1.675129963508457536e+02 1.193548267697231466e+02 4.388896288935639944e+01 -1.099787657557696150e+02 -4.620693709112646985e+01 1.142909323839286913e+02 -9.250495423172507969e+01 9.815825452471587198e+01 -1.130854123782161338e+02 -1.124264911165416514e+01 -9.115209210490236558e+01 8.565448155270833297e+01 -4.053327086592612716e+01 9.791983677894441129e+00 2.801346664389448904e+01 -1.208431316349222726e+02 1.192532716095552736e+01 4.615863745975073584e+01 -2.131957964944659167e+01 -6.558701439983035186e+01 1.932884583227258020e+02 8.248593416659440436e+01 4.493102991129853052e+01 -2.996253627576054157e+01 7.650665360056677855e+01 1.598830208664816723e+02 -8.797283246266634649e+01 1.998171134942920162e+02 -1.269637195809148409e+02 -1.754097371852122080e+02 1.447666779840174911e+02 -2.231621301949983547e+02 -9.002383141756963303e-01 -2.336107793821831251e+02 -1.458095968018378983e+02 6.845640545550348577e+01 -1.388609804542279846e+02 5.566621400578462442e+01 1.048774981382899085e+02 -1.529067036190701288e+02 -2.869589400506693266e+01 7.193068560872033856e+01 1.277125760122673199e+02 -1.775165698367616471e+02 8.345329962909744381e+01 -9.343807191872370765e+01 -9.391201448135060303e+00 -1.320829128244067441e+01 -7.587905172166527734e+01 -8.610527188072259719e+01 1.729793290464179165e+02 -2.071135619279623796e+01 1.290771148261547374e+00 1.242367694059892216e+02 -8.275149526697559565e+01 -3.284926033391250400e+01 -1.027690330619382024e+02 -4.659466063561695393e+01 4.910394781618443005e+00 5.666314054624041319e+01 -1.290291305746384580e+02 2.266775579566949830e+02 -5.151521319906141372e+01 1.172694429169486057e+02 -4.670701660206746197e+01 1.145979625905286525e+02 1.331971968796950705e+02 4.588801653832737770e+01 1.168616734718220442e+02 -4.139009104388853189e+01 1.340381552663356786e+02 -1.498904685042266181e+02 -6.264360140929596810e+01 -6.032323516670761876e+01 2.450787111193951517e+01 -1.554872871910306742e+02 6.950037673496829882e+01 -2.955334592637557378e+01 -7.918672088739337767e+01 8.583553715763778769e+01 -1.448011714128836331e+02 -8.742856478630406514e+01 -5.046359809039419275e+01 3.169213020119364899e+01 1.243924776064746709e+02 1.119548397042908050e+02 6.620734193440839022e+01 -1.489210550246230502e+00 1.676290415582192566e+02 1.174208825485348342e+02 -9.055391253528901530e+01 -7.484861491202448747e+01 5.282456677479202511e+01 9.525639399700599697e+00 9.389243482240313199e+01 1.598007632664210576e+02 6.765576399320130463e+01 2.343275091299898349e+01 -9.795911229108136808e+01 1.645890640388450095e+02 -1.089070111054218017e+02 -1.583438414738153028e+02 6.297364952545961359e+01 1.068210818106758921e+02 1.882830793655554658e+01 -1.329967620735280036e+02 2.845158686849574536e+01 4.060924385681521187e+01 -3.538837536363951819e-01 1.253819918815699594e+02 9.363091208094009232e+01 1.638507055641835919e+01 7.500028126192364653e+01 -1.023630083611079584e+02 -6.101287764341500441e+00 9.413497991954143629e+01 2.842162118378827884e+01 -6.223183215606240282e+01 1.895429118639527530e+02 2.211541331155184480e+02 -1.200388414036651454e+02 -2.644094499247240293e+01 -2.010443409763337854e+02 -6.904545293496731517e+01 1.497398830444761586e+02 3.212478719760640367e+00 -6.789254198281479091e+01 1.566004968417734062e+02 -5.974513205133225568e+01 -1.535782450633639939e+02 1.305706679693876140e+02 -6.422637573628699670e+01 3.300788321076399257e+01 8.252127391520957644e+01 1.318690222622140240e+01 -2.277328056726367151e+02 4.045887632959756530e+01 -5.907791651012936462e+00 8.613566011083389640e+01 -2.252390060445016928e+01 9.661008964263334065e+01 1.624964091546405243e+01 -8.091778418197742440e+01 -1.957914229275415963e+01 -1.674690532644312952e+02 1.098692959720290787e+02 2.416303746318473600e+01 -3.976302323124286886e+01 -4.949373601061804351e+01 -6.013088072698020881e+01 3.930557820138320579e+01 1.535548294982741027e+02 1.267905451426780985e+02 4.112299234444144957e+01 -1.890658493101652198e+02 -3.706996212273296720e+01 4.187635188663003305e+01 1.120950896504007233e+02 8.329862948326190519e+01 1.474556470536911057e+01 -1.777304471016651064e+02 1.257967809939892589e+02 -2.137756205825751863e+02 -1.966432599388428173e+02 -1.742262012681760286e+00 -7.047974065315302994e+01 -2.305722530583364360e+01 8.323387366652526964e+01 5.342593594933572376e+01 -1.062269840055226098e+02 -1.447262023249540732e+02 1.392798064292771798e+01 1.181754905370838742e+02 1.974050023909695284e+01 -5.418160684369088642e+01 -4.936181487211766949e+01 -1.117303997965968243e+01 1.541840825046651275e+02 2.136458085901381310e+01 -1.689849580165331417e+02 1.248547750181914466e+02 -6.502018625528739904e+01 -4.059139188974647539e+00 1.497935048944261212e+02 -5.084704529589430422e+01 -1.906251348870121376e+01 -1.068563575426367578e+02 -5.834521767763534150e+00 -2.319358166847086977e+01 1.280765111979874575e+02 1.167833244726202224e+02 6.573803772996598127e+01 6.367200394242883021e+01 -1.819510045087416117e+01 1.314684258144995965e+02 -1.096995061211128046e+02 -4.136042070933911852e+00 -8.856674043021533294e+01 1.527875318088710230e+02 7.093712318971071795e+01 5.025023151513457975e+01 8.020638395363972606e+00 -5.185391508676001138e+01 3.344033393999853843e+01 6.535720194188454180e+00 3.566777156204350874e+00 2.343602902604873250e+01 5.813726635583988411e+01 1.655949505372527426e+02 -3.780419595381123088e+01 -5.054432520941873008e+01 6.496262340798051582e+01 1.124882619419380347e+02 -1.246541854664904925e+01 8.943712427468915394e+01 1.012510457502200154e+02 2.050111145279695108e+02 -8.415822838598204214e+01 -1.192916880411922875e+02 -2.785965907386069063e+01 6.045967467268763329e+01 -9.869251476718227778e+00 1.044458873294001791e+02 3.622358712953309379e+01 -1.581210071339045555e+02 4.380336584985072079e+01 -8.697367293169439506e+01 -1.315264883333182411e+02 1.307546312007596896e+02 -7.393131673176391416e+01 5.753048719011683687e+01 1.080332449763987626e+02 -9.619564409432409491e+01 2.284477574190756854e+01 -7.009538303492185207e+01 3.914866861380512120e+01 -1.113912497129644521e+02 5.984889249697111779e+01 5.312439825015823658e+01 3.752570436303981349e+00 8.160610688221584041e+01 -1.484630345259184310e+02 7.415653468234702927e+01 -2.847440307641820922e+01 -1.628769654728731950e+02 9.112431027361445501e+01 2.367393172766091425e+01 -1.890654525560068464e+02 2.268434760721253554e+02 -5.204990663219168923e-01 1.013814191295383011e+02 -1.162603877876606191e+02 -1.872180307218313260e+02 -8.996640372371753358e+01 2.414963650201181089e+00 1.377315145412893571e+02 3.816539717969429368e+00 -9.214507428628081698e+01 4.853670901560427353e+01 1.321171517449240866e+02 6.262628607300890593e+01 -4.985872780067401067e+01 -5.702300705870449349e+01 8.146570213110251757e+01 2.960941678668385535e+01 -1.885635930019494424e+02 -1.998478481845585719e+01 1.629463559274199440e+02 9.523808216563715234e+01 -5.528177099837058961e+01 -1.077849981911735853e+02 -4.113551320213074547e+01 -4.635356273614964095e+01 -1.103335077434688003e+02 -1.776910093186293338e+01 -4.401621069444266965e+01 -1.095363981211235398e+02 -1.271903893756219190e+02 -2.599331773529402057e+01 -1.211648097125350034e+02 -1.290356240359364506e+02 -3.695421373087631878e+01 -5.333534103663586023e+01 -1.070450383483765648e+02 1.859162261709551274e+02 1.050725431393375153e+01 -2.809070869770465251e+01 -1.697539317627606081e+01 7.856941951024893456e+01 1.563007021807320562e+01 2.501528076181015336e+01 -2.120965821107070681e+01 -4.623295878527428471e+01 2.088224380100204058e+01 -1.452000093048634426e+02 -1.589786767906435330e+02 -9.025957120953276558e+01 -1.906007060423605992e+02 -8.949144676491501116e+01 8.564921583017944329e+01 6.131162928026258641e+01 -2.601441889339684721e+01 6.068794890809587628e+01 -1.563850159894752210e+02 -4.083416315767554750e+01 -1.159980107216375131e+02 -6.665997049211337355e+01 2.107271298313051773e+02 -2.050215387107638776e+02 2.049970476738951390e+02 2.492898313858321657e+01 -5.637071061757099244e+01 9.208111570357844755e+01 1.239185892555903763e+02 -5.181872469804691406e+01 -2.035072545652903671e+02 -1.489023605895796720e+02 1.021533416347379983e+02 8.364955247255778659e+01 -1.353892529934190634e+02 3.189117267776697773e+01 -3.963989374493599627e+01 -7.730285539041355491e+01 -2.839132906146376811e+01 -5.474211125947332590e+01 -8.630788139793267533e+01 -3.402029483274359478e+01 4.520146082092547424e+00 -3.261664020467414105e+01 -3.679848458462506300e-01 -1.429723323052995099e+01 9.181923246587487597e+01 1.269560077300505299e+02 1.314178174659659426e+01 1.678231842152366582e+01 -6.306607041472781816e+01 -1.958201613140284678e+02 3.380472930056303227e+01 -9.159801251882268502e+01 2.580993247103529242e+01 -8.112312210872584473e+00 1.059028160022204235e+00 7.228334668008203323e+01 1.217400288284564596e+02 -7.039998463137085594e+01 3.795142549941825649e+01 -1.926652257353126743e+02 9.675494979491434222e+00 6.924520297896039622e+00 -1.224116116010386293e+02 -3.366758600000957813e+01 -4.427331399043608684e+01 4.757207147773046430e+00 -1.021141896856571094e+02 2.701645716825470345e+01 -9.751932863673548013e+01 5.598392964267607397e+01 6.778845943791090178e+01 3.685268055990322011e+01 -2.897829134659492922e+01 1.073416045184261947e+02 6.101891698009565346e+01 7.989974243129189801e+01 -6.691847979906910382e+01 2.022504227130528776e+01 1.276926267111670370e+02 -5.840776716292992177e+01 -6.908014593677558324e+00 3.193491777898096018e+01 -1.282196380065099390e+02 9.764147171054420937e+01 8.942054324303758506e+01 -1.009972377918570743e+02 -8.219597868674581775e+01 -5.543249829195755751e+01 -4.554314215701592872e+01 -1.599007894859839780e+02 -1.356183079572637098e+02 -1.322057126474334439e+02 1.054300722763976523e+02 5.967018027292803595e+01 1.591606729940378671e+02 7.189565969878215057e+00 -8.547477501063747241e+01 1.870884331860358429e+01 1.379048979527664542e+01 -6.338793000338002770e+01 7.384101042497655953e+01 1.177131368210513074e+02 9.930615864946826576e+00 1.429160196186122960e+02 2.241934484621618751e+01 1.105869613506901743e+02 1.502049833559241598e+01 -2.070827973773442068e+02 2.176235455834038532e+02 -4.876339958124771812e+01 -1.485323308646513283e+02 -6.694164158724217373e+01 -4.269855840984963891e+01 4.106455815955911959e+01 2.538351869276671380e+01 4.536797187276834364e+01 -7.341752900730446640e+01 1.212519344295557460e+02 -8.544650669297462287e+01 -6.945071475426437324e+00 1.409931755372338387e+02 1.084581809836432456e+02 5.741658149105367670e+01 -1.750957264449402260e+02 2.514703342922168616e+01 1.387717237395930852e+02 2.314894382010924900e+01 9.639346719204868918e+01 1.050750447754509338e+02 -2.087224967023445856e+02 7.589608730139522663e+01 -5.696451097390310281e+01 -2.217871384119883373e+02 8.721256202490999954e+01 2.418824660408254346e+01 -1.196220049394316618e+02 -5.732470807529277579e+01 1.356692145519994597e+02 1.440642998099841634e+02 -7.397301883435008563e+01 -1.244880104986280003e+02 -8.117635677748098999e+01 -1.612051464458571104e+02 1.900800045222676715e+01 3.682405508172001873e+01 -1.647636996603302606e+01 -1.199515922688807557e+01 -8.663788313149393616e+01 -8.538229472477149784e+01 -2.382260585527675190e+01 1.289747604571106763e+02 1.310269091492676807e+02 7.796744883654770319e+01 9.326538728213620288e+01 -7.534917806385907113e+01 -1.731377911716988649e+02 -1.264104680410872383e+01 -2.212868546650829060e+01 -6.795914285893401541e+01 1.420680562488653154e+00 6.987179533578276391e+01 -5.060672563408236613e+01 2.362484492661646840e+01 7.573691581577821808e+01 6.704956938463573124e+01 1.057287585501601512e+02 -1.426567715680519655e+02 3.790558027704677357e+01 7.967839158469851668e+01 9.062375958476488336e+01 5.647210351721595600e+01 -9.873030795552629968e+01 1.309487198872843408e+02 1.219204437957204732e+02 9.166822308918369799e+01 9.710639393288313670e+01 -8.053574158673805528e+01 -1.421140208875841360e+01 -1.238340155634729456e+01 7.367723331561211353e+01 6.213860553890357608e+01 5.357062065451278698e+01 9.330549856882237236e+01 1.114226810417695361e+02 1.185411039611286981e+02 -6.201216797366740252e+01 7.709434263538011578e+01 6.238464489169858496e+01 -1.125304145207220046e+02 1.258687550850423094e+02 -9.588018022337687185e+00 -2.671537512303954642e+01 1.906836274629029617e+02 8.468827444108291047e+01 1.187919842499999419e+02 -1.381782404009880167e+02 -1.510750777386193704e+02 -1.471571215237574961e+02 -1.169836669992492659e+02 -4.241808350576978626e+01 1.051615324627002934e+02 -1.616335844678625620e+02 3.115473284303288892e+01 1.383760362849743331e+02 -5.691295080353826563e+01 -8.759783893679741595e+01 -3.370130885676029209e+01 1.303373566493564795e+02 2.180957294931423576e+02 -6.401390109064450940e+01 1.902924735702499603e+01 -2.657298342371507971e+01 6.577127556586057722e+01 5.784858771434355873e+01 -2.048132755328447843e+02 -8.518180066135874995e+01 1.321971326769297832e+02 1.343288925144233872e+02 9.084978820271763311e+01 -4.790268791181736674e+01 -7.285149539941957642e+01 -4.362453170705074257e+01 -1.697708985225412448e+02 6.839868058784739446e+01 -2.466490275192969506e+01 1.600056090177239980e+02 -2.687621733755515052e+01 -3.026328846296837582e+02 1.393608070136550623e+02 4.832104904780845089e+01 -1.134798957333107126e+02 -2.134147745583668865e+01 3.396760122538631066e+01 -1.998646932283750459e+02 -1.099641729951616895e+02 -1.055269831173752522e+02 -5.427877794592365035e+01 6.043232041987248238e+01 -1.586879252465676586e+02 1.038638837630114296e+02 -5.229615365446380082e+01 2.817863070414736271e+00 -1.284551642299171021e+02 -9.981697020603115789e+01 1.693242091451201361e+02 8.345747722985801431e+01 -4.067134941304564677e+01 3.577550215908397035e+01 -2.701227950811704659e+01 4.170961178193989127e+01 -1.007803405977975046e+02 9.529444008000830024e+01 4.864318411293355382e+01 -1.145495626067055923e+02 1.124872411280575761e+02 -4.731920486649189428e+01 9.626343826780940560e+01 -4.759970414701602692e+01 8.515786647028258471e+01 -1.478303260343622298e+02 1.375592685419786960e+02 2.386586580064938090e+01 9.703296937927136412e+01 1.257294791077293326e+02 -1.413873668228149540e+02 -8.282250233784338889e+01 -1.018522747466585940e+02 6.447438382778955202e+01 -1.652340851991296802e+02 1.461446368974176266e+02 1.372857294271577189e+02 5.108962477116796919e+01 -8.188410681266950064e+01 5.504353866629689662e+01 -1.035379963273892798e+02 -1.053967872220694879e+01 3.373259994980404741e+01 -1.772584053583353523e+02 -7.869119895005172793e+01 -1.305797018677474242e+01 9.859619649191969870e+01 -4.845833751789798072e+01 1.049452601032061381e+02 -6.207428052969387267e+01 -2.034409336727890150e+02 -1.033674136251517979e+02 -3.284842400857026945e+01 -5.809193381517009414e+01 2.904342826569616776e+01 4.965085119364728428e+01 6.116653821667505930e+00 2.451796816010908131e+01 -1.133443449460535390e+02 5.204630722182461255e+01 3.152720564717284901e+01 -6.970324982187284490e+01 8.969607233270954438e+00 5.448107563740968118e+01 -9.218996003175954002e+01 -5.324896693100731682e+01 -2.336453703304114171e+01 9.431138746135729889e+01 -1.656085715628665511e+01 4.056336503981195385e+00 -2.205587775393800882e+02 -9.187319521117305499e+01 9.567397294571385657e+01 -8.622318222145237598e+01 3.030238604787060908e+01 3.003446648263792795e+01 3.665569099008642695e+01 6.390972382142907549e+01 -1.716367893033460064e+02 1.392709604612981025e+02 7.888291475424227883e+01 -7.293713176131141118e+00 -7.816604305957784504e+01 1.082176367635438936e+02 6.007602666052748219e+01 -1.945833628786683391e+02 -4.873495936315812571e+01 -7.905907948826045128e+01 -5.012191823767761178e+01 -5.989680504881053480e+01 -9.579539078586526557e+01 -5.840163102816380558e+01 1.853286549637736016e+02 -1.652176639423139193e+02 6.334836527267231787e+01 2.684971434225970555e+01 -7.276293945730088808e+01 1.006256141624020017e+01 -3.816554525084711713e+01 3.328327686168902400e+00 -9.305396564700126305e+01 -1.912159746794870046e+02 1.780381039021447975e+01 4.054686663272991609e+01 -1.238372054447046722e+01 -8.673746646810551297e+00 -3.850119080783038328e+01 -1.838073673478872934e+02 -2.964918388766905011e+01 -6.326049461438292099e+01 1.348971430180104392e+01 -1.511713963563162366e+01 8.769630635613657432e+01 -6.102340282464253107e+01 -1.003719092493363121e+02 -3.455571975750228830e+01 -8.691434327944557836e+00 4.398951366419510123e+01 -2.141229270600020840e+01 -7.146926907813549690e+01 -1.537679794572307834e+01 1.940477784592898303e+01 4.599165365032689579e+01 -1.103637694935014366e+02 -1.346099183814486651e+02 2.230537512083115530e+02 -2.113828160785846251e+02 -7.352368982710979139e+01 -4.485482171126309225e+01 1.354307345228079669e+02 6.127826247153467421e+01 2.217153921414362401e+02 2.370534654568057249e+02 -6.039975759208596173e+01 1.253689388198694417e+02 -5.427191710028428417e+01 -3.953927710430204456e+01 -9.745291626545019881e+01 -7.732916901855607250e+01 -6.735575501081324035e+01 -8.622920086038350007e+01 -2.361317049255989104e+02 -2.623377176829800419e+02 1.304504684231377212e+02 -2.571012807809892209e+01 5.160016797429148738e+01 1.268116640181886083e+02
