# 
#                 ----------------------------------------------------
#                 Data from a 3D direct N-body simulation. 
# 
#                 rows are i-particle; 
#                 coumns are :mass, tag, x ,y, z, vx, vy, vz, ax, ay, az
# 
#                 NTHU, Computational Physics Lab
# 
#                 ----------------------------------------------------
#                 Time = 3.899999999999961
1.000000000000000000e+00 2.000000000000000000e+00 3.000000000000000000e+00 4.000000000000000000e+00 5.000000000000000000e+00 6.000000000000000000e+00 7.000000000000000000e+00 8.000000000000000000e+00 9.000000000000000000e+00 1.000000000000000000e+01 1.100000000000000000e+01 1.200000000000000000e+01 1.300000000000000000e+01 1.400000000000000000e+01 1.500000000000000000e+01 1.600000000000000000e+01 1.700000000000000000e+01 1.800000000000000000e+01 1.900000000000000000e+01 2.000000000000000000e+01 2.100000000000000000e+01 2.200000000000000000e+01 2.300000000000000000e+01 2.400000000000000000e+01 2.500000000000000000e+01 2.600000000000000000e+01 2.700000000000000000e+01 2.800000000000000000e+01 2.900000000000000000e+01 3.000000000000000000e+01 3.100000000000000000e+01 3.200000000000000000e+01 3.300000000000000000e+01 3.400000000000000000e+01 3.500000000000000000e+01 3.600000000000000000e+01 3.700000000000000000e+01 3.800000000000000000e+01 3.900000000000000000e+01 4.000000000000000000e+01 4.100000000000000000e+01 4.200000000000000000e+01 4.300000000000000000e+01 4.400000000000000000e+01 4.500000000000000000e+01 4.600000000000000000e+01 4.700000000000000000e+01 4.800000000000000000e+01 4.900000000000000000e+01 5.000000000000000000e+01 5.100000000000000000e+01 5.200000000000000000e+01 5.300000000000000000e+01 5.400000000000000000e+01 5.500000000000000000e+01 5.600000000000000000e+01 5.700000000000000000e+01 5.800000000000000000e+01 5.900000000000000000e+01 6.000000000000000000e+01 6.100000000000000000e+01 6.200000000000000000e+01 6.300000000000000000e+01 6.400000000000000000e+01 6.500000000000000000e+01 6.600000000000000000e+01 6.700000000000000000e+01 6.800000000000000000e+01 6.900000000000000000e+01 7.000000000000000000e+01 7.100000000000000000e+01 7.200000000000000000e+01 7.300000000000000000e+01 7.400000000000000000e+01 7.500000000000000000e+01 7.600000000000000000e+01 7.700000000000000000e+01 7.800000000000000000e+01 7.900000000000000000e+01 8.000000000000000000e+01 8.100000000000000000e+01 8.200000000000000000e+01 8.300000000000000000e+01 8.400000000000000000e+01 8.500000000000000000e+01 8.600000000000000000e+01 8.700000000000000000e+01 8.800000000000000000e+01 8.900000000000000000e+01 9.000000000000000000e+01 9.100000000000000000e+01 9.200000000000000000e+01 9.300000000000000000e+01 9.400000000000000000e+01 9.500000000000000000e+01 9.600000000000000000e+01 9.700000000000000000e+01 9.800000000000000000e+01 9.900000000000000000e+01 1.000000000000000000e+02 1.010000000000000000e+02 1.020000000000000000e+02 1.030000000000000000e+02 1.040000000000000000e+02 1.050000000000000000e+02 1.060000000000000000e+02 1.070000000000000000e+02 1.080000000000000000e+02 1.090000000000000000e+02 1.100000000000000000e+02 1.110000000000000000e+02 1.120000000000000000e+02 1.130000000000000000e+02 1.140000000000000000e+02 1.150000000000000000e+02 1.160000000000000000e+02 1.170000000000000000e+02 1.180000000000000000e+02 1.190000000000000000e+02 1.200000000000000000e+02 1.210000000000000000e+02 1.220000000000000000e+02 1.230000000000000000e+02 1.240000000000000000e+02 1.250000000000000000e+02 1.260000000000000000e+02 1.270000000000000000e+02 1.280000000000000000e+02 1.290000000000000000e+02 1.300000000000000000e+02 1.310000000000000000e+02 1.320000000000000000e+02 1.330000000000000000e+02 1.340000000000000000e+02 1.350000000000000000e+02 1.360000000000000000e+02 1.370000000000000000e+02 1.380000000000000000e+02 1.390000000000000000e+02 1.400000000000000000e+02 1.410000000000000000e+02 1.420000000000000000e+02 1.430000000000000000e+02 1.440000000000000000e+02 1.450000000000000000e+02 1.460000000000000000e+02 1.470000000000000000e+02 1.480000000000000000e+02 1.490000000000000000e+02 1.500000000000000000e+02 1.510000000000000000e+02 1.520000000000000000e+02 1.530000000000000000e+02 1.540000000000000000e+02 1.550000000000000000e+02 1.560000000000000000e+02 1.570000000000000000e+02 1.580000000000000000e+02 1.590000000000000000e+02 1.600000000000000000e+02 1.610000000000000000e+02 1.620000000000000000e+02 1.630000000000000000e+02 1.640000000000000000e+02 1.650000000000000000e+02 1.660000000000000000e+02 1.670000000000000000e+02 1.680000000000000000e+02 1.690000000000000000e+02 1.700000000000000000e+02 1.710000000000000000e+02 1.720000000000000000e+02 1.730000000000000000e+02 1.740000000000000000e+02 1.750000000000000000e+02 1.760000000000000000e+02 1.770000000000000000e+02 1.780000000000000000e+02 1.790000000000000000e+02 1.800000000000000000e+02 1.810000000000000000e+02 1.820000000000000000e+02 1.830000000000000000e+02 1.840000000000000000e+02 1.850000000000000000e+02 1.860000000000000000e+02 1.870000000000000000e+02 1.880000000000000000e+02 1.890000000000000000e+02 1.900000000000000000e+02 1.910000000000000000e+02 1.920000000000000000e+02 1.930000000000000000e+02 1.940000000000000000e+02 1.950000000000000000e+02 1.960000000000000000e+02 1.970000000000000000e+02 1.980000000000000000e+02 1.990000000000000000e+02 2.000000000000000000e+02 2.010000000000000000e+02 2.020000000000000000e+02 2.030000000000000000e+02 2.040000000000000000e+02 2.050000000000000000e+02 2.060000000000000000e+02 2.070000000000000000e+02 2.080000000000000000e+02 2.090000000000000000e+02 2.100000000000000000e+02 2.110000000000000000e+02 2.120000000000000000e+02 2.130000000000000000e+02 2.140000000000000000e+02 2.150000000000000000e+02 2.160000000000000000e+02 2.170000000000000000e+02 2.180000000000000000e+02 2.190000000000000000e+02 2.200000000000000000e+02 2.210000000000000000e+02 2.220000000000000000e+02 2.230000000000000000e+02 2.240000000000000000e+02 2.250000000000000000e+02 2.260000000000000000e+02 2.270000000000000000e+02 2.280000000000000000e+02 2.290000000000000000e+02 2.300000000000000000e+02 2.310000000000000000e+02 2.320000000000000000e+02 2.330000000000000000e+02 2.340000000000000000e+02 2.350000000000000000e+02 2.360000000000000000e+02 2.370000000000000000e+02 2.380000000000000000e+02 2.390000000000000000e+02 2.400000000000000000e+02 2.410000000000000000e+02 2.420000000000000000e+02 2.430000000000000000e+02 2.440000000000000000e+02 2.450000000000000000e+02 2.460000000000000000e+02 2.470000000000000000e+02 2.480000000000000000e+02 2.490000000000000000e+02 2.500000000000000000e+02 2.510000000000000000e+02 2.520000000000000000e+02 2.530000000000000000e+02 2.540000000000000000e+02 2.550000000000000000e+02 2.560000000000000000e+02 2.570000000000000000e+02 2.580000000000000000e+02 2.590000000000000000e+02 2.600000000000000000e+02 2.610000000000000000e+02 2.620000000000000000e+02 2.630000000000000000e+02 2.640000000000000000e+02 2.650000000000000000e+02 2.660000000000000000e+02 2.670000000000000000e+02 2.680000000000000000e+02 2.690000000000000000e+02 2.700000000000000000e+02 2.710000000000000000e+02 2.720000000000000000e+02 2.730000000000000000e+02 2.740000000000000000e+02 2.750000000000000000e+02 2.760000000000000000e+02 2.770000000000000000e+02 2.780000000000000000e+02 2.790000000000000000e+02 2.800000000000000000e+02 2.810000000000000000e+02 2.820000000000000000e+02 2.830000000000000000e+02 2.840000000000000000e+02 2.850000000000000000e+02 2.860000000000000000e+02 2.870000000000000000e+02 2.880000000000000000e+02 2.890000000000000000e+02 2.900000000000000000e+02 2.910000000000000000e+02 2.920000000000000000e+02 2.930000000000000000e+02 2.940000000000000000e+02 2.950000000000000000e+02 2.960000000000000000e+02 2.970000000000000000e+02 2.980000000000000000e+02 2.990000000000000000e+02 3.000000000000000000e+02 3.010000000000000000e+02 3.020000000000000000e+02 3.030000000000000000e+02 3.040000000000000000e+02 3.050000000000000000e+02 3.060000000000000000e+02 3.070000000000000000e+02 3.080000000000000000e+02 3.090000000000000000e+02 3.100000000000000000e+02 3.110000000000000000e+02 3.120000000000000000e+02 3.130000000000000000e+02 3.140000000000000000e+02 3.150000000000000000e+02 3.160000000000000000e+02 3.170000000000000000e+02 3.180000000000000000e+02 3.190000000000000000e+02 3.200000000000000000e+02 3.210000000000000000e+02 3.220000000000000000e+02 3.230000000000000000e+02 3.240000000000000000e+02 3.250000000000000000e+02 3.260000000000000000e+02 3.270000000000000000e+02 3.280000000000000000e+02 3.290000000000000000e+02 3.300000000000000000e+02 3.310000000000000000e+02 3.320000000000000000e+02 3.330000000000000000e+02 3.340000000000000000e+02 3.350000000000000000e+02 3.360000000000000000e+02 3.370000000000000000e+02 3.380000000000000000e+02 3.390000000000000000e+02 3.400000000000000000e+02 3.410000000000000000e+02 3.420000000000000000e+02 3.430000000000000000e+02 3.440000000000000000e+02 3.450000000000000000e+02 3.460000000000000000e+02 3.470000000000000000e+02 3.480000000000000000e+02 3.490000000000000000e+02 3.500000000000000000e+02 3.510000000000000000e+02 3.520000000000000000e+02 3.530000000000000000e+02 3.540000000000000000e+02 3.550000000000000000e+02 3.560000000000000000e+02 3.570000000000000000e+02 3.580000000000000000e+02 3.590000000000000000e+02 3.600000000000000000e+02 3.610000000000000000e+02 3.620000000000000000e+02 3.630000000000000000e+02 3.640000000000000000e+02 3.650000000000000000e+02 3.660000000000000000e+02 3.670000000000000000e+02 3.680000000000000000e+02 3.690000000000000000e+02 3.700000000000000000e+02 3.710000000000000000e+02 3.720000000000000000e+02 3.730000000000000000e+02 3.740000000000000000e+02 3.750000000000000000e+02 3.760000000000000000e+02 3.770000000000000000e+02 3.780000000000000000e+02 3.790000000000000000e+02 3.800000000000000000e+02 3.810000000000000000e+02 3.820000000000000000e+02 3.830000000000000000e+02 3.840000000000000000e+02 3.850000000000000000e+02 3.860000000000000000e+02 3.870000000000000000e+02 3.880000000000000000e+02 3.890000000000000000e+02 3.900000000000000000e+02 3.910000000000000000e+02 3.920000000000000000e+02 3.930000000000000000e+02 3.940000000000000000e+02 3.950000000000000000e+02 3.960000000000000000e+02 3.970000000000000000e+02 3.980000000000000000e+02 3.990000000000000000e+02 4.000000000000000000e+02 4.010000000000000000e+02 4.020000000000000000e+02 4.030000000000000000e+02 4.040000000000000000e+02 4.050000000000000000e+02 4.060000000000000000e+02 4.070000000000000000e+02 4.080000000000000000e+02 4.090000000000000000e+02 4.100000000000000000e+02 4.110000000000000000e+02 4.120000000000000000e+02 4.130000000000000000e+02 4.140000000000000000e+02 4.150000000000000000e+02 4.160000000000000000e+02 4.170000000000000000e+02 4.180000000000000000e+02 4.190000000000000000e+02 4.200000000000000000e+02 4.210000000000000000e+02 4.220000000000000000e+02 4.230000000000000000e+02 4.240000000000000000e+02 4.250000000000000000e+02 4.260000000000000000e+02 4.270000000000000000e+02 4.280000000000000000e+02 4.290000000000000000e+02 4.300000000000000000e+02 4.310000000000000000e+02 4.320000000000000000e+02 4.330000000000000000e+02 4.340000000000000000e+02 4.350000000000000000e+02 4.360000000000000000e+02 4.370000000000000000e+02 4.380000000000000000e+02 4.390000000000000000e+02 4.400000000000000000e+02 4.410000000000000000e+02 4.420000000000000000e+02 4.430000000000000000e+02 4.440000000000000000e+02 4.450000000000000000e+02 4.460000000000000000e+02 4.470000000000000000e+02 4.480000000000000000e+02 4.490000000000000000e+02 4.500000000000000000e+02 4.510000000000000000e+02 4.520000000000000000e+02 4.530000000000000000e+02 4.540000000000000000e+02 4.550000000000000000e+02 4.560000000000000000e+02 4.570000000000000000e+02 4.580000000000000000e+02 4.590000000000000000e+02 4.600000000000000000e+02 4.610000000000000000e+02 4.620000000000000000e+02 4.630000000000000000e+02 4.640000000000000000e+02 4.650000000000000000e+02 4.660000000000000000e+02 4.670000000000000000e+02 4.680000000000000000e+02 4.690000000000000000e+02 4.700000000000000000e+02 4.710000000000000000e+02 4.720000000000000000e+02 4.730000000000000000e+02 4.740000000000000000e+02 4.750000000000000000e+02 4.760000000000000000e+02 4.770000000000000000e+02 4.780000000000000000e+02 4.790000000000000000e+02 4.800000000000000000e+02 4.810000000000000000e+02 4.820000000000000000e+02 4.830000000000000000e+02 4.840000000000000000e+02 4.850000000000000000e+02 4.860000000000000000e+02 4.870000000000000000e+02 4.880000000000000000e+02 4.890000000000000000e+02 4.900000000000000000e+02 4.910000000000000000e+02 4.920000000000000000e+02 4.930000000000000000e+02 4.940000000000000000e+02 4.950000000000000000e+02 4.960000000000000000e+02 4.970000000000000000e+02 4.980000000000000000e+02 4.990000000000000000e+02 5.000000000000000000e+02 5.010000000000000000e+02 5.020000000000000000e+02 5.030000000000000000e+02 5.040000000000000000e+02 5.050000000000000000e+02 5.060000000000000000e+02 5.070000000000000000e+02 5.080000000000000000e+02 5.090000000000000000e+02 5.100000000000000000e+02 5.110000000000000000e+02 5.120000000000000000e+02 5.130000000000000000e+02 5.140000000000000000e+02 5.150000000000000000e+02 5.160000000000000000e+02 5.170000000000000000e+02 5.180000000000000000e+02 5.190000000000000000e+02 5.200000000000000000e+02 5.210000000000000000e+02 5.220000000000000000e+02 5.230000000000000000e+02 5.240000000000000000e+02 5.250000000000000000e+02 5.260000000000000000e+02 5.270000000000000000e+02 5.280000000000000000e+02 5.290000000000000000e+02 5.300000000000000000e+02 5.310000000000000000e+02 5.320000000000000000e+02 5.330000000000000000e+02 5.340000000000000000e+02 5.350000000000000000e+02 5.360000000000000000e+02 5.370000000000000000e+02 5.380000000000000000e+02 5.390000000000000000e+02 5.400000000000000000e+02 5.410000000000000000e+02 5.420000000000000000e+02 5.430000000000000000e+02 5.440000000000000000e+02 5.450000000000000000e+02 5.460000000000000000e+02 5.470000000000000000e+02 5.480000000000000000e+02 5.490000000000000000e+02 5.500000000000000000e+02 5.510000000000000000e+02 5.520000000000000000e+02 5.530000000000000000e+02 5.540000000000000000e+02 5.550000000000000000e+02 5.560000000000000000e+02 5.570000000000000000e+02 5.580000000000000000e+02 5.590000000000000000e+02 5.600000000000000000e+02 5.610000000000000000e+02 5.620000000000000000e+02 5.630000000000000000e+02 5.640000000000000000e+02 5.650000000000000000e+02 5.660000000000000000e+02 5.670000000000000000e+02 5.680000000000000000e+02 5.690000000000000000e+02 5.700000000000000000e+02 5.710000000000000000e+02 5.720000000000000000e+02 5.730000000000000000e+02 5.740000000000000000e+02 5.750000000000000000e+02 5.760000000000000000e+02 5.770000000000000000e+02 5.780000000000000000e+02 5.790000000000000000e+02 5.800000000000000000e+02 5.810000000000000000e+02 5.820000000000000000e+02 5.830000000000000000e+02 5.840000000000000000e+02 5.850000000000000000e+02 5.860000000000000000e+02 5.870000000000000000e+02 5.880000000000000000e+02 5.890000000000000000e+02 5.900000000000000000e+02 5.910000000000000000e+02 5.920000000000000000e+02 5.930000000000000000e+02 5.940000000000000000e+02 5.950000000000000000e+02 5.960000000000000000e+02 5.970000000000000000e+02 5.980000000000000000e+02 5.990000000000000000e+02 6.000000000000000000e+02 6.010000000000000000e+02 6.020000000000000000e+02 6.030000000000000000e+02 6.040000000000000000e+02 6.050000000000000000e+02 6.060000000000000000e+02 6.070000000000000000e+02 6.080000000000000000e+02 6.090000000000000000e+02 6.100000000000000000e+02 6.110000000000000000e+02 6.120000000000000000e+02 6.130000000000000000e+02 6.140000000000000000e+02 6.150000000000000000e+02 6.160000000000000000e+02 6.170000000000000000e+02 6.180000000000000000e+02 6.190000000000000000e+02 6.200000000000000000e+02 6.210000000000000000e+02 6.220000000000000000e+02 6.230000000000000000e+02 6.240000000000000000e+02 6.250000000000000000e+02 6.260000000000000000e+02 6.270000000000000000e+02 6.280000000000000000e+02 6.290000000000000000e+02 6.300000000000000000e+02 6.310000000000000000e+02 6.320000000000000000e+02 6.330000000000000000e+02 6.340000000000000000e+02 6.350000000000000000e+02 6.360000000000000000e+02 6.370000000000000000e+02 6.380000000000000000e+02 6.390000000000000000e+02 6.400000000000000000e+02 6.410000000000000000e+02 6.420000000000000000e+02 6.430000000000000000e+02 6.440000000000000000e+02 6.450000000000000000e+02 6.460000000000000000e+02 6.470000000000000000e+02 6.480000000000000000e+02 6.490000000000000000e+02 6.500000000000000000e+02 6.510000000000000000e+02 6.520000000000000000e+02 6.530000000000000000e+02 6.540000000000000000e+02 6.550000000000000000e+02 6.560000000000000000e+02 6.570000000000000000e+02 6.580000000000000000e+02 6.590000000000000000e+02 6.600000000000000000e+02 6.610000000000000000e+02 6.620000000000000000e+02 6.630000000000000000e+02 6.640000000000000000e+02 6.650000000000000000e+02 6.660000000000000000e+02 6.670000000000000000e+02 6.680000000000000000e+02 6.690000000000000000e+02 6.700000000000000000e+02 6.710000000000000000e+02 6.720000000000000000e+02 6.730000000000000000e+02 6.740000000000000000e+02 6.750000000000000000e+02 6.760000000000000000e+02 6.770000000000000000e+02 6.780000000000000000e+02 6.790000000000000000e+02 6.800000000000000000e+02 6.810000000000000000e+02 6.820000000000000000e+02 6.830000000000000000e+02 6.840000000000000000e+02 6.850000000000000000e+02 6.860000000000000000e+02 6.870000000000000000e+02 6.880000000000000000e+02 6.890000000000000000e+02 6.900000000000000000e+02 6.910000000000000000e+02 6.920000000000000000e+02 6.930000000000000000e+02 6.940000000000000000e+02 6.950000000000000000e+02 6.960000000000000000e+02 6.970000000000000000e+02 6.980000000000000000e+02 6.990000000000000000e+02 7.000000000000000000e+02 7.010000000000000000e+02 7.020000000000000000e+02 7.030000000000000000e+02 7.040000000000000000e+02 7.050000000000000000e+02 7.060000000000000000e+02 7.070000000000000000e+02 7.080000000000000000e+02 7.090000000000000000e+02 7.100000000000000000e+02 7.110000000000000000e+02 7.120000000000000000e+02 7.130000000000000000e+02 7.140000000000000000e+02 7.150000000000000000e+02 7.160000000000000000e+02 7.170000000000000000e+02 7.180000000000000000e+02 7.190000000000000000e+02 7.200000000000000000e+02 7.210000000000000000e+02 7.220000000000000000e+02 7.230000000000000000e+02 7.240000000000000000e+02 7.250000000000000000e+02 7.260000000000000000e+02 7.270000000000000000e+02 7.280000000000000000e+02 7.290000000000000000e+02 7.300000000000000000e+02 7.310000000000000000e+02 7.320000000000000000e+02 7.330000000000000000e+02 7.340000000000000000e+02 7.350000000000000000e+02 7.360000000000000000e+02 7.370000000000000000e+02 7.380000000000000000e+02 7.390000000000000000e+02 7.400000000000000000e+02 7.410000000000000000e+02 7.420000000000000000e+02 7.430000000000000000e+02 7.440000000000000000e+02 7.450000000000000000e+02 7.460000000000000000e+02 7.470000000000000000e+02 7.480000000000000000e+02 7.490000000000000000e+02 7.500000000000000000e+02 7.510000000000000000e+02 7.520000000000000000e+02 7.530000000000000000e+02 7.540000000000000000e+02 7.550000000000000000e+02 7.560000000000000000e+02 7.570000000000000000e+02 7.580000000000000000e+02 7.590000000000000000e+02 7.600000000000000000e+02 7.610000000000000000e+02 7.620000000000000000e+02 7.630000000000000000e+02 7.640000000000000000e+02 7.650000000000000000e+02 7.660000000000000000e+02 7.670000000000000000e+02 7.680000000000000000e+02 7.690000000000000000e+02 7.700000000000000000e+02 7.710000000000000000e+02 7.720000000000000000e+02 7.730000000000000000e+02 7.740000000000000000e+02 7.750000000000000000e+02 7.760000000000000000e+02 7.770000000000000000e+02 7.780000000000000000e+02 7.790000000000000000e+02 7.800000000000000000e+02 7.810000000000000000e+02 7.820000000000000000e+02 7.830000000000000000e+02 7.840000000000000000e+02 7.850000000000000000e+02 7.860000000000000000e+02 7.870000000000000000e+02 7.880000000000000000e+02 7.890000000000000000e+02 7.900000000000000000e+02 7.910000000000000000e+02 7.920000000000000000e+02 7.930000000000000000e+02 7.940000000000000000e+02 7.950000000000000000e+02 7.960000000000000000e+02 7.970000000000000000e+02 7.980000000000000000e+02 7.990000000000000000e+02 8.000000000000000000e+02 8.010000000000000000e+02 8.020000000000000000e+02 8.030000000000000000e+02 8.040000000000000000e+02 8.050000000000000000e+02 8.060000000000000000e+02 8.070000000000000000e+02 8.080000000000000000e+02 8.090000000000000000e+02 8.100000000000000000e+02 8.110000000000000000e+02 8.120000000000000000e+02 8.130000000000000000e+02 8.140000000000000000e+02 8.150000000000000000e+02 8.160000000000000000e+02 8.170000000000000000e+02 8.180000000000000000e+02 8.190000000000000000e+02 8.200000000000000000e+02 8.210000000000000000e+02 8.220000000000000000e+02 8.230000000000000000e+02 8.240000000000000000e+02 8.250000000000000000e+02 8.260000000000000000e+02 8.270000000000000000e+02 8.280000000000000000e+02 8.290000000000000000e+02 8.300000000000000000e+02 8.310000000000000000e+02 8.320000000000000000e+02 8.330000000000000000e+02 8.340000000000000000e+02 8.350000000000000000e+02 8.360000000000000000e+02 8.370000000000000000e+02 8.380000000000000000e+02 8.390000000000000000e+02 8.400000000000000000e+02 8.410000000000000000e+02 8.420000000000000000e+02 8.430000000000000000e+02 8.440000000000000000e+02 8.450000000000000000e+02 8.460000000000000000e+02 8.470000000000000000e+02 8.480000000000000000e+02 8.490000000000000000e+02 8.500000000000000000e+02 8.510000000000000000e+02 8.520000000000000000e+02 8.530000000000000000e+02 8.540000000000000000e+02 8.550000000000000000e+02 8.560000000000000000e+02 8.570000000000000000e+02 8.580000000000000000e+02 8.590000000000000000e+02 8.600000000000000000e+02 8.610000000000000000e+02 8.620000000000000000e+02 8.630000000000000000e+02 8.640000000000000000e+02 8.650000000000000000e+02 8.660000000000000000e+02 8.670000000000000000e+02 8.680000000000000000e+02 8.690000000000000000e+02 8.700000000000000000e+02 8.710000000000000000e+02 8.720000000000000000e+02 8.730000000000000000e+02 8.740000000000000000e+02 8.750000000000000000e+02 8.760000000000000000e+02 8.770000000000000000e+02 8.780000000000000000e+02 8.790000000000000000e+02 8.800000000000000000e+02 8.810000000000000000e+02 8.820000000000000000e+02 8.830000000000000000e+02 8.840000000000000000e+02 8.850000000000000000e+02 8.860000000000000000e+02 8.870000000000000000e+02 8.880000000000000000e+02 8.890000000000000000e+02 8.900000000000000000e+02 8.910000000000000000e+02 8.920000000000000000e+02 8.930000000000000000e+02 8.940000000000000000e+02 8.950000000000000000e+02 8.960000000000000000e+02 8.970000000000000000e+02 8.980000000000000000e+02 8.990000000000000000e+02 9.000000000000000000e+02 9.010000000000000000e+02 9.020000000000000000e+02 9.030000000000000000e+02 9.040000000000000000e+02 9.050000000000000000e+02 9.060000000000000000e+02 9.070000000000000000e+02 9.080000000000000000e+02 9.090000000000000000e+02 9.100000000000000000e+02 9.110000000000000000e+02 9.120000000000000000e+02 9.130000000000000000e+02 9.140000000000000000e+02 9.150000000000000000e+02 9.160000000000000000e+02 9.170000000000000000e+02 9.180000000000000000e+02 9.190000000000000000e+02 9.200000000000000000e+02 9.210000000000000000e+02 9.220000000000000000e+02 9.230000000000000000e+02 9.240000000000000000e+02 9.250000000000000000e+02 9.260000000000000000e+02 9.270000000000000000e+02 9.280000000000000000e+02 9.290000000000000000e+02 9.300000000000000000e+02 9.310000000000000000e+02 9.320000000000000000e+02 9.330000000000000000e+02 9.340000000000000000e+02 9.350000000000000000e+02 9.360000000000000000e+02 9.370000000000000000e+02 9.380000000000000000e+02 9.390000000000000000e+02 9.400000000000000000e+02 9.410000000000000000e+02 9.420000000000000000e+02 9.430000000000000000e+02 9.440000000000000000e+02 9.450000000000000000e+02 9.460000000000000000e+02 9.470000000000000000e+02 9.480000000000000000e+02 9.490000000000000000e+02 9.500000000000000000e+02 9.510000000000000000e+02 9.520000000000000000e+02 9.530000000000000000e+02 9.540000000000000000e+02 9.550000000000000000e+02 9.560000000000000000e+02 9.570000000000000000e+02 9.580000000000000000e+02 9.590000000000000000e+02 9.600000000000000000e+02 9.610000000000000000e+02 9.620000000000000000e+02 9.630000000000000000e+02 9.640000000000000000e+02 9.650000000000000000e+02 9.660000000000000000e+02 9.670000000000000000e+02 9.680000000000000000e+02 9.690000000000000000e+02 9.700000000000000000e+02 9.710000000000000000e+02 9.720000000000000000e+02 9.730000000000000000e+02 9.740000000000000000e+02 9.750000000000000000e+02 9.760000000000000000e+02 9.770000000000000000e+02 9.780000000000000000e+02 9.790000000000000000e+02 9.800000000000000000e+02 9.810000000000000000e+02 9.820000000000000000e+02 9.830000000000000000e+02 9.840000000000000000e+02 9.850000000000000000e+02 9.860000000000000000e+02 9.870000000000000000e+02 9.880000000000000000e+02 9.890000000000000000e+02 9.900000000000000000e+02 9.910000000000000000e+02 9.920000000000000000e+02 9.930000000000000000e+02 9.940000000000000000e+02 9.950000000000000000e+02 9.960000000000000000e+02 9.970000000000000000e+02 9.980000000000000000e+02 9.990000000000000000e+02 1.000000000000000000e+03
1.000000000000000021e-02 1.000000000000000021e-02 1.000000000000000021e-02 1.000000000000000021e-02 1.000000000000000021e-02 1.000000000000000021e-02 1.000000000000000021e-02 1.000000000000000021e-02 1.000000000000000021e-02 1.000000000000000021e-02 1.000000000000000021e-02 1.000000000000000021e-02 1.000000000000000021e-02 1.000000000000000021e-02 1.000000000000000021e-02 1.000000000000000021e-02 1.000000000000000021e-02 1.000000000000000021e-02 1.000000000000000021e-02 1.000000000000000021e-02 1.000000000000000021e-02 1.000000000000000021e-02 1.000000000000000021e-02 1.000000000000000021e-02 1.000000000000000021e-02 1.000000000000000021e-02 1.000000000000000021e-02 1.000000000000000021e-02 1.000000000000000021e-02 1.000000000000000021e-02 1.000000000000000021e-02 1.000000000000000021e-02 1.000000000000000021e-02 1.000000000000000021e-02 1.000000000000000021e-02 1.000000000000000021e-02 1.000000000000000021e-02 1.000000000000000021e-02 1.000000000000000021e-02 1.000000000000000021e-02 1.000000000000000021e-02 1.000000000000000021e-02 1.000000000000000021e-02 1.000000000000000021e-02 1.000000000000000021e-02 1.000000000000000021e-02 1.000000000000000021e-02 1.000000000000000021e-02 1.000000000000000021e-02 1.000000000000000021e-02 1.000000000000000021e-02 1.000000000000000021e-02 1.000000000000000021e-02 1.000000000000000021e-02 1.000000000000000021e-02 1.000000000000000021e-02 1.000000000000000021e-02 1.000000000000000021e-02 1.000000000000000021e-02 1.000000000000000021e-02 1.000000000000000021e-02 1.000000000000000021e-02 1.000000000000000021e-02 1.000000000000000021e-02 1.000000000000000021e-02 1.000000000000000021e-02 1.000000000000000021e-02 1.000000000000000021e-02 1.000000000000000021e-02 1.000000000000000021e-02 1.000000000000000021e-02 1.000000000000000021e-02 1.000000000000000021e-02 1.000000000000000021e-02 1.000000000000000021e-02 1.000000000000000021e-02 1.000000000000000021e-02 1.000000000000000021e-02 1.000000000000000021e-02 1.000000000000000021e-02 1.000000000000000021e-02 1.000000000000000021e-02 1.000000000000000021e-02 1.000000000000000021e-02 1.000000000000000021e-02 1.000000000000000021e-02 1.000000000000000021e-02 1.000000000000000021e-02 1.000000000000000021e-02 1.000000000000000021e-02 1.000000000000000021e-02 1.000000000000000021e-02 1.000000000000000021e-02 1.000000000000000021e-02 1.000000000000000021e-02 1.000000000000000021e-02 1.000000000000000021e-02 1.000000000000000021e-02 1.000000000000000021e-02 1.000000000000000021e-02 1.000000000000000021e-02 1.000000000000000021e-02 1.000000000000000021e-02 1.000000000000000021e-02 1.000000000000000021e-02 1.000000000000000021e-02 1.000000000000000021e-02 1.000000000000000021e-02 1.000000000000000021e-02 1.000000000000000021e-02 1.000000000000000021e-02 1.000000000000000021e-02 1.000000000000000021e-02 1.000000000000000021e-02 1.000000000000000021e-02 1.000000000000000021e-02 1.000000000000000021e-02 1.000000000000000021e-02 1.000000000000000021e-02 1.000000000000000021e-02 1.000000000000000021e-02 1.000000000000000021e-02 1.000000000000000021e-02 1.000000000000000021e-02 1.000000000000000021e-02 1.000000000000000021e-02 1.000000000000000021e-02 1.000000000000000021e-02 1.000000000000000021e-02 1.000000000000000021e-02 1.000000000000000021e-02 1.000000000000000021e-02 1.000000000000000021e-02 1.000000000000000021e-02 1.000000000000000021e-02 1.000000000000000021e-02 1.000000000000000021e-02 1.000000000000000021e-02 1.000000000000000021e-02 1.000000000000000021e-02 1.000000000000000021e-02 1.000000000000000021e-02 1.000000000000000021e-02 1.000000000000000021e-02 1.000000000000000021e-02 1.000000000000000021e-02 1.000000000000000021e-02 1.000000000000000021e-02 1.000000000000000021e-02 1.000000000000000021e-02 1.000000000000000021e-02 1.000000000000000021e-02 1.000000000000000021e-02 1.000000000000000021e-02 1.000000000000000021e-02 1.000000000000000021e-02 1.000000000000000021e-02 1.000000000000000021e-02 1.000000000000000021e-02 1.000000000000000021e-02 1.000000000000000021e-02 1.000000000000000021e-02 1.000000000000000021e-02 1.000000000000000021e-02 1.000000000000000021e-02 1.000000000000000021e-02 1.000000000000000021e-02 1.000000000000000021e-02 1.000000000000000021e-02 1.000000000000000021e-02 1.000000000000000021e-02 1.000000000000000021e-02 1.000000000000000021e-02 1.000000000000000021e-02 1.000000000000000021e-02 1.000000000000000021e-02 1.000000000000000021e-02 1.000000000000000021e-02 1.000000000000000021e-02 1.000000000000000021e-02 1.000000000000000021e-02 1.000000000000000021e-02 1.000000000000000021e-02 1.000000000000000021e-02 1.000000000000000021e-02 1.000000000000000021e-02 1.000000000000000021e-02 1.000000000000000021e-02 1.000000000000000021e-02 1.000000000000000021e-02 1.000000000000000021e-02 1.000000000000000021e-02 1.000000000000000021e-02 1.000000000000000021e-02 1.000000000000000021e-02 1.000000000000000021e-02 1.000000000000000021e-02 1.000000000000000021e-02 1.000000000000000021e-02 1.000000000000000021e-02 1.000000000000000021e-02 1.000000000000000021e-02 1.000000000000000021e-02 1.000000000000000021e-02 1.000000000000000021e-02 1.000000000000000021e-02 1.000000000000000021e-02 1.000000000000000021e-02 1.000000000000000021e-02 1.000000000000000021e-02 1.000000000000000021e-02 1.000000000000000021e-02 1.000000000000000021e-02 1.000000000000000021e-02 1.000000000000000021e-02 1.000000000000000021e-02 1.000000000000000021e-02 1.000000000000000021e-02 1.000000000000000021e-02 1.000000000000000021e-02 1.000000000000000021e-02 1.000000000000000021e-02 1.000000000000000021e-02 1.000000000000000021e-02 1.000000000000000021e-02 1.000000000000000021e-02 1.000000000000000021e-02 1.000000000000000021e-02 1.000000000000000021e-02 1.000000000000000021e-02 1.000000000000000021e-02 1.000000000000000021e-02 1.000000000000000021e-02 1.000000000000000021e-02 1.000000000000000021e-02 1.000000000000000021e-02 1.000000000000000021e-02 1.000000000000000021e-02 1.000000000000000021e-02 1.000000000000000021e-02 1.000000000000000021e-02 1.000000000000000021e-02 1.000000000000000021e-02 1.000000000000000021e-02 1.000000000000000021e-02 1.000000000000000021e-02 1.000000000000000021e-02 1.000000000000000021e-02 1.000000000000000021e-02 1.000000000000000021e-02 1.000000000000000021e-02 1.000000000000000021e-02 1.000000000000000021e-02 1.000000000000000021e-02 1.000000000000000021e-02 1.000000000000000021e-02 1.000000000000000021e-02 1.000000000000000021e-02 1.000000000000000021e-02 1.000000000000000021e-02 1.000000000000000021e-02 1.000000000000000021e-02 1.000000000000000021e-02 1.000000000000000021e-02 1.000000000000000021e-02 1.000000000000000021e-02 1.000000000000000021e-02 1.000000000000000021e-02 1.000000000000000021e-02 1.000000000000000021e-02 1.000000000000000021e-02 1.000000000000000021e-02 1.000000000000000021e-02 1.000000000000000021e-02 1.000000000000000021e-02 1.000000000000000021e-02 1.000000000000000021e-02 1.000000000000000021e-02 1.000000000000000021e-02 1.000000000000000021e-02 1.000000000000000021e-02 1.000000000000000021e-02 1.000000000000000021e-02 1.000000000000000021e-02 1.000000000000000021e-02 1.000000000000000021e-02 1.000000000000000021e-02 1.000000000000000021e-02 1.000000000000000021e-02 1.000000000000000021e-02 1.000000000000000021e-02 1.000000000000000021e-02 1.000000000000000021e-02 1.000000000000000021e-02 1.000000000000000021e-02 1.000000000000000021e-02 1.000000000000000021e-02 1.000000000000000021e-02 1.000000000000000021e-02 1.000000000000000021e-02 1.000000000000000021e-02 1.000000000000000021e-02 1.000000000000000021e-02 1.000000000000000021e-02 1.000000000000000021e-02 1.000000000000000021e-02 1.000000000000000021e-02 1.000000000000000021e-02 1.000000000000000021e-02 1.000000000000000021e-02 1.000000000000000021e-02 1.000000000000000021e-02 1.000000000000000021e-02 1.000000000000000021e-02 1.000000000000000021e-02 1.000000000000000021e-02 1.000000000000000021e-02 1.000000000000000021e-02 1.000000000000000021e-02 1.000000000000000021e-02 1.000000000000000021e-02 1.000000000000000021e-02 1.000000000000000021e-02 1.000000000000000021e-02 1.000000000000000021e-02 1.000000000000000021e-02 1.000000000000000021e-02 1.000000000000000021e-02 1.000000000000000021e-02 1.000000000000000021e-02 1.000000000000000021e-02 1.000000000000000021e-02 1.000000000000000021e-02 1.000000000000000021e-02 1.000000000000000021e-02 1.000000000000000021e-02 1.000000000000000021e-02 1.000000000000000021e-02 1.000000000000000021e-02 1.000000000000000021e-02 1.000000000000000021e-02 1.000000000000000021e-02 1.000000000000000021e-02 1.000000000000000021e-02 1.000000000000000021e-02 1.000000000000000021e-02 1.000000000000000021e-02 1.000000000000000021e-02 1.000000000000000021e-02 1.000000000000000021e-02 1.000000000000000021e-02 1.000000000000000021e-02 1.000000000000000021e-02 1.000000000000000021e-02 1.000000000000000021e-02 1.000000000000000021e-02 1.000000000000000021e-02 1.000000000000000021e-02 1.000000000000000021e-02 1.000000000000000021e-02 1.000000000000000021e-02 1.000000000000000021e-02 1.000000000000000021e-02 1.000000000000000021e-02 1.000000000000000021e-02 1.000000000000000021e-02 1.000000000000000021e-02 1.000000000000000021e-02 1.000000000000000021e-02 1.000000000000000021e-02 1.000000000000000021e-02 1.000000000000000021e-02 1.000000000000000021e-02 1.000000000000000021e-02 1.000000000000000021e-02 1.000000000000000021e-02 1.000000000000000021e-02 1.000000000000000021e-02 1.000000000000000021e-02 1.000000000000000021e-02 1.000000000000000021e-02 1.000000000000000021e-02 1.000000000000000021e-02 1.000000000000000021e-02 1.000000000000000021e-02 1.000000000000000021e-02 1.000000000000000021e-02 1.000000000000000021e-02 1.000000000000000021e-02 1.000000000000000021e-02 1.000000000000000021e-02 1.000000000000000021e-02 1.000000000000000021e-02 1.000000000000000021e-02 1.000000000000000021e-02 1.000000000000000021e-02 1.000000000000000021e-02 1.000000000000000021e-02 1.000000000000000021e-02 1.000000000000000021e-02 1.000000000000000021e-02 1.000000000000000021e-02 1.000000000000000021e-02 1.000000000000000021e-02 1.000000000000000021e-02 1.000000000000000021e-02 1.000000000000000021e-02 1.000000000000000021e-02 1.000000000000000021e-02 1.000000000000000021e-02 1.000000000000000021e-02 1.000000000000000021e-02 1.000000000000000021e-02 1.000000000000000021e-02 1.000000000000000021e-02 1.000000000000000021e-02 1.000000000000000021e-02 1.000000000000000021e-02 1.000000000000000021e-02 1.000000000000000021e-02 1.000000000000000021e-02 1.000000000000000021e-02 1.000000000000000021e-02 1.000000000000000021e-02 1.000000000000000021e-02 1.000000000000000021e-02 1.000000000000000021e-02 1.000000000000000021e-02 1.000000000000000021e-02 1.000000000000000021e-02 1.000000000000000021e-02 1.000000000000000021e-02 1.000000000000000021e-02 1.000000000000000021e-02 1.000000000000000021e-02 1.000000000000000021e-02 1.000000000000000021e-02 1.000000000000000021e-02 1.000000000000000021e-02 1.000000000000000021e-02 1.000000000000000021e-02 1.000000000000000021e-02 1.000000000000000021e-02 1.000000000000000021e-02 1.000000000000000021e-02 1.000000000000000021e-02 1.000000000000000021e-02 1.000000000000000021e-02 1.000000000000000021e-02 1.000000000000000021e-02 1.000000000000000021e-02 1.000000000000000021e-02 1.000000000000000021e-02 1.000000000000000021e-02 1.000000000000000021e-02 1.000000000000000021e-02 1.000000000000000021e-02 1.000000000000000021e-02 1.000000000000000021e-02 1.000000000000000021e-02 1.000000000000000021e-02 1.000000000000000021e-02 1.000000000000000021e-02 1.000000000000000021e-02 1.000000000000000021e-02 1.000000000000000021e-02 1.000000000000000021e-02 1.000000000000000021e-02 1.000000000000000021e-02 1.000000000000000021e-02 1.000000000000000021e-02 1.000000000000000021e-02 1.000000000000000021e-02 1.000000000000000021e-02 1.000000000000000021e-02 1.000000000000000021e-02 1.000000000000000021e-02 1.000000000000000021e-02 1.000000000000000021e-02 1.000000000000000021e-02 1.000000000000000021e-02 1.000000000000000021e-02 1.000000000000000021e-02 1.000000000000000021e-02 1.000000000000000021e-02 1.000000000000000021e-02 1.000000000000000021e-02 1.000000000000000021e-02 1.000000000000000021e-02 1.000000000000000021e-02 1.000000000000000021e-02 1.000000000000000021e-02 1.000000000000000021e-02 1.000000000000000021e-02 1.000000000000000021e-02 1.000000000000000021e-02 1.000000000000000021e-02 1.000000000000000021e-02 1.000000000000000021e-02 1.000000000000000021e-02 1.000000000000000021e-02 1.000000000000000021e-02 1.000000000000000021e-02 1.000000000000000021e-02 1.000000000000000021e-02 1.000000000000000021e-02 1.000000000000000021e-02 1.000000000000000021e-02 1.000000000000000021e-02 1.000000000000000021e-02 1.000000000000000021e-02 1.000000000000000021e-02 1.000000000000000021e-02 1.000000000000000021e-02 1.000000000000000021e-02 1.000000000000000021e-02 1.000000000000000021e-02 1.000000000000000021e-02 1.000000000000000021e-02 1.000000000000000021e-02 1.000000000000000021e-02 1.000000000000000021e-02 1.000000000000000021e-02 1.000000000000000021e-02 1.000000000000000021e-02 1.000000000000000021e-02 1.000000000000000021e-02 1.000000000000000021e-02 1.000000000000000021e-02 1.000000000000000021e-02 1.000000000000000021e-02 1.000000000000000021e-02 1.000000000000000021e-02 1.000000000000000021e-02 1.000000000000000021e-02 1.000000000000000021e-02 1.000000000000000021e-02 1.000000000000000021e-02 1.000000000000000021e-02 1.000000000000000021e-02 1.000000000000000021e-02 1.000000000000000021e-02 1.000000000000000021e-02 1.000000000000000021e-02 1.000000000000000021e-02 1.000000000000000021e-02 1.000000000000000021e-02 1.000000000000000021e-02 1.000000000000000021e-02 1.000000000000000021e-02 1.000000000000000021e-02 1.000000000000000021e-02 1.000000000000000021e-02 1.000000000000000021e-02 1.000000000000000021e-02 1.000000000000000021e-02 1.000000000000000021e-02 1.000000000000000021e-02 1.000000000000000021e-02 1.000000000000000021e-02 1.000000000000000021e-02 1.000000000000000021e-02 1.000000000000000021e-02 1.000000000000000021e-02 1.000000000000000021e-02 1.000000000000000021e-02 1.000000000000000021e-02 1.000000000000000021e-02 1.000000000000000021e-02 1.000000000000000021e-02 1.000000000000000021e-02 1.000000000000000021e-02 1.000000000000000021e-02 1.000000000000000021e-02 1.000000000000000021e-02 1.000000000000000021e-02 1.000000000000000021e-02 1.000000000000000021e-02 1.000000000000000021e-02 1.000000000000000021e-02 1.000000000000000021e-02 1.000000000000000021e-02 1.000000000000000021e-02 1.000000000000000021e-02 1.000000000000000021e-02 1.000000000000000021e-02 1.000000000000000021e-02 1.000000000000000021e-02 1.000000000000000021e-02 1.000000000000000021e-02 1.000000000000000021e-02 1.000000000000000021e-02 1.000000000000000021e-02 1.000000000000000021e-02 1.000000000000000021e-02 1.000000000000000021e-02 1.000000000000000021e-02 1.000000000000000021e-02 1.000000000000000021e-02 1.000000000000000021e-02 1.000000000000000021e-02 1.000000000000000021e-02 1.000000000000000021e-02 1.000000000000000021e-02 1.000000000000000021e-02 1.000000000000000021e-02 1.000000000000000021e-02 1.000000000000000021e-02 1.000000000000000021e-02 1.000000000000000021e-02 1.000000000000000021e-02 1.000000000000000021e-02 1.000000000000000021e-02 1.000000000000000021e-02 1.000000000000000021e-02 1.000000000000000021e-02 1.000000000000000021e-02 1.000000000000000021e-02 1.000000000000000021e-02 1.000000000000000021e-02 1.000000000000000021e-02 1.000000000000000021e-02 1.000000000000000021e-02 1.000000000000000021e-02 1.000000000000000021e-02 1.000000000000000021e-02 1.000000000000000021e-02 1.000000000000000021e-02 1.000000000000000021e-02 1.000000000000000021e-02 1.000000000000000021e-02 1.000000000000000021e-02 1.000000000000000021e-02 1.000000000000000021e-02 1.000000000000000021e-02 1.000000000000000021e-02 1.000000000000000021e-02 1.000000000000000021e-02 1.000000000000000021e-02 1.000000000000000021e-02 1.000000000000000021e-02 1.000000000000000021e-02 1.000000000000000021e-02 1.000000000000000021e-02 1.000000000000000021e-02 1.000000000000000021e-02 1.000000000000000021e-02 1.000000000000000021e-02 1.000000000000000021e-02 1.000000000000000021e-02 1.000000000000000021e-02 1.000000000000000021e-02 1.000000000000000021e-02 1.000000000000000021e-02 1.000000000000000021e-02 1.000000000000000021e-02 1.000000000000000021e-02 1.000000000000000021e-02 1.000000000000000021e-02 1.000000000000000021e-02 1.000000000000000021e-02 1.000000000000000021e-02 1.000000000000000021e-02 1.000000000000000021e-02 1.000000000000000021e-02 1.000000000000000021e-02 1.000000000000000021e-02 1.000000000000000021e-02 1.000000000000000021e-02 1.000000000000000021e-02 1.000000000000000021e-02 1.000000000000000021e-02 1.000000000000000021e-02 1.000000000000000021e-02 1.000000000000000021e-02 1.000000000000000021e-02 1.000000000000000021e-02 1.000000000000000021e-02 1.000000000000000021e-02 1.000000000000000021e-02 1.000000000000000021e-02 1.000000000000000021e-02 1.000000000000000021e-02 1.000000000000000021e-02 1.000000000000000021e-02 1.000000000000000021e-02 1.000000000000000021e-02 1.000000000000000021e-02 1.000000000000000021e-02 1.000000000000000021e-02 1.000000000000000021e-02 1.000000000000000021e-02 1.000000000000000021e-02 1.000000000000000021e-02 1.000000000000000021e-02 1.000000000000000021e-02 1.000000000000000021e-02 1.000000000000000021e-02 1.000000000000000021e-02 1.000000000000000021e-02 1.000000000000000021e-02 1.000000000000000021e-02 1.000000000000000021e-02 1.000000000000000021e-02 1.000000000000000021e-02 1.000000000000000021e-02 1.000000000000000021e-02 1.000000000000000021e-02 1.000000000000000021e-02 1.000000000000000021e-02 1.000000000000000021e-02 1.000000000000000021e-02 1.000000000000000021e-02 1.000000000000000021e-02 1.000000000000000021e-02 1.000000000000000021e-02 1.000000000000000021e-02 1.000000000000000021e-02 1.000000000000000021e-02 1.000000000000000021e-02 1.000000000000000021e-02 1.000000000000000021e-02 1.000000000000000021e-02 1.000000000000000021e-02 1.000000000000000021e-02 1.000000000000000021e-02 1.000000000000000021e-02 1.000000000000000021e-02 1.000000000000000021e-02 1.000000000000000021e-02 1.000000000000000021e-02 1.000000000000000021e-02 1.000000000000000021e-02 1.000000000000000021e-02 1.000000000000000021e-02 1.000000000000000021e-02 1.000000000000000021e-02 1.000000000000000021e-02 1.000000000000000021e-02 1.000000000000000021e-02 1.000000000000000021e-02 1.000000000000000021e-02 1.000000000000000021e-02 1.000000000000000021e-02 1.000000000000000021e-02 1.000000000000000021e-02 1.000000000000000021e-02 1.000000000000000021e-02 1.000000000000000021e-02 1.000000000000000021e-02 1.000000000000000021e-02 1.000000000000000021e-02 1.000000000000000021e-02 1.000000000000000021e-02 1.000000000000000021e-02 1.000000000000000021e-02 1.000000000000000021e-02 1.000000000000000021e-02 1.000000000000000021e-02 1.000000000000000021e-02 1.000000000000000021e-02 1.000000000000000021e-02 1.000000000000000021e-02 1.000000000000000021e-02 1.000000000000000021e-02 1.000000000000000021e-02 1.000000000000000021e-02 1.000000000000000021e-02 1.000000000000000021e-02 1.000000000000000021e-02 1.000000000000000021e-02 1.000000000000000021e-02 1.000000000000000021e-02 1.000000000000000021e-02 1.000000000000000021e-02 1.000000000000000021e-02 1.000000000000000021e-02 1.000000000000000021e-02 1.000000000000000021e-02 1.000000000000000021e-02 1.000000000000000021e-02 1.000000000000000021e-02 1.000000000000000021e-02 1.000000000000000021e-02 1.000000000000000021e-02 1.000000000000000021e-02 1.000000000000000021e-02 1.000000000000000021e-02 1.000000000000000021e-02 1.000000000000000021e-02 1.000000000000000021e-02 1.000000000000000021e-02 1.000000000000000021e-02 1.000000000000000021e-02 1.000000000000000021e-02 1.000000000000000021e-02 1.000000000000000021e-02 1.000000000000000021e-02 1.000000000000000021e-02 1.000000000000000021e-02 1.000000000000000021e-02 1.000000000000000021e-02 1.000000000000000021e-02 1.000000000000000021e-02 1.000000000000000021e-02 1.000000000000000021e-02 1.000000000000000021e-02 1.000000000000000021e-02 1.000000000000000021e-02 1.000000000000000021e-02 1.000000000000000021e-02 1.000000000000000021e-02 1.000000000000000021e-02 1.000000000000000021e-02 1.000000000000000021e-02 1.000000000000000021e-02 1.000000000000000021e-02 1.000000000000000021e-02 1.000000000000000021e-02 1.000000000000000021e-02 1.000000000000000021e-02 1.000000000000000021e-02 1.000000000000000021e-02 1.000000000000000021e-02 1.000000000000000021e-02 1.000000000000000021e-02 1.000000000000000021e-02 1.000000000000000021e-02 1.000000000000000021e-02 1.000000000000000021e-02 1.000000000000000021e-02 1.000000000000000021e-02 1.000000000000000021e-02 1.000000000000000021e-02 1.000000000000000021e-02 1.000000000000000021e-02 1.000000000000000021e-02 1.000000000000000021e-02 1.000000000000000021e-02 1.000000000000000021e-02 1.000000000000000021e-02 1.000000000000000021e-02 1.000000000000000021e-02 1.000000000000000021e-02 1.000000000000000021e-02 1.000000000000000021e-02 1.000000000000000021e-02 1.000000000000000021e-02 1.000000000000000021e-02 1.000000000000000021e-02 1.000000000000000021e-02 1.000000000000000021e-02 1.000000000000000021e-02 1.000000000000000021e-02 1.000000000000000021e-02 1.000000000000000021e-02 1.000000000000000021e-02 1.000000000000000021e-02 1.000000000000000021e-02 1.000000000000000021e-02 1.000000000000000021e-02 1.000000000000000021e-02 1.000000000000000021e-02 1.000000000000000021e-02 1.000000000000000021e-02 1.000000000000000021e-02 1.000000000000000021e-02 1.000000000000000021e-02 1.000000000000000021e-02 1.000000000000000021e-02 1.000000000000000021e-02 1.000000000000000021e-02 1.000000000000000021e-02 1.000000000000000021e-02 1.000000000000000021e-02 1.000000000000000021e-02 1.000000000000000021e-02 1.000000000000000021e-02 1.000000000000000021e-02 1.000000000000000021e-02 1.000000000000000021e-02 1.000000000000000021e-02 1.000000000000000021e-02 1.000000000000000021e-02 1.000000000000000021e-02 1.000000000000000021e-02 1.000000000000000021e-02 1.000000000000000021e-02 1.000000000000000021e-02 1.000000000000000021e-02 1.000000000000000021e-02 1.000000000000000021e-02 1.000000000000000021e-02 1.000000000000000021e-02 1.000000000000000021e-02 1.000000000000000021e-02 1.000000000000000021e-02 1.000000000000000021e-02 1.000000000000000021e-02 1.000000000000000021e-02 1.000000000000000021e-02 1.000000000000000021e-02 1.000000000000000021e-02 1.000000000000000021e-02 1.000000000000000021e-02 1.000000000000000021e-02 1.000000000000000021e-02 1.000000000000000021e-02 1.000000000000000021e-02 1.000000000000000021e-02 1.000000000000000021e-02 1.000000000000000021e-02 1.000000000000000021e-02 1.000000000000000021e-02 1.000000000000000021e-02 1.000000000000000021e-02 1.000000000000000021e-02 1.000000000000000021e-02 1.000000000000000021e-02 1.000000000000000021e-02 1.000000000000000021e-02 1.000000000000000021e-02 1.000000000000000021e-02 1.000000000000000021e-02 1.000000000000000021e-02 1.000000000000000021e-02 1.000000000000000021e-02 1.000000000000000021e-02 1.000000000000000021e-02 1.000000000000000021e-02 1.000000000000000021e-02 1.000000000000000021e-02 1.000000000000000021e-02 1.000000000000000021e-02 1.000000000000000021e-02 1.000000000000000021e-02 1.000000000000000021e-02 1.000000000000000021e-02 1.000000000000000021e-02 1.000000000000000021e-02 1.000000000000000021e-02 1.000000000000000021e-02 1.000000000000000021e-02 1.000000000000000021e-02 1.000000000000000021e-02 1.000000000000000021e-02 1.000000000000000021e-02 1.000000000000000021e-02 1.000000000000000021e-02 1.000000000000000021e-02 1.000000000000000021e-02 1.000000000000000021e-02 1.000000000000000021e-02 1.000000000000000021e-02 1.000000000000000021e-02 1.000000000000000021e-02 1.000000000000000021e-02 1.000000000000000021e-02 1.000000000000000021e-02 1.000000000000000021e-02 1.000000000000000021e-02 1.000000000000000021e-02 1.000000000000000021e-02 1.000000000000000021e-02 1.000000000000000021e-02 1.000000000000000021e-02 1.000000000000000021e-02 1.000000000000000021e-02 1.000000000000000021e-02 1.000000000000000021e-02 1.000000000000000021e-02 1.000000000000000021e-02 1.000000000000000021e-02 1.000000000000000021e-02 1.000000000000000021e-02 1.000000000000000021e-02 1.000000000000000021e-02 1.000000000000000021e-02 1.000000000000000021e-02 1.000000000000000021e-02 1.000000000000000021e-02 1.000000000000000021e-02 1.000000000000000021e-02 1.000000000000000021e-02 1.000000000000000021e-02 1.000000000000000021e-02 1.000000000000000021e-02 1.000000000000000021e-02 1.000000000000000021e-02 1.000000000000000021e-02 1.000000000000000021e-02 1.000000000000000021e-02 1.000000000000000021e-02 1.000000000000000021e-02 1.000000000000000021e-02 1.000000000000000021e-02 1.000000000000000021e-02 1.000000000000000021e-02 1.000000000000000021e-02 1.000000000000000021e-02
-1.089158460895034608e+02 1.656384622259847106e+02 3.837933866675729178e+01 -8.621240018129016747e+00 -8.579720890184630377e+01 -1.307246310985734361e+01 -2.030315927149633808e+02 6.860683103733353772e-01 -8.270432845523889398e+01 -1.379016333389849791e+01 -1.937774576300870422e+01 6.387459402567395195e+00 -1.740476272214567688e+00 1.638355439043658066e+02 8.263312133294520834e+01 -3.789612198575223090e+01 -5.158702192033372569e+01 7.735240550806234694e+01 3.205696325133092017e+01 -2.478369521892810923e+01 -7.698197148588245398e+01 -7.205482676278971610e+01 -1.347050888317910378e+01 2.825281527845768537e+01 -1.903282868133822205e+02 -9.639523806718912624e+01 -2.547973459014082209e+01 1.968767244557003551e+02 6.909900732745492746e+01 7.494641141845505672e+01 7.841350656691125209e+01 1.153508310147802973e+00 -7.743812335152647108e+01 2.026143663737993563e+02 -2.391367853921301503e+02 5.748821451220283762e+01 -1.172877393368317342e+02 -3.387580308222408831e+01 3.942718817382435681e+00 1.237432667238468582e+02 -1.200069456076303993e+02 -1.330890058687445432e+01 7.552493216536205978e+01 1.695419954388332542e+02 6.966305865025476862e+01 -6.678109833850686528e+01 4.021921858717936971e+01 -2.772986767319514456e+01 -6.451591284004106797e+01 1.529166142420281744e+02 -6.885986938316960959e+01 -5.087573665705096460e+01 -1.361088806671620546e+02 5.667646793123758187e+00 -4.933942768676828905e+01 3.777168355040483050e+01 -8.665668530117510215e+01 -4.888081251470613608e+01 -9.903975416175693169e+01 -1.518253663858352240e+02 1.897336608873455077e+01 4.433383274831957266e+01 -1.202580349019923034e+02 1.255153902447100656e+01 -7.741932897357237664e+01 4.797845449386686312e+01 1.627823290454483924e+02 -1.409146018089004428e+02 -4.228793836644927495e+01 7.047137561282994511e+00 2.869115290472977087e+00 4.140333418578787672e+01 8.202780903645408728e+01 8.007541194960468012e-01 -8.622335986876304759e+00 -6.838394923380198520e+01 7.642940906129506118e+01 -3.196982886022609094e+01 2.569438678878447746e+01 1.016063128074799238e+02 8.615192478768601347e+01 -4.177448126428926400e+01 5.642550442699695168e+01 1.440043301612978155e+02 1.135167405301253467e+02 -3.908558478974920813e+00 1.701435741600957670e+02 -1.089372909765949657e+02 4.078063106112492342e+00 -4.096509168178671700e+01 2.020181785300445938e+02 -2.073082327186434526e+01 2.829088638004300105e+00 -7.500120800080725303e+01 -6.981832822722165766e+00 -6.234015815361414070e+01 6.621056478037077397e+01 -9.236435442796735629e+01 6.702890390265091014e+01 -4.665794417117215431e+01 -4.859405911092132868e+01 -8.953960123268720395e+01 5.183524245653598683e+01 -5.341896123094980453e+01 -1.458638917766047598e+02 -7.761078739469496668e+01 -1.021782964313186284e+02 -1.535787939984659261e+02 1.327739901105136653e+02 -2.682029396483253691e+01 3.129896454938982586e+01 8.758622611174430972e+01 -1.016308512893109253e+02 5.562942558812164862e+01 -4.231169517059596785e+01 -6.778256227443667115e+01 -8.803551631877846262e+01 1.985037548709794066e+02 -5.542188901263124023e+01 -4.836750926087923830e+01 -4.608158134885157153e+01 7.853067156089363721e+01 -4.045953078833188954e+01 1.347645597415400971e+02 -4.876132542808728232e+01 5.384987136078734693e+01 4.437781573291072590e+00 -7.921203401721257364e+01 6.719194156368556037e+01 2.709713639327079022e+02 -8.992873920243216901e+01 4.637553157183198493e+01 -7.450753992859739583e+01 4.419925994601828734e+01 1.281782432689039126e+02 -5.023744522878553198e+01 1.427785018449148069e+01 -2.632523337919966266e+01 -9.961802478607678779e+01 -1.694827413603224642e+01 4.204613428815386023e+00 -7.632146566102933072e+00 -1.460026226197702925e+01 1.155066183056070912e+02 1.274209506611155120e+02 1.822412948697436264e+02 -2.974662065027914650e+02 3.733882605041684855e+01 -1.541562463822375939e+01 -6.093750355786591655e+01 1.762996460233110554e+02 7.444786524132993577e+01 -2.554398847398394068e+00 -1.133523772162079979e+02 -1.063853783175103729e+01 9.786972299915949236e+01 -1.313873862204558236e+02 -1.648809494561539282e+02 1.050029458193293941e+01 4.148381815641880621e+01 -5.969306377666156038e+01 4.111818410124335799e+01 -1.047344623483258630e+02 -1.480040271553618538e+02 2.063176454010301697e+01 4.752326027991325930e+01 4.717487439958556905e+00 -8.164439550523465527e+01 -9.157397252604748417e+01 -8.248072583127392932e+01 -8.568734675425768899e+01 1.239099665473530720e+01 5.562204292251971083e+01 1.140709396892746241e+02 7.776391050529832683e+01 8.766433649158146579e+01 1.052723572845694093e+02 -7.325291613655006984e+01 -8.082722595069448346e+01 6.909831891917590951e+01 6.716681234430053848e+01 5.805121435708822730e+01 -9.197719117116957221e+00 -8.929172161374461325e+01 5.294789594373904862e+01 -1.756358423613088178e+02 6.590339881749338247e+01 -4.367817435543809523e+01 -9.462823732078767591e+01 7.284038196165697343e+01 -1.684684289118674272e+01 -7.570954904789461182e+01 -5.641282516369692956e+01 -9.007174681469230393e+00 2.384561214389097756e+02 7.558661519160698106e+01 5.390712797471304896e+01 -1.021148058889814934e+02 1.458050910631437489e+02 1.049212356035457372e+00 -8.889538387469615088e+01 1.533224202521941208e+02 -1.516883781844161945e+02 1.553034073492332112e+01 -3.201539698620967300e+01 -2.187569930630903627e+02 -1.327309547299736039e+02 -8.681480257178655791e+01 -2.923439949021260986e+01 -1.186529307537499278e+02 5.737136338465627716e+01 6.469383351064006149e+01 -2.746977484104058220e+01 -9.930692462596726955e+01 1.125665810818049692e+02 1.176266198281275592e+02 4.599846020582061357e+01 1.742133185435001153e+01 2.602689478348827947e+02 4.346848994593459281e+01 -1.190001198544460124e+02 -4.489546585716957594e+01 -1.681577072316847250e+02 3.174837466215422666e+01 1.527024981327979560e+02 -1.477466739782070988e+02 1.312514815964896968e+02 -9.063875568512766279e+01 -1.886382477890019871e+01 -7.968025378733044617e-01 5.269852470076502016e+01 -1.153930878572947982e+01 -2.274573402096505959e+01 -1.877093002843911407e+01 -1.263637078095174502e+02 4.625732030488998703e+01 -3.024912900569129803e+01 -1.289309413559579731e+01 -1.069020050973719727e+01 2.253260925138342543e+02 1.737631563980835381e+02 2.319861583969124013e+02 1.314398890211547837e+02 -8.634060656643129050e+01 7.495970908963455770e+01 2.108709321776811052e+01 4.740933173299011116e+01 -3.957409916339248213e+01 2.547557732002783268e+02 -2.325749190312794212e+01 -1.363958710210712866e+02 -1.490632202645363691e+01 -4.572913252569700404e+01 -7.719684558058112600e+01 4.305270120243522314e+01 -1.168471326806760580e+01 1.814922839008189897e+02 9.213691417803443073e+01 4.078474673106821768e+01 9.777390479959561276e+01 9.439537385900769095e+01 -2.293627957566484099e+01 1.393346509993012035e+02 2.646987200431902210e+01 8.942024696903649783e+01 4.758612055148003606e+01 6.911822457942115250e+00 -1.155237521823983542e+02 -1.156380326207338527e+02 -8.986586684684368720e+01 -1.553533277176637739e+01 8.653277631839237927e+01 -3.057319812942981230e+01 9.870112938810832759e+01 4.374181017776959379e+01 -7.258931980013163354e+01 -2.989165535930609252e+01 -5.847908451188822454e+01 1.753611846118147710e+01 -4.621414867832483964e+01 -1.118384631389705106e+02 1.212895990120595400e+02 1.211245445651642569e+02 -7.882900575512013575e+01 5.396353238788990758e+00 -4.524408418149384659e+01 -3.251018096297564597e+01 -1.132075495876828697e+01 -3.118314039524961956e+01 4.440854060978577422e+01 -1.403076995397929068e+02 -5.275477836780296315e+01 -1.515518206282004599e+02 1.737478966394863562e+02 -2.014562507561687354e+01 5.877548658057793318e+01 1.188144279416085958e+01 1.440285638901698917e+02 4.449490072406833008e+01 3.560805110745830149e+01 1.539439879403700786e+02 -4.911944647104271411e+01 -9.733628865532391217e+01 2.712725211287109417e+01 -1.575135529463643707e+02 -5.323429357959111741e+01 1.019884087408812690e+02 -1.271493120013437306e+02 -3.623183205597333512e+01 9.096133828391566567e+01 -9.410446603251426723e+01 -8.913287908619682298e+01 -8.232355659963326389e+01 -6.354554210617241239e+01 2.481189414786414886e+02 1.974130608333880161e+02 1.025605093186041614e+02 -1.017754758588021957e+02 7.452447017409116370e+01 -6.591540344068354784e+01 -3.125240900835352775e+01 1.654130988815725800e+01 -3.211224236880948268e+01 -9.329118062521749266e+01 -2.780734990621152480e+00 1.468490154496152478e+01 1.082462061689455055e+02 -1.278175639669639025e+02 4.173244414259480806e+01 6.341512869939833763e+01 3.431911809648871525e+01 -9.008868296449978175e+01 -1.476453491732526686e+02 1.919775446544286979e+02 -1.769266296788423531e+01 2.502731634544282358e+01 1.555608288280032809e+02 2.648510424833147781e+01 2.754380729241099246e+01 -4.423960024182154172e+01 8.798754329750566683e+01 -1.353606310058283100e+02 -3.057430447528473394e+01 -6.092644106103298540e+00 -5.299688413476210513e+01 6.239509664804217870e+00 2.109790295577570518e+01 -3.551326558291939506e+01 1.355997835950267572e+01 2.120432896958221818e+02 -2.718375232772920924e+01 -2.777772799047068020e+01 -1.008395101492883157e+02 -1.624748942259839346e+00 -8.007984438222800350e+01 6.326234184132097482e+00 1.111565938091921169e+02 -5.158711555040462571e+01 5.991797320373200897e+00 -5.384935981901421087e+01 3.287972341389403308e+00 8.645240826126315881e+01 -1.148577341944900638e+02 -9.600452581131216334e+01 -1.016967745051518790e+02 7.073706045822866884e+01 8.580606066736025639e+01 -9.143656080787938834e+01 6.209312421535857140e+01 2.560915115350441340e+01 3.834865855554267000e+01 -1.758824665463043502e+01 9.055124847718620629e+01 7.899654331086394166e+01 -7.656938558325755650e+01 1.169891738507158863e+01 8.015564198395674111e+01 7.219302642473395792e+01 -1.972797969402947871e+01 2.474166812998484843e+01 -1.314049798333084595e+02 4.810001784132618496e+01 -3.248458004878306582e+01 -3.238582219613880397e+01 1.716216382170717907e+02 4.699226731390287171e+01 1.191137001130755664e+02 1.892425755297023500e+02 -1.364312419179859717e+02 1.477420618633351523e+02 -6.286747688957785840e+01 -1.339191282253350437e+02 8.156840844678926317e+01 -1.328370446637214570e+02 -2.845288347503149140e+01 5.588873664174574429e+01 7.979373116922311659e+00 -1.666394507963391618e+02 8.349782999818044971e+01 2.500591944667205624e+01 6.846013073652953551e+01 3.597226039933927666e+01 9.381206957404211622e+00 -6.650366239909382671e+01 1.146563396082579089e+02 5.399598088270936813e+01 -6.155117803736624182e+01 -1.003196344276315415e+02 3.856058836345376051e+01 2.548485665300552583e+01 8.164982940942870471e+01 1.821105470302022695e+02 -2.439413569069274956e+01 -1.091509695737263428e+02 -8.391313204767138245e+01 -5.084688909618867569e+01 -4.392845541179501367e+01 -1.453740303218214933e+02 -2.231526603631635197e+01 1.283294124870322719e+02 7.384430418960116072e+01 -1.212404512345474075e+02 -1.485306564175809854e+02 -6.745646061750368006e+01 -7.561617562462792819e+01 1.454508032506461177e+02 -1.688895487943130149e+02 8.576265013442815643e+01 -4.564302550986677254e+00 -4.263688179504790554e+01 1.316689129550830195e+01 9.030061458125665297e+01 4.909938439325449622e+01 1.369180898034053371e+02 -1.576558948448919466e+02 -8.021457955489202618e+01 2.513226602174963631e+01 4.153703488635904506e+01 2.041906389594444988e+02 1.441014606049853342e+02 6.493147820186463548e+01 7.142789145664796990e+01 -3.376737748431386166e+01 1.503767804571376132e+02 -1.776803049013307430e+02 -6.282504034414739635e+01 -5.317612919482995437e+01 -5.130468355504236655e+01 -1.022872420531646611e+02 -1.485311874737880089e+01 -6.798427268437799853e+01 7.049186369556224463e+01 -9.059521970796327039e+00 -5.751450825149811408e+01 -6.164941087600092118e+01 1.784765946863396948e+02 5.847160679798661675e+01 -1.360032074038368322e+01 2.068976030265537531e+02 -1.073165200826235832e+02 -3.499055814086234761e+01 6.632308279899341130e+01 -1.345943063625563152e-01 1.482632357644880372e+01 -1.239104933945549192e+02 1.744933328171084383e+02 -4.848347154967749617e+01 -2.664699738318227062e+01 -1.086211394099754557e+02 1.246001972843060202e+02 9.489401781084282561e+01 -7.672964053581063126e+01 -3.723403177063343605e+01 3.856292814325946239e+01 -1.498306155184797035e+02 -1.821531897377703102e-01 -7.392737047020706598e+01 7.607975012034799533e+00 -1.069635642208162238e+02 -1.568560743011415752e+02 -6.993319109543384116e+01 1.465922615473451742e+02 5.594311829698415295e+01 -8.865991012219697609e+01 8.818611013793588427e+01 3.383832261233615668e+01 8.735983481052967647e+01 -4.164732051113467293e+01 -8.312843490331124485e+01 1.690920396898474678e+02 4.116186236218173633e+01 2.861364642482620368e+01 -7.214302961344247933e+01 -4.181786512513014031e+01 9.412297272757044198e+00 -7.085897608424938099e+00 -1.707790084506172832e+02 -3.420239858676885092e+01 6.363090461410374843e+01 1.102316255860966550e+02 1.538229574613410193e+02 -1.311894694840362519e+01 8.850621281966749621e+01 1.557550573760974260e+02 6.260749362156905562e+01 1.458154951752176487e+02 1.585787851112156943e+01 1.295917320933846497e+02 -8.283307556766733626e+01 5.262754415577786204e+01 2.891474705010896429e+01 7.481299661265242662e+01 -1.047293942073506656e+02 1.952544035276915508e+02 -1.268732982479181146e+02 8.703732374204653865e+01 -1.058116452641570220e+02 4.547647906957211461e+01 1.359902010111293258e+01 8.931651447220184536e+01 -7.252195668917237015e+01 -7.433739349131128904e+01 -1.096759023345293116e+01 8.767953298127312678e+01 -2.911680263215090747e+01 -1.603648759975940408e+01 -1.931078318423288209e+01 4.657643168268669420e+00 9.648123991756581574e+01 -6.147854187394528225e+01 -2.659801779171020453e+00 -1.903077374665083141e+02 1.196806912845198241e+02 -1.224433669722626803e+02 -7.242718913252133461e+01 -2.306709453220739192e+01 -1.058310857596685253e+02 -5.210797677640540115e+01 -5.743387113593322368e+01 -1.930114449222016049e+01 1.335541863629631223e+02 5.299434930033034163e+01 9.843485777934475323e+01 -1.334074377642060369e+02 -1.358319125823922491e+02 -2.809774929420787544e+02 1.001600369294838373e+02 1.021753532829606428e+02 4.147607917017121082e+01 -4.162193340411353404e+01 -3.644411691316187074e+01 -1.800379564939952388e+02 1.432116728086539581e+02 -1.052893690243928972e+02 1.048506332441777857e+02 -1.560559635068538000e+02 -1.403559636514371611e+01 -5.428571515776724965e+01 -1.169122779218982799e+02 -4.519688401206116879e+01 -1.228570181389750893e+01 -9.085409329908796394e+01 -1.014421116740045079e+02 -1.211772470493834142e+01 6.979442288665575234e+01 -1.221778311948199729e+02 -1.534709565447639790e+01 -7.231130424257770528e+01 -1.288492159800724437e+02 6.484430423834774970e+00 9.326787939227997981e+01 1.623286587294602725e+02 -1.869206378853897377e+01 -4.516249686550872866e+01 -1.217860833570168779e+02 -1.604957676223935152e+02 1.018215983615776565e+02 -7.135890395121145957e+01 7.750090457418016854e+01 9.222025364891715427e+00 2.867220015351529128e+01 7.245975184670324154e+01 -8.317446085868621708e+01 8.114305365857492802e+01 1.131426600816091792e+02 1.545754728289602440e+02 -1.143853368945638493e+02 1.020421825368470223e+02 -4.690400446252070310e+01 -8.913439955224946232e+01 2.106623536807473158e+02 4.831968439648785818e+01 8.194273144898103567e+01 2.084119944238129207e+01 -6.210026990412633552e+01 -3.429662162395519687e+01 -2.065420900080448803e+02 1.037089603153608408e+02 8.000101187822642146e+01 -7.431535806581904069e+01 -7.178696871635752075e+01 1.425387484646972212e+02 9.921991377951422919e+01 5.018584407963215455e+01 7.468030788085324900e+01 -7.716741523267535818e+00 1.013078832755283401e+02 -1.016827496652998519e+02 1.829620753692375672e+02 -3.876268148820498283e+01 -1.197783563841277754e+02 -3.701136280556765712e+01 7.043339224808919141e+01 1.446462010721418210e+02 1.263319863073012606e+01 1.706536165112709114e+02 5.123835885947901403e+01 3.301837354536587554e+01 -1.092794220940997434e+02 4.397163431381552101e+01 -1.227212733087676639e+02 4.684229733928526684e+01 3.788924153686063789e+01 -1.211223658231298543e+02 -8.348910192931259644e+01 3.912781266596657304e+01 8.566351462247570936e+00 -2.279190162652261975e+01 4.111541759281858788e+01 -2.101203237728429585e+01 -6.194052173652258375e+01 -2.573713188333518431e+01 -2.201931766849705241e+01 -3.909594538001850594e+01 1.842535846399555766e+01 -7.905522351083099863e+01 1.167757384883744436e+02 -7.293355836537425319e+01 -4.148081204641702158e+00 6.440250533839243019e+01 3.809612902036535687e+00 1.566938539101357541e+01 1.567653275127764800e+01 -1.149814232372455223e+02 -4.329253838723464476e+00 6.385879678458353936e+01 -2.272005428284548429e+02 -8.332886940429621347e+01 -1.106384697419352534e+02 4.299586230856090907e+01 9.445338729020630808e+01 -9.008103507691052414e+01 -1.648065938859045616e+02 -1.817808539147568467e+02 1.959235315634620633e+01 -1.422479169569215003e+02 -6.208401222742120140e+00 1.448197318442491905e+02 -6.946490153423751757e+00 3.641226663622826010e+01 -9.692378655551102895e+01 7.822423030860450410e+01 -1.160736665369998661e+02 -1.510188469685301627e+01 -2.963847835274778220e+01 5.633862620713665592e+01 -8.654290913700535270e+00 1.033247205358662626e+02 -1.193320596288880751e+02 -4.894478096217991236e+01 8.464191407040908643e+01 6.461246146512851851e+01 -8.039236866741643439e+01 -5.312286089594097405e+01 -4.819662067394551741e+01 -2.823971391319793725e+02 1.888092958664298351e+02 7.420467674341719544e+01 -2.299074685870721524e+01 -2.892686540034073062e+01 4.048195932774864048e+01 -8.197244571778637123e+01 9.695484224758885716e+01 5.891226925500637179e+01 7.980452536639917582e+01 -8.188313315858384556e+01 -2.581380246537626277e+01 3.243684760185027471e+01 1.691703067515537384e+01 -4.169388401722774518e+01 1.537029110219340566e+02 -1.681679638423155509e+01 3.444789310427136542e+01 -2.236066060973817571e+02 -8.235375386858652291e+01 -7.114283845843944221e+01 2.239356000779950406e+01 1.061769750702306396e+02 -2.253545556131873298e+02 -1.818816120354737791e+02 2.155173551065538504e+02 -1.027369932095416338e+01 9.339170896055770754e+01 6.092521423580816275e+01 -5.381408681646333036e+01 -1.273703408165846866e+02 -9.252351201927777424e+01 -4.885871966162375912e+01 -3.637978323664847125e+01 -3.807448511706496674e+01 1.569455977392164137e+01 3.616315630950225568e+01 1.622276564904177008e+02 1.198225399976056167e+02 6.784211349139754432e+00 -4.281673749332370882e+00 -1.543536544551628538e+02 1.163335803837736364e+02 1.548852399026173430e+02 -1.005826979725380426e+02 7.167910235836855293e+01 1.666849075351784837e+00 5.340493343859409947e+01 1.219146152010223716e+02 6.897621811272435366e+01 -1.303333788727071862e+02 1.567766958469793970e+01 -2.857520195848190880e+01 1.083693133303615674e+01 -2.247920185938783888e+01 4.409299353027468271e+01 -2.534848928849633865e+02 1.762358609186031231e+02 7.077415136558856013e+00 1.551050271476565001e+02 -1.024681238480332723e+01 1.033209697464378962e+02 6.972202437314416557e+01 -4.086635313810452175e+01 2.914748386530355262e+01 -7.091474862336886531e+01 -8.667648782287434983e+01 -7.018535502401110193e+01 -3.122953075255190569e+01 4.401105164909395739e+01 1.073461948784557194e+02 2.774882532998057627e+01 6.057952170535097736e+01 -1.021880128214887407e+02 -1.336963859727546264e+02 -1.314644899926821431e+01 4.522903643087981607e+01 -4.432927166044298417e+01 9.224221233452117019e+01 5.417129378998738787e+01 -2.696209469498695910e+01 2.921005717602924179e+01 5.988714765811184293e+01 -7.033928676881096465e+01 -1.304668086096783952e+02 1.386194275176627286e+02 7.624354179663833442e+00 4.893654342374809829e+01 -1.457540086923669378e+02 -5.214602803267867870e+01 -4.315075254915193836e-01 -6.425069911478450990e+01 4.164061188948442904e+00 5.499691895634015282e+01 1.821736500798540987e+02 3.823947066752079138e+01 -1.071097185061868373e+01 7.061535828583355112e+01 -4.445346540491260612e+01 -1.065519144733390249e+02 -1.351286670588544894e+02 9.159353262555086417e+00 2.456368693575317153e+01 2.330845345324643603e+01 -5.565672138803810043e+01 1.182330883346690626e+02 -7.911020469599192495e+01 1.256144453577682896e+02 8.546107493772832697e+01 -6.368423624202427646e+01 -8.299116560182692126e+01 8.247779876786661646e+01 2.001682859618781407e+01 -5.144912001462439832e+01 -5.275237943727458401e+01 1.339944218207090216e+02 5.618657372558354268e+01 7.833345662213955052e+01 2.563318272081996341e+01 -4.123410957194142412e+01 1.053441624576877302e+02 -5.351849451904736554e+01 5.500768200311659806e-01 7.509030059168041760e+01 9.771436093596510375e+01 2.507307606357361749e+02 -1.719338669849807104e+02 1.579579838090051851e+02 -6.632223484046157580e+01 -1.495437836087040750e+01 -2.465480944810172659e+01 -2.036032335356088652e+01 -5.415257178009831307e+01 9.135347334389103935e+01 1.808604752204160206e+02 -1.167537198414691062e+02 3.041158388245717248e+01 -1.248001294633210705e+02 6.904864122883510902e+01 -4.376110498916192171e+01 -7.974284727234633863e+01 -5.307129557887403593e+01 4.056844948854344324e+01 1.908364593165215695e+01 -8.056966866206063571e+01 -1.390182582618265030e+02 2.047168915041048720e+01 1.554284534963042290e+02 1.409254412144385071e+01 1.800415210152781356e+02 7.360245558197711979e+00 1.328897202185677315e+02 -3.415219542889884963e+01 8.961638148034107587e+01 -7.056714015905185988e+01 -1.115544318007741253e+02 4.885523562889874682e+01 -5.733732185758000810e+01 -7.764717294727097396e+01 7.206499335986079302e+01 6.395514391558792866e+00 -9.327957607255596884e+01 -1.490170749547376090e+02 1.464300378362738115e+02 -8.829849087163758270e+01 -2.340230047854685136e+00 1.189689731242909403e+02 5.748645187648635613e+01 -9.733646265352177807e+01 1.055178135711624776e+01 2.796459954685185494e+02 5.286348107374094241e+01 -1.564515585311773691e+02 -4.734974743459884650e+01 -6.103208503750139613e+01 9.548527543242188997e+00 1.067803270609515494e+02 -1.027561565522800606e+02 2.143398784039310456e+01 1.295970226783083774e+02 1.864959442732540040e+01 -2.098967310777926798e+02 4.799897429625087142e+01 7.501012433822415915e+01 -1.350426069049161448e+01 3.258827087832780478e+01 1.612932115754898699e-01 2.240353535665847318e+01 2.756744838119819008e+01 1.151373111096900459e+02 9.745488362122675596e+01 1.551098780886418460e+01 1.481370817886034672e+02 -6.364239969097599214e+01 2.452025543933146423e+02 6.465818799034673248e+01 1.409018763278229756e+02 -2.184067496924947704e+01 8.956113405293514518e+01 -4.868817001691508040e+01 -1.455552484800434456e+02 2.602458122878514857e+01 9.448731918652502770e+01 -8.709699918457444312e+01 -1.041670390451507444e+02 -6.617594328806006843e+01 3.641110265005539759e+01 -1.135831255497196679e+02 7.430467432211293044e+01 2.789920398910895827e+01 -9.708802128531017672e+01 1.889061057007238844e+02 -1.169882354498385801e+01 -1.012242424105354388e+02 -1.333247055606998543e+01 -2.032726502561793325e+01 -1.394804713107822352e+02 -3.981283124397161544e+01 6.118577674641541364e+01 1.310960584146280326e+02 2.888377958635625120e+01 2.660937881679511463e+01 4.455348042091947036e+01 -3.554141791813963636e+01 -1.448501071997579004e+02 1.579776343038004605e+01 3.080526147742140353e+01 1.324222170683262618e+02 -9.853286576032109778e+00 -7.573678654244861264e+01 7.282495691773200974e+01 9.772813407060119140e-01 3.168769321466303879e+01 1.385246548538061688e+02 -1.765896040360562722e+02 -9.238400516997967316e+01 1.240984839897432863e+02 -2.085648208367276197e+02 -1.777937575304466407e+02 8.799088447195319418e+01 1.488756030185756174e+02 6.130140958625099756e+01 -4.319773424822044738e+00 1.505627979017315283e+02 -2.122209335565436845e+02 1.035933566395170544e+02 4.096931984711230257e+01 1.228500429810228667e+02 -1.823212460190502497e+02 1.029756237875365628e+02 -2.730590591542097556e+01 -1.292481851610205013e+02 -5.146328868213269736e+00 -8.932257441928973662e+01 -1.570939838130097144e+01 -4.184181120965196676e+00 -1.190977948308619574e+02 -1.192185313895472518e+02 -6.048817715701347453e+01 -1.246255423258233179e+02 1.943020088529243310e+02 -1.557334622782532279e+02 -4.850906100395113185e+01 1.668039895985336614e+02 3.280184411226635177e+01 -2.861509347429121703e+02 -1.228913681947586127e+02 3.432720788015961944e+01 5.284082278192081361e+01 8.275191481935721072e+00 -1.494628650077922885e+02 3.449953014679407204e+01 7.245045068083996398e+00 -7.185777433030006023e+01 1.959882100935167841e+02 1.958421451955728401e+02 4.198629721069315757e+00 -2.016095396259068195e+02 1.217925243777966671e+02 2.973331861167903867e+01 3.668234864586100485e+00 7.405041179880501545e+01 -2.005825349725144235e+02 -1.334330049289351336e+02 1.363334828116589961e+02 1.060035937620692863e+02 5.115141610344613099e+01 1.384299102358122866e+02 -1.723333497674529724e+02 -1.977545396923227017e+01 -1.260715452897249378e+02 4.218995847392407939e+01 -1.004155728818443407e+02 8.416757127330632215e+01 -3.277991548076791162e+01 1.197240251728753435e+01 1.715336468377418555e+02 2.758302858057968621e+01 -2.548001659363877422e+02 -1.221758857847556925e+02 -8.057185571624863485e+01 1.528463097643439994e+02 1.212129890893651130e+01 -5.207408847458727053e+01 2.933041244680293147e+01 6.041511601971880197e+01 -3.824100724858623579e+01 1.039336768032825518e+02 -9.739040787195067139e+01 4.757523223798530410e+01 1.082057520683863032e+02 -3.431677035296594624e+01 -9.485907205532345188e+01 -1.096716160031352132e+02 1.157747346628684966e+02 -4.802321725840383237e+01 1.900085527309641122e+02 5.530100678004500026e+01 1.072543882583333641e+02 1.783387200180335412e+02 8.272574714015695108e+00 -1.201640095680151461e+02 -1.602201148981695269e+02 -1.103716657012564184e+02 4.108411828949484601e+01
-1.284142874367069886e+01 -4.567498351491346753e+00 9.777541058964058607e+01 -2.162684870628773695e+02 1.467553359885172597e+02 5.995756614833743470e+01 1.436613148547224625e+02 -1.219626209963211636e+02 -2.615880561656966030e+00 -2.272183785176182980e+01 -2.072490204000248184e+02 3.088992064417896799e+01 -1.729772198847341969e+01 1.154850123213638682e+02 -1.181176734835765387e+02 5.826987547882551866e+01 1.182913753810051247e+02 -4.338870311065844732e+01 -4.683615576844339756e+01 -2.549105592984783186e+01 5.827928164058943139e+01 5.955538867911479173e+01 3.062103256485895031e+01 -2.195244517636410535e+02 -4.869454340994648334e+01 8.642713472535065478e+01 9.357800367319031309e+00 -9.794007756217387950e+00 -6.280648879130265527e+01 -1.462540504089286131e+01 6.923890220097833037e+01 -1.372744485853463914e+02 -5.848140999770684090e+01 8.473239563087846093e+00 1.959593189605664065e+02 2.001968086410363981e+02 -3.033065494737761369e+01 5.275876127483884659e+01 -2.484265352081962419e-01 -1.318335196137292655e+02 9.060084535142227935e+01 1.012221923375225288e+02 1.024384956795873336e+02 1.102516194261534821e+01 5.841862654869344595e+01 4.542484956871598456e+01 3.670160192299834989e+01 2.771160697601411371e+01 1.041043947034940089e+02 8.468400114120090905e+01 6.190841346796302247e+01 1.538638685156215615e+02 2.339055276351184318e+02 1.846303572760378700e+02 -5.582524940789831902e+01 4.650777824502764446e+01 -6.066907064655257642e+01 5.323393613801659541e+01 -1.814249381280106093e+02 5.333427341775589525e+01 -1.932810202644315325e+02 -1.592677112540819451e+02 1.222562972570212381e+01 -8.741519363023039446e+00 1.600280152480342508e+02 -1.963264758772071730e+02 7.106015995332501234e+01 2.169787983015382622e+02 -6.966643520607328277e+00 -1.838890307317474537e+02 3.355313561641215614e+01 1.861609803348875971e+02 -5.769335810268727727e+01 -2.516567439329522529e+02 -9.683691792527950781e+01 8.398000360810479847e+00 -2.172517178033168648e+02 3.028880871879566783e+01 -1.694626604991781846e+02 -1.752431717590665983e+02 -5.398975842225505062e+01 1.439841759975383582e+02 6.561356243113290532e+01 1.002837628363992373e+01 -8.376674867059826113e+01 -4.024996711601341559e+01 6.022465761830280684e+01 -2.193666126672699761e+02 5.112848775300081172e+01 -7.084018217017138852e+01 -7.385385151166435946e+01 -1.671180886730222710e+02 6.148350049583759613e+01 8.764261900047304721e+01 -1.534505249528924651e+02 1.633633082443672890e+02 -3.770727959885012126e+01 -1.599857532788883674e+01 8.286339159039624747e+01 1.478392629196459040e+02 2.055424478360337659e+01 1.432378866734151472e+02 -1.749704209735145355e+01 -8.579025687398126365e+01 -1.854647382224391094e+01 9.559788427411966438e+01 4.374044664855777853e+01 9.515010030377953854e+01 9.180262751883010708e+01 -8.081426039630011360e+01 -1.652705803111727221e+02 1.196897745234795707e+02 5.276398917233777297e+01 1.577929965792690226e+01 2.974017774882016951e+01 -6.607689234678004198e+01 9.342045572025386946e+01 8.742166526770559187e+01 -1.334552029615212732e+01 -6.932730932934018142e+01 2.988496057672216111e+01 6.113840617928195442e+00 -5.983840877930410329e+01 1.650201072417604848e+02 -3.196372341678576845e+01 1.183504076605832296e+02 -6.822647990652146177e+01 3.736632118057937646e+01 -3.511979325406812080e+01 8.711165956329317339e+01 2.285368548491093321e+01 1.125352177630613113e+02 -1.129733239800297611e+02 7.239725592048779390e+01 1.202404974013788603e+02 -4.352972540461843920e+01 7.438274730520546107e+00 -1.242407589542973056e+01 1.137852412572186722e+02 3.535939717951507966e+00 1.642865701026298950e+02 -1.377860407258098121e+02 1.136698468806180387e+02 -8.896189891362450908e+01 9.336355726694669954e+01 -1.335898822241342145e+02 2.876695014650120541e+01 2.413077740694692253e+01 1.742681228062664234e+00 3.540645192858011825e+01 4.483590291013119611e+01 -1.208293241481354130e+01 1.060686216201826326e+01 1.054213183135981922e+02 1.241085705683379103e+02 -8.457391781046425194e+01 -5.285371619812495680e+01 4.617750413874262705e+01 1.484297840329463103e+00 -1.336533099686679975e+02 -5.379590029972503373e+01 -3.456577137326327431e+01 4.772227506608710712e+01 -6.395894314201760267e+01 2.236814690269688910e+01 1.565743558698211757e+02 -7.758063330167797744e+01 7.893406606057706654e+01 8.210815527954477488e+01 1.100626016447679234e+01 1.206024547712033268e+02 6.144603378119515469e+01 1.642288908361530275e+02 -3.382248390362688895e+01 1.099287720658966094e+02 5.432489915031685968e+01 -1.571052640326416849e+01 1.996696400843996457e+02 -1.357791722815657067e+02 4.784183969410646142e+01 -1.835878200433585619e+02 -8.239632245081565998e+01 4.018273489445207503e+01 -7.071576629857378293e+01 -1.526035568359203580e+02 1.952589602408747282e+02 -8.403813950393248433e+01 -4.653555056762984776e+01 -4.534684862305991970e+01 1.193122763532715993e+02 1.908872973048351014e+02 6.346211297273711693e+01 1.433491632947209098e+02 2.151332941272204096e+02 -1.571781533536668496e+00 1.596754807494174599e+02 6.949162140809239929e+01 1.866565398442497781e+02 -1.233334096993055766e+02 -1.160973358426894286e+01 6.228881555735685360e+00 1.862163214983338833e+02 -8.908228803297112108e+01 -5.932786628206768853e+01 -5.189991041235730762e+01 -1.313882751310597996e+02 4.579116614894430448e+00 -9.895276812025758773e+01 1.511437738636533084e+02 2.308909302585480461e+01 1.175889163536808013e+01 7.089095546839799056e+01 -4.820544317719378746e+00 1.147047394746217179e+02 -1.557670058078534794e+02 4.453534806181438199e+01 -1.674639962668078397e+02 1.151291958016295354e+02 9.420772740594975403e+01 -6.597472638539647960e+01 4.587978584368633506e+01 2.334884799380837137e+02 -2.987586961749395797e+01 4.083816497079179442e+01 -3.204053011769387638e+01 5.681087141388838546e+01 6.301004056078834736e+01 -6.160024841021915165e+00 9.990339480263962457e+01 9.947489196106020870e+01 -1.900614264067256727e+02 -1.502244207082972309e+02 -1.174802055120702988e+02 -9.246442474658184807e+00 -1.468163201177721646e+02 1.132705327883175244e+02 1.081536467971732520e+02 5.783298848360568201e+01 1.094349257098740047e+01 1.545528030098764418e+02 8.229496870020784627e+01 6.616889512483828639e+01 -9.958458331469137192e+01 1.493775656306616213e+02 -3.527555032733824092e+00 1.071722745605074039e+02 8.644788602336374694e+00 3.600787245635491729e+01 -7.416842221849017847e+01 -8.891334917870676691e+01 7.014263235702635768e+01 -3.781127568544164319e+00 1.432381553673936878e+02 -1.230415000285511162e+01 -2.788123993155781299e+00 4.491612821444115866e+01 2.216344636729999706e+01 1.384978464165928074e+02 1.437723776419641730e+01 3.510707416893833965e+01 -1.514547475172496434e+02 6.444146431815092058e+01 1.308237049896370365e+02 -1.723309941981047544e+01 -2.231118770607981787e+02 8.257217030813229997e+01 1.331111294609802087e+02 1.989778380633027055e+01 1.846087315309453061e+02 -4.142682287015459153e+00 4.184601048710847948e+01 -4.255161934683385994e+01 -1.351810652118881535e+02 5.460963516855679956e+01 -4.627140192123667362e+01 -7.892413136202056023e+01 4.015425392273044025e+01 -1.799371538915304427e+02 6.977443341495445850e+01 1.600635807532943033e+02 -9.851248022892200140e+01 1.683400013256093644e+02 -9.496650937801993564e+01 -5.804533767577933823e+00 -1.025137941794635488e+01 7.452472786500725022e+01 -4.531921395678894982e+01 -1.047686283786739523e+02 -8.608866915297085143e+01 1.416537318867430884e+02 5.742295354769282767e+01 -1.280201759199836147e+02 4.295077946281329773e+00 4.215391111140679214e+01 8.014475603778329571e+01 -3.914564299435720329e+01 5.818901469779687829e+01 -6.693121556228241786e+01 -1.575044174968724917e+02 -3.359529757413255879e+01 1.367484619149333298e+02 -1.099999240972457955e+02 -6.200736487945346376e+00 -1.579546978433418474e+02 -4.685003345663872665e+00 -1.414556070936457388e+02 3.193240185357888450e+01 5.837221271770563646e+01 -4.878455619680595134e+01 -7.984052422421312656e+01 5.465962946668232902e+00 7.209884279737836721e+01 -6.566581277557541796e+01 1.304822426264319972e+02 1.022505650139237758e+02 -1.236305955525592850e+02 -1.021341399449209320e+02 1.307981146306387359e+02 6.904281455202956863e+01 1.454021050242378692e+02 9.683840701085327396e+01 7.852266558837104071e+01 -5.831940497366635867e+01 -7.908347047201485225e+01 -7.452804295201539730e+01 1.977560094943769116e+02 2.957691773710676841e+01 -2.408558266060028785e+01 -6.620741118991594476e+01 -4.826719731183242601e+01 -1.267952070075372859e+02 -1.591172492723183396e+01 -1.689316873724596064e+02 1.203715849565181486e+02 4.427100417791433529e+01 -1.109202391783254456e+02 -4.659533412062504709e+01 1.152657195646964254e+02 -9.330506586146951520e+01 9.898985582135163952e+01 -1.140410951414240799e+02 -1.133541746934442429e+01 -9.192630320590365045e+01 8.637461045467101428e+01 -4.087985758303125294e+01 9.889274064390834340e+00 2.824572350984321645e+01 -1.218739780167175155e+02 1.202764261766988341e+01 4.654194497370764338e+01 -2.151341386311482040e+01 -6.614491288834457805e+01 1.949124939955918592e+02 8.318359913481067736e+01 4.531996289963885260e+01 -3.021933958652246233e+01 7.716404218358594846e+01 1.612384459762209303e+02 -8.873207446186195568e+01 2.015076683920208325e+02 -1.280401365025154803e+02 -1.769052714591534254e+02 1.460113419198575571e+02 -2.250526004660108015e+02 -9.180863261494494054e-01 -2.355917008931442922e+02 -1.470566339209781290e+02 6.903347642086443159e+01 -1.400489667512927383e+02 5.614238357259977619e+01 1.057530350547238100e+02 -1.542158970800884674e+02 -2.894957158391762420e+01 7.253744143223026697e+01 1.288008067694720182e+02 -1.790141849454402916e+02 8.415303857869825777e+01 -9.422712899258523578e+01 -9.476749262696042564e+00 -1.332823004501890907e+01 -7.652741026042149031e+01 -8.684220707554901253e+01 1.744455892868386684e+02 -2.087883409085455000e+01 1.297378259432445002e+00 1.252857189035943151e+02 -8.343993490613516428e+01 -3.312650240380587263e+01 -1.036300597036572242e+02 -4.699312719155429363e+01 4.959496277420497812e+00 5.714995340966743953e+01 -1.301229827073800323e+02 2.285968147188463035e+02 -5.195707222896941602e+01 1.182774400869927263e+02 -4.710476384581127718e+01 1.155794821979955174e+02 1.343125074386373115e+02 4.629164894589145973e+01 1.178642928720086900e+02 -4.174172020651610637e+01 1.351772349969465665e+02 -1.511523013986790716e+02 -6.317427751339083386e+01 -6.083583155253437269e+01 2.470555352898346513e+01 -1.568107217803150206e+02 7.009374798370188842e+01 -2.980295260400936996e+01 -7.985932066166550669e+01 8.657086064965335481e+01 -1.460290071107101824e+02 -8.816607158924752241e+01 -5.088026522847926003e+01 3.196369072770270847e+01 1.254526738441416001e+02 1.129152673239937172e+02 6.677864801239230985e+01 -1.512939060321642160e+00 1.690392986058692770e+02 1.184170267150902447e+02 -9.131038772891147914e+01 -7.549464926261370579e+01 5.333129778372595098e+01 9.615894313117131276e+00 9.468847325393214476e+01 1.611372216229522678e+02 6.822517316843931212e+01 2.361788859830872056e+01 -9.878088753424805191e+01 1.659908613278201415e+02 -1.098326784886371570e+02 -1.596862730886989823e+02 6.350364459770282366e+01 1.077194295649235443e+02 1.898212033755732975e+01 -1.341203682505531276e+02 2.869850705959184722e+01 4.095804579112179766e+01 -3.459802068274406284e-01 1.264379507934580289e+02 9.438271403164391415e+01 1.652193302895786076e+01 7.563483835965145374e+01 -1.032470200422396687e+02 -6.139578122219305989e+00 9.492638598608375844e+01 2.865940388039058817e+01 -6.275987323354721070e+01 1.911371613995828227e+02 2.230204462629182842e+02 -1.210676101221379355e+02 -2.665813299327977504e+01 -2.027573005987837007e+02 -6.963012332064602106e+01 1.510214516139292016e+02 3.249649816148227011e+00 -6.846678336399838827e+01 1.579364959889712452e+02 -6.025913577311463598e+01 -1.548763309782044360e+02 1.316748848612754443e+02 -6.477964716675707280e+01 3.327326961103952385e+01 8.322798300337120736e+01 1.329521052512784429e+01 -2.296566885419147184e+02 4.079312241166900321e+01 -5.947620430032372951e+00 8.685637086927582118e+01 -2.271344893810278975e+01 9.744338038594936791e+01 1.637969213282779890e+01 -8.162113956185311281e+01 -1.974235853846731459e+01 -1.688818985968703714e+02 1.108036544749223395e+02 2.436426938393107378e+01 -4.010348749110539757e+01 -4.991670933882147665e+01 -6.062856004305550073e+01 3.963164867302146632e+01 1.548528345883803183e+02 1.278667840339702053e+02 4.147822391446436541e+01 -1.906656717537082955e+02 -3.738331574198634399e+01 4.222791782034030916e+01 1.130507684374787232e+02 8.401495840349755895e+01 1.487528362949458405e+01 -1.792431298489523499e+02 1.268757621551346091e+02 -2.155928802495216985e+02 -1.983116660177132076e+02 -1.762187809678272155e+00 -7.108007695593224184e+01 -2.324212274731274874e+01 8.394369090513920639e+01 5.388049973182098284e+01 -1.071352522659616255e+02 -1.459487629880144652e+02 1.404992374283553502e+01 1.191798989046802575e+02 1.991744521366920040e+01 -5.464198539004987509e+01 -4.977061969469681912e+01 -1.128521722544881989e+01 1.554932132318019740e+02 2.154917816765095750e+01 -1.704022190278172957e+02 1.258963312121377953e+02 -6.556082838967937221e+01 -4.094220912868811624e+00 1.510629223074968479e+02 -5.128567205835086185e+01 -1.922069625741169929e+01 -1.077615621018741479e+02 -5.886429421952375840e+00 -2.339350143562525730e+01 1.291722392310698524e+02 1.177816324788634432e+02 6.629547951248370907e+01 6.420239963912139558e+01 -1.835109218958698918e+01 1.325978640717235635e+02 -1.106236990021224642e+02 -4.173645323668715434e+00 -8.931846657609200690e+01 1.540986776013459689e+02 7.154283218081299367e+01 5.068461430522935274e+01 8.095989412765190352e+00 -5.228687909865236350e+01 3.372499217202659594e+01 6.598370563746279949e+00 3.582216219005786684e+00 2.363999986091540961e+01 5.863135607813082117e+01 1.669993989998906443e+02 -3.811564694389735308e+01 -5.097802189269171436e+01 6.551173490231025198e+01 1.134457399901693861e+02 -1.256932608143536712e+01 9.018748766385398596e+01 1.020923213527044311e+02 2.067385944054342133e+02 -8.487445046960584705e+01 -1.203096239058692305e+02 -2.809329941460718771e+01 6.096497822376526443e+01 -9.952381171649610891e+00 1.053326446484468732e+02 3.652621434757787711e+01 -1.594627765047612513e+02 4.417659590442103479e+01 -8.771124861806693218e+01 -1.326431896914734523e+02 1.318617629299223779e+02 -7.454995427149012244e+01 5.800779211398328528e+01 1.089599894316873048e+02 -9.702209292381058958e+01 2.303046053906950164e+01 -7.069167936664872798e+01 3.947304239884002186e+01 -1.123190111249070497e+02 6.034702324887362579e+01 5.356867588995320517e+01 3.797663259024826488e+00 8.230720272199062038e+01 -1.497335428041371870e+02 7.478762405390223478e+01 -2.869886263309905772e+01 -1.642552615573365813e+02 9.188605089736344667e+01 2.386637837006678708e+01 -1.906785973376815662e+02 2.287526654752644220e+02 -5.228911239943666578e-01 1.022427830362376682e+02 -1.172466055127494684e+02 -1.888049255649268900e+02 -9.072746105474226397e+01 2.428800270851704468e+00 1.389065811670312200e+02 3.860175571045560527e+00 -9.292269915008253633e+01 4.896186351541297199e+01 1.332369377863813611e+02 6.316272842818842292e+01 -5.028771012979495225e+01 -5.750391046846677767e+01 8.215694655472439933e+01 2.986917299759369371e+01 -1.901500632549393686e+02 -2.015494641488772842e+01 1.643303161483426038e+02 9.605513368124090334e+01 -5.574493385218364949e+01 -1.086981902102817941e+02 -4.148674831510295746e+01 -4.674593721412497871e+01 -1.112692597272820905e+02 -1.793182560626260269e+01 -4.439048930691600958e+01 -1.104630885749507740e+02 -1.282560908649319344e+02 -2.620539008520279012e+01 -1.221862273856240932e+02 -1.301137229895588519e+02 -3.726711932811909378e+01 -5.379383622677304544e+01 -1.079429858295807065e+02 1.874981847101352344e+02 1.059914149167830821e+01 -2.833185128182606860e+01 -1.712295279057316932e+01 7.923771436791491851e+01 1.576005587823866350e+01 2.522842534741734966e+01 -2.140290402188151830e+01 -4.661180560116297755e+01 2.106277807925164325e+01 -1.464307480624740663e+02 -1.603362918768486622e+02 -9.104257148270548328e+01 -1.922237622975915770e+02 -9.025801542864574856e+01 8.639029644366024741e+01 6.183175263591226667e+01 -2.623969297815423829e+01 6.120579601180702412e+01 -1.577090739528387928e+02 -4.116546846967378315e+01 -1.169810712895332188e+02 -6.722965211291369769e+01 2.125069158882185718e+02 -2.067682284719372774e+02 2.067449026034969108e+02 2.515031540785888708e+01 -5.685900982683060079e+01 9.287836918368297745e+01 1.249758208365557124e+02 -5.226156436159156726e+01 -2.052306417627887072e+02 -1.501722838298682063e+02 1.030192960831955702e+02 8.436347582080578889e+01 -1.365485673112505651e+02 3.216966954534391476e+01 -3.997088605010556961e+01 -7.796101523824624735e+01 -2.863230010039483631e+01 -5.521288544033439649e+01 -8.704923891344110132e+01 -3.430310164398489547e+01 4.546193956874677866e+00 -3.290732778080418086e+01 -3.782125537417621031e-01 -1.443045399909639137e+01 9.261271593252996581e+01 1.280285236571487246e+02 1.325645744159441897e+01 1.692152403837196317e+01 -6.359342586127127817e+01 -1.974764702876238118e+02 3.409433731141720614e+01 -9.238391349034641564e+01 2.602617202548850983e+01 -8.196736461218021574e+00 1.057086179651077318e+00 7.287246102808482817e+01 1.227732340778418205e+02 -7.099268120997301423e+01 3.827455017839704965e+01 -1.942886250248440376e+02 9.753058243387506820e+00 7.000759859417501119e+00 -1.234496148256311017e+02 -3.395885361745614972e+01 -4.464987862280260345e+01 4.800080334288768569e+00 -1.029864401538236507e+02 2.724803607281158691e+01 -9.835228965182278671e+01 5.647711533957625107e+01 6.835851113732613271e+01 3.716143646090699093e+01 -2.922585694242481580e+01 1.082472629505731021e+02 6.153018241417733947e+01 8.057597945288900121e+01 -6.748234378972759373e+01 2.040854483041980316e+01 1.287809629750530291e+02 -5.889760274597093570e+01 -6.965184901489821279e+00 3.220779888403035329e+01 -1.293010123081639620e+02 9.847439170583251666e+01 9.017876557117124037e+01 -1.018422866931504132e+02 -8.289450080311989666e+01 -5.589784861306874575e+01 -4.590991032089246460e+01 -1.612686373250434144e+02 -1.367738922850829795e+02 -1.333209246446548093e+02 1.063222547282098418e+02 6.016610040025531703e+01 1.605020613630588286e+02 7.247458988595949059e+00 -8.621207986554848901e+01 1.886010241374377117e+01 1.390854381624986580e+01 -6.391013775230157279e+01 7.446500269852440113e+01 1.187094129354332495e+02 1.002311480310178560e+01 1.441388807878191187e+02 2.261464356810439469e+01 1.115265203186552583e+02 1.515462375741037171e+01 -2.088335125518017890e+02 2.194644941453975093e+02 -4.917633229092589175e+01 -1.498035270340382112e+02 -6.750851593857412070e+01 -4.307647824197967878e+01 4.139829427705677745e+01 2.559429841325887622e+01 4.574227946945739376e+01 -7.404357502006874370e+01 1.222698801450755326e+02 -8.616429186832378662e+01 -7.002823104176139957e+00 1.421927672721833460e+02 1.093837382778753096e+02 5.789241541416933501e+01 -1.765735789568852283e+02 2.535979495171245901e+01 1.399525612661925891e+02 2.334763000597275351e+01 9.720952793733064823e+01 1.059683845557746906e+02 -2.104719295254891449e+02 7.653931829821001998e+01 -5.744787351861792501e+01 -2.236604270266157926e+02 8.795072501730884085e+01 2.439672612813953734e+01 -1.206395632407141534e+02 -5.781373168543535002e+01 1.368333524841912379e+02 1.452812654063627349e+02 -7.459007055093171346e+01 -1.255419895890896527e+02 -8.186823755624038768e+01 -1.625780472255857489e+02 1.916642083061427826e+01 3.712886839999413979e+01 -1.660328555401637018e+01 -1.209456257750807673e+01 -8.736133036036208921e+01 -8.611817237526119584e+01 -2.402001416724045058e+01 1.300655992336962470e+02 1.321520008175147041e+02 7.863443331490927335e+01 9.405224664082803088e+01 -7.600644694680630664e+01 -1.745966827975409217e+02 -1.275766800150109326e+01 -2.232922531182860837e+01 -6.852984069661924593e+01 1.436059106828558418e+00 7.047210874821853110e+01 -5.104166464907148537e+01 2.381146641119855900e+01 7.638037290382041533e+01 6.761895881347766135e+01 1.066238393558724056e+02 -1.438782412485310260e+02 3.823065819355925754e+01 8.035764482797543451e+01 9.139680084206617039e+01 5.695940415213387098e+01 -9.957341960193801356e+01 1.320689060366651120e+02 1.229543567165958819e+02 9.244629017139966720e+01 9.793294301444139194e+01 -8.122638878926188966e+01 -1.433584501882615569e+01 -1.248361373692181431e+01 7.431097415310476606e+01 6.266704086395836271e+01 5.401580741719664047e+01 9.410676951817981717e+01 1.123653803165432237e+02 1.195342878701073062e+02 -6.255703902487056212e+01 7.774778027166097161e+01 6.292082792167234118e+01 -1.134886957035985944e+02 1.269407552993253603e+02 -9.673337744128851057e+00 -2.694030903172895464e+01 1.922967357814053742e+02 8.539909511970230938e+01 1.197934846733516849e+02 -1.393444097757307816e+02 -1.523508002167137363e+02 -1.484198357213491306e+02 -1.179799610280326050e+02 -4.277737737863958500e+01 1.060643277718924224e+02 -1.629971962336332751e+02 3.142466334557371965e+01 1.395492778730294674e+02 -5.739126038075183089e+01 -8.834204279234890578e+01 -3.398127728491076738e+01 1.314478660879903771e+02 2.199467554647051486e+02 -6.454233539755327342e+01 1.918785768032380545e+01 -2.680255490268860896e+01 6.632551583598589673e+01 5.834348810420146236e+01 -2.065425873970953603e+02 -8.589927654786622213e+01 1.333093840885941290e+02 1.354649445523583893e+02 9.161757209581573136e+01 -4.829904564165239123e+01 -7.347172325136374127e+01 -4.400082053426869777e+01 -1.711927330177913404e+02 6.898270696299206861e+01 -2.487867164032848066e+01 1.613597747956055741e+02 -2.709906515703438146e+01 -3.051752554205380648e+02 1.405413552292686177e+02 4.874721126207311528e+01 -1.144445377338632852e+02 -2.151306410170438355e+01 3.425801055366170544e+01 -2.015501402516326834e+02 -1.108996575391309420e+02 -1.064076808018892564e+02 -5.474845495895993963e+01 6.094966119543168759e+01 -1.600230203589361224e+02 1.047526691186841816e+02 -5.273727269451539001e+01 2.837547048357702995e+00 -1.295423937021801066e+02 -1.006450765497229582e+02 1.707608110917716999e+02 8.416309841208081366e+01 -4.101653432190047255e+01 3.608578568842663259e+01 -2.724441815447634596e+01 4.204595873681346774e+01 -1.016332480353601255e+02 9.608313823260377262e+01 4.906020828566458647e+01 -1.155236004135159504e+02 1.134431758901211964e+02 -4.772800488103955985e+01 9.708314068793526985e+01 -4.800696028582636643e+01 8.588597305460585574e+01 -1.490900916569337085e+02 1.387209425765981052e+02 2.407120889340090386e+01 9.785164138386048194e+01 1.267939905542996826e+02 -1.425852974321620081e+02 -8.352388819951460164e+01 -1.027155867664319686e+02 6.502507253283100397e+01 -1.666359246672254244e+02 1.473707040385494054e+02 1.384623082103340437e+02 5.152655100750500594e+01 -8.257948484702764347e+01 5.550840776469601678e+01 -1.044084781788030369e+02 -1.063601787729255577e+01 3.402397431925357552e+01 -1.787658289649793346e+02 -7.936714319068877899e+01 -1.316926290266407307e+01 9.944124630780252971e+01 -4.886777280221394903e+01 1.058270205689681092e+02 -6.260718984221112038e+01 -2.051794967274237251e+02 -1.042487365123587892e+02 -3.313933311464930398e+01 -5.859004642183106881e+01 2.929461123429001290e+01 5.006260897388374076e+01 6.172444441441635732e+00 2.470719232457828696e+01 -1.142941505825277346e+02 5.247663031083970964e+01 3.179286799750425985e+01 -7.030356138377362640e+01 9.040097645620095435e+00 5.492792676093062454e+01 -9.297491709958060824e+01 -5.369486701366380288e+01 -2.355487008501561164e+01 9.511718277912844144e+01 -1.670045870712561609e+01 4.090061345603688281e+00 -2.224094225656320418e+02 -9.265615259118166591e+01 9.648028087625155536e+01 -8.696934725317660764e+01 3.056026953997073647e+01 3.029096430041882115e+01 3.697506492461911876e+01 6.445217843582321393e+01 -1.730904435036543418e+02 1.404458326987048054e+02 7.953287090259691183e+01 -7.349469967094118594e+00 -7.882858063222492717e+01 1.091467644904140997e+02 6.058360974725409420e+01 -1.962209653585886713e+02 -4.915074663643570574e+01 -7.972189181609178377e+01 -5.055550984617548238e+01 -6.041233309259936135e+01 -9.661860353558832060e+01 -5.889943101383065738e+01 1.868875503643789386e+02 -1.666266022389284842e+02 6.388917215735413180e+01 2.707587973387067848e+01 -7.337520620156131201e+01 1.014388297783881221e+01 -3.848317519691762811e+01 3.353616912546383944e+00 -9.383599433889472152e+01 -1.928276538243758580e+02 1.795384890318114657e+01 4.089462390263254576e+01 -1.248949896529548553e+01 -8.761701860323398705e+00 -3.882752696169712436e+01 -1.853700200129155178e+02 -2.990473468986884242e+01 -6.379871979173646679e+01 1.361176248191044280e+01 -1.524337173186250993e+01 8.842742425440208365e+01 -6.153864341781103064e+01 -1.012252008268078072e+02 -3.486006627990295215e+01 -8.773828011716398478e+00 4.437832088033374589e+01 -2.159960736680115190e+01 -7.205409421732343844e+01 -1.550471904330844275e+01 1.957492462554598944e+01 4.638123179072321989e+01 -1.113053752323484957e+02 -1.357526824584607255e+02 2.249391085172414364e+02 -2.131678578663795065e+02 -7.415299004375081893e+01 -4.524082375848708892e+01 1.365809949924008322e+02 6.179878473578397546e+01 2.235759370006144025e+02 2.390559735361620142e+02 -6.090402442969020314e+01 1.264374301905821198e+02 -5.471180433219432615e+01 -3.987085029709452755e+01 -9.828585225811026760e+01 -7.798500898691148109e+01 -6.793360281246363286e+01 -8.695164620698386670e+01 -2.381274320055363489e+02 -2.645665572305753699e+02 1.315598040633317396e+02 -2.592431892006795735e+01 5.203543052032944161e+01 1.278728266101965971e+02
