# 
#                 ----------------------------------------------------
#                 Data from a 3D direct N-body simulation. 
# 
#                 rows are i-particle; 
#                 coumns are :mass, tag, x ,y, z, vx, vy, vz, ax, ay, az
# 
#                 NTHU, Computational Physics Lab
# 
#                 ----------------------------------------------------
#                 Time = 1.6000000000000012
1.000000000000000000e+00 2.000000000000000000e+00 3.000000000000000000e+00 4.000000000000000000e+00 5.000000000000000000e+00 6.000000000000000000e+00 7.000000000000000000e+00 8.000000000000000000e+00 9.000000000000000000e+00 1.000000000000000000e+01 1.100000000000000000e+01 1.200000000000000000e+01 1.300000000000000000e+01 1.400000000000000000e+01 1.500000000000000000e+01 1.600000000000000000e+01 1.700000000000000000e+01 1.800000000000000000e+01 1.900000000000000000e+01 2.000000000000000000e+01 2.100000000000000000e+01 2.200000000000000000e+01 2.300000000000000000e+01 2.400000000000000000e+01 2.500000000000000000e+01 2.600000000000000000e+01 2.700000000000000000e+01 2.800000000000000000e+01 2.900000000000000000e+01 3.000000000000000000e+01 3.100000000000000000e+01 3.200000000000000000e+01 3.300000000000000000e+01 3.400000000000000000e+01 3.500000000000000000e+01 3.600000000000000000e+01 3.700000000000000000e+01 3.800000000000000000e+01 3.900000000000000000e+01 4.000000000000000000e+01 4.100000000000000000e+01 4.200000000000000000e+01 4.300000000000000000e+01 4.400000000000000000e+01 4.500000000000000000e+01 4.600000000000000000e+01 4.700000000000000000e+01 4.800000000000000000e+01 4.900000000000000000e+01 5.000000000000000000e+01 5.100000000000000000e+01 5.200000000000000000e+01 5.300000000000000000e+01 5.400000000000000000e+01 5.500000000000000000e+01 5.600000000000000000e+01 5.700000000000000000e+01 5.800000000000000000e+01 5.900000000000000000e+01 6.000000000000000000e+01 6.100000000000000000e+01 6.200000000000000000e+01 6.300000000000000000e+01 6.400000000000000000e+01 6.500000000000000000e+01 6.600000000000000000e+01 6.700000000000000000e+01 6.800000000000000000e+01 6.900000000000000000e+01 7.000000000000000000e+01 7.100000000000000000e+01 7.200000000000000000e+01 7.300000000000000000e+01 7.400000000000000000e+01 7.500000000000000000e+01 7.600000000000000000e+01 7.700000000000000000e+01 7.800000000000000000e+01 7.900000000000000000e+01 8.000000000000000000e+01 8.100000000000000000e+01 8.200000000000000000e+01 8.300000000000000000e+01 8.400000000000000000e+01 8.500000000000000000e+01 8.600000000000000000e+01 8.700000000000000000e+01 8.800000000000000000e+01 8.900000000000000000e+01 9.000000000000000000e+01 9.100000000000000000e+01 9.200000000000000000e+01 9.300000000000000000e+01 9.400000000000000000e+01 9.500000000000000000e+01 9.600000000000000000e+01 9.700000000000000000e+01 9.800000000000000000e+01 9.900000000000000000e+01 1.000000000000000000e+02 1.010000000000000000e+02 1.020000000000000000e+02 1.030000000000000000e+02 1.040000000000000000e+02 1.050000000000000000e+02 1.060000000000000000e+02 1.070000000000000000e+02 1.080000000000000000e+02 1.090000000000000000e+02 1.100000000000000000e+02 1.110000000000000000e+02 1.120000000000000000e+02 1.130000000000000000e+02 1.140000000000000000e+02 1.150000000000000000e+02 1.160000000000000000e+02 1.170000000000000000e+02 1.180000000000000000e+02 1.190000000000000000e+02 1.200000000000000000e+02 1.210000000000000000e+02 1.220000000000000000e+02 1.230000000000000000e+02 1.240000000000000000e+02 1.250000000000000000e+02 1.260000000000000000e+02 1.270000000000000000e+02 1.280000000000000000e+02 1.290000000000000000e+02 1.300000000000000000e+02 1.310000000000000000e+02 1.320000000000000000e+02 1.330000000000000000e+02 1.340000000000000000e+02 1.350000000000000000e+02 1.360000000000000000e+02 1.370000000000000000e+02 1.380000000000000000e+02 1.390000000000000000e+02 1.400000000000000000e+02 1.410000000000000000e+02 1.420000000000000000e+02 1.430000000000000000e+02 1.440000000000000000e+02 1.450000000000000000e+02 1.460000000000000000e+02 1.470000000000000000e+02 1.480000000000000000e+02 1.490000000000000000e+02 1.500000000000000000e+02 1.510000000000000000e+02 1.520000000000000000e+02 1.530000000000000000e+02 1.540000000000000000e+02 1.550000000000000000e+02 1.560000000000000000e+02 1.570000000000000000e+02 1.580000000000000000e+02 1.590000000000000000e+02 1.600000000000000000e+02 1.610000000000000000e+02 1.620000000000000000e+02 1.630000000000000000e+02 1.640000000000000000e+02 1.650000000000000000e+02 1.660000000000000000e+02 1.670000000000000000e+02 1.680000000000000000e+02 1.690000000000000000e+02 1.700000000000000000e+02 1.710000000000000000e+02 1.720000000000000000e+02 1.730000000000000000e+02 1.740000000000000000e+02 1.750000000000000000e+02 1.760000000000000000e+02 1.770000000000000000e+02 1.780000000000000000e+02 1.790000000000000000e+02 1.800000000000000000e+02 1.810000000000000000e+02 1.820000000000000000e+02 1.830000000000000000e+02 1.840000000000000000e+02 1.850000000000000000e+02 1.860000000000000000e+02 1.870000000000000000e+02 1.880000000000000000e+02 1.890000000000000000e+02 1.900000000000000000e+02 1.910000000000000000e+02 1.920000000000000000e+02 1.930000000000000000e+02 1.940000000000000000e+02 1.950000000000000000e+02 1.960000000000000000e+02 1.970000000000000000e+02 1.980000000000000000e+02 1.990000000000000000e+02 2.000000000000000000e+02 2.010000000000000000e+02 2.020000000000000000e+02 2.030000000000000000e+02 2.040000000000000000e+02 2.050000000000000000e+02 2.060000000000000000e+02 2.070000000000000000e+02 2.080000000000000000e+02 2.090000000000000000e+02 2.100000000000000000e+02 2.110000000000000000e+02 2.120000000000000000e+02 2.130000000000000000e+02 2.140000000000000000e+02 2.150000000000000000e+02 2.160000000000000000e+02 2.170000000000000000e+02 2.180000000000000000e+02 2.190000000000000000e+02 2.200000000000000000e+02 2.210000000000000000e+02 2.220000000000000000e+02 2.230000000000000000e+02 2.240000000000000000e+02 2.250000000000000000e+02 2.260000000000000000e+02 2.270000000000000000e+02 2.280000000000000000e+02 2.290000000000000000e+02 2.300000000000000000e+02 2.310000000000000000e+02 2.320000000000000000e+02 2.330000000000000000e+02 2.340000000000000000e+02 2.350000000000000000e+02 2.360000000000000000e+02 2.370000000000000000e+02 2.380000000000000000e+02 2.390000000000000000e+02 2.400000000000000000e+02 2.410000000000000000e+02 2.420000000000000000e+02 2.430000000000000000e+02 2.440000000000000000e+02 2.450000000000000000e+02 2.460000000000000000e+02 2.470000000000000000e+02 2.480000000000000000e+02 2.490000000000000000e+02 2.500000000000000000e+02 2.510000000000000000e+02 2.520000000000000000e+02 2.530000000000000000e+02 2.540000000000000000e+02 2.550000000000000000e+02 2.560000000000000000e+02 2.570000000000000000e+02 2.580000000000000000e+02 2.590000000000000000e+02 2.600000000000000000e+02 2.610000000000000000e+02 2.620000000000000000e+02 2.630000000000000000e+02 2.640000000000000000e+02 2.650000000000000000e+02 2.660000000000000000e+02 2.670000000000000000e+02 2.680000000000000000e+02 2.690000000000000000e+02 2.700000000000000000e+02 2.710000000000000000e+02 2.720000000000000000e+02 2.730000000000000000e+02 2.740000000000000000e+02 2.750000000000000000e+02 2.760000000000000000e+02 2.770000000000000000e+02 2.780000000000000000e+02 2.790000000000000000e+02 2.800000000000000000e+02 2.810000000000000000e+02 2.820000000000000000e+02 2.830000000000000000e+02 2.840000000000000000e+02 2.850000000000000000e+02 2.860000000000000000e+02 2.870000000000000000e+02 2.880000000000000000e+02 2.890000000000000000e+02 2.900000000000000000e+02 2.910000000000000000e+02 2.920000000000000000e+02 2.930000000000000000e+02 2.940000000000000000e+02 2.950000000000000000e+02 2.960000000000000000e+02 2.970000000000000000e+02 2.980000000000000000e+02 2.990000000000000000e+02 3.000000000000000000e+02 3.010000000000000000e+02 3.020000000000000000e+02 3.030000000000000000e+02 3.040000000000000000e+02 3.050000000000000000e+02 3.060000000000000000e+02 3.070000000000000000e+02 3.080000000000000000e+02 3.090000000000000000e+02 3.100000000000000000e+02 3.110000000000000000e+02 3.120000000000000000e+02 3.130000000000000000e+02 3.140000000000000000e+02 3.150000000000000000e+02 3.160000000000000000e+02 3.170000000000000000e+02 3.180000000000000000e+02 3.190000000000000000e+02 3.200000000000000000e+02 3.210000000000000000e+02 3.220000000000000000e+02 3.230000000000000000e+02 3.240000000000000000e+02 3.250000000000000000e+02 3.260000000000000000e+02 3.270000000000000000e+02 3.280000000000000000e+02 3.290000000000000000e+02 3.300000000000000000e+02 3.310000000000000000e+02 3.320000000000000000e+02 3.330000000000000000e+02 3.340000000000000000e+02 3.350000000000000000e+02 3.360000000000000000e+02 3.370000000000000000e+02 3.380000000000000000e+02 3.390000000000000000e+02 3.400000000000000000e+02 3.410000000000000000e+02 3.420000000000000000e+02 3.430000000000000000e+02 3.440000000000000000e+02 3.450000000000000000e+02 3.460000000000000000e+02 3.470000000000000000e+02 3.480000000000000000e+02 3.490000000000000000e+02 3.500000000000000000e+02 3.510000000000000000e+02 3.520000000000000000e+02 3.530000000000000000e+02 3.540000000000000000e+02 3.550000000000000000e+02 3.560000000000000000e+02 3.570000000000000000e+02 3.580000000000000000e+02 3.590000000000000000e+02 3.600000000000000000e+02 3.610000000000000000e+02 3.620000000000000000e+02 3.630000000000000000e+02 3.640000000000000000e+02 3.650000000000000000e+02 3.660000000000000000e+02 3.670000000000000000e+02 3.680000000000000000e+02 3.690000000000000000e+02 3.700000000000000000e+02 3.710000000000000000e+02 3.720000000000000000e+02 3.730000000000000000e+02 3.740000000000000000e+02 3.750000000000000000e+02 3.760000000000000000e+02 3.770000000000000000e+02 3.780000000000000000e+02 3.790000000000000000e+02 3.800000000000000000e+02 3.810000000000000000e+02 3.820000000000000000e+02 3.830000000000000000e+02 3.840000000000000000e+02 3.850000000000000000e+02 3.860000000000000000e+02 3.870000000000000000e+02 3.880000000000000000e+02 3.890000000000000000e+02 3.900000000000000000e+02 3.910000000000000000e+02 3.920000000000000000e+02 3.930000000000000000e+02 3.940000000000000000e+02 3.950000000000000000e+02 3.960000000000000000e+02 3.970000000000000000e+02 3.980000000000000000e+02 3.990000000000000000e+02 4.000000000000000000e+02 4.010000000000000000e+02 4.020000000000000000e+02 4.030000000000000000e+02 4.040000000000000000e+02 4.050000000000000000e+02 4.060000000000000000e+02 4.070000000000000000e+02 4.080000000000000000e+02 4.090000000000000000e+02 4.100000000000000000e+02 4.110000000000000000e+02 4.120000000000000000e+02 4.130000000000000000e+02 4.140000000000000000e+02 4.150000000000000000e+02 4.160000000000000000e+02 4.170000000000000000e+02 4.180000000000000000e+02 4.190000000000000000e+02 4.200000000000000000e+02 4.210000000000000000e+02 4.220000000000000000e+02 4.230000000000000000e+02 4.240000000000000000e+02 4.250000000000000000e+02 4.260000000000000000e+02 4.270000000000000000e+02 4.280000000000000000e+02 4.290000000000000000e+02 4.300000000000000000e+02 4.310000000000000000e+02 4.320000000000000000e+02 4.330000000000000000e+02 4.340000000000000000e+02 4.350000000000000000e+02 4.360000000000000000e+02 4.370000000000000000e+02 4.380000000000000000e+02 4.390000000000000000e+02 4.400000000000000000e+02 4.410000000000000000e+02 4.420000000000000000e+02 4.430000000000000000e+02 4.440000000000000000e+02 4.450000000000000000e+02 4.460000000000000000e+02 4.470000000000000000e+02 4.480000000000000000e+02 4.490000000000000000e+02 4.500000000000000000e+02 4.510000000000000000e+02 4.520000000000000000e+02 4.530000000000000000e+02 4.540000000000000000e+02 4.550000000000000000e+02 4.560000000000000000e+02 4.570000000000000000e+02 4.580000000000000000e+02 4.590000000000000000e+02 4.600000000000000000e+02 4.610000000000000000e+02 4.620000000000000000e+02 4.630000000000000000e+02 4.640000000000000000e+02 4.650000000000000000e+02 4.660000000000000000e+02 4.670000000000000000e+02 4.680000000000000000e+02 4.690000000000000000e+02 4.700000000000000000e+02 4.710000000000000000e+02 4.720000000000000000e+02 4.730000000000000000e+02 4.740000000000000000e+02 4.750000000000000000e+02 4.760000000000000000e+02 4.770000000000000000e+02 4.780000000000000000e+02 4.790000000000000000e+02 4.800000000000000000e+02 4.810000000000000000e+02 4.820000000000000000e+02 4.830000000000000000e+02 4.840000000000000000e+02 4.850000000000000000e+02 4.860000000000000000e+02 4.870000000000000000e+02 4.880000000000000000e+02 4.890000000000000000e+02 4.900000000000000000e+02 4.910000000000000000e+02 4.920000000000000000e+02 4.930000000000000000e+02 4.940000000000000000e+02 4.950000000000000000e+02 4.960000000000000000e+02 4.970000000000000000e+02 4.980000000000000000e+02 4.990000000000000000e+02 5.000000000000000000e+02 5.010000000000000000e+02 5.020000000000000000e+02 5.030000000000000000e+02 5.040000000000000000e+02 5.050000000000000000e+02 5.060000000000000000e+02 5.070000000000000000e+02 5.080000000000000000e+02 5.090000000000000000e+02 5.100000000000000000e+02 5.110000000000000000e+02 5.120000000000000000e+02 5.130000000000000000e+02 5.140000000000000000e+02 5.150000000000000000e+02 5.160000000000000000e+02 5.170000000000000000e+02 5.180000000000000000e+02 5.190000000000000000e+02 5.200000000000000000e+02 5.210000000000000000e+02 5.220000000000000000e+02 5.230000000000000000e+02 5.240000000000000000e+02 5.250000000000000000e+02 5.260000000000000000e+02 5.270000000000000000e+02 5.280000000000000000e+02 5.290000000000000000e+02 5.300000000000000000e+02 5.310000000000000000e+02 5.320000000000000000e+02 5.330000000000000000e+02 5.340000000000000000e+02 5.350000000000000000e+02 5.360000000000000000e+02 5.370000000000000000e+02 5.380000000000000000e+02 5.390000000000000000e+02 5.400000000000000000e+02 5.410000000000000000e+02 5.420000000000000000e+02 5.430000000000000000e+02 5.440000000000000000e+02 5.450000000000000000e+02 5.460000000000000000e+02 5.470000000000000000e+02 5.480000000000000000e+02 5.490000000000000000e+02 5.500000000000000000e+02 5.510000000000000000e+02 5.520000000000000000e+02 5.530000000000000000e+02 5.540000000000000000e+02 5.550000000000000000e+02 5.560000000000000000e+02 5.570000000000000000e+02 5.580000000000000000e+02 5.590000000000000000e+02 5.600000000000000000e+02 5.610000000000000000e+02 5.620000000000000000e+02 5.630000000000000000e+02 5.640000000000000000e+02 5.650000000000000000e+02 5.660000000000000000e+02 5.670000000000000000e+02 5.680000000000000000e+02 5.690000000000000000e+02 5.700000000000000000e+02 5.710000000000000000e+02 5.720000000000000000e+02 5.730000000000000000e+02 5.740000000000000000e+02 5.750000000000000000e+02 5.760000000000000000e+02 5.770000000000000000e+02 5.780000000000000000e+02 5.790000000000000000e+02 5.800000000000000000e+02 5.810000000000000000e+02 5.820000000000000000e+02 5.830000000000000000e+02 5.840000000000000000e+02 5.850000000000000000e+02 5.860000000000000000e+02 5.870000000000000000e+02 5.880000000000000000e+02 5.890000000000000000e+02 5.900000000000000000e+02 5.910000000000000000e+02 5.920000000000000000e+02 5.930000000000000000e+02 5.940000000000000000e+02 5.950000000000000000e+02 5.960000000000000000e+02 5.970000000000000000e+02 5.980000000000000000e+02 5.990000000000000000e+02 6.000000000000000000e+02 6.010000000000000000e+02 6.020000000000000000e+02 6.030000000000000000e+02 6.040000000000000000e+02 6.050000000000000000e+02 6.060000000000000000e+02 6.070000000000000000e+02 6.080000000000000000e+02 6.090000000000000000e+02 6.100000000000000000e+02 6.110000000000000000e+02 6.120000000000000000e+02 6.130000000000000000e+02 6.140000000000000000e+02 6.150000000000000000e+02 6.160000000000000000e+02 6.170000000000000000e+02 6.180000000000000000e+02 6.190000000000000000e+02 6.200000000000000000e+02 6.210000000000000000e+02 6.220000000000000000e+02 6.230000000000000000e+02 6.240000000000000000e+02 6.250000000000000000e+02 6.260000000000000000e+02 6.270000000000000000e+02 6.280000000000000000e+02 6.290000000000000000e+02 6.300000000000000000e+02 6.310000000000000000e+02 6.320000000000000000e+02 6.330000000000000000e+02 6.340000000000000000e+02 6.350000000000000000e+02 6.360000000000000000e+02 6.370000000000000000e+02 6.380000000000000000e+02 6.390000000000000000e+02 6.400000000000000000e+02 6.410000000000000000e+02 6.420000000000000000e+02 6.430000000000000000e+02 6.440000000000000000e+02 6.450000000000000000e+02 6.460000000000000000e+02 6.470000000000000000e+02 6.480000000000000000e+02 6.490000000000000000e+02 6.500000000000000000e+02 6.510000000000000000e+02 6.520000000000000000e+02 6.530000000000000000e+02 6.540000000000000000e+02 6.550000000000000000e+02 6.560000000000000000e+02 6.570000000000000000e+02 6.580000000000000000e+02 6.590000000000000000e+02 6.600000000000000000e+02 6.610000000000000000e+02 6.620000000000000000e+02 6.630000000000000000e+02 6.640000000000000000e+02 6.650000000000000000e+02 6.660000000000000000e+02 6.670000000000000000e+02 6.680000000000000000e+02 6.690000000000000000e+02 6.700000000000000000e+02 6.710000000000000000e+02 6.720000000000000000e+02 6.730000000000000000e+02 6.740000000000000000e+02 6.750000000000000000e+02 6.760000000000000000e+02 6.770000000000000000e+02 6.780000000000000000e+02 6.790000000000000000e+02 6.800000000000000000e+02 6.810000000000000000e+02 6.820000000000000000e+02 6.830000000000000000e+02 6.840000000000000000e+02 6.850000000000000000e+02 6.860000000000000000e+02 6.870000000000000000e+02 6.880000000000000000e+02 6.890000000000000000e+02 6.900000000000000000e+02 6.910000000000000000e+02 6.920000000000000000e+02 6.930000000000000000e+02 6.940000000000000000e+02 6.950000000000000000e+02 6.960000000000000000e+02 6.970000000000000000e+02 6.980000000000000000e+02 6.990000000000000000e+02 7.000000000000000000e+02 7.010000000000000000e+02 7.020000000000000000e+02 7.030000000000000000e+02 7.040000000000000000e+02 7.050000000000000000e+02 7.060000000000000000e+02 7.070000000000000000e+02 7.080000000000000000e+02 7.090000000000000000e+02 7.100000000000000000e+02 7.110000000000000000e+02 7.120000000000000000e+02 7.130000000000000000e+02 7.140000000000000000e+02 7.150000000000000000e+02 7.160000000000000000e+02 7.170000000000000000e+02 7.180000000000000000e+02 7.190000000000000000e+02 7.200000000000000000e+02 7.210000000000000000e+02 7.220000000000000000e+02 7.230000000000000000e+02 7.240000000000000000e+02 7.250000000000000000e+02 7.260000000000000000e+02 7.270000000000000000e+02 7.280000000000000000e+02 7.290000000000000000e+02 7.300000000000000000e+02 7.310000000000000000e+02 7.320000000000000000e+02 7.330000000000000000e+02 7.340000000000000000e+02 7.350000000000000000e+02 7.360000000000000000e+02 7.370000000000000000e+02 7.380000000000000000e+02 7.390000000000000000e+02 7.400000000000000000e+02 7.410000000000000000e+02 7.420000000000000000e+02 7.430000000000000000e+02 7.440000000000000000e+02 7.450000000000000000e+02 7.460000000000000000e+02 7.470000000000000000e+02 7.480000000000000000e+02 7.490000000000000000e+02 7.500000000000000000e+02 7.510000000000000000e+02 7.520000000000000000e+02 7.530000000000000000e+02 7.540000000000000000e+02 7.550000000000000000e+02 7.560000000000000000e+02 7.570000000000000000e+02 7.580000000000000000e+02 7.590000000000000000e+02 7.600000000000000000e+02 7.610000000000000000e+02 7.620000000000000000e+02 7.630000000000000000e+02 7.640000000000000000e+02 7.650000000000000000e+02 7.660000000000000000e+02 7.670000000000000000e+02 7.680000000000000000e+02 7.690000000000000000e+02 7.700000000000000000e+02 7.710000000000000000e+02 7.720000000000000000e+02 7.730000000000000000e+02 7.740000000000000000e+02 7.750000000000000000e+02 7.760000000000000000e+02 7.770000000000000000e+02 7.780000000000000000e+02 7.790000000000000000e+02 7.800000000000000000e+02 7.810000000000000000e+02 7.820000000000000000e+02 7.830000000000000000e+02 7.840000000000000000e+02 7.850000000000000000e+02 7.860000000000000000e+02 7.870000000000000000e+02 7.880000000000000000e+02 7.890000000000000000e+02 7.900000000000000000e+02 7.910000000000000000e+02 7.920000000000000000e+02 7.930000000000000000e+02 7.940000000000000000e+02 7.950000000000000000e+02 7.960000000000000000e+02 7.970000000000000000e+02 7.980000000000000000e+02 7.990000000000000000e+02 8.000000000000000000e+02 8.010000000000000000e+02 8.020000000000000000e+02 8.030000000000000000e+02 8.040000000000000000e+02 8.050000000000000000e+02 8.060000000000000000e+02 8.070000000000000000e+02 8.080000000000000000e+02 8.090000000000000000e+02 8.100000000000000000e+02 8.110000000000000000e+02 8.120000000000000000e+02 8.130000000000000000e+02 8.140000000000000000e+02 8.150000000000000000e+02 8.160000000000000000e+02 8.170000000000000000e+02 8.180000000000000000e+02 8.190000000000000000e+02 8.200000000000000000e+02 8.210000000000000000e+02 8.220000000000000000e+02 8.230000000000000000e+02 8.240000000000000000e+02 8.250000000000000000e+02 8.260000000000000000e+02 8.270000000000000000e+02 8.280000000000000000e+02 8.290000000000000000e+02 8.300000000000000000e+02 8.310000000000000000e+02 8.320000000000000000e+02 8.330000000000000000e+02 8.340000000000000000e+02 8.350000000000000000e+02 8.360000000000000000e+02 8.370000000000000000e+02 8.380000000000000000e+02 8.390000000000000000e+02 8.400000000000000000e+02 8.410000000000000000e+02 8.420000000000000000e+02 8.430000000000000000e+02 8.440000000000000000e+02 8.450000000000000000e+02 8.460000000000000000e+02 8.470000000000000000e+02 8.480000000000000000e+02 8.490000000000000000e+02 8.500000000000000000e+02 8.510000000000000000e+02 8.520000000000000000e+02 8.530000000000000000e+02 8.540000000000000000e+02 8.550000000000000000e+02 8.560000000000000000e+02 8.570000000000000000e+02 8.580000000000000000e+02 8.590000000000000000e+02 8.600000000000000000e+02 8.610000000000000000e+02 8.620000000000000000e+02 8.630000000000000000e+02 8.640000000000000000e+02 8.650000000000000000e+02 8.660000000000000000e+02 8.670000000000000000e+02 8.680000000000000000e+02 8.690000000000000000e+02 8.700000000000000000e+02 8.710000000000000000e+02 8.720000000000000000e+02 8.730000000000000000e+02 8.740000000000000000e+02 8.750000000000000000e+02 8.760000000000000000e+02 8.770000000000000000e+02 8.780000000000000000e+02 8.790000000000000000e+02 8.800000000000000000e+02 8.810000000000000000e+02 8.820000000000000000e+02 8.830000000000000000e+02 8.840000000000000000e+02 8.850000000000000000e+02 8.860000000000000000e+02 8.870000000000000000e+02 8.880000000000000000e+02 8.890000000000000000e+02 8.900000000000000000e+02 8.910000000000000000e+02 8.920000000000000000e+02 8.930000000000000000e+02 8.940000000000000000e+02 8.950000000000000000e+02 8.960000000000000000e+02 8.970000000000000000e+02 8.980000000000000000e+02 8.990000000000000000e+02 9.000000000000000000e+02 9.010000000000000000e+02 9.020000000000000000e+02 9.030000000000000000e+02 9.040000000000000000e+02 9.050000000000000000e+02 9.060000000000000000e+02 9.070000000000000000e+02 9.080000000000000000e+02 9.090000000000000000e+02 9.100000000000000000e+02 9.110000000000000000e+02 9.120000000000000000e+02 9.130000000000000000e+02 9.140000000000000000e+02 9.150000000000000000e+02 9.160000000000000000e+02 9.170000000000000000e+02 9.180000000000000000e+02 9.190000000000000000e+02 9.200000000000000000e+02 9.210000000000000000e+02 9.220000000000000000e+02 9.230000000000000000e+02 9.240000000000000000e+02 9.250000000000000000e+02 9.260000000000000000e+02 9.270000000000000000e+02 9.280000000000000000e+02 9.290000000000000000e+02 9.300000000000000000e+02 9.310000000000000000e+02 9.320000000000000000e+02 9.330000000000000000e+02 9.340000000000000000e+02 9.350000000000000000e+02 9.360000000000000000e+02 9.370000000000000000e+02 9.380000000000000000e+02 9.390000000000000000e+02 9.400000000000000000e+02 9.410000000000000000e+02 9.420000000000000000e+02 9.430000000000000000e+02 9.440000000000000000e+02 9.450000000000000000e+02 9.460000000000000000e+02 9.470000000000000000e+02 9.480000000000000000e+02 9.490000000000000000e+02 9.500000000000000000e+02 9.510000000000000000e+02 9.520000000000000000e+02 9.530000000000000000e+02 9.540000000000000000e+02 9.550000000000000000e+02 9.560000000000000000e+02 9.570000000000000000e+02 9.580000000000000000e+02 9.590000000000000000e+02 9.600000000000000000e+02 9.610000000000000000e+02 9.620000000000000000e+02 9.630000000000000000e+02 9.640000000000000000e+02 9.650000000000000000e+02 9.660000000000000000e+02 9.670000000000000000e+02 9.680000000000000000e+02 9.690000000000000000e+02 9.700000000000000000e+02 9.710000000000000000e+02 9.720000000000000000e+02 9.730000000000000000e+02 9.740000000000000000e+02 9.750000000000000000e+02 9.760000000000000000e+02 9.770000000000000000e+02 9.780000000000000000e+02 9.790000000000000000e+02 9.800000000000000000e+02 9.810000000000000000e+02 9.820000000000000000e+02 9.830000000000000000e+02 9.840000000000000000e+02 9.850000000000000000e+02 9.860000000000000000e+02 9.870000000000000000e+02 9.880000000000000000e+02 9.890000000000000000e+02 9.900000000000000000e+02 9.910000000000000000e+02 9.920000000000000000e+02 9.930000000000000000e+02 9.940000000000000000e+02 9.950000000000000000e+02 9.960000000000000000e+02 9.970000000000000000e+02 9.980000000000000000e+02 9.990000000000000000e+02 1.000000000000000000e+03
1.000000000000000021e-02 1.000000000000000021e-02 1.000000000000000021e-02 1.000000000000000021e-02 1.000000000000000021e-02 1.000000000000000021e-02 1.000000000000000021e-02 1.000000000000000021e-02 1.000000000000000021e-02 1.000000000000000021e-02 1.000000000000000021e-02 1.000000000000000021e-02 1.000000000000000021e-02 1.000000000000000021e-02 1.000000000000000021e-02 1.000000000000000021e-02 1.000000000000000021e-02 1.000000000000000021e-02 1.000000000000000021e-02 1.000000000000000021e-02 1.000000000000000021e-02 1.000000000000000021e-02 1.000000000000000021e-02 1.000000000000000021e-02 1.000000000000000021e-02 1.000000000000000021e-02 1.000000000000000021e-02 1.000000000000000021e-02 1.000000000000000021e-02 1.000000000000000021e-02 1.000000000000000021e-02 1.000000000000000021e-02 1.000000000000000021e-02 1.000000000000000021e-02 1.000000000000000021e-02 1.000000000000000021e-02 1.000000000000000021e-02 1.000000000000000021e-02 1.000000000000000021e-02 1.000000000000000021e-02 1.000000000000000021e-02 1.000000000000000021e-02 1.000000000000000021e-02 1.000000000000000021e-02 1.000000000000000021e-02 1.000000000000000021e-02 1.000000000000000021e-02 1.000000000000000021e-02 1.000000000000000021e-02 1.000000000000000021e-02 1.000000000000000021e-02 1.000000000000000021e-02 1.000000000000000021e-02 1.000000000000000021e-02 1.000000000000000021e-02 1.000000000000000021e-02 1.000000000000000021e-02 1.000000000000000021e-02 1.000000000000000021e-02 1.000000000000000021e-02 1.000000000000000021e-02 1.000000000000000021e-02 1.000000000000000021e-02 1.000000000000000021e-02 1.000000000000000021e-02 1.000000000000000021e-02 1.000000000000000021e-02 1.000000000000000021e-02 1.000000000000000021e-02 1.000000000000000021e-02 1.000000000000000021e-02 1.000000000000000021e-02 1.000000000000000021e-02 1.000000000000000021e-02 1.000000000000000021e-02 1.000000000000000021e-02 1.000000000000000021e-02 1.000000000000000021e-02 1.000000000000000021e-02 1.000000000000000021e-02 1.000000000000000021e-02 1.000000000000000021e-02 1.000000000000000021e-02 1.000000000000000021e-02 1.000000000000000021e-02 1.000000000000000021e-02 1.000000000000000021e-02 1.000000000000000021e-02 1.000000000000000021e-02 1.000000000000000021e-02 1.000000000000000021e-02 1.000000000000000021e-02 1.000000000000000021e-02 1.000000000000000021e-02 1.000000000000000021e-02 1.000000000000000021e-02 1.000000000000000021e-02 1.000000000000000021e-02 1.000000000000000021e-02 1.000000000000000021e-02 1.000000000000000021e-02 1.000000000000000021e-02 1.000000000000000021e-02 1.000000000000000021e-02 1.000000000000000021e-02 1.000000000000000021e-02 1.000000000000000021e-02 1.000000000000000021e-02 1.000000000000000021e-02 1.000000000000000021e-02 1.000000000000000021e-02 1.000000000000000021e-02 1.000000000000000021e-02 1.000000000000000021e-02 1.000000000000000021e-02 1.000000000000000021e-02 1.000000000000000021e-02 1.000000000000000021e-02 1.000000000000000021e-02 1.000000000000000021e-02 1.000000000000000021e-02 1.000000000000000021e-02 1.000000000000000021e-02 1.000000000000000021e-02 1.000000000000000021e-02 1.000000000000000021e-02 1.000000000000000021e-02 1.000000000000000021e-02 1.000000000000000021e-02 1.000000000000000021e-02 1.000000000000000021e-02 1.000000000000000021e-02 1.000000000000000021e-02 1.000000000000000021e-02 1.000000000000000021e-02 1.000000000000000021e-02 1.000000000000000021e-02 1.000000000000000021e-02 1.000000000000000021e-02 1.000000000000000021e-02 1.000000000000000021e-02 1.000000000000000021e-02 1.000000000000000021e-02 1.000000000000000021e-02 1.000000000000000021e-02 1.000000000000000021e-02 1.000000000000000021e-02 1.000000000000000021e-02 1.000000000000000021e-02 1.000000000000000021e-02 1.000000000000000021e-02 1.000000000000000021e-02 1.000000000000000021e-02 1.000000000000000021e-02 1.000000000000000021e-02 1.000000000000000021e-02 1.000000000000000021e-02 1.000000000000000021e-02 1.000000000000000021e-02 1.000000000000000021e-02 1.000000000000000021e-02 1.000000000000000021e-02 1.000000000000000021e-02 1.000000000000000021e-02 1.000000000000000021e-02 1.000000000000000021e-02 1.000000000000000021e-02 1.000000000000000021e-02 1.000000000000000021e-02 1.000000000000000021e-02 1.000000000000000021e-02 1.000000000000000021e-02 1.000000000000000021e-02 1.000000000000000021e-02 1.000000000000000021e-02 1.000000000000000021e-02 1.000000000000000021e-02 1.000000000000000021e-02 1.000000000000000021e-02 1.000000000000000021e-02 1.000000000000000021e-02 1.000000000000000021e-02 1.000000000000000021e-02 1.000000000000000021e-02 1.000000000000000021e-02 1.000000000000000021e-02 1.000000000000000021e-02 1.000000000000000021e-02 1.000000000000000021e-02 1.000000000000000021e-02 1.000000000000000021e-02 1.000000000000000021e-02 1.000000000000000021e-02 1.000000000000000021e-02 1.000000000000000021e-02 1.000000000000000021e-02 1.000000000000000021e-02 1.000000000000000021e-02 1.000000000000000021e-02 1.000000000000000021e-02 1.000000000000000021e-02 1.000000000000000021e-02 1.000000000000000021e-02 1.000000000000000021e-02 1.000000000000000021e-02 1.000000000000000021e-02 1.000000000000000021e-02 1.000000000000000021e-02 1.000000000000000021e-02 1.000000000000000021e-02 1.000000000000000021e-02 1.000000000000000021e-02 1.000000000000000021e-02 1.000000000000000021e-02 1.000000000000000021e-02 1.000000000000000021e-02 1.000000000000000021e-02 1.000000000000000021e-02 1.000000000000000021e-02 1.000000000000000021e-02 1.000000000000000021e-02 1.000000000000000021e-02 1.000000000000000021e-02 1.000000000000000021e-02 1.000000000000000021e-02 1.000000000000000021e-02 1.000000000000000021e-02 1.000000000000000021e-02 1.000000000000000021e-02 1.000000000000000021e-02 1.000000000000000021e-02 1.000000000000000021e-02 1.000000000000000021e-02 1.000000000000000021e-02 1.000000000000000021e-02 1.000000000000000021e-02 1.000000000000000021e-02 1.000000000000000021e-02 1.000000000000000021e-02 1.000000000000000021e-02 1.000000000000000021e-02 1.000000000000000021e-02 1.000000000000000021e-02 1.000000000000000021e-02 1.000000000000000021e-02 1.000000000000000021e-02 1.000000000000000021e-02 1.000000000000000021e-02 1.000000000000000021e-02 1.000000000000000021e-02 1.000000000000000021e-02 1.000000000000000021e-02 1.000000000000000021e-02 1.000000000000000021e-02 1.000000000000000021e-02 1.000000000000000021e-02 1.000000000000000021e-02 1.000000000000000021e-02 1.000000000000000021e-02 1.000000000000000021e-02 1.000000000000000021e-02 1.000000000000000021e-02 1.000000000000000021e-02 1.000000000000000021e-02 1.000000000000000021e-02 1.000000000000000021e-02 1.000000000000000021e-02 1.000000000000000021e-02 1.000000000000000021e-02 1.000000000000000021e-02 1.000000000000000021e-02 1.000000000000000021e-02 1.000000000000000021e-02 1.000000000000000021e-02 1.000000000000000021e-02 1.000000000000000021e-02 1.000000000000000021e-02 1.000000000000000021e-02 1.000000000000000021e-02 1.000000000000000021e-02 1.000000000000000021e-02 1.000000000000000021e-02 1.000000000000000021e-02 1.000000000000000021e-02 1.000000000000000021e-02 1.000000000000000021e-02 1.000000000000000021e-02 1.000000000000000021e-02 1.000000000000000021e-02 1.000000000000000021e-02 1.000000000000000021e-02 1.000000000000000021e-02 1.000000000000000021e-02 1.000000000000000021e-02 1.000000000000000021e-02 1.000000000000000021e-02 1.000000000000000021e-02 1.000000000000000021e-02 1.000000000000000021e-02 1.000000000000000021e-02 1.000000000000000021e-02 1.000000000000000021e-02 1.000000000000000021e-02 1.000000000000000021e-02 1.000000000000000021e-02 1.000000000000000021e-02 1.000000000000000021e-02 1.000000000000000021e-02 1.000000000000000021e-02 1.000000000000000021e-02 1.000000000000000021e-02 1.000000000000000021e-02 1.000000000000000021e-02 1.000000000000000021e-02 1.000000000000000021e-02 1.000000000000000021e-02 1.000000000000000021e-02 1.000000000000000021e-02 1.000000000000000021e-02 1.000000000000000021e-02 1.000000000000000021e-02 1.000000000000000021e-02 1.000000000000000021e-02 1.000000000000000021e-02 1.000000000000000021e-02 1.000000000000000021e-02 1.000000000000000021e-02 1.000000000000000021e-02 1.000000000000000021e-02 1.000000000000000021e-02 1.000000000000000021e-02 1.000000000000000021e-02 1.000000000000000021e-02 1.000000000000000021e-02 1.000000000000000021e-02 1.000000000000000021e-02 1.000000000000000021e-02 1.000000000000000021e-02 1.000000000000000021e-02 1.000000000000000021e-02 1.000000000000000021e-02 1.000000000000000021e-02 1.000000000000000021e-02 1.000000000000000021e-02 1.000000000000000021e-02 1.000000000000000021e-02 1.000000000000000021e-02 1.000000000000000021e-02 1.000000000000000021e-02 1.000000000000000021e-02 1.000000000000000021e-02 1.000000000000000021e-02 1.000000000000000021e-02 1.000000000000000021e-02 1.000000000000000021e-02 1.000000000000000021e-02 1.000000000000000021e-02 1.000000000000000021e-02 1.000000000000000021e-02 1.000000000000000021e-02 1.000000000000000021e-02 1.000000000000000021e-02 1.000000000000000021e-02 1.000000000000000021e-02 1.000000000000000021e-02 1.000000000000000021e-02 1.000000000000000021e-02 1.000000000000000021e-02 1.000000000000000021e-02 1.000000000000000021e-02 1.000000000000000021e-02 1.000000000000000021e-02 1.000000000000000021e-02 1.000000000000000021e-02 1.000000000000000021e-02 1.000000000000000021e-02 1.000000000000000021e-02 1.000000000000000021e-02 1.000000000000000021e-02 1.000000000000000021e-02 1.000000000000000021e-02 1.000000000000000021e-02 1.000000000000000021e-02 1.000000000000000021e-02 1.000000000000000021e-02 1.000000000000000021e-02 1.000000000000000021e-02 1.000000000000000021e-02 1.000000000000000021e-02 1.000000000000000021e-02 1.000000000000000021e-02 1.000000000000000021e-02 1.000000000000000021e-02 1.000000000000000021e-02 1.000000000000000021e-02 1.000000000000000021e-02 1.000000000000000021e-02 1.000000000000000021e-02 1.000000000000000021e-02 1.000000000000000021e-02 1.000000000000000021e-02 1.000000000000000021e-02 1.000000000000000021e-02 1.000000000000000021e-02 1.000000000000000021e-02 1.000000000000000021e-02 1.000000000000000021e-02 1.000000000000000021e-02 1.000000000000000021e-02 1.000000000000000021e-02 1.000000000000000021e-02 1.000000000000000021e-02 1.000000000000000021e-02 1.000000000000000021e-02 1.000000000000000021e-02 1.000000000000000021e-02 1.000000000000000021e-02 1.000000000000000021e-02 1.000000000000000021e-02 1.000000000000000021e-02 1.000000000000000021e-02 1.000000000000000021e-02 1.000000000000000021e-02 1.000000000000000021e-02 1.000000000000000021e-02 1.000000000000000021e-02 1.000000000000000021e-02 1.000000000000000021e-02 1.000000000000000021e-02 1.000000000000000021e-02 1.000000000000000021e-02 1.000000000000000021e-02 1.000000000000000021e-02 1.000000000000000021e-02 1.000000000000000021e-02 1.000000000000000021e-02 1.000000000000000021e-02 1.000000000000000021e-02 1.000000000000000021e-02 1.000000000000000021e-02 1.000000000000000021e-02 1.000000000000000021e-02 1.000000000000000021e-02 1.000000000000000021e-02 1.000000000000000021e-02 1.000000000000000021e-02 1.000000000000000021e-02 1.000000000000000021e-02 1.000000000000000021e-02 1.000000000000000021e-02 1.000000000000000021e-02 1.000000000000000021e-02 1.000000000000000021e-02 1.000000000000000021e-02 1.000000000000000021e-02 1.000000000000000021e-02 1.000000000000000021e-02 1.000000000000000021e-02 1.000000000000000021e-02 1.000000000000000021e-02 1.000000000000000021e-02 1.000000000000000021e-02 1.000000000000000021e-02 1.000000000000000021e-02 1.000000000000000021e-02 1.000000000000000021e-02 1.000000000000000021e-02 1.000000000000000021e-02 1.000000000000000021e-02 1.000000000000000021e-02 1.000000000000000021e-02 1.000000000000000021e-02 1.000000000000000021e-02 1.000000000000000021e-02 1.000000000000000021e-02 1.000000000000000021e-02 1.000000000000000021e-02 1.000000000000000021e-02 1.000000000000000021e-02 1.000000000000000021e-02 1.000000000000000021e-02 1.000000000000000021e-02 1.000000000000000021e-02 1.000000000000000021e-02 1.000000000000000021e-02 1.000000000000000021e-02 1.000000000000000021e-02 1.000000000000000021e-02 1.000000000000000021e-02 1.000000000000000021e-02 1.000000000000000021e-02 1.000000000000000021e-02 1.000000000000000021e-02 1.000000000000000021e-02 1.000000000000000021e-02 1.000000000000000021e-02 1.000000000000000021e-02 1.000000000000000021e-02 1.000000000000000021e-02 1.000000000000000021e-02 1.000000000000000021e-02 1.000000000000000021e-02 1.000000000000000021e-02 1.000000000000000021e-02 1.000000000000000021e-02 1.000000000000000021e-02 1.000000000000000021e-02 1.000000000000000021e-02 1.000000000000000021e-02 1.000000000000000021e-02 1.000000000000000021e-02 1.000000000000000021e-02 1.000000000000000021e-02 1.000000000000000021e-02 1.000000000000000021e-02 1.000000000000000021e-02 1.000000000000000021e-02 1.000000000000000021e-02 1.000000000000000021e-02 1.000000000000000021e-02 1.000000000000000021e-02 1.000000000000000021e-02 1.000000000000000021e-02 1.000000000000000021e-02 1.000000000000000021e-02 1.000000000000000021e-02 1.000000000000000021e-02 1.000000000000000021e-02 1.000000000000000021e-02 1.000000000000000021e-02 1.000000000000000021e-02 1.000000000000000021e-02 1.000000000000000021e-02 1.000000000000000021e-02 1.000000000000000021e-02 1.000000000000000021e-02 1.000000000000000021e-02 1.000000000000000021e-02 1.000000000000000021e-02 1.000000000000000021e-02 1.000000000000000021e-02 1.000000000000000021e-02 1.000000000000000021e-02 1.000000000000000021e-02 1.000000000000000021e-02 1.000000000000000021e-02 1.000000000000000021e-02 1.000000000000000021e-02 1.000000000000000021e-02 1.000000000000000021e-02 1.000000000000000021e-02 1.000000000000000021e-02 1.000000000000000021e-02 1.000000000000000021e-02 1.000000000000000021e-02 1.000000000000000021e-02 1.000000000000000021e-02 1.000000000000000021e-02 1.000000000000000021e-02 1.000000000000000021e-02 1.000000000000000021e-02 1.000000000000000021e-02 1.000000000000000021e-02 1.000000000000000021e-02 1.000000000000000021e-02 1.000000000000000021e-02 1.000000000000000021e-02 1.000000000000000021e-02 1.000000000000000021e-02 1.000000000000000021e-02 1.000000000000000021e-02 1.000000000000000021e-02 1.000000000000000021e-02 1.000000000000000021e-02 1.000000000000000021e-02 1.000000000000000021e-02 1.000000000000000021e-02 1.000000000000000021e-02 1.000000000000000021e-02 1.000000000000000021e-02 1.000000000000000021e-02 1.000000000000000021e-02 1.000000000000000021e-02 1.000000000000000021e-02 1.000000000000000021e-02 1.000000000000000021e-02 1.000000000000000021e-02 1.000000000000000021e-02 1.000000000000000021e-02 1.000000000000000021e-02 1.000000000000000021e-02 1.000000000000000021e-02 1.000000000000000021e-02 1.000000000000000021e-02 1.000000000000000021e-02 1.000000000000000021e-02 1.000000000000000021e-02 1.000000000000000021e-02 1.000000000000000021e-02 1.000000000000000021e-02 1.000000000000000021e-02 1.000000000000000021e-02 1.000000000000000021e-02 1.000000000000000021e-02 1.000000000000000021e-02 1.000000000000000021e-02 1.000000000000000021e-02 1.000000000000000021e-02 1.000000000000000021e-02 1.000000000000000021e-02 1.000000000000000021e-02 1.000000000000000021e-02 1.000000000000000021e-02 1.000000000000000021e-02 1.000000000000000021e-02 1.000000000000000021e-02 1.000000000000000021e-02 1.000000000000000021e-02 1.000000000000000021e-02 1.000000000000000021e-02 1.000000000000000021e-02 1.000000000000000021e-02 1.000000000000000021e-02 1.000000000000000021e-02 1.000000000000000021e-02 1.000000000000000021e-02 1.000000000000000021e-02 1.000000000000000021e-02 1.000000000000000021e-02 1.000000000000000021e-02 1.000000000000000021e-02 1.000000000000000021e-02 1.000000000000000021e-02 1.000000000000000021e-02 1.000000000000000021e-02 1.000000000000000021e-02 1.000000000000000021e-02 1.000000000000000021e-02 1.000000000000000021e-02 1.000000000000000021e-02 1.000000000000000021e-02 1.000000000000000021e-02 1.000000000000000021e-02 1.000000000000000021e-02 1.000000000000000021e-02 1.000000000000000021e-02 1.000000000000000021e-02 1.000000000000000021e-02 1.000000000000000021e-02 1.000000000000000021e-02 1.000000000000000021e-02 1.000000000000000021e-02 1.000000000000000021e-02 1.000000000000000021e-02 1.000000000000000021e-02 1.000000000000000021e-02 1.000000000000000021e-02 1.000000000000000021e-02 1.000000000000000021e-02 1.000000000000000021e-02 1.000000000000000021e-02 1.000000000000000021e-02 1.000000000000000021e-02 1.000000000000000021e-02 1.000000000000000021e-02 1.000000000000000021e-02 1.000000000000000021e-02 1.000000000000000021e-02 1.000000000000000021e-02 1.000000000000000021e-02 1.000000000000000021e-02 1.000000000000000021e-02 1.000000000000000021e-02 1.000000000000000021e-02 1.000000000000000021e-02 1.000000000000000021e-02 1.000000000000000021e-02 1.000000000000000021e-02 1.000000000000000021e-02 1.000000000000000021e-02 1.000000000000000021e-02 1.000000000000000021e-02 1.000000000000000021e-02 1.000000000000000021e-02 1.000000000000000021e-02 1.000000000000000021e-02 1.000000000000000021e-02 1.000000000000000021e-02 1.000000000000000021e-02 1.000000000000000021e-02 1.000000000000000021e-02 1.000000000000000021e-02 1.000000000000000021e-02 1.000000000000000021e-02 1.000000000000000021e-02 1.000000000000000021e-02 1.000000000000000021e-02 1.000000000000000021e-02 1.000000000000000021e-02 1.000000000000000021e-02 1.000000000000000021e-02 1.000000000000000021e-02 1.000000000000000021e-02 1.000000000000000021e-02 1.000000000000000021e-02 1.000000000000000021e-02 1.000000000000000021e-02 1.000000000000000021e-02 1.000000000000000021e-02 1.000000000000000021e-02 1.000000000000000021e-02 1.000000000000000021e-02 1.000000000000000021e-02 1.000000000000000021e-02 1.000000000000000021e-02 1.000000000000000021e-02 1.000000000000000021e-02 1.000000000000000021e-02 1.000000000000000021e-02 1.000000000000000021e-02 1.000000000000000021e-02 1.000000000000000021e-02 1.000000000000000021e-02 1.000000000000000021e-02 1.000000000000000021e-02 1.000000000000000021e-02 1.000000000000000021e-02 1.000000000000000021e-02 1.000000000000000021e-02 1.000000000000000021e-02 1.000000000000000021e-02 1.000000000000000021e-02 1.000000000000000021e-02 1.000000000000000021e-02 1.000000000000000021e-02 1.000000000000000021e-02 1.000000000000000021e-02 1.000000000000000021e-02 1.000000000000000021e-02 1.000000000000000021e-02 1.000000000000000021e-02 1.000000000000000021e-02 1.000000000000000021e-02 1.000000000000000021e-02 1.000000000000000021e-02 1.000000000000000021e-02 1.000000000000000021e-02 1.000000000000000021e-02 1.000000000000000021e-02 1.000000000000000021e-02 1.000000000000000021e-02 1.000000000000000021e-02 1.000000000000000021e-02 1.000000000000000021e-02 1.000000000000000021e-02 1.000000000000000021e-02 1.000000000000000021e-02 1.000000000000000021e-02 1.000000000000000021e-02 1.000000000000000021e-02 1.000000000000000021e-02 1.000000000000000021e-02 1.000000000000000021e-02 1.000000000000000021e-02 1.000000000000000021e-02 1.000000000000000021e-02 1.000000000000000021e-02 1.000000000000000021e-02 1.000000000000000021e-02 1.000000000000000021e-02 1.000000000000000021e-02 1.000000000000000021e-02 1.000000000000000021e-02 1.000000000000000021e-02 1.000000000000000021e-02 1.000000000000000021e-02 1.000000000000000021e-02 1.000000000000000021e-02 1.000000000000000021e-02 1.000000000000000021e-02 1.000000000000000021e-02 1.000000000000000021e-02 1.000000000000000021e-02 1.000000000000000021e-02 1.000000000000000021e-02 1.000000000000000021e-02 1.000000000000000021e-02 1.000000000000000021e-02 1.000000000000000021e-02 1.000000000000000021e-02 1.000000000000000021e-02 1.000000000000000021e-02 1.000000000000000021e-02 1.000000000000000021e-02 1.000000000000000021e-02 1.000000000000000021e-02 1.000000000000000021e-02 1.000000000000000021e-02 1.000000000000000021e-02 1.000000000000000021e-02 1.000000000000000021e-02 1.000000000000000021e-02 1.000000000000000021e-02 1.000000000000000021e-02 1.000000000000000021e-02 1.000000000000000021e-02 1.000000000000000021e-02 1.000000000000000021e-02 1.000000000000000021e-02 1.000000000000000021e-02 1.000000000000000021e-02 1.000000000000000021e-02 1.000000000000000021e-02 1.000000000000000021e-02 1.000000000000000021e-02 1.000000000000000021e-02 1.000000000000000021e-02 1.000000000000000021e-02 1.000000000000000021e-02 1.000000000000000021e-02 1.000000000000000021e-02 1.000000000000000021e-02 1.000000000000000021e-02 1.000000000000000021e-02 1.000000000000000021e-02 1.000000000000000021e-02 1.000000000000000021e-02 1.000000000000000021e-02 1.000000000000000021e-02 1.000000000000000021e-02 1.000000000000000021e-02 1.000000000000000021e-02 1.000000000000000021e-02 1.000000000000000021e-02 1.000000000000000021e-02 1.000000000000000021e-02 1.000000000000000021e-02 1.000000000000000021e-02 1.000000000000000021e-02 1.000000000000000021e-02 1.000000000000000021e-02 1.000000000000000021e-02 1.000000000000000021e-02 1.000000000000000021e-02 1.000000000000000021e-02 1.000000000000000021e-02 1.000000000000000021e-02 1.000000000000000021e-02 1.000000000000000021e-02 1.000000000000000021e-02 1.000000000000000021e-02 1.000000000000000021e-02 1.000000000000000021e-02 1.000000000000000021e-02 1.000000000000000021e-02 1.000000000000000021e-02 1.000000000000000021e-02 1.000000000000000021e-02 1.000000000000000021e-02 1.000000000000000021e-02 1.000000000000000021e-02 1.000000000000000021e-02 1.000000000000000021e-02 1.000000000000000021e-02 1.000000000000000021e-02 1.000000000000000021e-02 1.000000000000000021e-02 1.000000000000000021e-02 1.000000000000000021e-02 1.000000000000000021e-02 1.000000000000000021e-02 1.000000000000000021e-02 1.000000000000000021e-02 1.000000000000000021e-02 1.000000000000000021e-02 1.000000000000000021e-02 1.000000000000000021e-02 1.000000000000000021e-02 1.000000000000000021e-02 1.000000000000000021e-02 1.000000000000000021e-02 1.000000000000000021e-02 1.000000000000000021e-02 1.000000000000000021e-02 1.000000000000000021e-02 1.000000000000000021e-02 1.000000000000000021e-02 1.000000000000000021e-02 1.000000000000000021e-02 1.000000000000000021e-02 1.000000000000000021e-02 1.000000000000000021e-02 1.000000000000000021e-02 1.000000000000000021e-02 1.000000000000000021e-02 1.000000000000000021e-02 1.000000000000000021e-02 1.000000000000000021e-02 1.000000000000000021e-02 1.000000000000000021e-02 1.000000000000000021e-02 1.000000000000000021e-02 1.000000000000000021e-02 1.000000000000000021e-02 1.000000000000000021e-02 1.000000000000000021e-02 1.000000000000000021e-02 1.000000000000000021e-02 1.000000000000000021e-02 1.000000000000000021e-02 1.000000000000000021e-02 1.000000000000000021e-02 1.000000000000000021e-02 1.000000000000000021e-02 1.000000000000000021e-02 1.000000000000000021e-02 1.000000000000000021e-02 1.000000000000000021e-02 1.000000000000000021e-02 1.000000000000000021e-02 1.000000000000000021e-02 1.000000000000000021e-02 1.000000000000000021e-02 1.000000000000000021e-02 1.000000000000000021e-02 1.000000000000000021e-02 1.000000000000000021e-02 1.000000000000000021e-02 1.000000000000000021e-02 1.000000000000000021e-02 1.000000000000000021e-02 1.000000000000000021e-02 1.000000000000000021e-02 1.000000000000000021e-02 1.000000000000000021e-02 1.000000000000000021e-02 1.000000000000000021e-02 1.000000000000000021e-02 1.000000000000000021e-02 1.000000000000000021e-02 1.000000000000000021e-02 1.000000000000000021e-02 1.000000000000000021e-02 1.000000000000000021e-02 1.000000000000000021e-02 1.000000000000000021e-02 1.000000000000000021e-02 1.000000000000000021e-02 1.000000000000000021e-02 1.000000000000000021e-02 1.000000000000000021e-02 1.000000000000000021e-02 1.000000000000000021e-02 1.000000000000000021e-02 1.000000000000000021e-02 1.000000000000000021e-02 1.000000000000000021e-02 1.000000000000000021e-02 1.000000000000000021e-02 1.000000000000000021e-02 1.000000000000000021e-02 1.000000000000000021e-02 1.000000000000000021e-02 1.000000000000000021e-02 1.000000000000000021e-02 1.000000000000000021e-02 1.000000000000000021e-02 1.000000000000000021e-02 1.000000000000000021e-02 1.000000000000000021e-02 1.000000000000000021e-02 1.000000000000000021e-02 1.000000000000000021e-02 1.000000000000000021e-02 1.000000000000000021e-02 1.000000000000000021e-02 1.000000000000000021e-02 1.000000000000000021e-02 1.000000000000000021e-02 1.000000000000000021e-02 1.000000000000000021e-02 1.000000000000000021e-02 1.000000000000000021e-02 1.000000000000000021e-02 1.000000000000000021e-02 1.000000000000000021e-02 1.000000000000000021e-02 1.000000000000000021e-02 1.000000000000000021e-02 1.000000000000000021e-02 1.000000000000000021e-02 1.000000000000000021e-02 1.000000000000000021e-02 1.000000000000000021e-02 1.000000000000000021e-02 1.000000000000000021e-02 1.000000000000000021e-02 1.000000000000000021e-02 1.000000000000000021e-02 1.000000000000000021e-02
-1.058758582930990144e+02 1.611132726202676508e+02 3.728513120768044331e+01 -8.369891595334570056e+00 -8.341741280358488098e+01 -1.270821110656671671e+01 -1.974548691758086534e+02 6.836303234229689219e-01 -8.039351912161643554e+01 -1.349780382037512894e+01 -1.885656946292997560e+01 6.236322729982425983e+00 -1.693508047356282020e+00 1.593056972270484550e+02 8.035687337677978803e+01 -3.688136100958725194e+01 -5.020297733718464173e+01 7.521475994546770494e+01 3.117933971872031407e+01 -2.411086316768782112e+01 -7.484078849426843760e+01 -7.004410499447688210e+01 -1.308622331620015800e+01 2.747227010456321850e+01 -1.850603563172454358e+02 -9.371325827750929705e+01 -2.478117511604608580e+01 1.914189088920842323e+02 6.718924563623791357e+01 7.290753860635213357e+01 7.625547002220591253e+01 1.117737170150260972e+00 -7.537372561707208263e+01 1.970759772370749374e+02 -2.325838866325161121e+02 5.594741981394103902e+01 -1.140040106615779649e+02 -3.294995643904412930e+01 3.838032534819068697e+00 1.203310829752386724e+02 -1.166792351024786853e+02 -1.291826581792097350e+01 7.341659573354029078e+01 1.648773551036721585e+02 6.771642949755599261e+01 -6.489941042301536811e+01 3.906509616841169219e+01 -2.697931341602688704e+01 -6.273426144485856781e+01 1.486877910380254093e+02 -6.689647315857011733e+01 -4.945083432487837882e+01 -1.324043827601032035e+02 5.567601982309890118e+00 -4.795973429401176702e+01 3.674053972033612325e+01 -8.426917091675305471e+01 -4.752037709239181140e+01 -9.630724533283859046e+01 -1.476472890840700813e+02 1.841720379756253934e+01 4.315052098858348018e+01 -1.169475929637226983e+02 1.219800224015303947e+01 -7.525318981970367815e+01 4.665924265034611551e+01 1.583366404135817049e+02 -1.370413213092269018e+02 -4.110529058985144957e+01 6.874775207261917487e+00 2.799119968035808537e+00 4.027043573621074302e+01 7.976370802960741457e+01 7.134977138915802319e-01 -8.414202956627855556e+00 -6.647974098417664379e+01 7.430609463235778378e+01 -3.104698475509269784e+01 2.499810608177937254e+01 9.881327478868229264e+01 8.374853400751243271e+01 -4.063626711244339162e+01 5.482851927839632822e+01 1.400226136209941501e+02 1.103926072817314576e+02 -3.776639120450963727e+00 1.654256467780673461e+02 -1.059418123388028192e+02 3.938219570607656372e+00 -3.983513909997530078e+01 1.964231780622884287e+02 -2.015885607390759660e+01 2.767040605390313601e+00 -7.293123834501299996e+01 -6.801416604990532022e+00 -6.059336042929238886e+01 6.439678122349957334e+01 -8.982386367845769826e+01 6.523082861872593696e+01 -4.538956039710455315e+01 -4.723775838160328533e+01 -8.707483867480031847e+01 5.037709375816064039e+01 -5.191316323531492571e+01 -1.418307960206387861e+02 -7.545048079031224120e+01 -9.934629742553745757e+01 -1.493331940755237497e+02 1.290909980625067135e+02 -2.603779924047500316e+01 3.044649604706339474e+01 8.516525760340114459e+01 -9.879373437292274218e+01 5.407282924872451702e+01 -4.113764124881207351e+01 -6.597164139607698985e+01 -8.564491056375558742e+01 1.929614894011475599e+02 -5.388532389258065081e+01 -4.705531459411179185e+01 -4.476964527795463766e+01 7.635342067364118179e+01 -3.935370933307468988e+01 1.310151123701322433e+02 -4.745966464526617301e+01 5.239698764160917221e+01 4.315962950789999475e+00 -7.697551316023303514e+01 6.530356892611770547e+01 2.634965225024052984e+02 -8.748064784330861698e+01 4.507510255268739741e+01 -7.248330232301860576e+01 4.298532015337859491e+01 1.246507408511100152e+02 -4.889070904495702763e+01 1.390693192333877271e+01 -2.561759987102631086e+01 -9.688823625928147010e+01 -1.652761638086480644e+01 4.114816323333467807e+00 -7.412295391992937077e+00 -1.418602744919826009e+01 1.122895585457380463e+02 1.239464102571622277e+02 1.772436993497494768e+02 -2.893201456530800897e+02 3.630234270978048272e+01 -1.501075835188817820e+01 -5.925094893737593793e+01 1.714589132977896497e+02 7.234912606780009980e+01 -2.514367528509631189e+00 -1.102119508234614784e+02 -1.032481457463304686e+01 9.518058687890446379e+01 -1.277414963347326022e+02 -1.603229104445285884e+02 1.021261549613682362e+01 4.032688088990533970e+01 -5.806391296542847869e+01 3.998921595318320499e+01 -1.018418988576298858e+02 -1.439059413245138899e+02 2.004216457078770119e+01 4.620957483957501211e+01 4.603810735282851674e+00 -7.935073384226477344e+01 -8.903829015051238116e+01 -8.016626055213963298e+01 -8.332475062925969667e+01 1.207530872655569709e+01 5.406970416489286180e+01 1.109291537614330707e+02 7.560108318510854986e+01 8.525337910580711309e+01 1.023956123719482321e+02 -7.121835479560998294e+01 -7.858311338684211478e+01 6.718970776214300145e+01 6.537725017807137817e+01 5.644550071756838605e+01 -8.935080270638547262e+00 -8.682133670470726372e+01 5.149454539686907140e+01 -1.708673609853074993e+02 6.410363637199503728e+01 -4.244733822123998124e+01 -9.200181108660031271e+01 7.083433947592456548e+01 -1.640602639357058479e+01 -7.359436343710477502e+01 -5.483137779657452882e+01 -8.777751825692657661e+00 2.319066639827399285e+02 7.357450762794587718e+01 5.242958395948645745e+01 -9.927257006072474610e+01 1.418008065101040529e+02 1.040468164247647431e+00 -8.642724089024743250e+01 1.491240844202496305e+02 -1.475031282603665375e+02 1.510558444111597431e+01 -3.110934208728683714e+01 -2.127493710211878692e+02 -1.290224857143964527e+02 -8.440429169691360300e+01 -2.849784024896752044e+01 -1.153475612850941729e+02 5.576914765371413552e+01 6.291836753954287076e+01 -2.673545116326899418e+01 -9.660718552562464367e+01 1.094549524433536902e+02 1.143409800942282715e+02 4.472310617394293786e+01 1.697133539057605844e+01 2.531243179352009633e+02 4.225367008909442745e+01 -1.157801669729425811e+02 -4.368170662059724663e+01 -1.634911211974868195e+02 3.087440121279482241e+01 1.484586757790299600e+02 -1.435986393288287104e+02 1.276279016426044706e+02 -8.813698646534395209e+01 -1.836789152666137070e+01 -8.153246392650340679e-01 5.126009073437901975e+01 -1.119957805785189109e+01 -2.214334679922482962e+01 -1.818776503411467615e+01 -1.229392336948862408e+02 4.496172954269795241e+01 -2.939737574236531614e+01 -1.249565494960432055e+01 -1.040186903166648236e+01 2.191252455264418586e+02 1.690193960329098104e+02 2.255989796626069221e+02 1.278203452647968561e+02 -8.396421225150427858e+01 7.286657599308504984e+01 2.052990435482468712e+01 4.605313169117401628e+01 -3.843925570407625969e+01 2.477229804003651168e+02 -2.263231988411116191e+01 -1.326419380773876355e+02 -1.448377898614878312e+01 -4.448119502961374394e+01 -7.504944005538965257e+01 4.186090889164667317e+01 -1.136139564436142813e+01 1.764840579586490890e+02 8.954161485076340909e+01 3.965106625871855783e+01 9.503943820835388578e+01 9.187764952806742258e+01 -2.230080338067850221e+01 1.354840166058293391e+02 2.577059303647468269e+01 8.697839072895584422e+01 4.629909669553070728e+01 6.713088150752490435e+00 -1.123228185482418553e+02 -1.124753659356689610e+02 -8.740620246986709674e+01 -1.509956990751900996e+01 8.415756687081426435e+01 -2.970504056217904321e+01 9.597565132940874832e+01 4.254916718470561676e+01 -7.058757565046973070e+01 -2.905020862034634277e+01 -5.685819922556741091e+01 1.705747434284522157e+01 -4.491156162848764666e+01 -1.087541177103158674e+02 1.179253896088248723e+02 1.177945775991603909e+02 -7.667809553975047265e+01 5.209326726401980245e+00 -4.401079543782604730e+01 -3.157751794999684947e+01 -1.100804339754817818e+01 -3.034060006157377032e+01 4.321892569593732958e+01 -1.364792811949891984e+02 -5.131965806683817277e+01 -1.473518598006863272e+02 1.689546600823314009e+02 -1.955267343751986076e+01 5.712512492952076570e+01 1.153670107386332688e+01 1.400439566338554016e+02 4.323543786589510773e+01 3.459746407805223356e+01 1.497153308943701404e+02 -4.776065157804801942e+01 -9.467804162190022055e+01 2.641627813460072716e+01 -1.531655169622727044e+02 -5.177238168926864859e+01 9.919952170653576218e+01 -1.235345075185483381e+02 -3.522523882966947184e+01 8.843956234420352303e+01 -9.146586817070210884e+01 -8.663351467108458337e+01 -8.003087501478422894e+01 -6.175027786977911859e+01 2.412898091872029340e+02 1.919558899003941974e+02 9.969616796347054333e+01 -9.895360791949235590e+01 7.244224438786652343e+01 -6.414310946009491943e+01 -3.050697318351245713e+01 1.609456741323942097e+01 -3.127919574429742156e+01 -9.069509526993749660e+01 -2.760637315611153220e+00 1.424768974748981520e+01 1.052810967513936333e+02 -1.242975879970360609e+02 4.063962582338955798e+01 6.167741634973206288e+01 3.334411943549024215e+01 -8.761173246916892765e+01 -1.436044674490872808e+02 1.866462999182084559e+02 -1.719541444187013823e+01 2.433531078725926378e+01 1.513193644228337007e+02 2.575003379008211368e+01 2.677395821752323002e+01 -4.303292450854718254e+01 8.557684240555114741e+01 -1.316189252557507814e+02 -2.972212048260179884e+01 -5.926989596986042663e+00 -5.151704672082113490e+01 6.143536395288094809e+00 2.047973297701521034e+01 -3.453298157744345076e+01 1.318541913007953426e+01 2.061962236268658444e+02 -2.644355169331587163e+01 -2.703786123659948615e+01 -9.805563920319666238e+01 -1.567369589842208200e+00 -7.785527102256799026e+01 6.130384934329149438e+00 1.080997980597950630e+02 -5.015401302713816278e+01 5.820258209073210232e+00 -5.234718999455335364e+01 3.183615560046257453e+00 8.404852544596401742e+01 -1.116749728445685008e+02 -9.337115814258127955e+01 -9.890406286655174029e+01 6.874908917685296217e+01 8.342893345984369091e+01 -8.885786746493077715e+01 6.040375957329965217e+01 2.491781866496186382e+01 3.728770786002377235e+01 -1.709146710809755731e+01 8.806099149806451010e+01 7.678479736259996002e+01 -7.442937348535907915e+01 1.133432282544863057e+01 7.791702598205947083e+01 7.017766037620538100e+01 -1.920172112827689404e+01 2.404012177463377498e+01 -1.277711140315743137e+02 4.678631621352833747e+01 -3.159460325459901853e+01 -3.151530064179893387e+01 1.668672911510022629e+02 4.567457493872957741e+01 1.158005079805713393e+02 1.840212883026273971e+02 -1.326383156503547980e+02 1.436739963541070608e+02 -6.117188630411253314e+01 -1.302225578068620848e+02 7.930454512663447986e+01 -1.291360130830824176e+02 -2.767290461398622270e+01 5.432481275774596696e+01 7.730586487904711035e+00 -1.620755986586406721e+02 8.121880862999279316e+01 2.433055149536052753e+01 6.655675752111162069e+01 3.499986423499576205e+01 9.114401775932543970e+00 -6.465959733148223165e+01 1.114574580354236133e+02 5.250680621005410842e+01 -5.983999453726135442e+01 -9.754510552228666143e+01 3.746371023447859017e+01 2.482262764263517241e+01 7.940497647044689700e+01 1.771169390736719720e+02 -2.370263117300986977e+01 -1.061417096278934480e+02 -8.154667695279646011e+01 -4.943575322207867373e+01 -4.267188056759676584e+01 -1.413370455881603220e+02 -2.171684040883823386e+01 1.248043581791228291e+02 7.178700079078862473e+01 -1.178808353106984868e+02 -1.444854610443190666e+02 -6.556884573380519043e+01 -7.348037610967124067e+01 1.414779293959651909e+02 -1.642256024609984308e+02 8.341817835547436744e+01 -4.437120339750980413e+00 -4.147020733569558359e+01 1.278843588877983173e+01 8.777520549648102133e+01 4.770689846964605607e+01 1.331284287357694325e+02 -1.533022424822275411e+02 -7.799406393863306164e+01 2.446606879579011107e+01 4.038119992848210416e+01 1.985137845983971374e+02 1.401280877791167256e+02 6.315657355916393811e+01 6.945084869358808533e+01 -3.272576785507664709e+01 1.461899786812784896e+02 -1.728035034455041625e+02 -6.111071590034386247e+01 -5.170030222051143198e+01 -4.988391712467684158e+01 -9.943252885862388268e+01 -1.445256857466936218e+01 -6.609325180782074938e+01 6.852385895295606133e+01 -8.793695055560483809e+00 -5.588693535639998089e+01 -5.988373782822097269e+01 1.735328854246492654e+02 5.689116029171020017e+01 -1.325030482625602701e+01 2.011830245460066351e+02 -1.043705465499590872e+02 -3.401374410407643722e+01 6.449454371531881236e+01 -1.368226965679366358e-01 1.444501980478716341e+01 -1.205328631702160038e+02 1.696747624584329515e+02 -4.710803771297030096e+01 -2.587450638088658650e+01 -1.056087360533010866e+02 1.211526220937984704e+02 9.223180546686768366e+01 -7.459216025117150650e+01 -3.624995639853835883e+01 3.751521339245664421e+01 -1.456684569929560382e+02 -2.124732048763487147e-01 -7.188214684487898865e+01 7.381308438710370012e+00 -1.039813437042397624e+02 -1.525133201748031126e+02 -6.800535468261128358e+01 1.425504653493577223e+02 5.436459044153499320e+01 -8.622679516065586824e+01 8.572602551842990692e+01 3.287759005930807632e+01 8.498150162765854532e+01 -4.049931893365942415e+01 -8.081067521968508061e+01 1.644317280225049558e+02 4.000133733515166057e+01 2.781495580265398004e+01 -7.013014142635513792e+01 -4.066461461514239062e+01 9.120966016538787358e+00 -6.901128521755238054e+00 -1.660715765269821418e+02 -3.327096930839594791e+01 6.186277276093792921e+01 1.071596580699789882e+02 1.495981087071105549e+02 -1.277056033216161701e+01 8.606606540826760465e+01 1.514789743914710982e+02 6.086751003099624313e+01 1.417199673946144856e+02 1.542272110710579192e+01 1.260235079541782000e+02 -8.054952802657878408e+01 5.115229153856258648e+01 2.808890507532329650e+01 7.273583780044454272e+01 -1.018424068967955378e+02 1.898964008320018593e+02 -1.233036669292430929e+02 8.465483178473785131e+01 -1.028419054472977052e+02 4.424085504966917881e+01 1.323049068249014049e+01 8.682988473041892519e+01 -7.049344402918102048e+01 -7.227687904351827797e+01 -1.064148703625180126e+01 8.524929021726279643e+01 -2.831449079410620229e+01 -1.558153382650163365e+01 -1.877368632076600363e+01 4.526785120654894357e+00 9.379124688060957737e+01 -5.974790976544510102e+01 -2.577900884335801557e+00 -1.850388492804141833e+02 1.164208657627489600e+02 -1.190615787276790911e+02 -7.041208295919109617e+01 -2.241298734958776961e+01 -1.029175211887065302e+02 -5.065472633466723096e+01 -5.585881850826571338e+01 -1.878462997852343719e+01 1.298278706972089083e+02 5.152661172595783512e+01 9.569176474169493929e+01 -1.297108578629941746e+02 -1.320569707841846139e+02 -2.732823960327386885e+02 9.741355600878692655e+01 9.930792613276399550e+01 4.035775080218684963e+01 -4.050499128841055807e+01 -3.539839739106237460e+01 -1.750705808653925430e+02 1.392026058391120955e+02 -1.023572549834046441e+02 1.019416852777721090e+02 -1.516968024967208351e+02 -1.365445161704301746e+01 -5.277895322055587712e+01 -1.136745088588516097e+02 -4.394818583069864815e+01 -1.198195006879012503e+01 -8.834639831296435375e+01 -9.859847777053600737e+01 -1.178623747053852178e+01 6.784247215304078793e+01 -1.187665565236696352e+02 -1.490610855914029642e+01 -7.029559136539876363e+01 -1.252624836080060220e+02 6.251845570376184824e+00 9.061800099893963534e+01 1.578387021538954116e+02 -1.816096028006669627e+01 -4.390033589610868603e+01 -1.184276772549747676e+02 -1.560829775419585701e+02 9.902362162382988231e+01 -6.937372121674587788e+01 7.533035062721454267e+01 8.961977795799434432e+00 2.785085608795046141e+01 7.044517812906762799e+01 -8.089677435517499759e+01 7.891180577122945294e+01 1.100201914101901082e+02 1.503573201873311689e+02 -1.111780342124733636e+02 9.923513010173937232e+01 -4.562564394931787604e+01 -8.667799561039414868e+01 2.048762631182211749e+02 4.695453227146933273e+01 7.968360632997080018e+01 2.021448799472979729e+01 -6.045054333310729788e+01 -3.334808910025486739e+01 -2.008543090680915384e+02 1.008552715226818179e+02 7.777667835392134066e+01 -7.226164229278674611e+01 -6.977626277821303802e+01 1.385978232493866074e+02 9.648034791950590261e+01 4.880565411929839570e+01 7.260408131399049125e+01 -7.469440825106150150e+00 9.850487300671595392e+01 -9.890886100466903486e+01 1.778684828031177005e+02 -3.769240421244222716e+01 -1.164834005210680061e+02 -3.601963216758136355e+01 6.848397776091199773e+01 1.406398849714570645e+02 1.223415356238882801e+01 1.659373474578565606e+02 4.980676622570458534e+01 3.212071741410706238e+01 -1.062473784496823725e+02 4.273254819992364162e+01 -1.192920441295885183e+02 4.556490394969375757e+01 3.679717470934011203e+01 -1.177996683185844375e+02 -8.118290562891760942e+01 3.806361271288393056e+01 8.328711849973540637e+00 -2.214176416808395587e+01 4.000062413166345721e+01 -2.043386282627927031e+01 -6.022455938159135513e+01 -2.508687099218220951e+01 -2.138350987766568423e+01 -3.800687606145179842e+01 1.790443664679263946e+01 -7.689507088364395315e+01 1.135362547141134684e+02 -7.087747772681044012e+01 -3.977655488475130063e+00 6.268983365185688683e+01 3.687005317179033792e+00 1.525066151593239283e+01 1.525234179575693005e+01 -1.117808571169103260e+02 -4.200964473557898593e+00 6.208436476550154026e+01 -2.208992983834369852e+02 -8.104756534497862219e+01 -1.075499457581616838e+02 4.181167856580974274e+01 9.182895805576504245e+01 -8.759853677138244166e+01 -1.602356483808471239e+02 -1.767773871090520288e+02 1.903637176529969111e+01 -1.382889695924755245e+02 -6.042858272252156659e+00 1.408076260375547406e+02 -6.727613161342539172e+00 3.538771868745421756e+01 -9.419636427195388251e+01 7.605770715794258763e+01 -1.128403550905289308e+02 -1.470128423297178699e+01 -2.879198261772758372e+01 5.479130503123145246e+01 -8.384174642290231461e+00 1.004514700002887366e+02 -1.160479556060005422e+02 -4.759198688557800949e+01 8.237751493519779444e+01 6.282670510441820255e+01 -7.814127981712343285e+01 -5.166855792864540575e+01 -4.688537973521237490e+01 -2.746228466485152921e+02 1.836007522796127773e+02 7.212408969080830445e+01 -2.233202231837161733e+01 -2.813311762858878851e+01 3.936205153890287534e+01 -7.966224600229902819e+01 9.424347680839123598e+01 5.730607349980658682e+01 7.752708858467961761e+01 -7.961157640066629426e+01 -2.504952163909013763e+01 3.151190710404639717e+01 1.644708057696789893e+01 -4.056324781830234372e+01 1.494913072079699248e+02 -1.634168573888342380e+01 3.351499968846819399e+01 -2.174633162402754465e+02 -8.005434117747584821e+01 -6.915819012809814126e+01 2.178187091506794459e+01 1.032365197349794812e+02 -2.191911668456607742e+02 -1.768669138733797013e+02 2.095369391630320592e+02 -9.986430804298565889e+00 9.078993421639573569e+01 5.918841466684376229e+01 -5.230616139771947104e+01 -1.238478703777006018e+02 -8.996537941420562845e+01 -4.749796415343548261e+01 -3.535473554509928817e+01 -3.702639961625666132e+01 1.523329288809757642e+01 3.520944849745605865e+01 1.577815602273031743e+02 1.165502340686138041e+02 6.638594547519677924e+00 -4.179943151080319552e+00 -1.500538841400902186e+02 1.131225449196463160e+02 1.505890653054933921e+02 -9.783770426791683406e+01 6.969196197545363702e+01 1.570880530425258659e+00 5.196244843433619565e+01 1.185058791948768828e+02 6.707169586667600925e+01 -1.267543027475605015e+02 1.522343593585634025e+01 -2.778808781698228003e+01 1.054138165066350474e+01 -2.181238573050702101e+01 4.286107142274000381e+01 -2.465611936207722579e+02 1.713404811212784580e+02 6.847246525406842643e+00 1.508045749140279952e+02 -9.935531198373960038e+00 1.004390541986296199e+02 6.778911159239341089e+01 -3.970855425327450661e+01 2.837557164089651707e+01 -6.898034410080960299e+01 -8.430265726917849634e+01 -6.822050485879489656e+01 -3.037160358112183545e+01 4.278135508490364458e+01 1.043608521459924674e+02 2.695825543322199991e+01 5.895177641979071126e+01 -9.937024791764896747e+01 -1.299956748954536749e+02 -1.278212392473575854e+01 4.395944429417441768e+01 -4.305074170932206812e+01 8.972883816512378985e+01 5.269375890012109664e+01 -2.620689074421853704e+01 2.839521482446428635e+01 5.824807288078353196e+01 -6.837622837756718752e+01 -1.268529572132876382e+02 1.347604394915626358e+02 7.410805890149092967e+00 4.757678656462001499e+01 -1.417366749111382376e+02 -5.070653440826370684e+01 -4.000743605765897382e-01 -6.253238162779798870e+01 4.040551293729107485e+00 5.348978143311061473e+01 1.771522090343152058e+02 3.718880438142922173e+01 -1.041093244791118622e+01 6.870418357975785284e+01 -4.321388098098037744e+01 -1.036085426498385829e+02 -1.313841979731866161e+02 8.898102301582378360e+00 2.388442831916372100e+01 2.269248117900105655e+01 -5.412364585447103593e+01 1.149576409137240205e+02 -7.691560599964780920e+01 1.221419863176326430e+02 8.309452585320350693e+01 -6.192297070098625511e+01 -8.075045004644820779e+01 8.021583908521179751e+01 1.942355633426198835e+01 -5.005495109703931433e+01 -5.128931547104690480e+01 1.303544252697135448e+02 5.466243518327329554e+01 7.620581625567704975e+01 2.492837956429113788e+01 -4.007449688774072172e+01 1.024087483315519052e+02 -5.205026514046467412e+01 5.577002673498625551e-01 7.299969978068352816e+01 9.503645161591551016e+01 2.438814535745396199e+02 -1.672461620505938527e+02 1.535992274137723825e+02 -6.446312031014986133e+01 -1.454943137293698463e+01 -2.402448333749491383e+01 -1.979844092062711169e+01 -5.262078380523584542e+01 8.888352440452406711e+01 1.758514050584289237e+02 -1.135158451391828152e+02 2.957372700534471832e+01 -1.213581255239599557e+02 6.714707463563441081e+01 -4.253224884616454915e+01 -7.757612982349601793e+01 -5.162900984376204150e+01 3.946750054038751188e+01 1.854080461791075507e+01 -7.832380652336027538e+01 -1.351665140115965471e+02 1.989954464017745295e+01 1.511336866327935127e+02 1.370429533724184701e+01 1.750660096686019926e+02 7.150244822878192075e+00 1.292276775671815017e+02 -3.320051934041156727e+01 8.717095622981813108e+01 -6.861244986667972512e+01 -1.084692041412944690e+02 4.750552923192892507e+01 -5.573904537361553224e+01 -7.551362039514278024e+01 7.003860981234416272e+01 6.240147245863918002e+00 -9.067860253212361954e+01 -1.449221508244872041e+02 1.424027535700633962e+02 -8.585779940929313625e+01 -2.296118525821656764e+00 1.156954136099699610e+02 5.587911726308969662e+01 -9.466115473504167710e+01 1.028370127459341710e+01 2.719271768027563212e+02 5.138347329440878752e+01 -1.521118038842778333e+02 -4.605253181322603950e+01 -5.931891552924439992e+01 9.272518160242906760e+00 1.038329193895075662e+02 -9.993813633963256393e+01 2.086228950001975235e+01 1.260018777668106793e+02 1.813065085561425960e+01 -2.041115167642639108e+02 4.663490218796990661e+01 7.294418059994619341e+01 -1.314519409731213351e+01 3.167694902249516886e+01 1.825905226665577863e-01 2.182761443627670772e+01 2.680639877195342535e+01 1.119809095466409588e+02 9.479451927210568840e+01 1.514167858064531380e+01 1.440510900955117961e+02 -6.188906851559634958e+01 2.384549948982932790e+02 6.288973468253031740e+01 1.370522976729179447e+02 -2.123202104733638151e+01 8.710911036538318797e+01 -4.727749858690496154e+01 -1.415524570364764543e+02 2.528687495233328519e+01 9.182297925411975825e+01 -8.466633177814709654e+01 -1.013022236430745124e+02 -6.435576775003988814e+01 3.542777081486237023e+01 -1.104222197463165998e+02 7.223607605926737563e+01 2.710626670042492847e+01 -9.441229901959826520e+01 1.836776658845345196e+02 -1.137436284837748346e+01 -9.845426450504986349e+01 -1.298947188393739083e+01 -1.976776313931027218e+01 -1.356244739540958051e+02 -3.870202098085643172e+01 5.950689262444559091e+01 1.274994304359474455e+02 2.810648959782150058e+01 2.585785955207122200e+01 4.332328314627990551e+01 -3.453138458844044578e+01 -1.408764749619948304e+02 1.539223488719649069e+01 2.992643928803394004e+01 1.287907014630665685e+02 -9.545628880306798791e+00 -7.363514567651792220e+01 7.080949100701867849e+01 9.345223930392386746e-01 3.072969989647223699e+01 1.346570734240737863e+02 -1.716694901520250482e+02 -8.984237840512707862e+01 1.206791852234210864e+02 -2.028063091513990628e+02 -1.728851366120830733e+02 8.559124573938255764e+01 1.447671707481360670e+02 5.963767551787611865e+01 -4.220441596046576649e+00 1.463728184753941832e+02 -2.063985263474422425e+02 1.007342114010182286e+02 3.983597382313975288e+01 1.194566848431059469e+02 -1.772889380925059299e+02 1.000796373582554679e+02 -2.651421252925900518e+01 -1.256747486465798147e+02 -5.001321085558059210e+00 -8.684483487803231583e+01 -1.521320100222110128e+01 -4.112311675659869437e+00 -1.158131754775173050e+02 -1.159289041325926775e+02 -5.881108940606489455e+01 -1.211705736775803501e+02 1.889261208619736010e+02 -1.514996664236624895e+02 -4.718024271938084979e+01 1.622048109495203789e+02 3.190140937515919362e+01 -2.782632126019245788e+02 -1.195362112421522482e+02 3.336402889599263943e+01 5.139519766507324761e+01 8.004200897341830157e+00 -1.453113031898774636e+02 3.354608323786283108e+01 7.072128350223483295e+00 -6.987686360782393535e+01 1.906007787091152466e+02 1.904185342495501629e+02 4.095069118113404905e+00 -1.960638364087095340e+02 1.184228424282951408e+02 2.889714486919982406e+01 3.607814465129810078e+00 7.197524212121855669e+01 -1.950653466772110676e+02 -1.297373143327893956e+02 1.325515918753312974e+02 1.030882470879469253e+02 4.971878321109296195e+01 1.345749778468157842e+02 -1.675798213294828258e+02 -1.925244306475075362e+01 -1.225702082176225218e+02 4.107977298032000135e+01 -9.765309818164340072e+01 8.186461641868936567e+01 -3.190699629610017496e+01 1.164443814913737008e+01 1.668129069651834868e+02 2.686056454350336509e+01 -2.477751053831135550e+02 -1.188308501401942436e+02 -7.834087129961120866e+01 1.486345470793455377e+02 1.179091326323596256e+01 -5.068985643036909750e+01 2.847888857516702998e+01 5.872531084543346225e+01 -3.716150129584286077e+01 1.010657125501272020e+02 -9.471286307225263101e+01 4.626388829369653877e+01 1.052266247636986662e+02 -3.342383144963115882e+01 -9.224551531748676325e+01 -1.066808262709371320e+02 1.125855212383383730e+02 -4.671699688315189292e+01 1.847702677630190919e+02 5.377717328821007925e+01 1.042888630997144332e+02 1.734897670468557180e+02 8.040459206163150796e+00 -1.168767920701661183e+02 -1.557742592137728934e+02 -1.073105941651335087e+02 3.997738873520217595e+01
-1.246579292977032694e+01 -4.463402778825156680e+00 9.506174812140643837e+01 -2.103201471264730174e+02 1.427109834860774811e+02 5.827992137013244189e+01 1.397065646146831739e+02 -1.186085671407155218e+02 -2.531231554055829669e+00 -2.208370099612318072e+01 -2.015430838058552752e+02 3.001642793419027200e+01 -1.681506720278605727e+01 1.123117088116918723e+02 -1.148953666741310542e+02 5.666660938652756840e+01 1.150078965959383481e+02 -4.220131613741436638e+01 -4.549239922251895507e+01 -2.474046124253344914e+01 5.669208270346450718e+01 5.787749518597935605e+01 2.979103683262527369e+01 -2.134470730098804552e+02 -4.730620704488364225e+01 8.408226429560212978e+01 9.106907840954203692e+00 -9.543271866396516145e+00 -6.106210601297306084e+01 -1.425116820371998116e+01 6.732672159381330346e+01 -1.334799726058636793e+02 -5.690039603613526964e+01 8.222128838721687316e+00 1.905966649984091532e+02 1.946817136873421816e+02 -2.954220087655127358e+01 5.129989603279484811e+01 -2.304176470297781276e-01 -1.281764858453345823e+02 8.808597661895986164e+01 9.840780138382321240e+01 9.960012234708162282e+01 1.070801714198491617e+01 5.679057908375932584e+01 4.416321494746061660e+01 3.568017909321908121e+01 2.697132365217704830e+01 1.012181209622079052e+02 8.232955954891396289e+01 6.017648088826931740e+01 1.496222691644797180e+02 2.275309869099531284e+02 1.795369753551151746e+02 -5.428920900122955828e+01 4.522302977841671634e+01 -5.897046822777490860e+01 5.173975312811451488e+01 -1.764443417886033387e+02 5.185758377541521469e+01 -1.879134578038996040e+02 -1.548701035358008369e+02 1.189474820917425646e+01 -8.518543839666346429e+00 1.555872763923343882e+02 -1.909323075393422755e+02 6.908677108120276955e+01 2.110105885455692771e+02 -6.816051454850993174e+00 -1.788692582024334001e+02 3.258746503648423243e+01 1.809893157845258713e+02 -5.610644521121987793e+01 -2.447617220299229928e+02 -9.416323227219345426e+01 8.214209783544532684e+00 -2.112503667889559438e+02 2.949834458850047270e+01 -1.647800340567475814e+02 -1.703792902921358916e+02 -5.254737188834619843e+01 1.399705612514638631e+02 6.376174555608683647e+01 9.760577242225787487e+00 -8.148563615078734301e+01 -3.913253592781757817e+01 5.854531854852039885e+01 -2.133447920890146463e+02 4.971007548354121752e+01 -6.883248582417535033e+01 -7.183984410097166062e+01 -1.624984990304451173e+02 5.974572804373151058e+01 8.518029243246080284e+01 -1.491919844979496474e+02 1.588656489104785692e+02 -3.664711826061152067e+01 -1.555893955843516707e+01 8.062570032256742536e+01 1.437740314122913787e+02 2.002574626190856222e+01 1.392889609967206184e+02 -1.704127432278386323e+01 -8.341733613602117714e+01 -1.802499928189785194e+01 9.294111843615824853e+01 4.253769728622280155e+01 9.253450288189847583e+01 8.926398637048951912e+01 -7.862141737335909397e+01 -1.607258569283526413e+02 1.163915464635918937e+02 5.130262988428975746e+01 1.539416566445472334e+01 2.891611931595258511e+01 -6.425825308035298633e+01 9.084214150539402510e+01 8.503535604458180330e+01 -1.301545232328068558e+01 -6.743113936487331728e+01 2.901729850832274593e+01 5.953520491478888843e+00 -5.815592627306359219e+01 1.605033848359234696e+02 -3.097600703767573549e+01 1.150854132781564090e+02 -6.633087261785955491e+01 3.633791605090847554e+01 -3.411997418955895256e+01 8.472706094337202387e+01 2.221276614904619962e+01 1.094362849192685019e+02 -1.098815257656813458e+02 7.040153445324538950e+01 1.169032912207811421e+02 -4.230935513902088019e+01 7.275812628303937935e+00 -1.215400017824917533e+01 1.106727022219901357e+02 3.508713021784003683e+00 1.597028062165624362e+02 -1.339782964998766488e+02 1.105007734883266295e+02 -8.645443045598905485e+01 9.081511668147319938e+01 -1.298975393381529102e+02 2.796193613871155392e+01 2.347346980322921794e+01 1.669175182198826768e+00 3.442714832189787444e+01 4.365808128724044934e+01 -1.171488784114245973e+01 1.037550060547558495e+01 1.025059177384543432e+02 1.206544103011965632e+02 -8.225881933239521970e+01 -5.135492022194037531e+01 4.486947631480840926e+01 1.426008516069942056e+00 -1.299745051393053643e+02 -5.234181801408136891e+01 -3.357317201717884814e+01 4.638044197423477044e+01 -6.215728716619774730e+01 2.173344236181270972e+01 1.522433412236102583e+02 -7.541524474345385443e+01 7.678115847653478454e+01 7.981142535675148508e+01 1.073604512653324150e+01 1.172714770485682436e+02 5.974295573736681320e+01 1.596793905902716801e+02 -3.293225624461265255e+01 1.068672289313626891e+02 5.283603820299690312e+01 -1.526464209860864862e+01 1.941568188639779748e+02 -1.320096142556763823e+02 4.653216607750220390e+01 -1.785308296701026336e+02 -8.011495001169315344e+01 3.909132068481996214e+01 -6.877555226809687383e+01 -1.483739599501030568e+02 1.898937650293626405e+02 -8.172393020424171084e+01 -4.525843892431068127e+01 -4.409491640512079158e+01 1.160313539080433003e+02 1.856242449278290962e+02 6.170971389356489567e+01 1.394007973276986831e+02 2.092268833815539892e+02 -1.508137916656032695e+00 1.552526378819541151e+02 6.757331512238333460e+01 1.815160793096132466e+02 -1.199595977263127509e+02 -1.126393081470562940e+01 6.072350425289299025e+00 1.810718404366249388e+02 -8.659437952803787653e+01 -5.773508132621793010e+01 -5.045657056375693372e+01 -1.278191158699088419e+02 4.459541484019957203e+00 -9.621725312339033565e+01 1.470316631546388066e+02 2.243409698264430219e+01 1.141926931363521724e+01 6.893474691025831191e+01 -4.668777750656754932e+00 1.115843056788811651e+02 -1.515021526865926376e+02 4.332656505476370512e+01 -1.628063010867653020e+02 1.119578679124474405e+02 9.167000586334020795e+01 -6.413337821979501996e+01 4.464419441257889787e+01 2.270623617823330846e+02 -2.906848024530591701e+01 3.970601685835810457e+01 -3.116434775311617855e+01 5.525254317091113876e+01 6.125479161277155526e+01 -6.000904189545399170e+00 9.712627464789325415e+01 9.668855373879311799e+01 -1.848180910571635422e+02 -1.460791007282422242e+02 -1.142663024225452943e+02 -8.971651681733209927e+00 -1.427455671475925669e+02 1.101517937320476506e+02 1.051509693282290527e+02 5.626409487034322154e+01 1.064516160877173157e+01 1.502806421704595436e+02 8.002389885722872975e+01 6.435800585508803806e+01 -9.680521566605807493e+01 1.453213631119104150e+02 -3.451704396722628854e+00 1.042428329465702177e+02 8.411321583149414138e+00 3.501308160438381378e+01 -7.210331297248171722e+01 -8.644641812337961539e+01 6.821209414971690421e+01 -3.700635377270926174e+00 1.392407301763990972e+02 -1.195043712493478516e+01 -2.701030599831183210e+00 4.367780516363443866e+01 2.153831757840777428e+01 1.346759907722338880e+02 1.402424582957498700e+01 3.414944326847889755e+01 -1.472539141482739353e+02 6.263802151374284222e+01 1.271966542257003709e+02 -1.669774785957197238e+01 -2.169374226041548184e+02 8.028427156788450247e+01 1.294516340253232158e+02 1.939285396154324204e+01 1.795503975276327537e+02 -4.107243734028984683e+00 4.067305449865974509e+01 -4.140682955228399464e+01 -1.314194534302602335e+02 5.312963865864667667e+01 -4.500549588995041717e+01 -7.669930336538800475e+01 3.905590254616660673e+01 -1.749512974659249664e+02 6.779610369667744862e+01 1.556954326579621295e+02 -9.578805289565278258e+01 1.637314779882814548e+02 -9.230164845013366914e+01 -5.628331571009074885e+00 -9.988369703239696307e+00 7.249965354412807983e+01 -4.410287486379863253e+01 -1.018527192339654164e+02 -8.375312144770852285e+01 1.377627796708929964e+02 5.584626290916354208e+01 -1.245556552954676732e+02 4.160149362444897747e+00 4.097157939432570117e+01 7.792503569619931625e+01 -3.806153496438709993e+01 5.655482778315938930e+01 -6.508513258060318663e+01 -1.531209542171769726e+02 -3.266030419686849484e+01 1.329569627371669753e+02 -1.069933574126542339e+02 -6.005294857186055602e+00 -1.535450201175921734e+02 -4.603858476192219662e+00 -1.375522139897032048e+02 3.108386053740973409e+01 5.681333352166490158e+01 -4.743221917423233691e+01 -7.761324211380892280e+01 5.322854371619490266e+00 7.011387511598211120e+01 -6.385022117668226116e+01 1.268519418153248353e+02 9.946373748716980856e+01 -1.202086019784282058e+02 -9.931776525020393365e+01 1.271762368443152837e+02 6.710611900918964068e+01 1.413875980497331284e+02 9.402146415643147748e+01 7.632114168767958517e+01 -5.671385359556175842e+01 -7.686685292603563369e+01 -7.244361707263709604e+01 1.922619031416304267e+02 2.880484273285420116e+01 -2.343096195677173199e+01 -6.433493246312178826e+01 -4.686652954560494777e+01 -1.232960453714816538e+02 -1.544470748211954714e+01 -1.642703105243135440e+02 1.170308484824867179e+02 4.301581728521714609e+01 -1.078268967603440558e+02 -4.531922018223905013e+01 1.120629351388313921e+02 -9.067619917473513169e+01 9.625753957873851618e+01 -1.109010623008978769e+02 -1.103063336115257975e+01 -8.938264358105524821e+01 8.400851770391935247e+01 -3.974114971498278237e+01 9.569603192827713656e+00 2.748253730841549469e+01 -1.184869769541873410e+02 1.169146981852527212e+01 4.528251684806210164e+01 -2.087659098969871607e+01 -6.431193967712567883e+01 1.895764704059947121e+02 8.089137976368394334e+01 4.404205935470110234e+01 -2.937560757105687159e+01 7.500409171719815049e+01 1.567849504277057520e+02 -8.623749771430986755e+01 1.959531103474485576e+02 -1.245034578971009580e+02 -1.719914500712317533e+02 1.419218291735253388e+02 -2.188411375273643671e+02 -8.595328304982416956e-01 -2.290830081680858541e+02 -1.429593342716905227e+02 6.713745976790987413e+01 -1.361456381548283900e+02 5.457787375388291906e+01 1.028763153229063505e+02 -1.499143619891752621e+02 -2.811609419498306650e+01 7.054385907995099103e+01 1.252252769526260749e+02 -1.740935441121405631e+02 8.185391739725673688e+01 -9.163459383670009117e+01 -9.195625693501208175e+00 -1.293402169748327779e+01 -7.439713191692464989e+01 -8.442095333366870591e+01 1.696279879974106279e+02 -2.032857352714666987e+01 1.275655545938350510e+00 1.218392383416391169e+02 -8.117793112591333227e+01 -3.221556953509064414e+01 -1.008010573744301581e+02 -4.568393104519892489e+01 4.798177409483956879e+00 5.555047445018903574e+01 -1.265289727743958963e+02 2.222907482577014662e+02 -5.050527206211351228e+01 1.149655515055340089e+02 -4.579793438500351499e+01 1.123545327969152225e+02 1.306479829096692526e+02 4.496549825708090964e+01 1.145700634782107272e+02 -4.058642423103145092e+01 1.314346428510468456e+02 -1.470063829179213144e+02 -6.143067541729082137e+01 -5.915163143188127748e+01 2.405605166923695393e+01 -1.524623797496594761e+02 6.814416611522963763e+01 -2.898278792011192095e+01 -7.764942110623275084e+01 8.415483428761450568e+01 -1.419947411263207186e+02 -8.574290279572900886e+01 -4.951126478478894199e+01 3.107145063396312779e+01 1.219692847558341953e+02 1.097596339540211403e+02 6.490156194289866676e+01 -1.435116156489205874e+00 1.644057298643562604e+02 1.151440655653864127e+02 -8.882487485134410576e+01 -7.337204344870804107e+01 5.166638024498188742e+01 9.319331119858928147e+00 9.207298459009915348e+01 1.567460712555840132e+02 6.635431067556869777e+01 2.300964018649924014e+01 -9.608085124563314139e+01 1.613850896782780922e+02 -1.067912555030272301e+02 -1.552755034123557607e+02 6.176227545537815189e+01 1.047677772907489810e+02 1.847676692372575502e+01 -1.304286274649342943e+02 2.788721219091023684e+01 3.981200190837587627e+01 -3.719497066464901858e-01 1.229684675841255199e+02 9.191243620246510204e+01 1.607224457332807077e+01 7.354990158638941011e+01 -1.003424929823401754e+02 -6.013765516075426198e+00 9.232614690981669980e+01 2.787805345122470513e+01 -6.102491289898590310e+01 1.858990069058970391e+02 2.168883449346481029e+02 -1.176874536799946185e+02 -2.594454358453679532e+01 -1.971291132647448876e+02 -6.770909543857949586e+01 1.468107831653155984e+02 3.127534981304916251e+00 -6.658002933071378493e+01 1.535468884421852351e+02 -5.857033901491409011e+01 -1.506113232272674622e+02 1.280468139659664928e+02 -6.296178098410211987e+01 3.240128092501786483e+01 8.090603534092545601e+01 1.293941192178016841e+01 -2.233354607093581023e+02 3.969490328833823867e+01 -5.816611596581285681e+00 8.448838513157284069e+01 -2.209065493293292093e+01 9.470552713308163106e+01 1.595239043306805193e+01 -7.931015227563162284e+01 -1.920608288407435538e+01 -1.642397900999071965e+02 1.077337405798955530e+02 2.370319886070248216e+01 -3.898485510899573114e+01 -4.852668390966378809e+01 -5.899336849224899737e+01 3.856032313508159604e+01 1.505880638023891720e+02 1.243306743429156001e+02 4.031110572682027282e+01 -1.854092086396445893e+02 -3.635376036913223174e+01 4.107280521953199326e+01 1.099107160643914227e+02 8.166136709094446644e+01 1.444909409864282956e+01 -1.742729804071568367e+02 1.233306568307745863e+02 -2.096220043731873659e+02 -1.928298812485089400e+02 -1.696734878236881405e+00 -6.910764674324265400e+01 -2.263462593056872052e+01 8.161149607150986185e+01 5.238699640226037246e+01 -1.041510438555500286e+02 -1.419318614989531966e+02 1.364924104994410570e+01 1.158797979964669764e+02 1.933607809923598708e+01 -5.312941985565940684e+01 -4.842742860217556000e+01 -1.091670461825759197e+01 1.511918660155575935e+02 2.094263629617399047e+01 -1.657455238967614832e+02 1.224741390471285030e+02 -6.378445753551460484e+01 -3.978985390264834887e+00 1.468920886390947089e+02 -4.984452032199109084e+01 -1.870098790271925537e+01 -1.047874223863858134e+02 -5.715869689154053468e+00 -2.273665603531810220e+01 1.255721043206183793e+02 1.145016243108893406e+02 6.446389538111131401e+01 6.245975663497185337e+01 -1.783858618585047751e+01 1.288869428460599806e+02 -1.075871561262875815e+02 -4.050100289008522481e+00 -8.684857304677856860e+01 1.497907679749869203e+02 6.955267412882308520e+01 4.925738161367937096e+01 7.848424495646102450e+00 -5.086460672095675051e+01 3.278972090388956673e+01 6.392486568786578616e+00 3.531465298046191581e+00 2.296982759217639014e+01 5.700794169307543768e+01 1.623848877304000382e+02 -3.709235439368562481e+01 -4.955306565794585083e+01 6.370756320250398375e+01 1.102998113497418871e+02 -1.222792043287774000e+01 8.772195086173518064e+01 9.932812951336315166e+01 2.010626869254400617e+02 -8.252120759316072451e+01 -1.169650994507743604e+02 -2.732563624090632004e+01 5.930473518921714771e+01 -9.679270952056143074e+00 1.024191974231151079e+02 3.553183200088442106e+01 -1.550542004874321265e+02 4.295030618833378355e+01 -8.528787706624854081e+01 -1.289740997866803127e+02 1.282241421604986158e+02 -7.251733017552825800e+01 5.643953629151688745e+01 1.059150852722432887e+02 -9.430673385109696483e+01 2.242034170547939098e+01 -6.873253332065060306e+01 3.840729346732213401e+01 -1.092707202365646424e+02 5.871035230766550228e+01 5.210897352640127878e+01 3.649486023761018494e+00 8.000370408831588520e+01 -1.455591320427440962e+02 7.271402787653721589e+01 -2.796137814121669152e+01 -1.597266599353527852e+02 8.938326851480059076e+01 2.323408872545616788e+01 -1.853783480866288471e+02 2.224796835254482517e+02 -5.150013066243662729e-01 9.941264983523861076e+01 -1.140062250337247320e+02 -1.835909319440951322e+02 -8.822691340837585017e+01 2.383350687901066856e+00 1.350457565116635408e+02 3.716745611205391597e+00 -9.036771524295065205e+01 4.756492471598706118e+01 1.295577069778232726e+02 6.140016243329933587e+01 -4.887822684241187687e+01 -5.592386522245177360e+01 7.988584878629774266e+01 2.901569915443321790e+01 -1.849374480799618539e+02 -1.959586940177023706e+01 1.597831166649605166e+02 9.337060851576440257e+01 -5.422311909058456791e+01 -1.056977963608373301e+02 -4.033272809660223857e+01 -4.545674836194699964e+01 -1.081947097184524296e+02 -1.739720041160689945e+01 -4.316074117928123144e+01 -1.074183132472989257e+02 -1.247545010936926815e+02 -2.550860737655958488e+01 -1.188302075947622285e+02 -1.265714871555840801e+02 -3.623901163413518844e+01 -5.228739186844557452e+01 -1.049926268129251099e+02 1.823004553544446082e+02 1.029719505059707885e+01 -2.753958221618952606e+01 -1.663815518551383121e+01 7.704194646837906646e+01 1.533309230617473595e+01 2.452812519046943152e+01 -2.076795486588171613e+01 -4.536708894926937319e+01 2.046967110360748521e+01 -1.423870022509766216e+02 -1.558756864380919467e+02 -8.846989100882389323e+01 -1.868910169422183003e+02 -8.773938742118700418e+01 8.395534706940790670e+01 6.012285075135608992e+01 -2.549957863160001637e+01 5.950436135825086836e+01 -1.533586207712181135e+02 -4.007689702236571350e+01 -1.137511110058841695e+02 -6.535793409328540804e+01 2.066591471919273317e+02 -2.010292128058043488e+02 2.010020741554698986e+02 2.442315460836998753e+01 -5.525466200277313789e+01 9.025890194273934242e+01 1.215021863515503497e+02 -5.080655382858130764e+01 -1.995681811057607717e+02 -1.459997558396715647e+02 1.001740931493341549e+02 8.201783248202774246e+01 -1.327394733501916448e+02 3.125462833173248711e+01 -3.888337449966255832e+01 -7.579858256809301054e+01 -2.784059257189108649e+01 -5.366610036350753887e+01 -8.461340742075044830e+01 -3.337388896808476346e+01 4.460718445498173423e+00 -3.195224133121742227e+01 -3.445966377493262511e-01 -1.399271648196812201e+01 9.000560289992328933e+01 1.245046455105538001e+02 1.287967387312356138e+01 1.646414489238805956e+01 -6.186073747418059554e+01 -1.920343823345974101e+02 3.314280428135167256e+01 -8.980175437499829627e+01 2.531569188438579943e+01 -7.919358022411802089e+00 1.063436120077154046e+00 7.093683196989087492e+01 1.193784336637822321e+02 -6.904527993409641340e+01 3.721289020989663499e+01 -1.889546481316722861e+02 9.498222571070702003e+00 6.750030561423963071e+00 -1.200390804592827578e+02 -3.300182278013210180e+01 -4.341264556192678725e+01 4.659202166803500411e+00 -1.001205597848808253e+02 2.648708266212770823e+01 -9.561552850104672530e+01 5.485669269361950739e+01 6.648553218235015549e+01 3.614706875517366313e+01 -2.841246506981470432e+01 1.052716014794241914e+02 5.985032271400353920e+01 7.835411634510226975e+01 -6.562967719454171345e+01 1.980561648227205040e+01 1.252050455140238796e+02 -5.728814254909606518e+01 -6.777351258756183938e+00 3.131121138089952538e+01 -1.257479801543438924e+02 9.573771064739509029e+01 8.768758525506250123e+01 -9.906570532613281443e+01 -8.059938481001522348e+01 -5.436891089666485755e+01 -4.470484906821575777e+01 -1.567743634440766698e+02 -1.329771210281327001e+02 -1.296567547725629197e+02 1.033908166921216889e+02 5.853666907294402932e+01 1.560946942717293950e+02 7.057293719935655574e+00 -8.378960297590212747e+01 1.836314294834023997e+01 1.352066664481558611e+01 -6.219435861283538713e+01 7.241480354472177794e+01 1.154360031607227910e+02 9.719171514497862319e+00 1.401210149231443438e+02 2.197295366895183122e+01 1.084394448142245722e+02 1.471393267336820365e+01 -2.030812536348350079e+02 2.134157524276411664e+02 -4.781961372073673289e+01 -1.456268550654827436e+02 -6.564598690767047628e+01 -4.183475520339173670e+01 4.030174641439040784e+01 2.490178436771275727e+01 4.451234966798629955e+01 -7.198659897303356558e+01 1.189252940125984424e+02 -8.380594358173526359e+01 -6.813075006401728473e+00 1.382513488278810883e+02 1.063426835004614617e+02 5.632900466472602119e+01 -1.717178484332960977e+02 2.466082236821391760e+01 1.360727827200708191e+02 2.269482953807972692e+01 9.452827638474413163e+01 1.030331794773883729e+02 -2.047238730428904034e+02 7.442587053046497658e+01 -5.585974055543175609e+01 -2.175054223392476729e+02 8.552539655139446495e+01 2.371174379385474751e+01 -1.172962769133500842e+02 -5.620697544225278364e+01 1.330084445882073112e+02 1.412827134334461334e+02 -7.256268879719279141e+01 -1.220789761562376725e+02 -7.959495085211928256e+01 -1.580671970706130764e+02 1.864591095549941002e+01 3.612735847479274298e+01 -1.618630229453557590e+01 -1.176797080109015603e+01 -8.498433328741177206e+01 -8.370037059677690650e+01 -2.337137074467466391e+01 1.264814564247377717e+02 1.284553171573234920e+02 7.644296771310577299e+01 9.146692100759362631e+01 -7.384689716904041745e+01 -1.698032403915734960e+02 -1.237448019436773805e+01 -2.167031818797977039e+01 -6.665477780268808772e+01 1.385495551125481617e+00 6.849971109969844463e+01 -4.961262847709364365e+01 2.319827403302517155e+01 7.426618346280163507e+01 6.574814523272034705e+01 1.036829725140661793e+02 -1.398649804834592203e+02 3.716256439740093498e+01 7.812579065769381259e+01 8.885689194912229993e+01 5.535829476145592309e+01 -9.680325216257790544e+01 1.283883793796645136e+02 1.195573273513225416e+02 8.988983271883054726e+01 9.521720299226521433e+01 -7.895717678691649155e+01 -1.392695328701984003e+01 -1.215434299568817167e+01 7.222873884107029596e+01 6.093079261409127412e+01 5.255306747272315704e+01 9.147404709172747062e+01 1.092679985300512726e+02 1.162710382246098106e+02 -6.076681289968627908e+01 7.560082872189784098e+01 6.115906449563527048e+01 -1.103401882143548534e+02 1.234185596848634674e+02 -9.393013824999565387e+00 -2.620125398471944678e+01 1.869965919739632909e+02 8.306363354304838253e+01 1.165028735629353918e+02 -1.355127998270963303e+02 -1.481592144845738233e+02 -1.442710019235714753e+02 -1.147064930256131845e+02 -4.159678909980932815e+01 1.030980639992847756e+02 -1.585168137579874781e+02 3.053776625632811559e+01 1.356944004369138383e+02 -5.581973010600609797e+01 -8.589683247182237835e+01 -3.306137652127225834e+01 1.277991212022843825e+02 2.138648776144949579e+02 -6.280606780556400537e+01 1.866673014285590071e+01 -2.604827166208038847e+01 6.450447713472745193e+01 5.671740410095338802e+01 -2.008606288015098187e+02 -8.354189127021487593e+01 1.296549318324159117e+02 1.317322731661269017e+02 8.909490322964600750e+01 -4.699675445330143475e+01 -7.143386511146351836e+01 -4.276447594751229531e+01 -1.665210431380124589e+02 6.706378964022732703e+01 -2.417630194525908394e+01 1.569104399596397457e+02 -2.636685323434093320e+01 -2.968218005383297395e+02 1.366624588820832571e+02 4.734700919939982811e+01 -1.112750560545250522e+02 -2.094937369174201436e+01 3.330384765415534076e+01 -1.960123157673055232e+02 -1.078259764759611272e+02 -1.035140109279543594e+02 -5.320529129731225026e+01 5.924986249820416617e+01 -1.556363376202967856e+02 1.018324593467462051e+02 -5.128791512302741751e+01 2.772854768619095633e+00 -1.259701327522876397e+02 -9.792425737401683250e+01 1.660406550435516806e+02 8.184466914615805422e+01 -3.988241031538013459e+01 3.506626967257904681e+01 -2.648168721302535644e+01 4.094084317697323172e+01 -9.883085714227507879e+01 9.349164698446668353e+01 4.769029779662682245e+01 -1.123232264742316460e+02 1.103022832877945660e+02 -4.638482591287156964e+01 9.438990921665383382e+01 -4.666896962743572885e+01 8.349365100052713728e+01 -1.449509188770121284e+02 1.349040945320377034e+02 2.339652691794195860e+01 9.516176805722307108e+01 1.232964242939495421e+02 -1.386493112451800300e+02 -8.121937226112784458e+01 -9.987903210226723161e+01 6.321570372143618499e+01 -1.620299656357558149e+02 1.433422108371874231e+02 1.345965045759982672e+02 5.009103899533770488e+01 -8.029471733791646670e+01 5.398102992299982361e+01 -1.015484121139096914e+02 -1.031947509612268554e+01 3.306660916502067948e+01 -1.738129168207962891e+02 -7.714626000963680497e+01 -1.280361609388698341e+01 9.666471336641055245e+01 -4.752250600327550956e+01 1.029298722998547362e+02 -6.085622790357780332e+01 -1.994671427037573039e+02 -1.013529963132827305e+02 -3.218350688882004107e+01 -5.695340928431853911e+01 2.846937108109060333e+01 4.870939392622421593e+01 5.989133194485600775e+00 2.408545853708551121e+01 -1.111734392034458807e+02 5.106271758570390773e+01 3.091998449338390742e+01 -6.833118091639389036e+01 8.808504326538233897e+00 5.345975518626018186e+01 -9.039578217440231356e+01 -5.222978644989829888e+01 -2.292951035082247913e+01 9.246961676266926133e+01 -1.624177268274942421e+01 3.979252781284532414e+00 -2.163287723242550840e+02 -9.008364753646347367e+01 9.383106697436561205e+01 -8.451767910417346741e+01 2.971296729154981620e+01 2.944821450709026323e+01 3.592571072447972824e+01 6.266986712518228586e+01 -1.683142024444137235e+02 1.365856238986430071e+02 7.739736242096731189e+01 -7.166270379741556340e+00 -7.665169225126979313e+01 1.060939462743732520e+02 5.891587684758898291e+01 -1.908403225115168880e+02 -4.778461401793975938e+01 -7.754409618659664716e+01 -4.913091129896976383e+01 -5.871849408897092815e+01 -9.391381482898169963e+01 -5.726380323576607623e+01 1.817655139241543907e+02 -1.619972995434688414e+02 6.211226954611176154e+01 2.633276879548170868e+01 -7.136350717656696929e+01 9.876683045480190160e+00 -3.743954369384419323e+01 3.270528768664790142e+00 -9.126652815951371167e+01 -1.875322286190959460e+02 1.746084048197447913e+01 3.975200341229641054e+01 -1.214193221419409419e+01 -8.472707449619827358e+00 -3.775528355082700216e+01 -1.802356581274345899e+02 -2.906509075184321844e+01 -6.203030160075781652e+01 1.321074988410015649e+01 -1.482860215017846528e+01 8.602523668194288575e+01 -5.984571347323423396e+01 -9.842156341766090577e+01 -3.386009166354304512e+01 -8.503111544646506204e+00 4.310085372999697029e+01 -2.098416277655324791e+01 -7.013253664620471284e+01 -1.508440782403519620e+01 1.901587947822319791e+01 4.510121383006636364e+01 -1.082115684494469434e+02 -1.319979575318128298e+02 2.187444181163038763e+02 -2.073028016217377285e+02 -7.208532080652044272e+01 -4.397255959045010343e+01 1.328016383674264489e+02 6.008852602490325978e+01 2.174627794801104983e+02 2.324763590431142291e+02 -5.924716590697632768e+01 1.229267279735656047e+02 -5.326649451634734334e+01 -3.878142078521636193e+01 -9.554912169929919230e+01 -7.583013265065260100e+01 -6.603499126547835374e+01 -8.457790652469493864e+01 -2.315700706719697166e+02 -2.572432922118744045e+02 1.279148307737494861e+02 -2.522056061289714890e+01 5.060531026017062572e+01 1.243862205144570652e+02
