# 
#                 ----------------------------------------------------
#                 Data from a 3D direct N-body simulation. 
# 
#                 rows are i-particle; 
#                 coumns are :mass, tag, x ,y, z, vx, vy, vz, ax, ay, az
# 
#                 NTHU, Computational Physics Lab
# 
#                 ----------------------------------------------------
#                 Time = 5.9999999999999165
1.000000000000000000e+00 2.000000000000000000e+00 3.000000000000000000e+00 4.000000000000000000e+00 5.000000000000000000e+00 6.000000000000000000e+00 7.000000000000000000e+00 8.000000000000000000e+00 9.000000000000000000e+00 1.000000000000000000e+01 1.100000000000000000e+01 1.200000000000000000e+01 1.300000000000000000e+01 1.400000000000000000e+01 1.500000000000000000e+01 1.600000000000000000e+01 1.700000000000000000e+01 1.800000000000000000e+01 1.900000000000000000e+01 2.000000000000000000e+01 2.100000000000000000e+01 2.200000000000000000e+01 2.300000000000000000e+01 2.400000000000000000e+01 2.500000000000000000e+01 2.600000000000000000e+01 2.700000000000000000e+01 2.800000000000000000e+01 2.900000000000000000e+01 3.000000000000000000e+01 3.100000000000000000e+01 3.200000000000000000e+01 3.300000000000000000e+01 3.400000000000000000e+01 3.500000000000000000e+01 3.600000000000000000e+01 3.700000000000000000e+01 3.800000000000000000e+01 3.900000000000000000e+01 4.000000000000000000e+01 4.100000000000000000e+01 4.200000000000000000e+01 4.300000000000000000e+01 4.400000000000000000e+01 4.500000000000000000e+01 4.600000000000000000e+01 4.700000000000000000e+01 4.800000000000000000e+01 4.900000000000000000e+01 5.000000000000000000e+01 5.100000000000000000e+01 5.200000000000000000e+01 5.300000000000000000e+01 5.400000000000000000e+01 5.500000000000000000e+01 5.600000000000000000e+01 5.700000000000000000e+01 5.800000000000000000e+01 5.900000000000000000e+01 6.000000000000000000e+01 6.100000000000000000e+01 6.200000000000000000e+01 6.300000000000000000e+01 6.400000000000000000e+01 6.500000000000000000e+01 6.600000000000000000e+01 6.700000000000000000e+01 6.800000000000000000e+01 6.900000000000000000e+01 7.000000000000000000e+01 7.100000000000000000e+01 7.200000000000000000e+01 7.300000000000000000e+01 7.400000000000000000e+01 7.500000000000000000e+01 7.600000000000000000e+01 7.700000000000000000e+01 7.800000000000000000e+01 7.900000000000000000e+01 8.000000000000000000e+01 8.100000000000000000e+01 8.200000000000000000e+01 8.300000000000000000e+01 8.400000000000000000e+01 8.500000000000000000e+01 8.600000000000000000e+01 8.700000000000000000e+01 8.800000000000000000e+01 8.900000000000000000e+01 9.000000000000000000e+01 9.100000000000000000e+01 9.200000000000000000e+01 9.300000000000000000e+01 9.400000000000000000e+01 9.500000000000000000e+01 9.600000000000000000e+01 9.700000000000000000e+01 9.800000000000000000e+01 9.900000000000000000e+01 1.000000000000000000e+02 1.010000000000000000e+02 1.020000000000000000e+02 1.030000000000000000e+02 1.040000000000000000e+02 1.050000000000000000e+02 1.060000000000000000e+02 1.070000000000000000e+02 1.080000000000000000e+02 1.090000000000000000e+02 1.100000000000000000e+02 1.110000000000000000e+02 1.120000000000000000e+02 1.130000000000000000e+02 1.140000000000000000e+02 1.150000000000000000e+02 1.160000000000000000e+02 1.170000000000000000e+02 1.180000000000000000e+02 1.190000000000000000e+02 1.200000000000000000e+02 1.210000000000000000e+02 1.220000000000000000e+02 1.230000000000000000e+02 1.240000000000000000e+02 1.250000000000000000e+02 1.260000000000000000e+02 1.270000000000000000e+02 1.280000000000000000e+02 1.290000000000000000e+02 1.300000000000000000e+02 1.310000000000000000e+02 1.320000000000000000e+02 1.330000000000000000e+02 1.340000000000000000e+02 1.350000000000000000e+02 1.360000000000000000e+02 1.370000000000000000e+02 1.380000000000000000e+02 1.390000000000000000e+02 1.400000000000000000e+02 1.410000000000000000e+02 1.420000000000000000e+02 1.430000000000000000e+02 1.440000000000000000e+02 1.450000000000000000e+02 1.460000000000000000e+02 1.470000000000000000e+02 1.480000000000000000e+02 1.490000000000000000e+02 1.500000000000000000e+02 1.510000000000000000e+02 1.520000000000000000e+02 1.530000000000000000e+02 1.540000000000000000e+02 1.550000000000000000e+02 1.560000000000000000e+02 1.570000000000000000e+02 1.580000000000000000e+02 1.590000000000000000e+02 1.600000000000000000e+02 1.610000000000000000e+02 1.620000000000000000e+02 1.630000000000000000e+02 1.640000000000000000e+02 1.650000000000000000e+02 1.660000000000000000e+02 1.670000000000000000e+02 1.680000000000000000e+02 1.690000000000000000e+02 1.700000000000000000e+02 1.710000000000000000e+02 1.720000000000000000e+02 1.730000000000000000e+02 1.740000000000000000e+02 1.750000000000000000e+02 1.760000000000000000e+02 1.770000000000000000e+02 1.780000000000000000e+02 1.790000000000000000e+02 1.800000000000000000e+02 1.810000000000000000e+02 1.820000000000000000e+02 1.830000000000000000e+02 1.840000000000000000e+02 1.850000000000000000e+02 1.860000000000000000e+02 1.870000000000000000e+02 1.880000000000000000e+02 1.890000000000000000e+02 1.900000000000000000e+02 1.910000000000000000e+02 1.920000000000000000e+02 1.930000000000000000e+02 1.940000000000000000e+02 1.950000000000000000e+02 1.960000000000000000e+02 1.970000000000000000e+02 1.980000000000000000e+02 1.990000000000000000e+02 2.000000000000000000e+02 2.010000000000000000e+02 2.020000000000000000e+02 2.030000000000000000e+02 2.040000000000000000e+02 2.050000000000000000e+02 2.060000000000000000e+02 2.070000000000000000e+02 2.080000000000000000e+02 2.090000000000000000e+02 2.100000000000000000e+02 2.110000000000000000e+02 2.120000000000000000e+02 2.130000000000000000e+02 2.140000000000000000e+02 2.150000000000000000e+02 2.160000000000000000e+02 2.170000000000000000e+02 2.180000000000000000e+02 2.190000000000000000e+02 2.200000000000000000e+02 2.210000000000000000e+02 2.220000000000000000e+02 2.230000000000000000e+02 2.240000000000000000e+02 2.250000000000000000e+02 2.260000000000000000e+02 2.270000000000000000e+02 2.280000000000000000e+02 2.290000000000000000e+02 2.300000000000000000e+02 2.310000000000000000e+02 2.320000000000000000e+02 2.330000000000000000e+02 2.340000000000000000e+02 2.350000000000000000e+02 2.360000000000000000e+02 2.370000000000000000e+02 2.380000000000000000e+02 2.390000000000000000e+02 2.400000000000000000e+02 2.410000000000000000e+02 2.420000000000000000e+02 2.430000000000000000e+02 2.440000000000000000e+02 2.450000000000000000e+02 2.460000000000000000e+02 2.470000000000000000e+02 2.480000000000000000e+02 2.490000000000000000e+02 2.500000000000000000e+02 2.510000000000000000e+02 2.520000000000000000e+02 2.530000000000000000e+02 2.540000000000000000e+02 2.550000000000000000e+02 2.560000000000000000e+02 2.570000000000000000e+02 2.580000000000000000e+02 2.590000000000000000e+02 2.600000000000000000e+02 2.610000000000000000e+02 2.620000000000000000e+02 2.630000000000000000e+02 2.640000000000000000e+02 2.650000000000000000e+02 2.660000000000000000e+02 2.670000000000000000e+02 2.680000000000000000e+02 2.690000000000000000e+02 2.700000000000000000e+02 2.710000000000000000e+02 2.720000000000000000e+02 2.730000000000000000e+02 2.740000000000000000e+02 2.750000000000000000e+02 2.760000000000000000e+02 2.770000000000000000e+02 2.780000000000000000e+02 2.790000000000000000e+02 2.800000000000000000e+02 2.810000000000000000e+02 2.820000000000000000e+02 2.830000000000000000e+02 2.840000000000000000e+02 2.850000000000000000e+02 2.860000000000000000e+02 2.870000000000000000e+02 2.880000000000000000e+02 2.890000000000000000e+02 2.900000000000000000e+02 2.910000000000000000e+02 2.920000000000000000e+02 2.930000000000000000e+02 2.940000000000000000e+02 2.950000000000000000e+02 2.960000000000000000e+02 2.970000000000000000e+02 2.980000000000000000e+02 2.990000000000000000e+02 3.000000000000000000e+02 3.010000000000000000e+02 3.020000000000000000e+02 3.030000000000000000e+02 3.040000000000000000e+02 3.050000000000000000e+02 3.060000000000000000e+02 3.070000000000000000e+02 3.080000000000000000e+02 3.090000000000000000e+02 3.100000000000000000e+02 3.110000000000000000e+02 3.120000000000000000e+02 3.130000000000000000e+02 3.140000000000000000e+02 3.150000000000000000e+02 3.160000000000000000e+02 3.170000000000000000e+02 3.180000000000000000e+02 3.190000000000000000e+02 3.200000000000000000e+02 3.210000000000000000e+02 3.220000000000000000e+02 3.230000000000000000e+02 3.240000000000000000e+02 3.250000000000000000e+02 3.260000000000000000e+02 3.270000000000000000e+02 3.280000000000000000e+02 3.290000000000000000e+02 3.300000000000000000e+02 3.310000000000000000e+02 3.320000000000000000e+02 3.330000000000000000e+02 3.340000000000000000e+02 3.350000000000000000e+02 3.360000000000000000e+02 3.370000000000000000e+02 3.380000000000000000e+02 3.390000000000000000e+02 3.400000000000000000e+02 3.410000000000000000e+02 3.420000000000000000e+02 3.430000000000000000e+02 3.440000000000000000e+02 3.450000000000000000e+02 3.460000000000000000e+02 3.470000000000000000e+02 3.480000000000000000e+02 3.490000000000000000e+02 3.500000000000000000e+02 3.510000000000000000e+02 3.520000000000000000e+02 3.530000000000000000e+02 3.540000000000000000e+02 3.550000000000000000e+02 3.560000000000000000e+02 3.570000000000000000e+02 3.580000000000000000e+02 3.590000000000000000e+02 3.600000000000000000e+02 3.610000000000000000e+02 3.620000000000000000e+02 3.630000000000000000e+02 3.640000000000000000e+02 3.650000000000000000e+02 3.660000000000000000e+02 3.670000000000000000e+02 3.680000000000000000e+02 3.690000000000000000e+02 3.700000000000000000e+02 3.710000000000000000e+02 3.720000000000000000e+02 3.730000000000000000e+02 3.740000000000000000e+02 3.750000000000000000e+02 3.760000000000000000e+02 3.770000000000000000e+02 3.780000000000000000e+02 3.790000000000000000e+02 3.800000000000000000e+02 3.810000000000000000e+02 3.820000000000000000e+02 3.830000000000000000e+02 3.840000000000000000e+02 3.850000000000000000e+02 3.860000000000000000e+02 3.870000000000000000e+02 3.880000000000000000e+02 3.890000000000000000e+02 3.900000000000000000e+02 3.910000000000000000e+02 3.920000000000000000e+02 3.930000000000000000e+02 3.940000000000000000e+02 3.950000000000000000e+02 3.960000000000000000e+02 3.970000000000000000e+02 3.980000000000000000e+02 3.990000000000000000e+02 4.000000000000000000e+02 4.010000000000000000e+02 4.020000000000000000e+02 4.030000000000000000e+02 4.040000000000000000e+02 4.050000000000000000e+02 4.060000000000000000e+02 4.070000000000000000e+02 4.080000000000000000e+02 4.090000000000000000e+02 4.100000000000000000e+02 4.110000000000000000e+02 4.120000000000000000e+02 4.130000000000000000e+02 4.140000000000000000e+02 4.150000000000000000e+02 4.160000000000000000e+02 4.170000000000000000e+02 4.180000000000000000e+02 4.190000000000000000e+02 4.200000000000000000e+02 4.210000000000000000e+02 4.220000000000000000e+02 4.230000000000000000e+02 4.240000000000000000e+02 4.250000000000000000e+02 4.260000000000000000e+02 4.270000000000000000e+02 4.280000000000000000e+02 4.290000000000000000e+02 4.300000000000000000e+02 4.310000000000000000e+02 4.320000000000000000e+02 4.330000000000000000e+02 4.340000000000000000e+02 4.350000000000000000e+02 4.360000000000000000e+02 4.370000000000000000e+02 4.380000000000000000e+02 4.390000000000000000e+02 4.400000000000000000e+02 4.410000000000000000e+02 4.420000000000000000e+02 4.430000000000000000e+02 4.440000000000000000e+02 4.450000000000000000e+02 4.460000000000000000e+02 4.470000000000000000e+02 4.480000000000000000e+02 4.490000000000000000e+02 4.500000000000000000e+02 4.510000000000000000e+02 4.520000000000000000e+02 4.530000000000000000e+02 4.540000000000000000e+02 4.550000000000000000e+02 4.560000000000000000e+02 4.570000000000000000e+02 4.580000000000000000e+02 4.590000000000000000e+02 4.600000000000000000e+02 4.610000000000000000e+02 4.620000000000000000e+02 4.630000000000000000e+02 4.640000000000000000e+02 4.650000000000000000e+02 4.660000000000000000e+02 4.670000000000000000e+02 4.680000000000000000e+02 4.690000000000000000e+02 4.700000000000000000e+02 4.710000000000000000e+02 4.720000000000000000e+02 4.730000000000000000e+02 4.740000000000000000e+02 4.750000000000000000e+02 4.760000000000000000e+02 4.770000000000000000e+02 4.780000000000000000e+02 4.790000000000000000e+02 4.800000000000000000e+02 4.810000000000000000e+02 4.820000000000000000e+02 4.830000000000000000e+02 4.840000000000000000e+02 4.850000000000000000e+02 4.860000000000000000e+02 4.870000000000000000e+02 4.880000000000000000e+02 4.890000000000000000e+02 4.900000000000000000e+02 4.910000000000000000e+02 4.920000000000000000e+02 4.930000000000000000e+02 4.940000000000000000e+02 4.950000000000000000e+02 4.960000000000000000e+02 4.970000000000000000e+02 4.980000000000000000e+02 4.990000000000000000e+02 5.000000000000000000e+02 5.010000000000000000e+02 5.020000000000000000e+02 5.030000000000000000e+02 5.040000000000000000e+02 5.050000000000000000e+02 5.060000000000000000e+02 5.070000000000000000e+02 5.080000000000000000e+02 5.090000000000000000e+02 5.100000000000000000e+02 5.110000000000000000e+02 5.120000000000000000e+02 5.130000000000000000e+02 5.140000000000000000e+02 5.150000000000000000e+02 5.160000000000000000e+02 5.170000000000000000e+02 5.180000000000000000e+02 5.190000000000000000e+02 5.200000000000000000e+02 5.210000000000000000e+02 5.220000000000000000e+02 5.230000000000000000e+02 5.240000000000000000e+02 5.250000000000000000e+02 5.260000000000000000e+02 5.270000000000000000e+02 5.280000000000000000e+02 5.290000000000000000e+02 5.300000000000000000e+02 5.310000000000000000e+02 5.320000000000000000e+02 5.330000000000000000e+02 5.340000000000000000e+02 5.350000000000000000e+02 5.360000000000000000e+02 5.370000000000000000e+02 5.380000000000000000e+02 5.390000000000000000e+02 5.400000000000000000e+02 5.410000000000000000e+02 5.420000000000000000e+02 5.430000000000000000e+02 5.440000000000000000e+02 5.450000000000000000e+02 5.460000000000000000e+02 5.470000000000000000e+02 5.480000000000000000e+02 5.490000000000000000e+02 5.500000000000000000e+02 5.510000000000000000e+02 5.520000000000000000e+02 5.530000000000000000e+02 5.540000000000000000e+02 5.550000000000000000e+02 5.560000000000000000e+02 5.570000000000000000e+02 5.580000000000000000e+02 5.590000000000000000e+02 5.600000000000000000e+02 5.610000000000000000e+02 5.620000000000000000e+02 5.630000000000000000e+02 5.640000000000000000e+02 5.650000000000000000e+02 5.660000000000000000e+02 5.670000000000000000e+02 5.680000000000000000e+02 5.690000000000000000e+02 5.700000000000000000e+02 5.710000000000000000e+02 5.720000000000000000e+02 5.730000000000000000e+02 5.740000000000000000e+02 5.750000000000000000e+02 5.760000000000000000e+02 5.770000000000000000e+02 5.780000000000000000e+02 5.790000000000000000e+02 5.800000000000000000e+02 5.810000000000000000e+02 5.820000000000000000e+02 5.830000000000000000e+02 5.840000000000000000e+02 5.850000000000000000e+02 5.860000000000000000e+02 5.870000000000000000e+02 5.880000000000000000e+02 5.890000000000000000e+02 5.900000000000000000e+02 5.910000000000000000e+02 5.920000000000000000e+02 5.930000000000000000e+02 5.940000000000000000e+02 5.950000000000000000e+02 5.960000000000000000e+02 5.970000000000000000e+02 5.980000000000000000e+02 5.990000000000000000e+02 6.000000000000000000e+02 6.010000000000000000e+02 6.020000000000000000e+02 6.030000000000000000e+02 6.040000000000000000e+02 6.050000000000000000e+02 6.060000000000000000e+02 6.070000000000000000e+02 6.080000000000000000e+02 6.090000000000000000e+02 6.100000000000000000e+02 6.110000000000000000e+02 6.120000000000000000e+02 6.130000000000000000e+02 6.140000000000000000e+02 6.150000000000000000e+02 6.160000000000000000e+02 6.170000000000000000e+02 6.180000000000000000e+02 6.190000000000000000e+02 6.200000000000000000e+02 6.210000000000000000e+02 6.220000000000000000e+02 6.230000000000000000e+02 6.240000000000000000e+02 6.250000000000000000e+02 6.260000000000000000e+02 6.270000000000000000e+02 6.280000000000000000e+02 6.290000000000000000e+02 6.300000000000000000e+02 6.310000000000000000e+02 6.320000000000000000e+02 6.330000000000000000e+02 6.340000000000000000e+02 6.350000000000000000e+02 6.360000000000000000e+02 6.370000000000000000e+02 6.380000000000000000e+02 6.390000000000000000e+02 6.400000000000000000e+02 6.410000000000000000e+02 6.420000000000000000e+02 6.430000000000000000e+02 6.440000000000000000e+02 6.450000000000000000e+02 6.460000000000000000e+02 6.470000000000000000e+02 6.480000000000000000e+02 6.490000000000000000e+02 6.500000000000000000e+02 6.510000000000000000e+02 6.520000000000000000e+02 6.530000000000000000e+02 6.540000000000000000e+02 6.550000000000000000e+02 6.560000000000000000e+02 6.570000000000000000e+02 6.580000000000000000e+02 6.590000000000000000e+02 6.600000000000000000e+02 6.610000000000000000e+02 6.620000000000000000e+02 6.630000000000000000e+02 6.640000000000000000e+02 6.650000000000000000e+02 6.660000000000000000e+02 6.670000000000000000e+02 6.680000000000000000e+02 6.690000000000000000e+02 6.700000000000000000e+02 6.710000000000000000e+02 6.720000000000000000e+02 6.730000000000000000e+02 6.740000000000000000e+02 6.750000000000000000e+02 6.760000000000000000e+02 6.770000000000000000e+02 6.780000000000000000e+02 6.790000000000000000e+02 6.800000000000000000e+02 6.810000000000000000e+02 6.820000000000000000e+02 6.830000000000000000e+02 6.840000000000000000e+02 6.850000000000000000e+02 6.860000000000000000e+02 6.870000000000000000e+02 6.880000000000000000e+02 6.890000000000000000e+02 6.900000000000000000e+02 6.910000000000000000e+02 6.920000000000000000e+02 6.930000000000000000e+02 6.940000000000000000e+02 6.950000000000000000e+02 6.960000000000000000e+02 6.970000000000000000e+02 6.980000000000000000e+02 6.990000000000000000e+02 7.000000000000000000e+02 7.010000000000000000e+02 7.020000000000000000e+02 7.030000000000000000e+02 7.040000000000000000e+02 7.050000000000000000e+02 7.060000000000000000e+02 7.070000000000000000e+02 7.080000000000000000e+02 7.090000000000000000e+02 7.100000000000000000e+02 7.110000000000000000e+02 7.120000000000000000e+02 7.130000000000000000e+02 7.140000000000000000e+02 7.150000000000000000e+02 7.160000000000000000e+02 7.170000000000000000e+02 7.180000000000000000e+02 7.190000000000000000e+02 7.200000000000000000e+02 7.210000000000000000e+02 7.220000000000000000e+02 7.230000000000000000e+02 7.240000000000000000e+02 7.250000000000000000e+02 7.260000000000000000e+02 7.270000000000000000e+02 7.280000000000000000e+02 7.290000000000000000e+02 7.300000000000000000e+02 7.310000000000000000e+02 7.320000000000000000e+02 7.330000000000000000e+02 7.340000000000000000e+02 7.350000000000000000e+02 7.360000000000000000e+02 7.370000000000000000e+02 7.380000000000000000e+02 7.390000000000000000e+02 7.400000000000000000e+02 7.410000000000000000e+02 7.420000000000000000e+02 7.430000000000000000e+02 7.440000000000000000e+02 7.450000000000000000e+02 7.460000000000000000e+02 7.470000000000000000e+02 7.480000000000000000e+02 7.490000000000000000e+02 7.500000000000000000e+02 7.510000000000000000e+02 7.520000000000000000e+02 7.530000000000000000e+02 7.540000000000000000e+02 7.550000000000000000e+02 7.560000000000000000e+02 7.570000000000000000e+02 7.580000000000000000e+02 7.590000000000000000e+02 7.600000000000000000e+02 7.610000000000000000e+02 7.620000000000000000e+02 7.630000000000000000e+02 7.640000000000000000e+02 7.650000000000000000e+02 7.660000000000000000e+02 7.670000000000000000e+02 7.680000000000000000e+02 7.690000000000000000e+02 7.700000000000000000e+02 7.710000000000000000e+02 7.720000000000000000e+02 7.730000000000000000e+02 7.740000000000000000e+02 7.750000000000000000e+02 7.760000000000000000e+02 7.770000000000000000e+02 7.780000000000000000e+02 7.790000000000000000e+02 7.800000000000000000e+02 7.810000000000000000e+02 7.820000000000000000e+02 7.830000000000000000e+02 7.840000000000000000e+02 7.850000000000000000e+02 7.860000000000000000e+02 7.870000000000000000e+02 7.880000000000000000e+02 7.890000000000000000e+02 7.900000000000000000e+02 7.910000000000000000e+02 7.920000000000000000e+02 7.930000000000000000e+02 7.940000000000000000e+02 7.950000000000000000e+02 7.960000000000000000e+02 7.970000000000000000e+02 7.980000000000000000e+02 7.990000000000000000e+02 8.000000000000000000e+02 8.010000000000000000e+02 8.020000000000000000e+02 8.030000000000000000e+02 8.040000000000000000e+02 8.050000000000000000e+02 8.060000000000000000e+02 8.070000000000000000e+02 8.080000000000000000e+02 8.090000000000000000e+02 8.100000000000000000e+02 8.110000000000000000e+02 8.120000000000000000e+02 8.130000000000000000e+02 8.140000000000000000e+02 8.150000000000000000e+02 8.160000000000000000e+02 8.170000000000000000e+02 8.180000000000000000e+02 8.190000000000000000e+02 8.200000000000000000e+02 8.210000000000000000e+02 8.220000000000000000e+02 8.230000000000000000e+02 8.240000000000000000e+02 8.250000000000000000e+02 8.260000000000000000e+02 8.270000000000000000e+02 8.280000000000000000e+02 8.290000000000000000e+02 8.300000000000000000e+02 8.310000000000000000e+02 8.320000000000000000e+02 8.330000000000000000e+02 8.340000000000000000e+02 8.350000000000000000e+02 8.360000000000000000e+02 8.370000000000000000e+02 8.380000000000000000e+02 8.390000000000000000e+02 8.400000000000000000e+02 8.410000000000000000e+02 8.420000000000000000e+02 8.430000000000000000e+02 8.440000000000000000e+02 8.450000000000000000e+02 8.460000000000000000e+02 8.470000000000000000e+02 8.480000000000000000e+02 8.490000000000000000e+02 8.500000000000000000e+02 8.510000000000000000e+02 8.520000000000000000e+02 8.530000000000000000e+02 8.540000000000000000e+02 8.550000000000000000e+02 8.560000000000000000e+02 8.570000000000000000e+02 8.580000000000000000e+02 8.590000000000000000e+02 8.600000000000000000e+02 8.610000000000000000e+02 8.620000000000000000e+02 8.630000000000000000e+02 8.640000000000000000e+02 8.650000000000000000e+02 8.660000000000000000e+02 8.670000000000000000e+02 8.680000000000000000e+02 8.690000000000000000e+02 8.700000000000000000e+02 8.710000000000000000e+02 8.720000000000000000e+02 8.730000000000000000e+02 8.740000000000000000e+02 8.750000000000000000e+02 8.760000000000000000e+02 8.770000000000000000e+02 8.780000000000000000e+02 8.790000000000000000e+02 8.800000000000000000e+02 8.810000000000000000e+02 8.820000000000000000e+02 8.830000000000000000e+02 8.840000000000000000e+02 8.850000000000000000e+02 8.860000000000000000e+02 8.870000000000000000e+02 8.880000000000000000e+02 8.890000000000000000e+02 8.900000000000000000e+02 8.910000000000000000e+02 8.920000000000000000e+02 8.930000000000000000e+02 8.940000000000000000e+02 8.950000000000000000e+02 8.960000000000000000e+02 8.970000000000000000e+02 8.980000000000000000e+02 8.990000000000000000e+02 9.000000000000000000e+02 9.010000000000000000e+02 9.020000000000000000e+02 9.030000000000000000e+02 9.040000000000000000e+02 9.050000000000000000e+02 9.060000000000000000e+02 9.070000000000000000e+02 9.080000000000000000e+02 9.090000000000000000e+02 9.100000000000000000e+02 9.110000000000000000e+02 9.120000000000000000e+02 9.130000000000000000e+02 9.140000000000000000e+02 9.150000000000000000e+02 9.160000000000000000e+02 9.170000000000000000e+02 9.180000000000000000e+02 9.190000000000000000e+02 9.200000000000000000e+02 9.210000000000000000e+02 9.220000000000000000e+02 9.230000000000000000e+02 9.240000000000000000e+02 9.250000000000000000e+02 9.260000000000000000e+02 9.270000000000000000e+02 9.280000000000000000e+02 9.290000000000000000e+02 9.300000000000000000e+02 9.310000000000000000e+02 9.320000000000000000e+02 9.330000000000000000e+02 9.340000000000000000e+02 9.350000000000000000e+02 9.360000000000000000e+02 9.370000000000000000e+02 9.380000000000000000e+02 9.390000000000000000e+02 9.400000000000000000e+02 9.410000000000000000e+02 9.420000000000000000e+02 9.430000000000000000e+02 9.440000000000000000e+02 9.450000000000000000e+02 9.460000000000000000e+02 9.470000000000000000e+02 9.480000000000000000e+02 9.490000000000000000e+02 9.500000000000000000e+02 9.510000000000000000e+02 9.520000000000000000e+02 9.530000000000000000e+02 9.540000000000000000e+02 9.550000000000000000e+02 9.560000000000000000e+02 9.570000000000000000e+02 9.580000000000000000e+02 9.590000000000000000e+02 9.600000000000000000e+02 9.610000000000000000e+02 9.620000000000000000e+02 9.630000000000000000e+02 9.640000000000000000e+02 9.650000000000000000e+02 9.660000000000000000e+02 9.670000000000000000e+02 9.680000000000000000e+02 9.690000000000000000e+02 9.700000000000000000e+02 9.710000000000000000e+02 9.720000000000000000e+02 9.730000000000000000e+02 9.740000000000000000e+02 9.750000000000000000e+02 9.760000000000000000e+02 9.770000000000000000e+02 9.780000000000000000e+02 9.790000000000000000e+02 9.800000000000000000e+02 9.810000000000000000e+02 9.820000000000000000e+02 9.830000000000000000e+02 9.840000000000000000e+02 9.850000000000000000e+02 9.860000000000000000e+02 9.870000000000000000e+02 9.880000000000000000e+02 9.890000000000000000e+02 9.900000000000000000e+02 9.910000000000000000e+02 9.920000000000000000e+02 9.930000000000000000e+02 9.940000000000000000e+02 9.950000000000000000e+02 9.960000000000000000e+02 9.970000000000000000e+02 9.980000000000000000e+02 9.990000000000000000e+02 1.000000000000000000e+03
1.000000000000000021e-02 1.000000000000000021e-02 1.000000000000000021e-02 1.000000000000000021e-02 1.000000000000000021e-02 1.000000000000000021e-02 1.000000000000000021e-02 1.000000000000000021e-02 1.000000000000000021e-02 1.000000000000000021e-02 1.000000000000000021e-02 1.000000000000000021e-02 1.000000000000000021e-02 1.000000000000000021e-02 1.000000000000000021e-02 1.000000000000000021e-02 1.000000000000000021e-02 1.000000000000000021e-02 1.000000000000000021e-02 1.000000000000000021e-02 1.000000000000000021e-02 1.000000000000000021e-02 1.000000000000000021e-02 1.000000000000000021e-02 1.000000000000000021e-02 1.000000000000000021e-02 1.000000000000000021e-02 1.000000000000000021e-02 1.000000000000000021e-02 1.000000000000000021e-02 1.000000000000000021e-02 1.000000000000000021e-02 1.000000000000000021e-02 1.000000000000000021e-02 1.000000000000000021e-02 1.000000000000000021e-02 1.000000000000000021e-02 1.000000000000000021e-02 1.000000000000000021e-02 1.000000000000000021e-02 1.000000000000000021e-02 1.000000000000000021e-02 1.000000000000000021e-02 1.000000000000000021e-02 1.000000000000000021e-02 1.000000000000000021e-02 1.000000000000000021e-02 1.000000000000000021e-02 1.000000000000000021e-02 1.000000000000000021e-02 1.000000000000000021e-02 1.000000000000000021e-02 1.000000000000000021e-02 1.000000000000000021e-02 1.000000000000000021e-02 1.000000000000000021e-02 1.000000000000000021e-02 1.000000000000000021e-02 1.000000000000000021e-02 1.000000000000000021e-02 1.000000000000000021e-02 1.000000000000000021e-02 1.000000000000000021e-02 1.000000000000000021e-02 1.000000000000000021e-02 1.000000000000000021e-02 1.000000000000000021e-02 1.000000000000000021e-02 1.000000000000000021e-02 1.000000000000000021e-02 1.000000000000000021e-02 1.000000000000000021e-02 1.000000000000000021e-02 1.000000000000000021e-02 1.000000000000000021e-02 1.000000000000000021e-02 1.000000000000000021e-02 1.000000000000000021e-02 1.000000000000000021e-02 1.000000000000000021e-02 1.000000000000000021e-02 1.000000000000000021e-02 1.000000000000000021e-02 1.000000000000000021e-02 1.000000000000000021e-02 1.000000000000000021e-02 1.000000000000000021e-02 1.000000000000000021e-02 1.000000000000000021e-02 1.000000000000000021e-02 1.000000000000000021e-02 1.000000000000000021e-02 1.000000000000000021e-02 1.000000000000000021e-02 1.000000000000000021e-02 1.000000000000000021e-02 1.000000000000000021e-02 1.000000000000000021e-02 1.000000000000000021e-02 1.000000000000000021e-02 1.000000000000000021e-02 1.000000000000000021e-02 1.000000000000000021e-02 1.000000000000000021e-02 1.000000000000000021e-02 1.000000000000000021e-02 1.000000000000000021e-02 1.000000000000000021e-02 1.000000000000000021e-02 1.000000000000000021e-02 1.000000000000000021e-02 1.000000000000000021e-02 1.000000000000000021e-02 1.000000000000000021e-02 1.000000000000000021e-02 1.000000000000000021e-02 1.000000000000000021e-02 1.000000000000000021e-02 1.000000000000000021e-02 1.000000000000000021e-02 1.000000000000000021e-02 1.000000000000000021e-02 1.000000000000000021e-02 1.000000000000000021e-02 1.000000000000000021e-02 1.000000000000000021e-02 1.000000000000000021e-02 1.000000000000000021e-02 1.000000000000000021e-02 1.000000000000000021e-02 1.000000000000000021e-02 1.000000000000000021e-02 1.000000000000000021e-02 1.000000000000000021e-02 1.000000000000000021e-02 1.000000000000000021e-02 1.000000000000000021e-02 1.000000000000000021e-02 1.000000000000000021e-02 1.000000000000000021e-02 1.000000000000000021e-02 1.000000000000000021e-02 1.000000000000000021e-02 1.000000000000000021e-02 1.000000000000000021e-02 1.000000000000000021e-02 1.000000000000000021e-02 1.000000000000000021e-02 1.000000000000000021e-02 1.000000000000000021e-02 1.000000000000000021e-02 1.000000000000000021e-02 1.000000000000000021e-02 1.000000000000000021e-02 1.000000000000000021e-02 1.000000000000000021e-02 1.000000000000000021e-02 1.000000000000000021e-02 1.000000000000000021e-02 1.000000000000000021e-02 1.000000000000000021e-02 1.000000000000000021e-02 1.000000000000000021e-02 1.000000000000000021e-02 1.000000000000000021e-02 1.000000000000000021e-02 1.000000000000000021e-02 1.000000000000000021e-02 1.000000000000000021e-02 1.000000000000000021e-02 1.000000000000000021e-02 1.000000000000000021e-02 1.000000000000000021e-02 1.000000000000000021e-02 1.000000000000000021e-02 1.000000000000000021e-02 1.000000000000000021e-02 1.000000000000000021e-02 1.000000000000000021e-02 1.000000000000000021e-02 1.000000000000000021e-02 1.000000000000000021e-02 1.000000000000000021e-02 1.000000000000000021e-02 1.000000000000000021e-02 1.000000000000000021e-02 1.000000000000000021e-02 1.000000000000000021e-02 1.000000000000000021e-02 1.000000000000000021e-02 1.000000000000000021e-02 1.000000000000000021e-02 1.000000000000000021e-02 1.000000000000000021e-02 1.000000000000000021e-02 1.000000000000000021e-02 1.000000000000000021e-02 1.000000000000000021e-02 1.000000000000000021e-02 1.000000000000000021e-02 1.000000000000000021e-02 1.000000000000000021e-02 1.000000000000000021e-02 1.000000000000000021e-02 1.000000000000000021e-02 1.000000000000000021e-02 1.000000000000000021e-02 1.000000000000000021e-02 1.000000000000000021e-02 1.000000000000000021e-02 1.000000000000000021e-02 1.000000000000000021e-02 1.000000000000000021e-02 1.000000000000000021e-02 1.000000000000000021e-02 1.000000000000000021e-02 1.000000000000000021e-02 1.000000000000000021e-02 1.000000000000000021e-02 1.000000000000000021e-02 1.000000000000000021e-02 1.000000000000000021e-02 1.000000000000000021e-02 1.000000000000000021e-02 1.000000000000000021e-02 1.000000000000000021e-02 1.000000000000000021e-02 1.000000000000000021e-02 1.000000000000000021e-02 1.000000000000000021e-02 1.000000000000000021e-02 1.000000000000000021e-02 1.000000000000000021e-02 1.000000000000000021e-02 1.000000000000000021e-02 1.000000000000000021e-02 1.000000000000000021e-02 1.000000000000000021e-02 1.000000000000000021e-02 1.000000000000000021e-02 1.000000000000000021e-02 1.000000000000000021e-02 1.000000000000000021e-02 1.000000000000000021e-02 1.000000000000000021e-02 1.000000000000000021e-02 1.000000000000000021e-02 1.000000000000000021e-02 1.000000000000000021e-02 1.000000000000000021e-02 1.000000000000000021e-02 1.000000000000000021e-02 1.000000000000000021e-02 1.000000000000000021e-02 1.000000000000000021e-02 1.000000000000000021e-02 1.000000000000000021e-02 1.000000000000000021e-02 1.000000000000000021e-02 1.000000000000000021e-02 1.000000000000000021e-02 1.000000000000000021e-02 1.000000000000000021e-02 1.000000000000000021e-02 1.000000000000000021e-02 1.000000000000000021e-02 1.000000000000000021e-02 1.000000000000000021e-02 1.000000000000000021e-02 1.000000000000000021e-02 1.000000000000000021e-02 1.000000000000000021e-02 1.000000000000000021e-02 1.000000000000000021e-02 1.000000000000000021e-02 1.000000000000000021e-02 1.000000000000000021e-02 1.000000000000000021e-02 1.000000000000000021e-02 1.000000000000000021e-02 1.000000000000000021e-02 1.000000000000000021e-02 1.000000000000000021e-02 1.000000000000000021e-02 1.000000000000000021e-02 1.000000000000000021e-02 1.000000000000000021e-02 1.000000000000000021e-02 1.000000000000000021e-02 1.000000000000000021e-02 1.000000000000000021e-02 1.000000000000000021e-02 1.000000000000000021e-02 1.000000000000000021e-02 1.000000000000000021e-02 1.000000000000000021e-02 1.000000000000000021e-02 1.000000000000000021e-02 1.000000000000000021e-02 1.000000000000000021e-02 1.000000000000000021e-02 1.000000000000000021e-02 1.000000000000000021e-02 1.000000000000000021e-02 1.000000000000000021e-02 1.000000000000000021e-02 1.000000000000000021e-02 1.000000000000000021e-02 1.000000000000000021e-02 1.000000000000000021e-02 1.000000000000000021e-02 1.000000000000000021e-02 1.000000000000000021e-02 1.000000000000000021e-02 1.000000000000000021e-02 1.000000000000000021e-02 1.000000000000000021e-02 1.000000000000000021e-02 1.000000000000000021e-02 1.000000000000000021e-02 1.000000000000000021e-02 1.000000000000000021e-02 1.000000000000000021e-02 1.000000000000000021e-02 1.000000000000000021e-02 1.000000000000000021e-02 1.000000000000000021e-02 1.000000000000000021e-02 1.000000000000000021e-02 1.000000000000000021e-02 1.000000000000000021e-02 1.000000000000000021e-02 1.000000000000000021e-02 1.000000000000000021e-02 1.000000000000000021e-02 1.000000000000000021e-02 1.000000000000000021e-02 1.000000000000000021e-02 1.000000000000000021e-02 1.000000000000000021e-02 1.000000000000000021e-02 1.000000000000000021e-02 1.000000000000000021e-02 1.000000000000000021e-02 1.000000000000000021e-02 1.000000000000000021e-02 1.000000000000000021e-02 1.000000000000000021e-02 1.000000000000000021e-02 1.000000000000000021e-02 1.000000000000000021e-02 1.000000000000000021e-02 1.000000000000000021e-02 1.000000000000000021e-02 1.000000000000000021e-02 1.000000000000000021e-02 1.000000000000000021e-02 1.000000000000000021e-02 1.000000000000000021e-02 1.000000000000000021e-02 1.000000000000000021e-02 1.000000000000000021e-02 1.000000000000000021e-02 1.000000000000000021e-02 1.000000000000000021e-02 1.000000000000000021e-02 1.000000000000000021e-02 1.000000000000000021e-02 1.000000000000000021e-02 1.000000000000000021e-02 1.000000000000000021e-02 1.000000000000000021e-02 1.000000000000000021e-02 1.000000000000000021e-02 1.000000000000000021e-02 1.000000000000000021e-02 1.000000000000000021e-02 1.000000000000000021e-02 1.000000000000000021e-02 1.000000000000000021e-02 1.000000000000000021e-02 1.000000000000000021e-02 1.000000000000000021e-02 1.000000000000000021e-02 1.000000000000000021e-02 1.000000000000000021e-02 1.000000000000000021e-02 1.000000000000000021e-02 1.000000000000000021e-02 1.000000000000000021e-02 1.000000000000000021e-02 1.000000000000000021e-02 1.000000000000000021e-02 1.000000000000000021e-02 1.000000000000000021e-02 1.000000000000000021e-02 1.000000000000000021e-02 1.000000000000000021e-02 1.000000000000000021e-02 1.000000000000000021e-02 1.000000000000000021e-02 1.000000000000000021e-02 1.000000000000000021e-02 1.000000000000000021e-02 1.000000000000000021e-02 1.000000000000000021e-02 1.000000000000000021e-02 1.000000000000000021e-02 1.000000000000000021e-02 1.000000000000000021e-02 1.000000000000000021e-02 1.000000000000000021e-02 1.000000000000000021e-02 1.000000000000000021e-02 1.000000000000000021e-02 1.000000000000000021e-02 1.000000000000000021e-02 1.000000000000000021e-02 1.000000000000000021e-02 1.000000000000000021e-02 1.000000000000000021e-02 1.000000000000000021e-02 1.000000000000000021e-02 1.000000000000000021e-02 1.000000000000000021e-02 1.000000000000000021e-02 1.000000000000000021e-02 1.000000000000000021e-02 1.000000000000000021e-02 1.000000000000000021e-02 1.000000000000000021e-02 1.000000000000000021e-02 1.000000000000000021e-02 1.000000000000000021e-02 1.000000000000000021e-02 1.000000000000000021e-02 1.000000000000000021e-02 1.000000000000000021e-02 1.000000000000000021e-02 1.000000000000000021e-02 1.000000000000000021e-02 1.000000000000000021e-02 1.000000000000000021e-02 1.000000000000000021e-02 1.000000000000000021e-02 1.000000000000000021e-02 1.000000000000000021e-02 1.000000000000000021e-02 1.000000000000000021e-02 1.000000000000000021e-02 1.000000000000000021e-02 1.000000000000000021e-02 1.000000000000000021e-02 1.000000000000000021e-02 1.000000000000000021e-02 1.000000000000000021e-02 1.000000000000000021e-02 1.000000000000000021e-02 1.000000000000000021e-02 1.000000000000000021e-02 1.000000000000000021e-02 1.000000000000000021e-02 1.000000000000000021e-02 1.000000000000000021e-02 1.000000000000000021e-02 1.000000000000000021e-02 1.000000000000000021e-02 1.000000000000000021e-02 1.000000000000000021e-02 1.000000000000000021e-02 1.000000000000000021e-02 1.000000000000000021e-02 1.000000000000000021e-02 1.000000000000000021e-02 1.000000000000000021e-02 1.000000000000000021e-02 1.000000000000000021e-02 1.000000000000000021e-02 1.000000000000000021e-02 1.000000000000000021e-02 1.000000000000000021e-02 1.000000000000000021e-02 1.000000000000000021e-02 1.000000000000000021e-02 1.000000000000000021e-02 1.000000000000000021e-02 1.000000000000000021e-02 1.000000000000000021e-02 1.000000000000000021e-02 1.000000000000000021e-02 1.000000000000000021e-02 1.000000000000000021e-02 1.000000000000000021e-02 1.000000000000000021e-02 1.000000000000000021e-02 1.000000000000000021e-02 1.000000000000000021e-02 1.000000000000000021e-02 1.000000000000000021e-02 1.000000000000000021e-02 1.000000000000000021e-02 1.000000000000000021e-02 1.000000000000000021e-02 1.000000000000000021e-02 1.000000000000000021e-02 1.000000000000000021e-02 1.000000000000000021e-02 1.000000000000000021e-02 1.000000000000000021e-02 1.000000000000000021e-02 1.000000000000000021e-02 1.000000000000000021e-02 1.000000000000000021e-02 1.000000000000000021e-02 1.000000000000000021e-02 1.000000000000000021e-02 1.000000000000000021e-02 1.000000000000000021e-02 1.000000000000000021e-02 1.000000000000000021e-02 1.000000000000000021e-02 1.000000000000000021e-02 1.000000000000000021e-02 1.000000000000000021e-02 1.000000000000000021e-02 1.000000000000000021e-02 1.000000000000000021e-02 1.000000000000000021e-02 1.000000000000000021e-02 1.000000000000000021e-02 1.000000000000000021e-02 1.000000000000000021e-02 1.000000000000000021e-02 1.000000000000000021e-02 1.000000000000000021e-02 1.000000000000000021e-02 1.000000000000000021e-02 1.000000000000000021e-02 1.000000000000000021e-02 1.000000000000000021e-02 1.000000000000000021e-02 1.000000000000000021e-02 1.000000000000000021e-02 1.000000000000000021e-02 1.000000000000000021e-02 1.000000000000000021e-02 1.000000000000000021e-02 1.000000000000000021e-02 1.000000000000000021e-02 1.000000000000000021e-02 1.000000000000000021e-02 1.000000000000000021e-02 1.000000000000000021e-02 1.000000000000000021e-02 1.000000000000000021e-02 1.000000000000000021e-02 1.000000000000000021e-02 1.000000000000000021e-02 1.000000000000000021e-02 1.000000000000000021e-02 1.000000000000000021e-02 1.000000000000000021e-02 1.000000000000000021e-02 1.000000000000000021e-02 1.000000000000000021e-02 1.000000000000000021e-02 1.000000000000000021e-02 1.000000000000000021e-02 1.000000000000000021e-02 1.000000000000000021e-02 1.000000000000000021e-02 1.000000000000000021e-02 1.000000000000000021e-02 1.000000000000000021e-02 1.000000000000000021e-02 1.000000000000000021e-02 1.000000000000000021e-02 1.000000000000000021e-02 1.000000000000000021e-02 1.000000000000000021e-02 1.000000000000000021e-02 1.000000000000000021e-02 1.000000000000000021e-02 1.000000000000000021e-02 1.000000000000000021e-02 1.000000000000000021e-02 1.000000000000000021e-02 1.000000000000000021e-02 1.000000000000000021e-02 1.000000000000000021e-02 1.000000000000000021e-02 1.000000000000000021e-02 1.000000000000000021e-02 1.000000000000000021e-02 1.000000000000000021e-02 1.000000000000000021e-02 1.000000000000000021e-02 1.000000000000000021e-02 1.000000000000000021e-02 1.000000000000000021e-02 1.000000000000000021e-02 1.000000000000000021e-02 1.000000000000000021e-02 1.000000000000000021e-02 1.000000000000000021e-02 1.000000000000000021e-02 1.000000000000000021e-02 1.000000000000000021e-02 1.000000000000000021e-02 1.000000000000000021e-02 1.000000000000000021e-02 1.000000000000000021e-02 1.000000000000000021e-02 1.000000000000000021e-02 1.000000000000000021e-02 1.000000000000000021e-02 1.000000000000000021e-02 1.000000000000000021e-02 1.000000000000000021e-02 1.000000000000000021e-02 1.000000000000000021e-02 1.000000000000000021e-02 1.000000000000000021e-02 1.000000000000000021e-02 1.000000000000000021e-02 1.000000000000000021e-02 1.000000000000000021e-02 1.000000000000000021e-02 1.000000000000000021e-02 1.000000000000000021e-02 1.000000000000000021e-02 1.000000000000000021e-02 1.000000000000000021e-02 1.000000000000000021e-02 1.000000000000000021e-02 1.000000000000000021e-02 1.000000000000000021e-02 1.000000000000000021e-02 1.000000000000000021e-02 1.000000000000000021e-02 1.000000000000000021e-02 1.000000000000000021e-02 1.000000000000000021e-02 1.000000000000000021e-02 1.000000000000000021e-02 1.000000000000000021e-02 1.000000000000000021e-02 1.000000000000000021e-02 1.000000000000000021e-02 1.000000000000000021e-02 1.000000000000000021e-02 1.000000000000000021e-02 1.000000000000000021e-02 1.000000000000000021e-02 1.000000000000000021e-02 1.000000000000000021e-02 1.000000000000000021e-02 1.000000000000000021e-02 1.000000000000000021e-02 1.000000000000000021e-02 1.000000000000000021e-02 1.000000000000000021e-02 1.000000000000000021e-02 1.000000000000000021e-02 1.000000000000000021e-02 1.000000000000000021e-02 1.000000000000000021e-02 1.000000000000000021e-02 1.000000000000000021e-02 1.000000000000000021e-02 1.000000000000000021e-02 1.000000000000000021e-02 1.000000000000000021e-02 1.000000000000000021e-02 1.000000000000000021e-02 1.000000000000000021e-02 1.000000000000000021e-02 1.000000000000000021e-02 1.000000000000000021e-02 1.000000000000000021e-02 1.000000000000000021e-02 1.000000000000000021e-02 1.000000000000000021e-02 1.000000000000000021e-02 1.000000000000000021e-02 1.000000000000000021e-02 1.000000000000000021e-02 1.000000000000000021e-02 1.000000000000000021e-02 1.000000000000000021e-02 1.000000000000000021e-02 1.000000000000000021e-02 1.000000000000000021e-02 1.000000000000000021e-02 1.000000000000000021e-02 1.000000000000000021e-02 1.000000000000000021e-02 1.000000000000000021e-02 1.000000000000000021e-02 1.000000000000000021e-02 1.000000000000000021e-02 1.000000000000000021e-02 1.000000000000000021e-02 1.000000000000000021e-02 1.000000000000000021e-02 1.000000000000000021e-02 1.000000000000000021e-02 1.000000000000000021e-02 1.000000000000000021e-02 1.000000000000000021e-02 1.000000000000000021e-02 1.000000000000000021e-02 1.000000000000000021e-02 1.000000000000000021e-02 1.000000000000000021e-02 1.000000000000000021e-02 1.000000000000000021e-02 1.000000000000000021e-02 1.000000000000000021e-02 1.000000000000000021e-02 1.000000000000000021e-02 1.000000000000000021e-02 1.000000000000000021e-02 1.000000000000000021e-02 1.000000000000000021e-02 1.000000000000000021e-02 1.000000000000000021e-02 1.000000000000000021e-02 1.000000000000000021e-02 1.000000000000000021e-02 1.000000000000000021e-02 1.000000000000000021e-02 1.000000000000000021e-02 1.000000000000000021e-02 1.000000000000000021e-02 1.000000000000000021e-02 1.000000000000000021e-02 1.000000000000000021e-02 1.000000000000000021e-02 1.000000000000000021e-02 1.000000000000000021e-02 1.000000000000000021e-02 1.000000000000000021e-02 1.000000000000000021e-02 1.000000000000000021e-02 1.000000000000000021e-02 1.000000000000000021e-02 1.000000000000000021e-02 1.000000000000000021e-02 1.000000000000000021e-02 1.000000000000000021e-02 1.000000000000000021e-02 1.000000000000000021e-02 1.000000000000000021e-02 1.000000000000000021e-02 1.000000000000000021e-02 1.000000000000000021e-02 1.000000000000000021e-02 1.000000000000000021e-02 1.000000000000000021e-02 1.000000000000000021e-02 1.000000000000000021e-02 1.000000000000000021e-02 1.000000000000000021e-02 1.000000000000000021e-02 1.000000000000000021e-02 1.000000000000000021e-02 1.000000000000000021e-02 1.000000000000000021e-02 1.000000000000000021e-02 1.000000000000000021e-02 1.000000000000000021e-02 1.000000000000000021e-02 1.000000000000000021e-02 1.000000000000000021e-02 1.000000000000000021e-02 1.000000000000000021e-02 1.000000000000000021e-02 1.000000000000000021e-02 1.000000000000000021e-02 1.000000000000000021e-02 1.000000000000000021e-02 1.000000000000000021e-02 1.000000000000000021e-02 1.000000000000000021e-02 1.000000000000000021e-02 1.000000000000000021e-02 1.000000000000000021e-02 1.000000000000000021e-02 1.000000000000000021e-02 1.000000000000000021e-02 1.000000000000000021e-02 1.000000000000000021e-02 1.000000000000000021e-02 1.000000000000000021e-02 1.000000000000000021e-02 1.000000000000000021e-02 1.000000000000000021e-02 1.000000000000000021e-02 1.000000000000000021e-02 1.000000000000000021e-02 1.000000000000000021e-02 1.000000000000000021e-02 1.000000000000000021e-02 1.000000000000000021e-02 1.000000000000000021e-02 1.000000000000000021e-02 1.000000000000000021e-02 1.000000000000000021e-02 1.000000000000000021e-02 1.000000000000000021e-02 1.000000000000000021e-02 1.000000000000000021e-02 1.000000000000000021e-02 1.000000000000000021e-02 1.000000000000000021e-02 1.000000000000000021e-02 1.000000000000000021e-02 1.000000000000000021e-02 1.000000000000000021e-02 1.000000000000000021e-02 1.000000000000000021e-02 1.000000000000000021e-02 1.000000000000000021e-02 1.000000000000000021e-02 1.000000000000000021e-02 1.000000000000000021e-02 1.000000000000000021e-02 1.000000000000000021e-02 1.000000000000000021e-02 1.000000000000000021e-02 1.000000000000000021e-02 1.000000000000000021e-02 1.000000000000000021e-02 1.000000000000000021e-02 1.000000000000000021e-02 1.000000000000000021e-02 1.000000000000000021e-02 1.000000000000000021e-02 1.000000000000000021e-02 1.000000000000000021e-02 1.000000000000000021e-02 1.000000000000000021e-02 1.000000000000000021e-02 1.000000000000000021e-02 1.000000000000000021e-02 1.000000000000000021e-02 1.000000000000000021e-02 1.000000000000000021e-02 1.000000000000000021e-02 1.000000000000000021e-02 1.000000000000000021e-02 1.000000000000000021e-02 1.000000000000000021e-02 1.000000000000000021e-02 1.000000000000000021e-02 1.000000000000000021e-02 1.000000000000000021e-02 1.000000000000000021e-02 1.000000000000000021e-02 1.000000000000000021e-02 1.000000000000000021e-02 1.000000000000000021e-02 1.000000000000000021e-02 1.000000000000000021e-02 1.000000000000000021e-02 1.000000000000000021e-02 1.000000000000000021e-02 1.000000000000000021e-02 1.000000000000000021e-02 1.000000000000000021e-02 1.000000000000000021e-02 1.000000000000000021e-02 1.000000000000000021e-02 1.000000000000000021e-02 1.000000000000000021e-02 1.000000000000000021e-02 1.000000000000000021e-02 1.000000000000000021e-02 1.000000000000000021e-02 1.000000000000000021e-02 1.000000000000000021e-02 1.000000000000000021e-02 1.000000000000000021e-02 1.000000000000000021e-02 1.000000000000000021e-02 1.000000000000000021e-02 1.000000000000000021e-02 1.000000000000000021e-02 1.000000000000000021e-02 1.000000000000000021e-02 1.000000000000000021e-02 1.000000000000000021e-02 1.000000000000000021e-02 1.000000000000000021e-02 1.000000000000000021e-02 1.000000000000000021e-02 1.000000000000000021e-02 1.000000000000000021e-02 1.000000000000000021e-02 1.000000000000000021e-02 1.000000000000000021e-02 1.000000000000000021e-02 1.000000000000000021e-02 1.000000000000000021e-02 1.000000000000000021e-02 1.000000000000000021e-02 1.000000000000000021e-02 1.000000000000000021e-02 1.000000000000000021e-02 1.000000000000000021e-02 1.000000000000000021e-02 1.000000000000000021e-02 1.000000000000000021e-02 1.000000000000000021e-02 1.000000000000000021e-02 1.000000000000000021e-02 1.000000000000000021e-02 1.000000000000000021e-02 1.000000000000000021e-02 1.000000000000000021e-02 1.000000000000000021e-02 1.000000000000000021e-02 1.000000000000000021e-02 1.000000000000000021e-02 1.000000000000000021e-02 1.000000000000000021e-02 1.000000000000000021e-02 1.000000000000000021e-02 1.000000000000000021e-02 1.000000000000000021e-02 1.000000000000000021e-02 1.000000000000000021e-02 1.000000000000000021e-02 1.000000000000000021e-02 1.000000000000000021e-02 1.000000000000000021e-02 1.000000000000000021e-02 1.000000000000000021e-02 1.000000000000000021e-02 1.000000000000000021e-02 1.000000000000000021e-02 1.000000000000000021e-02 1.000000000000000021e-02 1.000000000000000021e-02 1.000000000000000021e-02 1.000000000000000021e-02 1.000000000000000021e-02 1.000000000000000021e-02 1.000000000000000021e-02 1.000000000000000021e-02 1.000000000000000021e-02 1.000000000000000021e-02 1.000000000000000021e-02 1.000000000000000021e-02 1.000000000000000021e-02 1.000000000000000021e-02 1.000000000000000021e-02 1.000000000000000021e-02 1.000000000000000021e-02 1.000000000000000021e-02 1.000000000000000021e-02 1.000000000000000021e-02 1.000000000000000021e-02 1.000000000000000021e-02 1.000000000000000021e-02 1.000000000000000021e-02 1.000000000000000021e-02 1.000000000000000021e-02 1.000000000000000021e-02 1.000000000000000021e-02 1.000000000000000021e-02 1.000000000000000021e-02 1.000000000000000021e-02 1.000000000000000021e-02 1.000000000000000021e-02 1.000000000000000021e-02 1.000000000000000021e-02 1.000000000000000021e-02 1.000000000000000021e-02 1.000000000000000021e-02 1.000000000000000021e-02 1.000000000000000021e-02 1.000000000000000021e-02 1.000000000000000021e-02 1.000000000000000021e-02 1.000000000000000021e-02 1.000000000000000021e-02 1.000000000000000021e-02 1.000000000000000021e-02 1.000000000000000021e-02 1.000000000000000021e-02 1.000000000000000021e-02 1.000000000000000021e-02 1.000000000000000021e-02 1.000000000000000021e-02 1.000000000000000021e-02 1.000000000000000021e-02 1.000000000000000021e-02 1.000000000000000021e-02
-1.116916539027488824e+02 1.697703198937674358e+02 3.937846648701138719e+01 -8.850747384424009212e+00 -8.797018793696062744e+01 -1.340505945533187848e+01 -2.081235108130690605e+02 6.883147501460356033e-01 -8.481429650307124746e+01 -1.405711556238493820e+01 -1.985362079838764870e+01 6.525456950626321806e+00 -1.783315294830789766e+00 1.679716423687306701e+02 8.471154453143489604e+01 -3.882274172583213812e+01 -5.285076067669129429e+01 7.930431274724601565e+01 3.285835118581587011e+01 -2.539803475464549720e+01 -7.893707978684982152e+01 -7.389078130400558564e+01 -1.382134809998043146e+01 2.896549804778164017e+01 -1.951383075294896230e+02 -9.884420870797802650e+01 -2.611760588714586717e+01 2.018601075973353431e+02 7.084279849898125292e+01 7.680803748935301201e+01 8.038406775986626940e+01 1.186180333553753741e+00 -7.932319002994837831e+01 2.076712997785080859e+02 -2.451199534285405548e+02 5.889506194111537951e+01 -1.202861013209678163e+02 -3.472115890885881839e+01 4.038320911696039239e+00 1.268588594712650917e+02 -1.230454258091204878e+02 -1.366555875826036370e+01 7.745007861428240403e+01 1.738011528044476108e+02 7.144049596790944179e+01 -6.849918671079564092e+01 4.127317016549390871e+01 -2.841523798856761829e+01 -6.614273364590866322e+01 1.567778237710859912e+02 -7.065258671502996890e+01 -5.217668277388082743e+01 -1.394912927477391520e+02 5.759003793645316449e+00 -5.059927333821372741e+01 3.871320383757873174e+01 -8.883668604704401162e+01 -5.012294514361986586e+01 -1.015347555862048807e+02 -1.556404169661384742e+02 1.948115059852554154e+01 4.541431534915148660e+01 -1.232808107096433901e+02 1.287435245011439733e+01 -7.939719822231425894e+01 4.918300943351619736e+01 1.668415840563687595e+02 -1.444511714892624354e+02 -4.336796085472215623e+01 7.204581150797942257e+00 2.933080377793706006e+00 4.243776589182782288e+01 8.409512804887067716e+01 8.804178697183258073e-01 -8.812373630699353200e+00 -7.012258757277035670e+01 7.836813339977111070e+01 -3.281265155907990305e+01 2.633011609376366380e+01 1.041565685407783519e+02 8.834637815133518757e+01 -4.281379452955463449e+01 5.788366273844390264e+01 1.476399728872372918e+02 1.163692864377178751e+02 -4.028988950347324405e+00 1.744514290458759547e+02 -1.116723693667520507e+02 4.205798155567155305e+00 -4.199691730033941894e+01 2.071268250159685067e+02 -2.125307255361320102e+01 2.885750469325388146e+00 -7.689120055889459593e+01 -7.146565917092679854e+00 -6.393519838994246385e+01 6.786676679007986479e+01 -9.468409388793995163e+01 6.867066142051622535e+01 -4.781606643405581991e+01 -4.983252539087008159e+01 -9.179016959975484724e+01 5.316670535093382455e+01 -5.479394704133228799e+01 -1.495464615487321964e+02 -7.958329838829986613e+01 -1.047642276071330656e+02 -1.574553380374555900e+02 1.361368275662365761e+02 -2.753486051330616391e+01 3.207728977180820351e+01 8.979688833744152987e+01 -1.042215198409793118e+02 5.705077453836964452e+01 -4.338369655619079168e+01 -6.943609688013408743e+01 -9.021833934100047259e+01 2.035642648016311398e+02 -5.682492744837874454e+01 -4.956555672957544090e+01 -4.727949706251565942e+01 8.051869577732951200e+01 -4.146924737870899946e+01 1.381880740149191524e+02 -4.994993447030987710e+01 5.517649947706831881e+01 4.549007811965463333e+00 -8.125421515397837879e+01 6.891609440256476660e+01 2.777963489529634558e+02 -9.216411362541337837e+01 4.756303556218051654e+01 -7.635589277359038363e+01 4.530772388682136409e+01 1.313991302819835596e+02 -5.146717001252287815e+01 1.461657401961342373e+01 -2.697130874197348760e+01 -1.021105247214866694e+02 -1.733183466247390214e+01 4.286623962345722738e+00 -7.832883772659934074e+00 -1.497850418656653204e+01 1.184441080525828482e+02 1.305935106784546917e+02 1.868044650158939533e+02 -3.049040427871464090e+02 3.828518314048653082e+01 -1.578571851088481637e+01 -6.247756754391009792e+01 1.807192333139823290e+02 7.636427267129066365e+01 -2.591065467169904935e+00 -1.162198916888228553e+02 -1.092495296368677771e+01 1.003251528426003603e+02 -1.347164374748043372e+02 -1.690427642820432368e+02 1.076301128923368999e+01 4.254035721044845531e+01 -6.118063265057096345e+01 4.214904771060648869e+01 -1.073755950476307532e+02 -1.517459794885065776e+02 2.117015699651326699e+01 4.872281654482064539e+01 4.821326090655947638e+00 -8.373871669046316413e+01 -9.388934944445388453e+01 -8.459421117872929585e+01 -8.784462448663732914e+01 1.267925567209804605e+01 5.703944992074059428e+01 1.169396736382397677e+02 7.973877815064184915e+01 8.986583754731412910e+01 1.078991436061979670e+02 -7.511061824870060377e+01 -8.287631114615375338e+01 7.084114177628144660e+01 6.880081834988492062e+01 5.951744509032574371e+01 -9.437394145943882151e+00 -9.154742212336687146e+01 5.427494639503189688e+01 -1.799897722819653154e+02 6.754674283498657417e+01 -4.480197864637021610e+01 -9.702646545326939531e+01 7.467202578255120216e+01 -1.724937627646929528e+01 -7.764098597552687409e+01 -5.785685110189441360e+01 -9.216670105107683142e+00 2.444362410960281693e+02 7.742381618160469259e+01 5.525634190090231357e+01 -1.047100309928803625e+02 1.494613264194657631e+02 1.057250973893540280e+00 -9.114894988021340794e+01 1.571558288510445891e+02 -1.555099237127246283e+02 1.591814613574913473e+01 -3.284278630945629374e+01 -2.242423502452076036e+02 -1.361172405908368432e+02 -8.901589581069468693e+01 -2.990693276134157585e+01 -1.216710168973464761e+02 5.883455407699602091e+01 6.631502875609606917e+01 -2.813996961409245046e+01 -1.017719850945598381e+02 1.154077745145338696e+02 1.206267144128878499e+02 4.716296950222426432e+01 1.783210670367151707e+01 2.667923750245470274e+02 4.457783195512168817e+01 -1.219402607235759888e+02 -4.600369783709359695e+01 -1.724187637609404931e+02 3.254646350565082713e+01 1.565775414032443962e+02 -1.515342385678817152e+02 1.345601745481894795e+02 -9.292318906118258326e+01 -1.931667789023786241e+01 -7.797928558621793904e-01 5.401194550986325993e+01 -1.184959721234914909e+01 -2.329573962462803394e+01 -1.930352994587028803e+01 -1.294905320722996009e+02 4.744039392522101650e+01 -3.102684449473100514e+01 -1.325601076625718733e+01 -1.095324945130741234e+01 2.309878766293062711e+02 1.780945058506818270e+02 2.378181160364389939e+02 1.347449092828404957e+02 -8.851048726746621753e+01 7.687103840188780168e+01 2.159582600364829119e+01 4.864766371356579100e+01 -4.061035816914076690e+01 2.611771782189543956e+02 -2.382831509877097886e+01 -1.398236501488620434e+02 -1.529213351599922888e+01 -4.686857721766612173e+01 -7.915780855208872424e+01 4.414099808560761318e+01 -1.197987352003347183e+01 1.860652951734652447e+02 9.450669042119429264e+01 4.182005779264765977e+01 1.002707479033883686e+02 9.669426868524782037e+01 -2.351651574572399284e+01 1.428506973726038609e+02 2.710845394268643105e+01 9.164983326306706601e+01 4.876135372909146071e+01 7.093393819553975632e+00 -1.184466850703004752e+02 -1.185258261996796705e+02 -9.211168877114350551e+01 -1.593336922971586667e+01 8.870161199969608390e+01 -3.136595422593928362e+01 1.011898320563918361e+02 4.483082119135320198e+01 -7.441721250127314136e+01 -3.065999941926465766e+01 -5.995905107175574500e+01 1.797331932696615198e+01 -4.740353522501825978e+01 -1.146547669352193282e+02 1.243614299791635887e+02 1.241651311918624288e+02 -8.079303559162698889e+01 5.567170946655673802e+00 -4.637031048911943287e+01 -3.336178294947661982e+01 -1.160633368455448533e+01 -3.195239153946783617e+01 4.549478572976673263e+01 -1.438035605952510139e+02 -5.406512905793741197e+01 -1.553868079032606886e+02 1.781249743458332091e+02 -2.068706479459209646e+01 6.028266602560928078e+01 1.219627592689164786e+01 1.476669053772259304e+02 4.564500756300470385e+01 3.653094595572323300e+01 1.578050241723157399e+02 -5.036011723079673175e+01 -9.976372450639256328e+01 2.777638830081637877e+01 -1.614836271975662783e+02 -5.456914895640481689e+01 1.045350158197556283e+02 -1.304500793687444400e+02 -3.715100445519143335e+01 9.326397031167762464e+01 -9.651384881594879062e+01 -9.141510351396674139e+01 -8.441711433124838493e+01 -6.518487012561007532e+01 2.543544138616094585e+02 2.023958660899857875e+02 1.051759132001898820e+02 -1.043520584568823324e+02 7.642584801334423616e+01 -6.753363838257726570e+01 -3.193276146065481669e+01 1.694932285753439416e+01 -3.287291444292481657e+01 -9.566164046772230733e+01 -2.799027578455389076e+00 1.508414063137977124e+01 1.109536969729357025e+02 -1.310315757379723323e+02 4.273023985323186480e+01 6.500193267802151809e+01 3.520930305113277115e+01 -9.235039349787416540e+01 -1.513349529103485622e+02 1.968454044823946276e+02 -1.814664451062974493e+01 2.565923649562688524e+01 1.594335965687137957e+02 2.715646770395854759e+01 2.824676645378875506e+01 -4.534149748094791477e+01 9.018881627747614971e+01 -1.387772778034503744e+02 -3.135239267255156292e+01 -6.243896081609933368e+00 -5.434822067992804051e+01 6.327112761715673273e+00 2.166237743141085659e+01 -3.640830521916313955e+01 1.390200744876951156e+01 2.173820787846703126e+02 -2.785960465626817140e+01 -2.845326027433623040e+01 -1.033813636342814561e+02 -1.677103333944586883e+00 -8.211108077307503095e+01 6.505182664063139164e+00 1.139478290086884300e+02 -5.289562256540923357e+01 6.148473463483223433e+00 -5.522093863745740805e+01 3.383302662646600290e+00 8.864740148958195221e+01 -1.177639854904830230e+02 -9.840900202282728060e+01 -1.042467181876151869e+02 7.255221611541576010e+01 8.797663119008539923e+01 -9.379126450099036560e+01 6.363564323868087769e+01 2.624047554271357541e+01 3.931731824125920838e+01 -1.804184469765307952e+01 9.282521849860746954e+01 8.101615667843012147e+01 -7.852350791092048610e+01 1.203181380510992504e+01 8.219972616269690491e+01 7.403336874479045093e+01 -2.020842729354608025e+01 2.538206023331747474e+01 -1.347231026070518567e+02 4.929958209944041414e+01 -3.329722811636560209e+01 -3.318072669207059988e+01 1.759627855927923008e+02 4.819553513329502437e+01 1.221391021495865488e+02 1.940100549500631644e+02 -1.398945550030353502e+02 1.514567875402677259e+02 -6.441583748240860530e+01 -1.372944501562845687e+02 8.363557689784423133e+01 -1.362163358063624230e+02 -2.916493847747936741e+01 5.731667751439648129e+01 8.206600157541874552e+00 -1.708066372387005174e+02 8.557892850674943475e+01 2.562260944989311540e+01 7.019812933780299602e+01 3.686020815680910800e+01 9.624769116663381752e+00 -6.818754771274748805e+01 1.175772885897658142e+02 5.535587721269756400e+01 -6.311371130821918740e+01 -1.028530870341973156e+02 3.956220372767920423e+01 2.608954997792360686e+01 8.369968444905283889e+01 1.866701267167707385e+02 -2.502544589073665904e+01 -1.118987906837472082e+02 -8.607402772878722885e+01 -5.213544630790173073e+01 -4.507588567416006242e+01 -1.490602454652392623e+02 -2.286165381358586757e+01 1.315479092094718112e+02 7.572288875345587655e+01 -1.243081439160206401e+02 -1.522243946125007881e+02 -6.918013428297309986e+01 -7.756637140412549059e+01 1.490784110769204460e+02 -1.731481181994712415e+02 8.790336049524809425e+01 -4.680472524995156647e+00 -4.370222244997120242e+01 1.351255091991597368e+01 9.260656083941891836e+01 5.037090506074331131e+01 1.403783985484139123e+02 -1.616313039620998779e+02 -8.224215064591236057e+01 2.574061760744167771e+01 4.259243338024200654e+01 2.093741293028640484e+02 1.477295123474507932e+02 6.655225039392588826e+01 7.323316920449835266e+01 -3.471908104212946000e+01 1.541997554655556826e+02 -1.821333110658804628e+02 -6.439053186623628733e+01 -5.452380117531055959e+01 -5.260192399296441579e+01 -1.048941695959791787e+02 -1.521877828496494445e+01 -6.971096549183370428e+01 7.228880395993951424e+01 -9.302289031725226920e+00 -5.900078112025877175e+01 -6.326160571752735962e+01 1.829906455696300043e+02 5.991452215092858324e+01 -1.391982478781755539e+01 2.121156054005034832e+02 -1.100064815968532770e+02 -3.588254613522950365e+01 6.799273523423727283e+01 -1.326281014044697060e-01 1.517448017317975051e+01 -1.269947514490549167e+02 1.788932224491116472e+02 -4.973944888249133811e+01 -2.735234514289413355e+01 -1.113718160080498052e+02 1.277485523440718680e+02 9.732498861005426249e+01 -7.868137499491882636e+01 -3.813263855331283025e+01 3.951953030934450339e+01 -1.536311417100383778e+02 -1.543336968976616597e-01 -7.579486436670583771e+01 7.814936841586289873e+00 -1.096865287406565130e+02 -1.608215085032641127e+02 -7.169298835952605486e+01 1.502828299312808724e+02 5.738466619741846131e+01 -9.088165499980361517e+01 9.043237145570674329e+01 3.471568893100192810e+01 8.953148325644050942e+01 -4.269566940283693413e+01 -8.524489980872650108e+01 1.733473273256853702e+02 4.222151889206386954e+01 2.934294367459446917e+01 -7.398100167917844772e+01 -4.287090230156837833e+01 9.678335465634395618e+00 -7.254642445780180360e+00 -1.750774094137437658e+02 -3.505298186665472571e+01 6.524546645229251851e+01 1.130366919102443859e+02 1.576806928997517900e+02 -1.343706799618593983e+01 9.073434823373435165e+01 1.596596921555867254e+02 6.419629627174725783e+01 1.495551072262135790e+02 1.625521553803983821e+01 1.328498859372642471e+02 -8.491824566883676084e+01 5.397478084184903935e+01 2.966880147256359734e+01 7.670954824297069763e+01 -1.073654748381969171e+02 2.001466612162281535e+02 -1.301328627305977648e+02 8.921277476607548351e+01 -1.085233913136819979e+02 4.660489493095767699e+01 1.393553231697800321e+01 9.158709624698191476e+01 -7.437430560737419682e+01 -7.621879863197044358e+01 -1.126538927515288790e+01 8.989863271776177100e+01 -2.984943061638468365e+01 -1.645190587223264700e+01 -1.980116389456482295e+01 4.777046035594159967e+00 9.893756691254159819e+01 -6.305883424518955849e+01 -2.734605803372781807e+00 -1.951187723799905314e+02 1.226573062325135481e+02 -1.255312668844071879e+02 -7.426806347607451642e+01 -2.366441784557931527e+01 -1.084914986177049627e+02 -5.343500262404056400e+01 -5.887213891909723884e+01 -1.977280627274556934e+01 1.369567406869520028e+02 5.433458271018238150e+01 1.009396042374320643e+02 -1.367828747229553414e+02 -1.392788733205204608e+02 -2.880035554498431338e+02 1.026677902819031658e+02 1.047934196565713307e+02 4.249720313461250498e+01 -4.264187757960100811e+01 -3.739899461252601753e+01 -1.845735666330808442e+02 1.468723707848704976e+02 -1.079667725483948715e+02 1.075071282939177593e+02 -1.600364484580813382e+02 -1.438361631269401109e+01 -5.566157302689180142e+01 -1.198686285198688068e+02 -4.633708558197533733e+01 -1.256311068735405811e+01 -9.314396372153814241e+01 -1.040386319964253943e+02 -1.242039351031786865e+01 7.157680198378446335e+01 -1.252927574293671142e+02 -1.574978031934810652e+01 -7.415197976079845432e+01 -1.321242780913236174e+02 6.696860212420880920e+00 9.568745056381938241e+01 1.664284963427384696e+02 -1.917701058685021209e+01 -4.631498708824457111e+01 -1.248526802374707785e+02 -1.645251011875438962e+02 1.043764240924822673e+02 -7.317164460191679609e+01 7.948291367500753779e+01 9.459525504821957753e+00 2.942212687743187871e+01 7.429940814404027094e+01 -8.525423660266795878e+01 8.318046884522671292e+01 1.159937690045124157e+02 1.584270832954294406e+02 -1.173141626263920472e+02 1.046053254861953832e+02 -4.807132963304774620e+01 -9.137742523105455916e+01 2.159454128235692281e+02 4.956613770590675472e+01 8.400565126993062393e+01 2.141349233136144647e+01 -6.360662471677517260e+01 -3.516272484686268029e+01 -2.117354963150362153e+02 1.063145861512969503e+02 8.203215203415214773e+01 -7.619061684458850436e+01 -7.362305208254774413e+01 1.461371302698136105e+02 1.017214667331583087e+02 5.144620413288392768e+01 7.657618000322497664e+01 -7.942576002602532270e+00 1.038674963813081860e+02 -1.042156950119963454e+02 1.876129697269246606e+02 -3.974000359114595682e+01 -1.227869027234750519e+02 -3.791689581631864314e+01 7.221343329131609323e+01 1.483043607785741358e+02 1.299750903858524431e+01 1.749599496929882037e+02 5.254554723518280923e+01 3.383803860485889459e+01 -1.120480041523844790e+02 4.510313615043658331e+01 -1.258524858926725898e+02 4.800869896092770261e+01 3.888657730859287653e+01 -1.241563109831891296e+02 -8.559475080650172174e+01 4.009979935072058055e+01 8.783356170601642532e+00 -2.338554403581309771e+01 4.213343395413815529e+01 -2.154005591948880394e+01 -6.350737825659369662e+01 -2.633071732427913503e+01 -2.259990998502646065e+01 -4.009047719137220156e+01 1.890108738832842405e+01 -8.102767760555077814e+01 1.197338018729737570e+02 -7.481101007881606790e+01 -4.303688590818317117e+00 6.596631662401361496e+01 3.921538502102854373e+00 1.605169169853029842e+01 1.606381223761143673e+01 -1.179039007093615652e+02 -4.446404084639366872e+00 6.547892512219749506e+01 -2.329540626054712789e+02 -8.541192745530214836e+01 -1.134586058657541656e+02 4.407691176554690315e+01 9.684994674997250286e+01 -9.234789653710711832e+01 -1.689802176511716993e+02 -1.863494823209879883e+02 2.010005656010605790e+01 -1.458628770869605091e+02 -6.359525889674965349e+00 1.484831703346524705e+02 -7.146373495186150393e+00 3.734844082745567562e+01 -9.941438459065744837e+01 8.020254868036055029e+01 -1.190259336362168057e+02 -1.546767035121575695e+01 -3.041143458930062593e+01 5.775156495699788906e+01 -8.900937036933632029e+00 1.059483385738529648e+02 -1.223307201085025184e+02 -5.018002713567225470e+01 8.670954218320426321e+01 6.624309726997817904e+01 -8.244790816397409117e+01 -5.445078733728927745e+01 -4.939398772763318846e+01 -2.894955221028691312e+02 1.935651429002118107e+02 7.610477361386544715e+01 -2.359214860217373655e+01 -2.965161340481429875e+01 4.150397395042975290e+01 -8.408188870069022869e+01 9.943055853203047434e+01 6.037887726697874058e+01 8.188405920934347648e+01 -8.395737128501450286e+01 -2.651222099164657919e+01 3.328141410461899596e+01 1.734612313083592738e+01 -4.272630497977201713e+01 1.575485684823158010e+02 -1.725070067534057117e+01 3.529974322404097364e+01 -2.292159080405078555e+02 -8.445346549470775699e+01 -7.295511405018478968e+01 2.295205460272224585e+01 1.088619156984759968e+02 -2.309821987636396727e+02 -1.864603910445298709e+02 2.209779216472602741e+02 -1.053604576359238543e+01 9.576743879316387620e+01 6.251122113566436411e+01 -5.519110676448203634e+01 -1.305868340095397855e+02 -9.485944725620358042e+01 -5.010130722902555789e+01 -3.731572874707183018e+01 -3.903146402109585722e+01 1.611576712994899907e+01 3.703412022593536079e+01 1.662873542343936322e+02 1.228103925619629138e+02 6.916897555216342752e+00 -4.374618713749882204e+00 -1.582798668046342243e+02 1.192656381666589027e+02 1.588081638223893606e+02 -1.030891229941073561e+02 7.349352303211364301e+01 1.754649099055575201e+00 5.472209901462750992e+01 1.250271949489877699e+02 7.071514468288243904e+01 -1.336015319093035032e+02 1.609241143316421940e+01 -2.929388639446803211e+01 1.110628139191466346e+01 -2.308817431470901482e+01 4.521794339849145672e+01 -2.598066366339817250e+02 1.807058245755264068e+02 7.287464877018943632e+00 1.590317962864655499e+02 -1.053108024774981821e+01 1.059524843067965065e+02 7.148698094669154557e+01 -4.192363518809025891e+01 2.985234460096555509e+01 -7.268075543836208396e+01 -8.884410971621298359e+01 -7.197945683452844889e+01 -3.201243358355376500e+01 4.513374485958282634e+01 1.100719632395331189e+02 2.847077052588879198e+01 6.206580302624637113e+01 -1.047608253849718096e+02 -1.370754405459080090e+02 -1.347920879725965015e+01 4.638828106465288670e+01 -4.549668363265958959e+01 9.453713579056810090e+01 5.552045677791484479e+01 -2.765167323942044675e+01 2.995408915933112937e+01 6.138371688722867248e+01 -7.213175944686585694e+01 -1.337665929871203332e+02 1.421429230738341118e+02 7.819348268903110188e+00 5.017824446550928741e+01 -1.494222376938957950e+02 -5.346048401673274952e+01 -4.602597362597727892e-01 -6.581961038405019337e+01 4.276890484144920457e+00 5.637303526290609312e+01 1.867585979337161746e+02 3.919888132315945484e+01 -1.098494033502861988e+01 7.236041940390825289e+01 -4.558533443431836218e+01 -1.092394350391207780e+02 -1.385477672942680272e+02 9.397849228500943397e+00 2.518389172438298118e+01 2.387084506610842993e+01 -5.705659556369783303e+01 1.212239087956212416e+02 -8.111415728301017225e+01 1.287851687217364827e+02 8.762199258577044247e+01 -6.529276627762835972e+01 -8.503712152684519765e+01 8.454296804339432470e+01 2.055849418082962643e+01 -5.272209531930659665e+01 -5.408829217481999763e+01 1.373180923186027940e+02 5.757844771169727949e+01 8.027613189207960431e+01 2.627671335684722109e+01 -4.229303183186260640e+01 1.080245277127055772e+02 -5.485916638978994797e+01 5.430404138630523514e-01 7.699927419441996790e+01 1.001595897746076389e+02 2.569846588412200390e+02 -1.762141007465900202e+02 1.619379259915884859e+02 -6.801983305099884092e+01 -1.532419823632706368e+01 -2.523035877418222839e+01 -2.087344516096002778e+01 -5.555125054754311975e+01 9.360871033687121212e+01 1.854341533839882743e+02 -1.197102013470356923e+02 3.117659616932219890e+01 -1.279429504662271739e+02 7.078506963657672202e+01 -4.488324391458709783e+01 -8.172125297788534226e+01 -5.438813061892364686e+01 4.157374772132894947e+01 1.957924718476760617e+01 -8.262039336846201820e+01 -1.425352406403051191e+02 2.099419381719818034e+01 1.593498982784796851e+02 1.444692948611418792e+01 1.845845181775809465e+02 7.552046170401374603e+00 1.362335105620299771e+02 -3.502115477121767384e+01 9.184938310231721914e+01 -7.235196379788916943e+01 -1.143715084941628817e+02 5.008767253457041591e+01 -5.879664767352097954e+01 -7.959528212092641297e+01 7.391533191858385976e+01 6.537382129611401638e+00 -9.565445884388587672e+01 -1.527561393447153648e+02 1.501073201528535037e+02 -9.052710409269984382e+01 -2.380567585362281413e+00 1.219580307902208318e+02 5.895409914101591653e+01 -9.977931083309390203e+01 1.079659284480846893e+01 2.866937512483019646e+02 5.421481419638628552e+01 -1.604140683252626047e+02 -4.853431518951718715e+01 -6.259636588589277295e+01 9.800642204480277897e+00 1.094716206687509299e+02 -1.053292162070189590e+02 2.195603302774384957e+01 1.328797086759087165e+02 1.912356586320003871e+01 -2.151790741051412112e+02 4.924446573168867758e+01 7.689653716716885867e+01 -1.383207974985742439e+01 3.342043651121110059e+01 1.418849366507238530e-01 2.292929382311726272e+01 2.826233871687243493e+01 1.180194565836510634e+02 9.988409955933362028e+01 1.584822707446991430e+01 1.518680000546378039e+02 -6.524330914695877937e+01 2.513634697948429562e+02 6.627285418953708529e+01 1.444150113563457296e+02 -2.239642660335918478e+01 9.180011705437729574e+01 -4.997626080613113686e+01 -1.492101012383416787e+02 2.669821440426353476e+01 9.692009955949737332e+01 -8.931640642523396423e+01 -1.067827789663683831e+02 -6.783797085693696260e+01 3.730892988040672265e+01 -1.164694857826768981e+02 7.619350640132823571e+01 2.862331642817887101e+01 -9.953119663994165478e+01 1.936800817456241646e+02 -1.199507066702550873e+01 -1.037534252647753306e+02 -1.364569753228775539e+01 -2.083821309224643414e+01 -1.430012320470918894e+02 -4.082707767431890744e+01 6.271873614200916336e+01 1.343801181500285509e+02 2.959357465006133836e+01 2.729557363792173419e+01 4.567673655280565015e+01 -3.646376547207005103e+01 -1.484784630805262111e+02 1.616850824750970617e+01 3.160766498224910848e+01 1.357380794590857533e+02 -1.013418936311080820e+01 -7.765574405457616081e+01 7.466538476058303786e+01 1.016341131911743911e+00 3.256240215450534947e+01 1.420579166961563260e+02 -1.810820907798790245e+02 -9.470479843774904793e+01 1.272205924831241930e+02 -2.138227640109190020e+02 -1.822756737071782140e+02 9.018194556608229107e+01 1.526269399921229706e+02 6.282051783790659272e+01 -4.410496456175364344e+00 1.543886407162748071e+02 -2.175372706618863106e+02 1.062040571320477653e+02 4.200418718589457967e+01 1.259485423599649323e+02 -1.869160556831575661e+02 1.056199324520453757e+02 -2.802881070564903254e+01 -1.325111748608911171e+02 -5.278852970185851312e+00 -9.158505527139604396e+01 -1.616247728428225372e+01 -4.249817443696727537e+00 -1.220969102453920812e+02 -1.222222486083862378e+02 -6.201954156170367582e+01 -1.277802105059102900e+02 1.992105409540167216e+02 -1.595992133668799227e+02 -4.972243409847067852e+01 1.710033494964441729e+02 3.362402416994056153e+01 -2.933528824451489641e+02 -1.259549227177254949e+02 3.520676038169705180e+01 5.416082995136753198e+01 8.522706399646821751e+00 -1.532535209448211617e+02 3.537010997185917205e+01 7.402940287347397508e+00 -7.366655396365678143e+01 2.009073442954474160e+02 2.007943221834165968e+02 4.293175383834598513e+00 -2.066732428627944103e+02 1.248693100498626478e+02 3.049684687589629917e+01 3.723410253095457811e+00 7.594523525173418932e+01 -2.056200921325431636e+02 -1.368074962006305384e+02 1.397867005294505702e+02 1.086654978820837272e+02 5.245957695146201161e+01 1.419497601117608383e+02 -1.766737082241965595e+02 -2.025303773578715649e+01 -1.292685785048847436e+02 4.320350521615859662e+01 -1.029379410109176831e+02 8.627038794890999895e+01 -3.357691553999723766e+01 1.227189218590742747e+01 1.758440722250549868e+02 2.824269131598027727e+01 -2.612143922777207194e+02 -1.252301804172668938e+02 -8.260896211804491429e+01 1.566919957058606769e+02 1.242297059698151251e+01 -5.333798775756142874e+01 3.010792454825037368e+01 6.195805032219563913e+01 -3.922672790968909595e+01 1.065523859425808126e+02 -9.983528004880297146e+01 4.877257487332111197e+01 1.109258909118733527e+02 -3.513199463625118568e+01 -9.724546919526127908e+01 -1.124024922602328189e+02 1.186867256262981414e+02 -4.921592134701717214e+01 1.947915189958616224e+02 5.669245310683047734e+01 1.099621888594814294e+02 1.827660855096732178e+02 8.484509316523482170e+00 -1.231653757635062476e+02 -1.642795331291783327e+02 -1.131666938402996294e+02 4.209457187003800271e+01
-1.318444202617468619e+01 -4.662546743036926955e+00 1.002532394871757049e+02 -2.216997153947698393e+02 1.504481730317868937e+02 6.148945055132541881e+01 1.472722501087035312e+02 -1.250251546832664644e+02 -2.693185755725628905e+00 -2.330449622141478727e+01 -2.124589590684024074e+02 3.168752155011220850e+01 -1.773846575152208871e+01 1.183824666911113468e+02 -1.210599216923289987e+02 5.973384867001139753e+01 1.212894641807137219e+02 -4.447293071045803003e+01 -4.806317807171900824e+01 -2.617647221802111801e+01 5.972851625321534641e+01 6.108751436022026127e+01 3.137892045424272069e+01 -2.250735065408000821e+02 -4.996220691132452174e+01 8.856823957407193859e+01 9.586890057653594255e+00 -1.002295833977819584e+01 -6.439925495714733472e+01 -1.496700930818796671e+01 7.098489061823464397e+01 -1.407390851800574012e+02 -5.992496436491042999e+01 8.702515607083570970e+00 2.008557234261815552e+02 2.052324792412071588e+02 -3.105057784643125274e+01 5.409084077121485734e+01 -2.649190287570212243e-01 -1.351726480485752120e+02 9.289713162529281476e+01 1.037919370163720600e+02 1.050301512651237772e+02 1.131473492320866470e+01 5.990515747341147090e+01 4.657678994206789014e+01 3.763436504283636452e+01 2.838760256302010987e+01 1.067398097095234419e+02 8.683375821592630928e+01 6.348989155211381075e+01 1.577367330437010651e+02 2.397258373873584674e+02 1.892809942590663468e+02 -5.722780591241224357e+01 4.768085374694366863e+01 -6.222004048817689892e+01 5.459824812274798944e+01 -1.859725985781744271e+02 5.468259964203838308e+01 -1.981820428093039936e+02 -1.632831364841374011e+02 1.252775846340663257e+01 -8.945111116006934537e+00 1.640827810963638171e+02 -2.012518096441883415e+02 7.286200391116244646e+01 2.224281641899107740e+02 -7.104217705535575078e+00 -1.884723168459686065e+02 3.443495745040311817e+01 1.908831666031241809e+02 -5.914230697543234783e+01 -2.579522521464095917e+02 -9.927829186370070147e+01 8.565826265497127778e+00 -2.227313473612131816e+02 3.101061978435356536e+01 -1.737383086102165350e+02 -1.796842534580413826e+02 -5.530676384419934521e+01 1.476490007517770948e+02 6.730447629748400118e+01 1.027288523081734795e+01 -8.584955276936211988e+01 -4.127027430068468306e+01 6.175802012622778392e+01 -2.248649540292391009e+02 5.242343660444561237e+01 -7.267350249928027495e+01 -7.569278335067990326e+01 -1.713361962200312689e+02 6.307042025440054545e+01 8.989101236816304663e+01 -1.573389354552713542e+02 1.674701244986582367e+02 -3.867528519906587547e+01 -1.640000584151314911e+01 8.490655138730286922e+01 1.515511565592429974e+02 2.103671692947903438e+01 1.468435722353007975e+02 -1.791322178748355753e+01 -8.795692390856602572e+01 -1.902264427978532524e+01 9.802371608774066658e+01 4.483870172665404397e+01 9.753833311672580919e+01 9.412057837084509515e+01 -8.281647330851598099e+01 -1.694202741273512061e+02 1.227013615503040853e+02 5.409816618323944226e+01 1.613099428858702922e+01 3.049260986123145045e+01 -6.773752181720134047e+01 9.577469716220953444e+01 8.960053749920938060e+01 -1.364694330028047808e+01 -7.105873371915834014e+01 3.067726595365742170e+01 6.260214948791158029e+00 -6.137463737195424329e+01 1.691442182056303807e+02 -3.286553341552883722e+01 1.213316389461769660e+02 -6.995730445814851350e+01 3.830526944213924878e+01 -3.603282016267647947e+01 8.928894031115156338e+01 2.343891941317198047e+01 1.153649896240726349e+02 -1.157964980086482143e+02 7.421948348103488513e+01 1.232876523658593442e+02 -4.464407718237347211e+01 7.586558547862113144e+00 -1.267057817205332348e+01 1.166272616741420620e+02 3.560264410702215443e+00 1.684719561148624223e+02 -1.412628979198223362e+02 1.165635238823593482e+02 -9.125141516626091232e+01 9.569050049129759827e+01 -1.369612681428087058e+02 2.950197239459172849e+01 2.473086282533667202e+01 1.810317938843379437e+00 3.630063943628730527e+01 4.591090865463782222e+01 -1.241902642862468653e+01 1.081796159585017136e+01 1.080833394658834976e+02 1.272625991467118212e+02 -8.668776984019049792e+01 -5.422228205357552611e+01 4.737185504933752611e+01 1.537504971573599333e+00 -1.370124771341836265e+02 -5.512361970265550326e+01 -3.547213427835454524e+01 4.894753597265831502e+01 -6.560401564742019787e+01 2.294766778215004166e+01 1.605289732871407011e+02 -7.955782198966181795e+01 8.089986561017137490e+01 8.420532910520087455e+01 1.125301340239333214e+01 1.236439523954818895e+02 6.300097423140311292e+01 1.683829411968868328e+02 -3.463531390729762194e+01 1.127242627952051350e+02 5.568435699056539789e+01 -1.611769338318310218e+01 2.047032867896611208e+02 -1.392211138403413599e+02 4.903765467591389182e+01 -1.882052257289824411e+02 -8.447943902486430545e+01 4.117922246489134608e+01 -7.248737893677287047e+01 -1.564654708809190140e+02 2.001577395839632629e+02 -8.615120857677737831e+01 -4.770182791035144731e+01 -4.649001429635459459e+01 1.223080718897957127e+02 1.956929204416772734e+02 6.506220456210529335e+01 1.469544804800876818e+02 2.205263687989510970e+02 -1.629903811922601697e+00 1.637138950514726616e+02 7.124317750235319124e+01 1.913501842147491345e+02 -1.264139751309428163e+02 -1.192544585443052796e+01 6.371801996104510479e+00 1.909136189356423472e+02 -9.135400843508459445e+01 -6.078218419829567409e+01 -5.321773802646202256e+01 -1.346471576797274281e+02 4.688336961122622881e+00 -1.014505742439162788e+02 1.548985147388289363e+02 2.368713510171642866e+01 1.206904806996718449e+01 7.267714111404275457e+01 -4.959243512063046921e+00 1.175539779492613661e+02 -1.596611284101838066e+02 4.563904839000023372e+01 -1.717168145077242514e+02 1.180249066199178998e+02 9.652481065464910159e+01 -6.765607056571310807e+01 4.700797214376050448e+01 2.393560012653537967e+02 -3.061308571778896592e+01 4.187191436071317696e+01 -3.284046425900202593e+01 5.823379582817011624e+01 6.461275627651704667e+01 -6.305301293236296623e+00 1.024393022042460615e+02 1.020191935802144911e+02 -1.948489926816820628e+02 -1.540094767533397828e+02 -1.204148097766086636e+02 -9.497287951880590384e+00 -1.505332579127098711e+02 1.161182035323853796e+02 1.108953683000547414e+02 5.926556201650672762e+01 1.121585833116793118e+01 1.584535732919901534e+02 8.436851994571881619e+01 6.782235974820302715e+01 -1.021223862260624173e+02 1.530812515945403618e+02 -3.596890785464280871e+00 1.098471579288730027e+02 8.857886879608674491e+00 3.691632642956035681e+01 -7.605399423973814521e+01 -9.116595454121281250e+01 7.190536733683840964e+01 -3.854644986084818647e+00 1.468882203476624113e+02 -1.262714468996366257e+01 -2.867664351079644014e+00 4.604712202601859872e+01 2.273423320239949419e+01 1.419876289548166142e+02 1.469949459410737269e+01 3.598139419501524117e+01 -1.552905456628844831e+02 6.608816014421070406e+01 1.341355255356264990e+02 -1.772244728751852705e+01 -2.287495952370103964e+02 8.466136955098616568e+01 1.364527270958757299e+02 2.035883167705004482e+01 1.892273803327169617e+02 -4.175022925811252783e+00 4.291696528574374980e+01 -4.359692422958897140e+01 -1.386157222197475676e+02 5.596101574415719426e+01 -4.742736233874998675e+01 -8.095573666197098817e+01 4.115711691098644565e+01 -1.844895547446299133e+02 7.158102467512084388e+01 1.640521919488093374e+02 -1.010001792963867331e+02 1.725479757767969033e+02 -9.739995135599177445e+01 -5.965528551016621606e+00 -1.049152084036705368e+01 7.637378730752044476e+01 -4.642987281413999767e+01 -1.074312633153090957e+02 -8.822123939252340108e+01 1.452066048405679624e+02 5.886266387687800261e+01 -1.311834859907299347e+02 4.418251739201527251e+00 4.323390478096335698e+01 8.217156924635706616e+01 -4.013544938846880683e+01 5.968119703238792795e+01 -6.861685336955403614e+01 -1.615069636444819707e+02 -3.444909052169116137e+01 1.402103794345107133e+02 -1.127453391560506049e+02 -6.379032480048800302e+00 -1.619811802964386516e+02 -4.759091174943731239e+00 -1.450198018085067417e+02 3.270720450471929297e+01 5.979572320240411898e+01 -5.001945118542061408e+01 -8.187433545624676867e+01 5.596650475565986049e+00 7.391143394274965317e+01 -6.732371698342284105e+01 1.337970695360309037e+02 1.047951328697195237e+02 -1.267551213856793453e+02 -1.047058293362065058e+02 1.341051873959453644e+02 7.081130672440339424e+01 1.490677100249165790e+02 9.941097371499857616e+01 8.053299249588630460e+01 -5.978559021995915401e+01 -8.110748693030585343e+01 -7.643145587082520365e+01 2.027726236933985433e+02 3.028187842326825674e+01 -2.468329403358963248e+01 -6.791719962327607618e+01 -4.954623211070850886e+01 -1.299902202342761939e+02 -1.633820860601404235e+01 -1.731878167887441577e+02 1.234219218695692604e+02 4.541726932622237456e+01 -1.137447678143622483e+02 -4.776059908061102277e+01 1.181902164207551493e+02 -9.570551114473359178e+01 1.014847954823280816e+02 -1.169082479524202398e+02 -1.161376294448454338e+01 -9.424920959757787386e+01 8.853506650702200886e+01 -4.191973667118446656e+01 1.018114138431352345e+01 2.894240703024485128e+01 -1.249666183752540576e+02 1.233459917814170481e+01 4.769188423612850158e+01 -2.209501061721336512e+01 -6.781879631092452598e+01 1.997847453688990527e+02 8.527676098361253310e+01 4.648679174107213896e+01 -3.098982703738348832e+01 7.913627062262698075e+01 1.653047890655309686e+02 -9.100991696526595831e+01 2.065795218184929638e+02 -1.312695721823298243e+02 -1.813919928708093039e+02 1.497454837955327491e+02 -2.307241381476012236e+02 -9.717703018169588924e-01 -2.415345415699710827e+02 -1.507979118802747394e+02 7.076480310557128917e+01 -1.436130103223233334e+02 5.757096499698852909e+01 1.083797144783752060e+02 -1.581436325964551486e+02 -2.971065744519827589e+01 7.435777668320581313e+01 1.320656307676454730e+02 -1.835071759474180055e+02 8.625228773276766958e+01 -9.659442480668725750e+01 -9.733333969460099766e+00 -1.368786258854124860e+01 -7.847255156619063143e+01 -8.905317428816829306e+01 1.788445412784649022e+02 -2.138130457364475134e+01 1.317178540799025965e+00 1.284326716029381714e+02 -8.550527257538408321e+01 -3.395823689039207949e+01 -1.062132711131642679e+02 -4.818860537914954989e+01 5.106824275530374990e+00 5.861046827956484151e+01 -1.334046558574372057e+02 2.343546820336924839e+02 -5.328268423596760073e+01 1.213015894719772803e+02 -4.829808936749268611e+01 1.185241082932416674e+02 1.376585432006648659e+02 4.750265429904509773e+01 1.208722923843265846e+02 -4.279669560954852869e+01 1.385946254293263280e+02 -1.549379603941002017e+02 -6.476637968512115151e+01 -6.237369037012428663e+01 2.529864092959541111e+01 -1.607811580499898412e+02 7.187396448317120701e+01 -3.055172794249375556e+01 -8.187722957160073634e+01 8.877688744817044153e+01 -1.497125933741775157e+02 -9.037869662960062556e+01 -5.213034184956856620e+01 3.277841879773350797e+01 1.286334365238295732e+02 1.157966387423598604e+02 6.849266280052411560e+01 -1.584347076031781043e+00 1.732702750865313135e+02 1.214055886646190174e+02 -9.357988797237830170e+01 -7.743287342660369177e+01 5.485157706915796894e+01 9.886641661559039562e+00 9.707669068228852893e+01 1.651467045952410331e+02 6.993348316704025081e+01 2.417339587497407649e+01 -1.012463401448490856e+02 1.701964593226147713e+02 -1.126097663481564410e+02 -1.637136868198353454e+02 6.509369648379353634e+01 1.104145681612699121e+02 1.944360436831625449e+01 -1.374913536015036470e+02 2.943928974421999101e+01 4.200448181030028394e+01 -3.222705718323509716e-01 1.296059755103588600e+02 9.663804218990181027e+01 1.693252431630784827e+01 7.753856602840292567e+01 -1.058991828898229670e+02 -6.254448132786265546e+00 9.730075076444147442e+01 2.937265213870728431e+01 -6.434404552773250430e+01 1.959200550693695959e+02 2.286194943618775142e+02 -1.241540460127511665e+02 -2.730974060658398628e+01 -2.078963469010342635e+02 -7.138418380953757492e+01 1.548664664364900716e+02 3.361192127503383364e+00 -7.018956778778256478e+01 1.619446537316788408e+02 -6.180125880097232027e+01 -1.587707918813262609e+02 1.349876440289533548e+02 -6.643950115142401103e+01 3.406942142142902696e+01 8.534825659783895446e+01 1.362024759504943283e+01 -2.354284938473077204e+02 4.179588853151032168e+01 -6.066883446235824096e+00 8.901860163205127208e+01 -2.328210575017419970e+01 9.994340946819195892e+01 1.676986037694421938e+01 -8.373126363010889861e+01 -2.023201700242665879e+01 -1.731205850893344120e+02 1.136069170234138568e+02 2.496815086366502001e+01 -4.112493561152658827e+01 -5.118526108926494800e+01 -6.212166051132233946e+01 4.060993548271533626e+01 1.587470090367394846e+02 1.310956609246155153e+02 4.254402852757077369e+01 -1.954652877643944180e+02 -3.832343049960717707e+01 4.328266567559156641e+01 1.159178589043971073e+02 8.616403896094016091e+01 1.526448634804689419e+01 -1.837813228863432755e+02 1.301128883427802521e+02 -2.210448446172963202e+02 -2.033170707774234529e+02 -1.821992280587925839e+00 -7.288124548260437052e+01 -2.379685107618800899e+01 8.607323790279794196e+01 5.524428883730502093e+01 -1.098602131207618697e+02 -1.496165738903793283e+02 1.441573347144055894e+01 1.221932749572143280e+02 2.044831681228222564e+01 -5.602328556795268355e+01 -5.099707227346047489e+01 -1.162185646132326866e+01 1.594207311770602189e+02 2.210295784430264376e+01 -1.746540325858211418e+02 1.290210983740791448e+02 -6.718279289244762253e+01 -4.199516899052833097e+00 1.548713428848447222e+02 -5.260163030197748668e+01 -1.969529842944725218e+01 -1.104773359402736617e+02 -6.042142808670148746e+00 -2.399331306069609937e+01 1.324595997456626151e+02 1.207767827517529895e+02 6.796782092975793432e+01 6.579371880991172361e+01 -1.881912639782640895e+01 1.359863182227592802e+02 -1.133964178692938134e+02 -4.286468237649414981e+00 -9.157374351744027763e+01 1.580323321714822953e+02 7.336000335890071256e+01 5.198780134987306667e+01 8.322068645634251638e+00 -5.358624415139281894e+01 3.457901985103163156e+01 6.786270786497665242e+00 3.628498726498833538e+00 2.425193948186005599e+01 6.011366120328514739e+01 1.712129063038853474e+02 -3.905007472591741902e+01 -5.227918470049870336e+01 6.715914926854216560e+01 1.163182831959502153e+02 -1.288105612349860607e+01 9.243849059506983679e+01 1.046160868512149307e+02 2.119211849766031435e+02 -8.702320655451285347e+01 -1.233636200546878712e+02 -2.879423933152753534e+01 6.248095063001378691e+01 -1.020181704817743729e+01 1.079932625905847772e+02 3.743404124781139330e+01 -1.634882309279948061e+02 4.529634399538160494e+01 -8.992411663733317084e+01 -1.359934043303649105e+02 1.351833088559031637e+02 -7.640593170975157022e+01 5.943975614905261295e+01 1.117403975876106870e+02 -9.950161769051312888e+01 2.358749694017208753e+01 -7.248074330624591255e+01 4.044624201168416988e+01 -1.151024003723033928e+02 6.184148400387515210e+01 5.490161169664433771e+01 3.932918416369568071e+00 8.441064754547271320e+01 -1.535452472915768851e+02 7.668086668133219064e+01 -2.937228047453052682e+01 -1.683902817118328699e+02 9.417139573196506319e+01 2.444377225016820532e+01 -1.955181606357641897e+02 2.344803401265884588e+02 -5.300207536165658651e-01 1.048269712657323964e+02 -1.202053344759550839e+02 -1.935657480365458412e+02 -9.301073992776093746e+01 2.470331301063332763e+00 1.424319484629537556e+02 3.990996242215667955e+00 -9.525568045432576980e+01 5.023732293072875876e+01 1.365963979766221996e+02 6.477210210548001612e+01 -5.157470371466783376e+01 -5.894672230941219482e+01 8.423088562364743836e+01 3.064845838018990776e+01 -1.949095863421039496e+02 -2.066547058206680632e+01 1.684823485646744246e+02 9.850640025756746354e+01 -5.713443151535904718e+01 -1.114379115730665148e+02 -4.254051207299728077e+01 -4.792312476008339672e+01 -1.140766138999130987e+02 -1.842006380246404262e+01 -4.551336285896059763e+01 -1.132432597393268736e+02 -1.314531972722250543e+02 -2.684164887037943004e+01 -1.252505832753620894e+02 -1.333481575410256994e+02 -3.820585269042243226e+01 -5.516938333263675531e+01 -1.106368897736184493e+02 1.922442676236124441e+02 1.087475443422979993e+01 -2.905536633673041180e+01 -1.756569382314810923e+01 8.124268837867062132e+01 1.615021879601934174e+01 2.586790845906557124e+01 -2.198264376952466037e+01 -4.774844789502430586e+01 2.160449917989179625e+01 -1.501231341755362791e+02 -1.644093374323149419e+02 -9.339162547967053740e+01 -1.970931680143372091e+02 -9.255787117485681392e+01 8.861358628858121733e+01 6.339223817496340985e+01 -2.691562634592250092e+01 6.275943440169940857e+01 -1.616812834129594876e+02 -4.215938921963230257e+01 -1.199304008685532068e+02 -6.893884096891927982e+01 2.178464280001594773e+02 -2.120084640942545491e+02 2.119886578516334623e+02 2.581442167888902972e+01 -5.832400599077195125e+01 9.527025320853306312e+01 1.281477099233653121e+02 -5.359013585250385603e+01 -2.104009534469778089e+02 -1.539821722130171793e+02 1.056172765221846817e+02 8.650540642253966439e+01 -1.400266362891707388e+02 3.300519050431034174e+01 -4.096391641119219429e+01 -7.993563739947421709e+01 -2.935529728025604967e+01 -5.662527607039478994e+01 -8.927340014949430724e+01 -3.515153702316313655e+01 4.624512951212685685e+00 -3.377943649418715921e+01 -4.088793244959542106e-01 -1.483009657682230475e+01 9.499323874710445637e+01 1.312462300056342599e+02 1.360049669950891449e+01 1.733915813600624389e+01 -6.517557078464044196e+01 -2.024455053677939986e+02 3.496321721691872852e+01 -9.474175062804111747e+01 2.667492282817563876e+01 -8.450033126010144002e+00 1.051212583439742332e+00 7.463985403206837077e+01 1.258728758060646982e+02 -7.277081774105245415e+01 3.924397939580780559e+01 -1.991588995727899203e+02 9.985771111976143644e+00 7.229121297541350799e+00 -1.265636978058326889e+02 -3.483264291688836778e+01 -4.577965069623888184e+01 4.928685624501172313e+00 -1.056033234244247438e+02 2.794269193206645241e+01 -1.008513443151829136e+02 5.795674109477173630e+01 7.006874009596057817e+01 3.808788363724794834e+01 -2.996861235495174824e+01 1.109643516299895509e+02 6.306399788267606965e+01 8.260478066818043885e+01 -6.917398118534030971e+01 2.095906573957731567e+01 1.320460403828537039e+02 -6.036710886838204004e+01 -7.136713751789172555e+00 3.302647589168029896e+01 -1.325452198159622412e+02 1.009732381802440955e+02 9.245362177569548123e+01 -1.043774460415831555e+02 -8.499011047949650788e+01 -5.729400834570105161e+01 -4.701026752104893092e+01 -1.653723093241615061e+02 -1.402408737325854702e+02 -1.366667121623711694e+02 1.089988312280254377e+02 6.165389273313088125e+01 1.645263065911826743e+02 7.421225016073761616e+00 -8.842414284078340359e+01 1.931393319414771170e+01 1.426272837748100031e+01 -6.547683264458505903e+01 7.633707371275460218e+01 1.216983473762246746e+02 1.030057982719892351e+01 1.478076288978658965e+02 2.320054883531783219e+01 1.143452695382265034e+02 1.555701039058852686e+01 -2.140857983956134944e+02 2.249874775647394642e+02 -5.041522604926856133e+01 -1.536172936115842163e+02 -6.920922859914463743e+01 -4.421025865022161838e+01 4.239952373522023521e+01 2.622671146282446841e+01 4.686510633297885420e+01 -7.592176285538218394e+01 1.253238602303561322e+02 -8.831778422122100380e+01 -7.176089087096173103e+00 1.457916924619067913e+02 1.121605051913593627e+02 5.931998432790386033e+01 -1.810072453222862805e+02 2.599823699108764785e+01 1.434952530483618034e+02 2.394372804089850604e+01 9.965785042723213394e+01 1.086484873526960797e+02 -2.157203513285935230e+02 7.846905082023842226e+01 -5.889805108383534105e+01 -2.292804262842655021e+02 9.016531298368980174e+01 2.502219833072771138e+01 -1.236924227534255323e+02 -5.928085729011808525e+01 1.403259464135792030e+02 1.489322381891239786e+02 -7.644133954890826033e+01 -1.287040205309094176e+02 -8.394393523837214843e+01 -1.666969185853343447e+02 1.964170373527378999e+01 3.804333841103142788e+01 -1.698407099487085858e+01 -1.239280225039322936e+01 -8.953173992973312068e+01 -8.832593172881739463e+01 -2.461221230492940393e+01 1.333381799552002747e+02 1.355273467499781361e+02 8.063547130346947256e+01 9.641293179514210010e+01 -7.797832762240393834e+01 -1.789734481534719066e+02 -1.310752550097500091e+01 -2.293085971238230769e+01 -7.024206886579690945e+01 1.482141639399703337e+00 7.227314265209170685e+01 -5.234655765041585340e+01 2.437131939171677786e+01 7.831078521291294692e+01 6.932718482653847047e+01 1.093092568997793705e+02 -1.475428653204234308e+02 3.920592200261727100e+01 8.239537049674898128e+01 9.371605393867876899e+01 5.842133887139198833e+01 -1.021028418222488341e+02 1.354295957311593952e+02 1.260562698672184467e+02 9.478056643200439169e+01 1.004126891836069859e+02 -8.329841876714685611e+01 -1.470916182915576620e+01 -1.278424710344612336e+01 7.621228284157380983e+01 6.425240741832614333e+01 5.535139325822233758e+01 9.651062088588747656e+01 1.151935687287069214e+02 1.225139458854589520e+02 -6.419175119921008843e+01 7.970818242670775078e+01 6.452934720090522092e+01 -1.163637408236811979e+02 1.301568959762856252e+02 -9.929315934536305122e+00 -2.761513150607683187e+01 1.971361676641858196e+02 8.753169902016459503e+01 1.227980381444129847e+02 -1.428430557740595930e+02 -1.561780815470078778e+02 -1.522081085357745849e+02 -1.209689504366502035e+02 -4.385518039243019217e+01 1.087728119767077004e+02 -1.670881182254450152e+02 3.223448184378396775e+01 1.430690940077984692e+02 -5.882627887409722689e+01 -9.057470201872968119e+01 -3.482117488568270147e+01 1.347795052344376643e+02 2.254999330621552929e+02 -6.612766420457725758e+01 1.966372059690080221e+01 -2.749130491279110089e+01 6.798829284845243137e+01 5.982821585442046342e+01 -2.117306250116310196e+02 -8.805175901913437997e+01 1.366462741129108167e+02 1.388732101941224357e+02 9.392100032889085526e+01 -4.948816040922559267e+01 -7.533245823509599859e+01 -4.512973809114071599e+01 -1.754583169328064400e+02 7.073482699163878351e+01 -2.551999966509596973e+01 1.654223755571775030e+02 -2.776761221486739117e+01 -3.128024436188298978e+02 1.440830735618197025e+02 5.002576761795025106e+01 -1.173385506088861092e+02 -2.202796918867915110e+01 3.512929905297004751e+01 -2.066065936845436966e+02 -1.137061941902793762e+02 -1.090498527042572476e+02 -5.615757875434953661e+01 6.250173795515038933e+01 -1.640283957190095521e+02 1.074191565279489282e+02 -5.406068174486335209e+01 2.896573906535215848e+00 -1.328041814652911512e+02 -1.031295521335142524e+02 1.750707829072567847e+02 8.628002415227001620e+01 -4.205217374654877460e+01 3.701662135461969427e+01 -2.794084986933098591e+01 4.305503744676526878e+01 -1.041920000643811477e+02 9.844914757788170334e+01 5.031178209242825972e+01 -1.184457693411174688e+02 1.163110356331167026e+02 -4.895443751634312690e+01 9.954236597352618787e+01 -4.922893942164409964e+01 8.807033623536207756e+01 -1.528694766487488721e+02 1.422060896375913899e+02 2.468726393800311314e+01 1.003077329660336261e+02 1.299877017029828608e+02 -1.461791995669293271e+02 -8.562810367650530452e+01 -1.053055875684744649e+02 6.667719569208149721e+01 -1.708415741022399175e+02 1.510489255691998380e+02 1.419921959215136269e+02 5.283748812564374475e+01 -8.466569023931107552e+01 5.690309084663148553e+01 -1.070200602874431297e+02 -1.092503566322116626e+01 3.489810966441608997e+01 -1.832881784887730987e+02 -8.139509394237104800e+01 -1.350318604489071106e+01 1.019764872026393618e+02 -5.009610850488866163e+01 1.084724015082603046e+02 -6.420595760432995291e+01 -2.103952899103691152e+02 -1.068927591977428904e+02 -3.401208821925002468e+01 -6.008441251098773961e+01 3.004827580988891356e+01 5.129740470197712199e+01 6.339817536907039752e+00 2.527486902264200452e+01 -1.171436887889342131e+02 5.376760877445789077e+01 3.258986595744599413e+01 -7.210460670907073677e+01 9.251596685397871056e+00 5.626856263734273256e+01 -9.532980376725744520e+01 -5.503259754308429308e+01 -2.412590065047781351e+01 9.753464148809912615e+01 -1.711927081717518817e+01 4.191238365585396863e+00 -2.279614202138302801e+02 -9.500513148684130726e+01 9.889933370691456105e+01 -8.920786832249335419e+01 3.133396519938766289e+01 3.106050206711938344e+01 3.793321342132057339e+01 6.607960343835792116e+01 -1.774514852546771237e+02 1.439705815899307311e+02 8.148283421172963870e+01 -7.516742365868486431e+00 -8.081622541411815064e+01 1.119341940696271251e+02 6.210642093081628445e+01 -2.011338514974214320e+02 -5.039814789535181916e+01 -8.171035395606789109e+01 -5.185637655426477011e+01 -6.195897711759419479e+01 -9.908832382828362029e+01 -6.039283256726702831e+01 1.915643113049621604e+02 -1.708535189323119141e+02 6.551164590665040066e+01 2.775438194928973346e+01 -7.521205977745614746e+01 1.038784688836308412e+01 -3.943608008880416094e+01 3.429492380834586296e+00 -9.618216777555586816e+01 -1.976628331806276719e+02 1.840392620908913912e+01 4.193791200214390358e+01 -1.280682026942320739e+01 -9.025569498808609481e+00 -3.980654163172329874e+01 -1.900580832265592335e+02 -3.067142253650599670e+01 -6.541345067001137181e+01 1.397791142883677118e+01 -1.562205718121861686e+01 9.062086573435843206e+01 -6.308437047103841167e+01 -1.037851294019807824e+02 -3.577313841151390506e+01 -9.021017850571450225e+00 4.554480756031572497e+01 -2.216157893724553318e+01 -7.380858587185451825e+01 -1.588848381363784767e+01 2.008537830823429360e+01 4.755000401781610009e+01 -1.141302551839723520e+02 -1.391810847299205136e+02 2.305952653767298841e+02 -2.185231081694491024e+02 -7.604093927128059249e+01 -4.639887353283761229e+01 1.400318853709200368e+02 6.336039582906879986e+01 2.291576661261860295e+02 2.450635824766374924e+02 -6.241685290618364945e+01 1.296429893931988317e+02 -5.603151846979965001e+01 -4.086560887090900707e+01 -1.007847514525551134e+02 -7.995256962657379063e+01 -6.966719426400031523e+01 -8.911899665611352361e+01 -2.441146559133125891e+02 -2.712531760141953328e+02 1.348877900180927156e+02 -2.656690934265613180e+01 5.334126150283952938e+01 1.310564240931496158e+02
