# 
#                 ----------------------------------------------------
#                 Data from a 3D direct N-body simulation. 
# 
#                 rows are i-particle; 
#                 coumns are :mass, tag, x ,y, z, vx, vy, vz, ax, ay, az
# 
#                 NTHU, Computational Physics Lab
# 
#                 ----------------------------------------------------
#                 Time = 1.2000000000000008
1.000000000000000000e+00 2.000000000000000000e+00 3.000000000000000000e+00 4.000000000000000000e+00 5.000000000000000000e+00 6.000000000000000000e+00 7.000000000000000000e+00 8.000000000000000000e+00 9.000000000000000000e+00 1.000000000000000000e+01 1.100000000000000000e+01 1.200000000000000000e+01 1.300000000000000000e+01 1.400000000000000000e+01 1.500000000000000000e+01 1.600000000000000000e+01 1.700000000000000000e+01 1.800000000000000000e+01 1.900000000000000000e+01 2.000000000000000000e+01 2.100000000000000000e+01 2.200000000000000000e+01 2.300000000000000000e+01 2.400000000000000000e+01 2.500000000000000000e+01 2.600000000000000000e+01 2.700000000000000000e+01 2.800000000000000000e+01 2.900000000000000000e+01 3.000000000000000000e+01 3.100000000000000000e+01 3.200000000000000000e+01 3.300000000000000000e+01 3.400000000000000000e+01 3.500000000000000000e+01 3.600000000000000000e+01 3.700000000000000000e+01 3.800000000000000000e+01 3.900000000000000000e+01 4.000000000000000000e+01 4.100000000000000000e+01 4.200000000000000000e+01 4.300000000000000000e+01 4.400000000000000000e+01 4.500000000000000000e+01 4.600000000000000000e+01 4.700000000000000000e+01 4.800000000000000000e+01 4.900000000000000000e+01 5.000000000000000000e+01 5.100000000000000000e+01 5.200000000000000000e+01 5.300000000000000000e+01 5.400000000000000000e+01 5.500000000000000000e+01 5.600000000000000000e+01 5.700000000000000000e+01 5.800000000000000000e+01 5.900000000000000000e+01 6.000000000000000000e+01 6.100000000000000000e+01 6.200000000000000000e+01 6.300000000000000000e+01 6.400000000000000000e+01 6.500000000000000000e+01 6.600000000000000000e+01 6.700000000000000000e+01 6.800000000000000000e+01 6.900000000000000000e+01 7.000000000000000000e+01 7.100000000000000000e+01 7.200000000000000000e+01 7.300000000000000000e+01 7.400000000000000000e+01 7.500000000000000000e+01 7.600000000000000000e+01 7.700000000000000000e+01 7.800000000000000000e+01 7.900000000000000000e+01 8.000000000000000000e+01 8.100000000000000000e+01 8.200000000000000000e+01 8.300000000000000000e+01 8.400000000000000000e+01 8.500000000000000000e+01 8.600000000000000000e+01 8.700000000000000000e+01 8.800000000000000000e+01 8.900000000000000000e+01 9.000000000000000000e+01 9.100000000000000000e+01 9.200000000000000000e+01 9.300000000000000000e+01 9.400000000000000000e+01 9.500000000000000000e+01 9.600000000000000000e+01 9.700000000000000000e+01 9.800000000000000000e+01 9.900000000000000000e+01 1.000000000000000000e+02 1.010000000000000000e+02 1.020000000000000000e+02 1.030000000000000000e+02 1.040000000000000000e+02 1.050000000000000000e+02 1.060000000000000000e+02 1.070000000000000000e+02 1.080000000000000000e+02 1.090000000000000000e+02 1.100000000000000000e+02 1.110000000000000000e+02 1.120000000000000000e+02 1.130000000000000000e+02 1.140000000000000000e+02 1.150000000000000000e+02 1.160000000000000000e+02 1.170000000000000000e+02 1.180000000000000000e+02 1.190000000000000000e+02 1.200000000000000000e+02 1.210000000000000000e+02 1.220000000000000000e+02 1.230000000000000000e+02 1.240000000000000000e+02 1.250000000000000000e+02 1.260000000000000000e+02 1.270000000000000000e+02 1.280000000000000000e+02 1.290000000000000000e+02 1.300000000000000000e+02 1.310000000000000000e+02 1.320000000000000000e+02 1.330000000000000000e+02 1.340000000000000000e+02 1.350000000000000000e+02 1.360000000000000000e+02 1.370000000000000000e+02 1.380000000000000000e+02 1.390000000000000000e+02 1.400000000000000000e+02 1.410000000000000000e+02 1.420000000000000000e+02 1.430000000000000000e+02 1.440000000000000000e+02 1.450000000000000000e+02 1.460000000000000000e+02 1.470000000000000000e+02 1.480000000000000000e+02 1.490000000000000000e+02 1.500000000000000000e+02 1.510000000000000000e+02 1.520000000000000000e+02 1.530000000000000000e+02 1.540000000000000000e+02 1.550000000000000000e+02 1.560000000000000000e+02 1.570000000000000000e+02 1.580000000000000000e+02 1.590000000000000000e+02 1.600000000000000000e+02 1.610000000000000000e+02 1.620000000000000000e+02 1.630000000000000000e+02 1.640000000000000000e+02 1.650000000000000000e+02 1.660000000000000000e+02 1.670000000000000000e+02 1.680000000000000000e+02 1.690000000000000000e+02 1.700000000000000000e+02 1.710000000000000000e+02 1.720000000000000000e+02 1.730000000000000000e+02 1.740000000000000000e+02 1.750000000000000000e+02 1.760000000000000000e+02 1.770000000000000000e+02 1.780000000000000000e+02 1.790000000000000000e+02 1.800000000000000000e+02 1.810000000000000000e+02 1.820000000000000000e+02 1.830000000000000000e+02 1.840000000000000000e+02 1.850000000000000000e+02 1.860000000000000000e+02 1.870000000000000000e+02 1.880000000000000000e+02 1.890000000000000000e+02 1.900000000000000000e+02 1.910000000000000000e+02 1.920000000000000000e+02 1.930000000000000000e+02 1.940000000000000000e+02 1.950000000000000000e+02 1.960000000000000000e+02 1.970000000000000000e+02 1.980000000000000000e+02 1.990000000000000000e+02 2.000000000000000000e+02 2.010000000000000000e+02 2.020000000000000000e+02 2.030000000000000000e+02 2.040000000000000000e+02 2.050000000000000000e+02 2.060000000000000000e+02 2.070000000000000000e+02 2.080000000000000000e+02 2.090000000000000000e+02 2.100000000000000000e+02 2.110000000000000000e+02 2.120000000000000000e+02 2.130000000000000000e+02 2.140000000000000000e+02 2.150000000000000000e+02 2.160000000000000000e+02 2.170000000000000000e+02 2.180000000000000000e+02 2.190000000000000000e+02 2.200000000000000000e+02 2.210000000000000000e+02 2.220000000000000000e+02 2.230000000000000000e+02 2.240000000000000000e+02 2.250000000000000000e+02 2.260000000000000000e+02 2.270000000000000000e+02 2.280000000000000000e+02 2.290000000000000000e+02 2.300000000000000000e+02 2.310000000000000000e+02 2.320000000000000000e+02 2.330000000000000000e+02 2.340000000000000000e+02 2.350000000000000000e+02 2.360000000000000000e+02 2.370000000000000000e+02 2.380000000000000000e+02 2.390000000000000000e+02 2.400000000000000000e+02 2.410000000000000000e+02 2.420000000000000000e+02 2.430000000000000000e+02 2.440000000000000000e+02 2.450000000000000000e+02 2.460000000000000000e+02 2.470000000000000000e+02 2.480000000000000000e+02 2.490000000000000000e+02 2.500000000000000000e+02 2.510000000000000000e+02 2.520000000000000000e+02 2.530000000000000000e+02 2.540000000000000000e+02 2.550000000000000000e+02 2.560000000000000000e+02 2.570000000000000000e+02 2.580000000000000000e+02 2.590000000000000000e+02 2.600000000000000000e+02 2.610000000000000000e+02 2.620000000000000000e+02 2.630000000000000000e+02 2.640000000000000000e+02 2.650000000000000000e+02 2.660000000000000000e+02 2.670000000000000000e+02 2.680000000000000000e+02 2.690000000000000000e+02 2.700000000000000000e+02 2.710000000000000000e+02 2.720000000000000000e+02 2.730000000000000000e+02 2.740000000000000000e+02 2.750000000000000000e+02 2.760000000000000000e+02 2.770000000000000000e+02 2.780000000000000000e+02 2.790000000000000000e+02 2.800000000000000000e+02 2.810000000000000000e+02 2.820000000000000000e+02 2.830000000000000000e+02 2.840000000000000000e+02 2.850000000000000000e+02 2.860000000000000000e+02 2.870000000000000000e+02 2.880000000000000000e+02 2.890000000000000000e+02 2.900000000000000000e+02 2.910000000000000000e+02 2.920000000000000000e+02 2.930000000000000000e+02 2.940000000000000000e+02 2.950000000000000000e+02 2.960000000000000000e+02 2.970000000000000000e+02 2.980000000000000000e+02 2.990000000000000000e+02 3.000000000000000000e+02 3.010000000000000000e+02 3.020000000000000000e+02 3.030000000000000000e+02 3.040000000000000000e+02 3.050000000000000000e+02 3.060000000000000000e+02 3.070000000000000000e+02 3.080000000000000000e+02 3.090000000000000000e+02 3.100000000000000000e+02 3.110000000000000000e+02 3.120000000000000000e+02 3.130000000000000000e+02 3.140000000000000000e+02 3.150000000000000000e+02 3.160000000000000000e+02 3.170000000000000000e+02 3.180000000000000000e+02 3.190000000000000000e+02 3.200000000000000000e+02 3.210000000000000000e+02 3.220000000000000000e+02 3.230000000000000000e+02 3.240000000000000000e+02 3.250000000000000000e+02 3.260000000000000000e+02 3.270000000000000000e+02 3.280000000000000000e+02 3.290000000000000000e+02 3.300000000000000000e+02 3.310000000000000000e+02 3.320000000000000000e+02 3.330000000000000000e+02 3.340000000000000000e+02 3.350000000000000000e+02 3.360000000000000000e+02 3.370000000000000000e+02 3.380000000000000000e+02 3.390000000000000000e+02 3.400000000000000000e+02 3.410000000000000000e+02 3.420000000000000000e+02 3.430000000000000000e+02 3.440000000000000000e+02 3.450000000000000000e+02 3.460000000000000000e+02 3.470000000000000000e+02 3.480000000000000000e+02 3.490000000000000000e+02 3.500000000000000000e+02 3.510000000000000000e+02 3.520000000000000000e+02 3.530000000000000000e+02 3.540000000000000000e+02 3.550000000000000000e+02 3.560000000000000000e+02 3.570000000000000000e+02 3.580000000000000000e+02 3.590000000000000000e+02 3.600000000000000000e+02 3.610000000000000000e+02 3.620000000000000000e+02 3.630000000000000000e+02 3.640000000000000000e+02 3.650000000000000000e+02 3.660000000000000000e+02 3.670000000000000000e+02 3.680000000000000000e+02 3.690000000000000000e+02 3.700000000000000000e+02 3.710000000000000000e+02 3.720000000000000000e+02 3.730000000000000000e+02 3.740000000000000000e+02 3.750000000000000000e+02 3.760000000000000000e+02 3.770000000000000000e+02 3.780000000000000000e+02 3.790000000000000000e+02 3.800000000000000000e+02 3.810000000000000000e+02 3.820000000000000000e+02 3.830000000000000000e+02 3.840000000000000000e+02 3.850000000000000000e+02 3.860000000000000000e+02 3.870000000000000000e+02 3.880000000000000000e+02 3.890000000000000000e+02 3.900000000000000000e+02 3.910000000000000000e+02 3.920000000000000000e+02 3.930000000000000000e+02 3.940000000000000000e+02 3.950000000000000000e+02 3.960000000000000000e+02 3.970000000000000000e+02 3.980000000000000000e+02 3.990000000000000000e+02 4.000000000000000000e+02 4.010000000000000000e+02 4.020000000000000000e+02 4.030000000000000000e+02 4.040000000000000000e+02 4.050000000000000000e+02 4.060000000000000000e+02 4.070000000000000000e+02 4.080000000000000000e+02 4.090000000000000000e+02 4.100000000000000000e+02 4.110000000000000000e+02 4.120000000000000000e+02 4.130000000000000000e+02 4.140000000000000000e+02 4.150000000000000000e+02 4.160000000000000000e+02 4.170000000000000000e+02 4.180000000000000000e+02 4.190000000000000000e+02 4.200000000000000000e+02 4.210000000000000000e+02 4.220000000000000000e+02 4.230000000000000000e+02 4.240000000000000000e+02 4.250000000000000000e+02 4.260000000000000000e+02 4.270000000000000000e+02 4.280000000000000000e+02 4.290000000000000000e+02 4.300000000000000000e+02 4.310000000000000000e+02 4.320000000000000000e+02 4.330000000000000000e+02 4.340000000000000000e+02 4.350000000000000000e+02 4.360000000000000000e+02 4.370000000000000000e+02 4.380000000000000000e+02 4.390000000000000000e+02 4.400000000000000000e+02 4.410000000000000000e+02 4.420000000000000000e+02 4.430000000000000000e+02 4.440000000000000000e+02 4.450000000000000000e+02 4.460000000000000000e+02 4.470000000000000000e+02 4.480000000000000000e+02 4.490000000000000000e+02 4.500000000000000000e+02 4.510000000000000000e+02 4.520000000000000000e+02 4.530000000000000000e+02 4.540000000000000000e+02 4.550000000000000000e+02 4.560000000000000000e+02 4.570000000000000000e+02 4.580000000000000000e+02 4.590000000000000000e+02 4.600000000000000000e+02 4.610000000000000000e+02 4.620000000000000000e+02 4.630000000000000000e+02 4.640000000000000000e+02 4.650000000000000000e+02 4.660000000000000000e+02 4.670000000000000000e+02 4.680000000000000000e+02 4.690000000000000000e+02 4.700000000000000000e+02 4.710000000000000000e+02 4.720000000000000000e+02 4.730000000000000000e+02 4.740000000000000000e+02 4.750000000000000000e+02 4.760000000000000000e+02 4.770000000000000000e+02 4.780000000000000000e+02 4.790000000000000000e+02 4.800000000000000000e+02 4.810000000000000000e+02 4.820000000000000000e+02 4.830000000000000000e+02 4.840000000000000000e+02 4.850000000000000000e+02 4.860000000000000000e+02 4.870000000000000000e+02 4.880000000000000000e+02 4.890000000000000000e+02 4.900000000000000000e+02 4.910000000000000000e+02 4.920000000000000000e+02 4.930000000000000000e+02 4.940000000000000000e+02 4.950000000000000000e+02 4.960000000000000000e+02 4.970000000000000000e+02 4.980000000000000000e+02 4.990000000000000000e+02 5.000000000000000000e+02 5.010000000000000000e+02 5.020000000000000000e+02 5.030000000000000000e+02 5.040000000000000000e+02 5.050000000000000000e+02 5.060000000000000000e+02 5.070000000000000000e+02 5.080000000000000000e+02 5.090000000000000000e+02 5.100000000000000000e+02 5.110000000000000000e+02 5.120000000000000000e+02 5.130000000000000000e+02 5.140000000000000000e+02 5.150000000000000000e+02 5.160000000000000000e+02 5.170000000000000000e+02 5.180000000000000000e+02 5.190000000000000000e+02 5.200000000000000000e+02 5.210000000000000000e+02 5.220000000000000000e+02 5.230000000000000000e+02 5.240000000000000000e+02 5.250000000000000000e+02 5.260000000000000000e+02 5.270000000000000000e+02 5.280000000000000000e+02 5.290000000000000000e+02 5.300000000000000000e+02 5.310000000000000000e+02 5.320000000000000000e+02 5.330000000000000000e+02 5.340000000000000000e+02 5.350000000000000000e+02 5.360000000000000000e+02 5.370000000000000000e+02 5.380000000000000000e+02 5.390000000000000000e+02 5.400000000000000000e+02 5.410000000000000000e+02 5.420000000000000000e+02 5.430000000000000000e+02 5.440000000000000000e+02 5.450000000000000000e+02 5.460000000000000000e+02 5.470000000000000000e+02 5.480000000000000000e+02 5.490000000000000000e+02 5.500000000000000000e+02 5.510000000000000000e+02 5.520000000000000000e+02 5.530000000000000000e+02 5.540000000000000000e+02 5.550000000000000000e+02 5.560000000000000000e+02 5.570000000000000000e+02 5.580000000000000000e+02 5.590000000000000000e+02 5.600000000000000000e+02 5.610000000000000000e+02 5.620000000000000000e+02 5.630000000000000000e+02 5.640000000000000000e+02 5.650000000000000000e+02 5.660000000000000000e+02 5.670000000000000000e+02 5.680000000000000000e+02 5.690000000000000000e+02 5.700000000000000000e+02 5.710000000000000000e+02 5.720000000000000000e+02 5.730000000000000000e+02 5.740000000000000000e+02 5.750000000000000000e+02 5.760000000000000000e+02 5.770000000000000000e+02 5.780000000000000000e+02 5.790000000000000000e+02 5.800000000000000000e+02 5.810000000000000000e+02 5.820000000000000000e+02 5.830000000000000000e+02 5.840000000000000000e+02 5.850000000000000000e+02 5.860000000000000000e+02 5.870000000000000000e+02 5.880000000000000000e+02 5.890000000000000000e+02 5.900000000000000000e+02 5.910000000000000000e+02 5.920000000000000000e+02 5.930000000000000000e+02 5.940000000000000000e+02 5.950000000000000000e+02 5.960000000000000000e+02 5.970000000000000000e+02 5.980000000000000000e+02 5.990000000000000000e+02 6.000000000000000000e+02 6.010000000000000000e+02 6.020000000000000000e+02 6.030000000000000000e+02 6.040000000000000000e+02 6.050000000000000000e+02 6.060000000000000000e+02 6.070000000000000000e+02 6.080000000000000000e+02 6.090000000000000000e+02 6.100000000000000000e+02 6.110000000000000000e+02 6.120000000000000000e+02 6.130000000000000000e+02 6.140000000000000000e+02 6.150000000000000000e+02 6.160000000000000000e+02 6.170000000000000000e+02 6.180000000000000000e+02 6.190000000000000000e+02 6.200000000000000000e+02 6.210000000000000000e+02 6.220000000000000000e+02 6.230000000000000000e+02 6.240000000000000000e+02 6.250000000000000000e+02 6.260000000000000000e+02 6.270000000000000000e+02 6.280000000000000000e+02 6.290000000000000000e+02 6.300000000000000000e+02 6.310000000000000000e+02 6.320000000000000000e+02 6.330000000000000000e+02 6.340000000000000000e+02 6.350000000000000000e+02 6.360000000000000000e+02 6.370000000000000000e+02 6.380000000000000000e+02 6.390000000000000000e+02 6.400000000000000000e+02 6.410000000000000000e+02 6.420000000000000000e+02 6.430000000000000000e+02 6.440000000000000000e+02 6.450000000000000000e+02 6.460000000000000000e+02 6.470000000000000000e+02 6.480000000000000000e+02 6.490000000000000000e+02 6.500000000000000000e+02 6.510000000000000000e+02 6.520000000000000000e+02 6.530000000000000000e+02 6.540000000000000000e+02 6.550000000000000000e+02 6.560000000000000000e+02 6.570000000000000000e+02 6.580000000000000000e+02 6.590000000000000000e+02 6.600000000000000000e+02 6.610000000000000000e+02 6.620000000000000000e+02 6.630000000000000000e+02 6.640000000000000000e+02 6.650000000000000000e+02 6.660000000000000000e+02 6.670000000000000000e+02 6.680000000000000000e+02 6.690000000000000000e+02 6.700000000000000000e+02 6.710000000000000000e+02 6.720000000000000000e+02 6.730000000000000000e+02 6.740000000000000000e+02 6.750000000000000000e+02 6.760000000000000000e+02 6.770000000000000000e+02 6.780000000000000000e+02 6.790000000000000000e+02 6.800000000000000000e+02 6.810000000000000000e+02 6.820000000000000000e+02 6.830000000000000000e+02 6.840000000000000000e+02 6.850000000000000000e+02 6.860000000000000000e+02 6.870000000000000000e+02 6.880000000000000000e+02 6.890000000000000000e+02 6.900000000000000000e+02 6.910000000000000000e+02 6.920000000000000000e+02 6.930000000000000000e+02 6.940000000000000000e+02 6.950000000000000000e+02 6.960000000000000000e+02 6.970000000000000000e+02 6.980000000000000000e+02 6.990000000000000000e+02 7.000000000000000000e+02 7.010000000000000000e+02 7.020000000000000000e+02 7.030000000000000000e+02 7.040000000000000000e+02 7.050000000000000000e+02 7.060000000000000000e+02 7.070000000000000000e+02 7.080000000000000000e+02 7.090000000000000000e+02 7.100000000000000000e+02 7.110000000000000000e+02 7.120000000000000000e+02 7.130000000000000000e+02 7.140000000000000000e+02 7.150000000000000000e+02 7.160000000000000000e+02 7.170000000000000000e+02 7.180000000000000000e+02 7.190000000000000000e+02 7.200000000000000000e+02 7.210000000000000000e+02 7.220000000000000000e+02 7.230000000000000000e+02 7.240000000000000000e+02 7.250000000000000000e+02 7.260000000000000000e+02 7.270000000000000000e+02 7.280000000000000000e+02 7.290000000000000000e+02 7.300000000000000000e+02 7.310000000000000000e+02 7.320000000000000000e+02 7.330000000000000000e+02 7.340000000000000000e+02 7.350000000000000000e+02 7.360000000000000000e+02 7.370000000000000000e+02 7.380000000000000000e+02 7.390000000000000000e+02 7.400000000000000000e+02 7.410000000000000000e+02 7.420000000000000000e+02 7.430000000000000000e+02 7.440000000000000000e+02 7.450000000000000000e+02 7.460000000000000000e+02 7.470000000000000000e+02 7.480000000000000000e+02 7.490000000000000000e+02 7.500000000000000000e+02 7.510000000000000000e+02 7.520000000000000000e+02 7.530000000000000000e+02 7.540000000000000000e+02 7.550000000000000000e+02 7.560000000000000000e+02 7.570000000000000000e+02 7.580000000000000000e+02 7.590000000000000000e+02 7.600000000000000000e+02 7.610000000000000000e+02 7.620000000000000000e+02 7.630000000000000000e+02 7.640000000000000000e+02 7.650000000000000000e+02 7.660000000000000000e+02 7.670000000000000000e+02 7.680000000000000000e+02 7.690000000000000000e+02 7.700000000000000000e+02 7.710000000000000000e+02 7.720000000000000000e+02 7.730000000000000000e+02 7.740000000000000000e+02 7.750000000000000000e+02 7.760000000000000000e+02 7.770000000000000000e+02 7.780000000000000000e+02 7.790000000000000000e+02 7.800000000000000000e+02 7.810000000000000000e+02 7.820000000000000000e+02 7.830000000000000000e+02 7.840000000000000000e+02 7.850000000000000000e+02 7.860000000000000000e+02 7.870000000000000000e+02 7.880000000000000000e+02 7.890000000000000000e+02 7.900000000000000000e+02 7.910000000000000000e+02 7.920000000000000000e+02 7.930000000000000000e+02 7.940000000000000000e+02 7.950000000000000000e+02 7.960000000000000000e+02 7.970000000000000000e+02 7.980000000000000000e+02 7.990000000000000000e+02 8.000000000000000000e+02 8.010000000000000000e+02 8.020000000000000000e+02 8.030000000000000000e+02 8.040000000000000000e+02 8.050000000000000000e+02 8.060000000000000000e+02 8.070000000000000000e+02 8.080000000000000000e+02 8.090000000000000000e+02 8.100000000000000000e+02 8.110000000000000000e+02 8.120000000000000000e+02 8.130000000000000000e+02 8.140000000000000000e+02 8.150000000000000000e+02 8.160000000000000000e+02 8.170000000000000000e+02 8.180000000000000000e+02 8.190000000000000000e+02 8.200000000000000000e+02 8.210000000000000000e+02 8.220000000000000000e+02 8.230000000000000000e+02 8.240000000000000000e+02 8.250000000000000000e+02 8.260000000000000000e+02 8.270000000000000000e+02 8.280000000000000000e+02 8.290000000000000000e+02 8.300000000000000000e+02 8.310000000000000000e+02 8.320000000000000000e+02 8.330000000000000000e+02 8.340000000000000000e+02 8.350000000000000000e+02 8.360000000000000000e+02 8.370000000000000000e+02 8.380000000000000000e+02 8.390000000000000000e+02 8.400000000000000000e+02 8.410000000000000000e+02 8.420000000000000000e+02 8.430000000000000000e+02 8.440000000000000000e+02 8.450000000000000000e+02 8.460000000000000000e+02 8.470000000000000000e+02 8.480000000000000000e+02 8.490000000000000000e+02 8.500000000000000000e+02 8.510000000000000000e+02 8.520000000000000000e+02 8.530000000000000000e+02 8.540000000000000000e+02 8.550000000000000000e+02 8.560000000000000000e+02 8.570000000000000000e+02 8.580000000000000000e+02 8.590000000000000000e+02 8.600000000000000000e+02 8.610000000000000000e+02 8.620000000000000000e+02 8.630000000000000000e+02 8.640000000000000000e+02 8.650000000000000000e+02 8.660000000000000000e+02 8.670000000000000000e+02 8.680000000000000000e+02 8.690000000000000000e+02 8.700000000000000000e+02 8.710000000000000000e+02 8.720000000000000000e+02 8.730000000000000000e+02 8.740000000000000000e+02 8.750000000000000000e+02 8.760000000000000000e+02 8.770000000000000000e+02 8.780000000000000000e+02 8.790000000000000000e+02 8.800000000000000000e+02 8.810000000000000000e+02 8.820000000000000000e+02 8.830000000000000000e+02 8.840000000000000000e+02 8.850000000000000000e+02 8.860000000000000000e+02 8.870000000000000000e+02 8.880000000000000000e+02 8.890000000000000000e+02 8.900000000000000000e+02 8.910000000000000000e+02 8.920000000000000000e+02 8.930000000000000000e+02 8.940000000000000000e+02 8.950000000000000000e+02 8.960000000000000000e+02 8.970000000000000000e+02 8.980000000000000000e+02 8.990000000000000000e+02 9.000000000000000000e+02 9.010000000000000000e+02 9.020000000000000000e+02 9.030000000000000000e+02 9.040000000000000000e+02 9.050000000000000000e+02 9.060000000000000000e+02 9.070000000000000000e+02 9.080000000000000000e+02 9.090000000000000000e+02 9.100000000000000000e+02 9.110000000000000000e+02 9.120000000000000000e+02 9.130000000000000000e+02 9.140000000000000000e+02 9.150000000000000000e+02 9.160000000000000000e+02 9.170000000000000000e+02 9.180000000000000000e+02 9.190000000000000000e+02 9.200000000000000000e+02 9.210000000000000000e+02 9.220000000000000000e+02 9.230000000000000000e+02 9.240000000000000000e+02 9.250000000000000000e+02 9.260000000000000000e+02 9.270000000000000000e+02 9.280000000000000000e+02 9.290000000000000000e+02 9.300000000000000000e+02 9.310000000000000000e+02 9.320000000000000000e+02 9.330000000000000000e+02 9.340000000000000000e+02 9.350000000000000000e+02 9.360000000000000000e+02 9.370000000000000000e+02 9.380000000000000000e+02 9.390000000000000000e+02 9.400000000000000000e+02 9.410000000000000000e+02 9.420000000000000000e+02 9.430000000000000000e+02 9.440000000000000000e+02 9.450000000000000000e+02 9.460000000000000000e+02 9.470000000000000000e+02 9.480000000000000000e+02 9.490000000000000000e+02 9.500000000000000000e+02 9.510000000000000000e+02 9.520000000000000000e+02 9.530000000000000000e+02 9.540000000000000000e+02 9.550000000000000000e+02 9.560000000000000000e+02 9.570000000000000000e+02 9.580000000000000000e+02 9.590000000000000000e+02 9.600000000000000000e+02 9.610000000000000000e+02 9.620000000000000000e+02 9.630000000000000000e+02 9.640000000000000000e+02 9.650000000000000000e+02 9.660000000000000000e+02 9.670000000000000000e+02 9.680000000000000000e+02 9.690000000000000000e+02 9.700000000000000000e+02 9.710000000000000000e+02 9.720000000000000000e+02 9.730000000000000000e+02 9.740000000000000000e+02 9.750000000000000000e+02 9.760000000000000000e+02 9.770000000000000000e+02 9.780000000000000000e+02 9.790000000000000000e+02 9.800000000000000000e+02 9.810000000000000000e+02 9.820000000000000000e+02 9.830000000000000000e+02 9.840000000000000000e+02 9.850000000000000000e+02 9.860000000000000000e+02 9.870000000000000000e+02 9.880000000000000000e+02 9.890000000000000000e+02 9.900000000000000000e+02 9.910000000000000000e+02 9.920000000000000000e+02 9.930000000000000000e+02 9.940000000000000000e+02 9.950000000000000000e+02 9.960000000000000000e+02 9.970000000000000000e+02 9.980000000000000000e+02 9.990000000000000000e+02 1.000000000000000000e+03
1.000000000000000021e-02 1.000000000000000021e-02 1.000000000000000021e-02 1.000000000000000021e-02 1.000000000000000021e-02 1.000000000000000021e-02 1.000000000000000021e-02 1.000000000000000021e-02 1.000000000000000021e-02 1.000000000000000021e-02 1.000000000000000021e-02 1.000000000000000021e-02 1.000000000000000021e-02 1.000000000000000021e-02 1.000000000000000021e-02 1.000000000000000021e-02 1.000000000000000021e-02 1.000000000000000021e-02 1.000000000000000021e-02 1.000000000000000021e-02 1.000000000000000021e-02 1.000000000000000021e-02 1.000000000000000021e-02 1.000000000000000021e-02 1.000000000000000021e-02 1.000000000000000021e-02 1.000000000000000021e-02 1.000000000000000021e-02 1.000000000000000021e-02 1.000000000000000021e-02 1.000000000000000021e-02 1.000000000000000021e-02 1.000000000000000021e-02 1.000000000000000021e-02 1.000000000000000021e-02 1.000000000000000021e-02 1.000000000000000021e-02 1.000000000000000021e-02 1.000000000000000021e-02 1.000000000000000021e-02 1.000000000000000021e-02 1.000000000000000021e-02 1.000000000000000021e-02 1.000000000000000021e-02 1.000000000000000021e-02 1.000000000000000021e-02 1.000000000000000021e-02 1.000000000000000021e-02 1.000000000000000021e-02 1.000000000000000021e-02 1.000000000000000021e-02 1.000000000000000021e-02 1.000000000000000021e-02 1.000000000000000021e-02 1.000000000000000021e-02 1.000000000000000021e-02 1.000000000000000021e-02 1.000000000000000021e-02 1.000000000000000021e-02 1.000000000000000021e-02 1.000000000000000021e-02 1.000000000000000021e-02 1.000000000000000021e-02 1.000000000000000021e-02 1.000000000000000021e-02 1.000000000000000021e-02 1.000000000000000021e-02 1.000000000000000021e-02 1.000000000000000021e-02 1.000000000000000021e-02 1.000000000000000021e-02 1.000000000000000021e-02 1.000000000000000021e-02 1.000000000000000021e-02 1.000000000000000021e-02 1.000000000000000021e-02 1.000000000000000021e-02 1.000000000000000021e-02 1.000000000000000021e-02 1.000000000000000021e-02 1.000000000000000021e-02 1.000000000000000021e-02 1.000000000000000021e-02 1.000000000000000021e-02 1.000000000000000021e-02 1.000000000000000021e-02 1.000000000000000021e-02 1.000000000000000021e-02 1.000000000000000021e-02 1.000000000000000021e-02 1.000000000000000021e-02 1.000000000000000021e-02 1.000000000000000021e-02 1.000000000000000021e-02 1.000000000000000021e-02 1.000000000000000021e-02 1.000000000000000021e-02 1.000000000000000021e-02 1.000000000000000021e-02 1.000000000000000021e-02 1.000000000000000021e-02 1.000000000000000021e-02 1.000000000000000021e-02 1.000000000000000021e-02 1.000000000000000021e-02 1.000000000000000021e-02 1.000000000000000021e-02 1.000000000000000021e-02 1.000000000000000021e-02 1.000000000000000021e-02 1.000000000000000021e-02 1.000000000000000021e-02 1.000000000000000021e-02 1.000000000000000021e-02 1.000000000000000021e-02 1.000000000000000021e-02 1.000000000000000021e-02 1.000000000000000021e-02 1.000000000000000021e-02 1.000000000000000021e-02 1.000000000000000021e-02 1.000000000000000021e-02 1.000000000000000021e-02 1.000000000000000021e-02 1.000000000000000021e-02 1.000000000000000021e-02 1.000000000000000021e-02 1.000000000000000021e-02 1.000000000000000021e-02 1.000000000000000021e-02 1.000000000000000021e-02 1.000000000000000021e-02 1.000000000000000021e-02 1.000000000000000021e-02 1.000000000000000021e-02 1.000000000000000021e-02 1.000000000000000021e-02 1.000000000000000021e-02 1.000000000000000021e-02 1.000000000000000021e-02 1.000000000000000021e-02 1.000000000000000021e-02 1.000000000000000021e-02 1.000000000000000021e-02 1.000000000000000021e-02 1.000000000000000021e-02 1.000000000000000021e-02 1.000000000000000021e-02 1.000000000000000021e-02 1.000000000000000021e-02 1.000000000000000021e-02 1.000000000000000021e-02 1.000000000000000021e-02 1.000000000000000021e-02 1.000000000000000021e-02 1.000000000000000021e-02 1.000000000000000021e-02 1.000000000000000021e-02 1.000000000000000021e-02 1.000000000000000021e-02 1.000000000000000021e-02 1.000000000000000021e-02 1.000000000000000021e-02 1.000000000000000021e-02 1.000000000000000021e-02 1.000000000000000021e-02 1.000000000000000021e-02 1.000000000000000021e-02 1.000000000000000021e-02 1.000000000000000021e-02 1.000000000000000021e-02 1.000000000000000021e-02 1.000000000000000021e-02 1.000000000000000021e-02 1.000000000000000021e-02 1.000000000000000021e-02 1.000000000000000021e-02 1.000000000000000021e-02 1.000000000000000021e-02 1.000000000000000021e-02 1.000000000000000021e-02 1.000000000000000021e-02 1.000000000000000021e-02 1.000000000000000021e-02 1.000000000000000021e-02 1.000000000000000021e-02 1.000000000000000021e-02 1.000000000000000021e-02 1.000000000000000021e-02 1.000000000000000021e-02 1.000000000000000021e-02 1.000000000000000021e-02 1.000000000000000021e-02 1.000000000000000021e-02 1.000000000000000021e-02 1.000000000000000021e-02 1.000000000000000021e-02 1.000000000000000021e-02 1.000000000000000021e-02 1.000000000000000021e-02 1.000000000000000021e-02 1.000000000000000021e-02 1.000000000000000021e-02 1.000000000000000021e-02 1.000000000000000021e-02 1.000000000000000021e-02 1.000000000000000021e-02 1.000000000000000021e-02 1.000000000000000021e-02 1.000000000000000021e-02 1.000000000000000021e-02 1.000000000000000021e-02 1.000000000000000021e-02 1.000000000000000021e-02 1.000000000000000021e-02 1.000000000000000021e-02 1.000000000000000021e-02 1.000000000000000021e-02 1.000000000000000021e-02 1.000000000000000021e-02 1.000000000000000021e-02 1.000000000000000021e-02 1.000000000000000021e-02 1.000000000000000021e-02 1.000000000000000021e-02 1.000000000000000021e-02 1.000000000000000021e-02 1.000000000000000021e-02 1.000000000000000021e-02 1.000000000000000021e-02 1.000000000000000021e-02 1.000000000000000021e-02 1.000000000000000021e-02 1.000000000000000021e-02 1.000000000000000021e-02 1.000000000000000021e-02 1.000000000000000021e-02 1.000000000000000021e-02 1.000000000000000021e-02 1.000000000000000021e-02 1.000000000000000021e-02 1.000000000000000021e-02 1.000000000000000021e-02 1.000000000000000021e-02 1.000000000000000021e-02 1.000000000000000021e-02 1.000000000000000021e-02 1.000000000000000021e-02 1.000000000000000021e-02 1.000000000000000021e-02 1.000000000000000021e-02 1.000000000000000021e-02 1.000000000000000021e-02 1.000000000000000021e-02 1.000000000000000021e-02 1.000000000000000021e-02 1.000000000000000021e-02 1.000000000000000021e-02 1.000000000000000021e-02 1.000000000000000021e-02 1.000000000000000021e-02 1.000000000000000021e-02 1.000000000000000021e-02 1.000000000000000021e-02 1.000000000000000021e-02 1.000000000000000021e-02 1.000000000000000021e-02 1.000000000000000021e-02 1.000000000000000021e-02 1.000000000000000021e-02 1.000000000000000021e-02 1.000000000000000021e-02 1.000000000000000021e-02 1.000000000000000021e-02 1.000000000000000021e-02 1.000000000000000021e-02 1.000000000000000021e-02 1.000000000000000021e-02 1.000000000000000021e-02 1.000000000000000021e-02 1.000000000000000021e-02 1.000000000000000021e-02 1.000000000000000021e-02 1.000000000000000021e-02 1.000000000000000021e-02 1.000000000000000021e-02 1.000000000000000021e-02 1.000000000000000021e-02 1.000000000000000021e-02 1.000000000000000021e-02 1.000000000000000021e-02 1.000000000000000021e-02 1.000000000000000021e-02 1.000000000000000021e-02 1.000000000000000021e-02 1.000000000000000021e-02 1.000000000000000021e-02 1.000000000000000021e-02 1.000000000000000021e-02 1.000000000000000021e-02 1.000000000000000021e-02 1.000000000000000021e-02 1.000000000000000021e-02 1.000000000000000021e-02 1.000000000000000021e-02 1.000000000000000021e-02 1.000000000000000021e-02 1.000000000000000021e-02 1.000000000000000021e-02 1.000000000000000021e-02 1.000000000000000021e-02 1.000000000000000021e-02 1.000000000000000021e-02 1.000000000000000021e-02 1.000000000000000021e-02 1.000000000000000021e-02 1.000000000000000021e-02 1.000000000000000021e-02 1.000000000000000021e-02 1.000000000000000021e-02 1.000000000000000021e-02 1.000000000000000021e-02 1.000000000000000021e-02 1.000000000000000021e-02 1.000000000000000021e-02 1.000000000000000021e-02 1.000000000000000021e-02 1.000000000000000021e-02 1.000000000000000021e-02 1.000000000000000021e-02 1.000000000000000021e-02 1.000000000000000021e-02 1.000000000000000021e-02 1.000000000000000021e-02 1.000000000000000021e-02 1.000000000000000021e-02 1.000000000000000021e-02 1.000000000000000021e-02 1.000000000000000021e-02 1.000000000000000021e-02 1.000000000000000021e-02 1.000000000000000021e-02 1.000000000000000021e-02 1.000000000000000021e-02 1.000000000000000021e-02 1.000000000000000021e-02 1.000000000000000021e-02 1.000000000000000021e-02 1.000000000000000021e-02 1.000000000000000021e-02 1.000000000000000021e-02 1.000000000000000021e-02 1.000000000000000021e-02 1.000000000000000021e-02 1.000000000000000021e-02 1.000000000000000021e-02 1.000000000000000021e-02 1.000000000000000021e-02 1.000000000000000021e-02 1.000000000000000021e-02 1.000000000000000021e-02 1.000000000000000021e-02 1.000000000000000021e-02 1.000000000000000021e-02 1.000000000000000021e-02 1.000000000000000021e-02 1.000000000000000021e-02 1.000000000000000021e-02 1.000000000000000021e-02 1.000000000000000021e-02 1.000000000000000021e-02 1.000000000000000021e-02 1.000000000000000021e-02 1.000000000000000021e-02 1.000000000000000021e-02 1.000000000000000021e-02 1.000000000000000021e-02 1.000000000000000021e-02 1.000000000000000021e-02 1.000000000000000021e-02 1.000000000000000021e-02 1.000000000000000021e-02 1.000000000000000021e-02 1.000000000000000021e-02 1.000000000000000021e-02 1.000000000000000021e-02 1.000000000000000021e-02 1.000000000000000021e-02 1.000000000000000021e-02 1.000000000000000021e-02 1.000000000000000021e-02 1.000000000000000021e-02 1.000000000000000021e-02 1.000000000000000021e-02 1.000000000000000021e-02 1.000000000000000021e-02 1.000000000000000021e-02 1.000000000000000021e-02 1.000000000000000021e-02 1.000000000000000021e-02 1.000000000000000021e-02 1.000000000000000021e-02 1.000000000000000021e-02 1.000000000000000021e-02 1.000000000000000021e-02 1.000000000000000021e-02 1.000000000000000021e-02 1.000000000000000021e-02 1.000000000000000021e-02 1.000000000000000021e-02 1.000000000000000021e-02 1.000000000000000021e-02 1.000000000000000021e-02 1.000000000000000021e-02 1.000000000000000021e-02 1.000000000000000021e-02 1.000000000000000021e-02 1.000000000000000021e-02 1.000000000000000021e-02 1.000000000000000021e-02 1.000000000000000021e-02 1.000000000000000021e-02 1.000000000000000021e-02 1.000000000000000021e-02 1.000000000000000021e-02 1.000000000000000021e-02 1.000000000000000021e-02 1.000000000000000021e-02 1.000000000000000021e-02 1.000000000000000021e-02 1.000000000000000021e-02 1.000000000000000021e-02 1.000000000000000021e-02 1.000000000000000021e-02 1.000000000000000021e-02 1.000000000000000021e-02 1.000000000000000021e-02 1.000000000000000021e-02 1.000000000000000021e-02 1.000000000000000021e-02 1.000000000000000021e-02 1.000000000000000021e-02 1.000000000000000021e-02 1.000000000000000021e-02 1.000000000000000021e-02 1.000000000000000021e-02 1.000000000000000021e-02 1.000000000000000021e-02 1.000000000000000021e-02 1.000000000000000021e-02 1.000000000000000021e-02 1.000000000000000021e-02 1.000000000000000021e-02 1.000000000000000021e-02 1.000000000000000021e-02 1.000000000000000021e-02 1.000000000000000021e-02 1.000000000000000021e-02 1.000000000000000021e-02 1.000000000000000021e-02 1.000000000000000021e-02 1.000000000000000021e-02 1.000000000000000021e-02 1.000000000000000021e-02 1.000000000000000021e-02 1.000000000000000021e-02 1.000000000000000021e-02 1.000000000000000021e-02 1.000000000000000021e-02 1.000000000000000021e-02 1.000000000000000021e-02 1.000000000000000021e-02 1.000000000000000021e-02 1.000000000000000021e-02 1.000000000000000021e-02 1.000000000000000021e-02 1.000000000000000021e-02 1.000000000000000021e-02 1.000000000000000021e-02 1.000000000000000021e-02 1.000000000000000021e-02 1.000000000000000021e-02 1.000000000000000021e-02 1.000000000000000021e-02 1.000000000000000021e-02 1.000000000000000021e-02 1.000000000000000021e-02 1.000000000000000021e-02 1.000000000000000021e-02 1.000000000000000021e-02 1.000000000000000021e-02 1.000000000000000021e-02 1.000000000000000021e-02 1.000000000000000021e-02 1.000000000000000021e-02 1.000000000000000021e-02 1.000000000000000021e-02 1.000000000000000021e-02 1.000000000000000021e-02 1.000000000000000021e-02 1.000000000000000021e-02 1.000000000000000021e-02 1.000000000000000021e-02 1.000000000000000021e-02 1.000000000000000021e-02 1.000000000000000021e-02 1.000000000000000021e-02 1.000000000000000021e-02 1.000000000000000021e-02 1.000000000000000021e-02 1.000000000000000021e-02 1.000000000000000021e-02 1.000000000000000021e-02 1.000000000000000021e-02 1.000000000000000021e-02 1.000000000000000021e-02 1.000000000000000021e-02 1.000000000000000021e-02 1.000000000000000021e-02 1.000000000000000021e-02 1.000000000000000021e-02 1.000000000000000021e-02 1.000000000000000021e-02 1.000000000000000021e-02 1.000000000000000021e-02 1.000000000000000021e-02 1.000000000000000021e-02 1.000000000000000021e-02 1.000000000000000021e-02 1.000000000000000021e-02 1.000000000000000021e-02 1.000000000000000021e-02 1.000000000000000021e-02 1.000000000000000021e-02 1.000000000000000021e-02 1.000000000000000021e-02 1.000000000000000021e-02 1.000000000000000021e-02 1.000000000000000021e-02 1.000000000000000021e-02 1.000000000000000021e-02 1.000000000000000021e-02 1.000000000000000021e-02 1.000000000000000021e-02 1.000000000000000021e-02 1.000000000000000021e-02 1.000000000000000021e-02 1.000000000000000021e-02 1.000000000000000021e-02 1.000000000000000021e-02 1.000000000000000021e-02 1.000000000000000021e-02 1.000000000000000021e-02 1.000000000000000021e-02 1.000000000000000021e-02 1.000000000000000021e-02 1.000000000000000021e-02 1.000000000000000021e-02 1.000000000000000021e-02 1.000000000000000021e-02 1.000000000000000021e-02 1.000000000000000021e-02 1.000000000000000021e-02 1.000000000000000021e-02 1.000000000000000021e-02 1.000000000000000021e-02 1.000000000000000021e-02 1.000000000000000021e-02 1.000000000000000021e-02 1.000000000000000021e-02 1.000000000000000021e-02 1.000000000000000021e-02 1.000000000000000021e-02 1.000000000000000021e-02 1.000000000000000021e-02 1.000000000000000021e-02 1.000000000000000021e-02 1.000000000000000021e-02 1.000000000000000021e-02 1.000000000000000021e-02 1.000000000000000021e-02 1.000000000000000021e-02 1.000000000000000021e-02 1.000000000000000021e-02 1.000000000000000021e-02 1.000000000000000021e-02 1.000000000000000021e-02 1.000000000000000021e-02 1.000000000000000021e-02 1.000000000000000021e-02 1.000000000000000021e-02 1.000000000000000021e-02 1.000000000000000021e-02 1.000000000000000021e-02 1.000000000000000021e-02 1.000000000000000021e-02 1.000000000000000021e-02 1.000000000000000021e-02 1.000000000000000021e-02 1.000000000000000021e-02 1.000000000000000021e-02 1.000000000000000021e-02 1.000000000000000021e-02 1.000000000000000021e-02 1.000000000000000021e-02 1.000000000000000021e-02 1.000000000000000021e-02 1.000000000000000021e-02 1.000000000000000021e-02 1.000000000000000021e-02 1.000000000000000021e-02 1.000000000000000021e-02 1.000000000000000021e-02 1.000000000000000021e-02 1.000000000000000021e-02 1.000000000000000021e-02 1.000000000000000021e-02 1.000000000000000021e-02 1.000000000000000021e-02 1.000000000000000021e-02 1.000000000000000021e-02 1.000000000000000021e-02 1.000000000000000021e-02 1.000000000000000021e-02 1.000000000000000021e-02 1.000000000000000021e-02 1.000000000000000021e-02 1.000000000000000021e-02 1.000000000000000021e-02 1.000000000000000021e-02 1.000000000000000021e-02 1.000000000000000021e-02 1.000000000000000021e-02 1.000000000000000021e-02 1.000000000000000021e-02 1.000000000000000021e-02 1.000000000000000021e-02 1.000000000000000021e-02 1.000000000000000021e-02 1.000000000000000021e-02 1.000000000000000021e-02 1.000000000000000021e-02 1.000000000000000021e-02 1.000000000000000021e-02 1.000000000000000021e-02 1.000000000000000021e-02 1.000000000000000021e-02 1.000000000000000021e-02 1.000000000000000021e-02 1.000000000000000021e-02 1.000000000000000021e-02 1.000000000000000021e-02 1.000000000000000021e-02 1.000000000000000021e-02 1.000000000000000021e-02 1.000000000000000021e-02 1.000000000000000021e-02 1.000000000000000021e-02 1.000000000000000021e-02 1.000000000000000021e-02 1.000000000000000021e-02 1.000000000000000021e-02 1.000000000000000021e-02 1.000000000000000021e-02 1.000000000000000021e-02 1.000000000000000021e-02 1.000000000000000021e-02 1.000000000000000021e-02 1.000000000000000021e-02 1.000000000000000021e-02 1.000000000000000021e-02 1.000000000000000021e-02 1.000000000000000021e-02 1.000000000000000021e-02 1.000000000000000021e-02 1.000000000000000021e-02 1.000000000000000021e-02 1.000000000000000021e-02 1.000000000000000021e-02 1.000000000000000021e-02 1.000000000000000021e-02 1.000000000000000021e-02 1.000000000000000021e-02 1.000000000000000021e-02 1.000000000000000021e-02 1.000000000000000021e-02 1.000000000000000021e-02 1.000000000000000021e-02 1.000000000000000021e-02 1.000000000000000021e-02 1.000000000000000021e-02 1.000000000000000021e-02 1.000000000000000021e-02 1.000000000000000021e-02 1.000000000000000021e-02 1.000000000000000021e-02 1.000000000000000021e-02 1.000000000000000021e-02 1.000000000000000021e-02 1.000000000000000021e-02 1.000000000000000021e-02 1.000000000000000021e-02 1.000000000000000021e-02 1.000000000000000021e-02 1.000000000000000021e-02 1.000000000000000021e-02 1.000000000000000021e-02 1.000000000000000021e-02 1.000000000000000021e-02 1.000000000000000021e-02 1.000000000000000021e-02 1.000000000000000021e-02 1.000000000000000021e-02 1.000000000000000021e-02 1.000000000000000021e-02 1.000000000000000021e-02 1.000000000000000021e-02 1.000000000000000021e-02 1.000000000000000021e-02 1.000000000000000021e-02 1.000000000000000021e-02 1.000000000000000021e-02 1.000000000000000021e-02 1.000000000000000021e-02 1.000000000000000021e-02 1.000000000000000021e-02 1.000000000000000021e-02 1.000000000000000021e-02 1.000000000000000021e-02 1.000000000000000021e-02 1.000000000000000021e-02 1.000000000000000021e-02 1.000000000000000021e-02 1.000000000000000021e-02 1.000000000000000021e-02 1.000000000000000021e-02 1.000000000000000021e-02 1.000000000000000021e-02 1.000000000000000021e-02 1.000000000000000021e-02 1.000000000000000021e-02 1.000000000000000021e-02 1.000000000000000021e-02 1.000000000000000021e-02 1.000000000000000021e-02 1.000000000000000021e-02 1.000000000000000021e-02 1.000000000000000021e-02 1.000000000000000021e-02 1.000000000000000021e-02 1.000000000000000021e-02 1.000000000000000021e-02 1.000000000000000021e-02 1.000000000000000021e-02 1.000000000000000021e-02 1.000000000000000021e-02 1.000000000000000021e-02 1.000000000000000021e-02 1.000000000000000021e-02 1.000000000000000021e-02 1.000000000000000021e-02 1.000000000000000021e-02 1.000000000000000021e-02 1.000000000000000021e-02 1.000000000000000021e-02 1.000000000000000021e-02 1.000000000000000021e-02 1.000000000000000021e-02 1.000000000000000021e-02 1.000000000000000021e-02 1.000000000000000021e-02 1.000000000000000021e-02 1.000000000000000021e-02 1.000000000000000021e-02 1.000000000000000021e-02 1.000000000000000021e-02 1.000000000000000021e-02 1.000000000000000021e-02 1.000000000000000021e-02 1.000000000000000021e-02 1.000000000000000021e-02 1.000000000000000021e-02 1.000000000000000021e-02 1.000000000000000021e-02 1.000000000000000021e-02 1.000000000000000021e-02 1.000000000000000021e-02 1.000000000000000021e-02 1.000000000000000021e-02 1.000000000000000021e-02 1.000000000000000021e-02 1.000000000000000021e-02 1.000000000000000021e-02 1.000000000000000021e-02 1.000000000000000021e-02 1.000000000000000021e-02 1.000000000000000021e-02 1.000000000000000021e-02 1.000000000000000021e-02 1.000000000000000021e-02 1.000000000000000021e-02 1.000000000000000021e-02 1.000000000000000021e-02 1.000000000000000021e-02 1.000000000000000021e-02 1.000000000000000021e-02 1.000000000000000021e-02 1.000000000000000021e-02 1.000000000000000021e-02 1.000000000000000021e-02 1.000000000000000021e-02 1.000000000000000021e-02 1.000000000000000021e-02 1.000000000000000021e-02 1.000000000000000021e-02 1.000000000000000021e-02 1.000000000000000021e-02 1.000000000000000021e-02 1.000000000000000021e-02 1.000000000000000021e-02 1.000000000000000021e-02 1.000000000000000021e-02 1.000000000000000021e-02 1.000000000000000021e-02 1.000000000000000021e-02 1.000000000000000021e-02 1.000000000000000021e-02 1.000000000000000021e-02 1.000000000000000021e-02 1.000000000000000021e-02 1.000000000000000021e-02 1.000000000000000021e-02 1.000000000000000021e-02 1.000000000000000021e-02 1.000000000000000021e-02 1.000000000000000021e-02 1.000000000000000021e-02 1.000000000000000021e-02 1.000000000000000021e-02 1.000000000000000021e-02 1.000000000000000021e-02 1.000000000000000021e-02 1.000000000000000021e-02 1.000000000000000021e-02 1.000000000000000021e-02 1.000000000000000021e-02 1.000000000000000021e-02 1.000000000000000021e-02 1.000000000000000021e-02 1.000000000000000021e-02 1.000000000000000021e-02 1.000000000000000021e-02 1.000000000000000021e-02 1.000000000000000021e-02 1.000000000000000021e-02 1.000000000000000021e-02 1.000000000000000021e-02 1.000000000000000021e-02 1.000000000000000021e-02 1.000000000000000021e-02 1.000000000000000021e-02 1.000000000000000021e-02 1.000000000000000021e-02 1.000000000000000021e-02 1.000000000000000021e-02 1.000000000000000021e-02 1.000000000000000021e-02 1.000000000000000021e-02 1.000000000000000021e-02 1.000000000000000021e-02 1.000000000000000021e-02 1.000000000000000021e-02 1.000000000000000021e-02 1.000000000000000021e-02 1.000000000000000021e-02 1.000000000000000021e-02 1.000000000000000021e-02 1.000000000000000021e-02 1.000000000000000021e-02 1.000000000000000021e-02 1.000000000000000021e-02 1.000000000000000021e-02 1.000000000000000021e-02 1.000000000000000021e-02 1.000000000000000021e-02 1.000000000000000021e-02 1.000000000000000021e-02 1.000000000000000021e-02 1.000000000000000021e-02 1.000000000000000021e-02 1.000000000000000021e-02 1.000000000000000021e-02 1.000000000000000021e-02 1.000000000000000021e-02 1.000000000000000021e-02 1.000000000000000021e-02 1.000000000000000021e-02 1.000000000000000021e-02 1.000000000000000021e-02 1.000000000000000021e-02 1.000000000000000021e-02 1.000000000000000021e-02 1.000000000000000021e-02 1.000000000000000021e-02 1.000000000000000021e-02 1.000000000000000021e-02 1.000000000000000021e-02 1.000000000000000021e-02 1.000000000000000021e-02 1.000000000000000021e-02 1.000000000000000021e-02 1.000000000000000021e-02 1.000000000000000021e-02 1.000000000000000021e-02 1.000000000000000021e-02 1.000000000000000021e-02 1.000000000000000021e-02 1.000000000000000021e-02 1.000000000000000021e-02 1.000000000000000021e-02 1.000000000000000021e-02 1.000000000000000021e-02 1.000000000000000021e-02 1.000000000000000021e-02 1.000000000000000021e-02 1.000000000000000021e-02 1.000000000000000021e-02 1.000000000000000021e-02 1.000000000000000021e-02 1.000000000000000021e-02 1.000000000000000021e-02 1.000000000000000021e-02 1.000000000000000021e-02 1.000000000000000021e-02 1.000000000000000021e-02 1.000000000000000021e-02 1.000000000000000021e-02 1.000000000000000021e-02 1.000000000000000021e-02 1.000000000000000021e-02 1.000000000000000021e-02 1.000000000000000021e-02 1.000000000000000021e-02 1.000000000000000021e-02 1.000000000000000021e-02 1.000000000000000021e-02 1.000000000000000021e-02 1.000000000000000021e-02 1.000000000000000021e-02 1.000000000000000021e-02 1.000000000000000021e-02 1.000000000000000021e-02 1.000000000000000021e-02 1.000000000000000021e-02 1.000000000000000021e-02 1.000000000000000021e-02 1.000000000000000021e-02 1.000000000000000021e-02 1.000000000000000021e-02 1.000000000000000021e-02 1.000000000000000021e-02 1.000000000000000021e-02 1.000000000000000021e-02 1.000000000000000021e-02 1.000000000000000021e-02 1.000000000000000021e-02 1.000000000000000021e-02 1.000000000000000021e-02 1.000000000000000021e-02 1.000000000000000021e-02 1.000000000000000021e-02 1.000000000000000021e-02 1.000000000000000021e-02 1.000000000000000021e-02 1.000000000000000021e-02 1.000000000000000021e-02 1.000000000000000021e-02 1.000000000000000021e-02 1.000000000000000021e-02 1.000000000000000021e-02 1.000000000000000021e-02 1.000000000000000021e-02 1.000000000000000021e-02 1.000000000000000021e-02 1.000000000000000021e-02 1.000000000000000021e-02 1.000000000000000021e-02 1.000000000000000021e-02 1.000000000000000021e-02 1.000000000000000021e-02 1.000000000000000021e-02 1.000000000000000021e-02 1.000000000000000021e-02 1.000000000000000021e-02 1.000000000000000021e-02 1.000000000000000021e-02 1.000000000000000021e-02 1.000000000000000021e-02 1.000000000000000021e-02 1.000000000000000021e-02
-1.053471850257853646e+02 1.603263029027107791e+02 3.709484261913629410e+01 -8.326180688248900452e+00 -8.300355001045294046e+01 -1.264486517518678710e+01 -1.964850196473093717e+02 6.832088209803676149e-01 -7.999165121909496179e+01 -1.344696053441666272e+01 -1.876593234467099691e+01 6.210038481819745826e+00 -1.685334193959214133e+00 1.585179162103150077e+02 7.996101751206292363e+01 -3.670489283753195053e+01 -4.996227949312365979e+01 7.484301298260734825e+01 3.102671919405508660e+01 -2.399385068981649383e+01 -7.446842282915221745e+01 -6.969442375427065883e+01 -1.301938738354728642e+01 2.733652446477625730e+01 -1.841442152830406371e+02 -9.324685209570543520e+01 -2.465969332457416030e+01 1.904697430427985978e+02 6.685712479794622709e+01 7.255295761533017185e+01 7.588018118613955210e+01 1.111517489768384159e+00 -7.501472206312107005e+01 1.961127965317392352e+02 -2.314442625802280133e+02 5.567945975766301814e+01 -1.134329486589794556e+02 -3.278894176589712117e+01 3.819828530301612179e+00 1.197376743704835178e+02 -1.161005193475221802e+02 -1.285032831713982837e+01 7.304994596954030328e+01 1.640661300634459963e+02 6.737789504712975486e+01 -6.457216341885528266e+01 3.886440202803409250e+01 -2.684879226209222480e+01 -6.242442065290438080e+01 1.479523568968637051e+02 -6.655501916331760981e+01 -4.920301896063827485e+01 -1.317601276568430251e+02 5.550204312126640005e+00 -4.771980289963283894e+01 3.656121535544559009e+01 -8.385396272523485095e+01 -4.728377913599928206e+01 -9.583203880261552854e+01 -1.469207015227663931e+02 1.832047799224799078e+01 4.294473584103728570e+01 -1.163718880311920287e+02 1.213651989223631844e+01 -7.487648088204512931e+01 4.642982144436070513e+01 1.575634951474690411e+02 -1.363677189925067808e+02 -4.089963842986290388e+01 6.844807537039464762e+00 2.786953698137013102e+00 4.007341552366627013e+01 7.936996303416681542e+01 6.983220611493136110e-01 -8.378006287235026051e+00 -6.614857593424881088e+01 7.393682814003665271e+01 -3.088651746348229921e+01 2.487701315672249791e+01 9.832754005269163144e+01 8.333055945721589808e+01 -4.043832582164032630e+01 5.455078778094095071e+01 1.393301609092972058e+02 1.098492889396396777e+02 -3.753694469879930384e+00 1.646051597916084006e+02 -1.054208687818756545e+02 3.913905222732928735e+00 -3.963864141708751276e+01 1.954501548883075657e+02 -2.005938575669235391e+01 2.756250804349779759e+00 -7.257124606862413430e+01 -6.770040504282196281e+00 -6.028958628672581455e+01 6.408135752632608728e+01 -8.938205874707797705e+01 6.491812432185430737e+01 -4.516897589155766468e+01 -4.700189277021292611e+01 -8.664620046973681156e+01 5.012351601357163844e+01 -5.165130073668667876e+01 -1.411294096886179261e+02 -7.507478223692282882e+01 -9.885379930212344846e+01 -1.485948442581986342e+02 1.284504905335592468e+02 -2.590172718046255085e+01 3.029823876618611322e+01 8.474424547672553842e+01 -9.830035401334122014e+01 5.380212965501947053e+01 -4.093346271822475302e+01 -6.565670897634167602e+01 -8.522916471270418981e+01 1.919976390840614613e+02 -5.361810582031721140e+01 -4.682710151518447361e+01 -4.454148994627023228e+01 7.597478043384876401e+01 -3.916139905495801798e+01 1.303630474174007929e+02 -4.723330537873547286e+01 5.214432221456906547e+01 4.294777167643908378e+00 -7.658657005370842796e+01 6.497515456064482464e+01 2.621965658463795421e+02 -8.705491222253537842e+01 4.484895993723586116e+01 -7.213127749992939641e+01 4.277421038292856537e+01 1.240372772248229296e+02 -4.865650576600052091e+01 1.384243160531371686e+01 -2.549453011280262160e+01 -9.641350069409699586e+01 -1.645439749668867435e+01 4.099202095463593487e+00 -7.374060819601274019e+00 -1.411398996251024585e+01 1.117300910654865902e+02 1.233421610063940790e+02 1.763745703092055521e+02 -2.879034550311778275e+02 3.612208509776053944e+01 -1.494039762966747098e+01 -5.895765522000344561e+01 1.706170221897698980e+02 7.198414829087087696e+01 -2.507419515107084163e+00 -1.096658101782285968e+02 -1.027025063674702920e+01 9.471292700589165747e+01 -1.271074522604935026e+02 -1.595302234117672242e+02 1.016259084482973840e+01 4.012569937141705623e+01 -5.778059252101133580e+01 3.979288178180770785e+01 -1.013388560329422461e+02 -1.431932576931490075e+02 1.993963295498200949e+01 4.598112048412965436e+01 4.584046568500719232e+00 -7.895184932726454008e+01 -8.859732483042117224e+01 -7.976377864161123910e+01 -8.291387948921780549e+01 1.202040907550327198e+01 5.379973879851787188e+01 1.103827739909857826e+02 7.522495293743639877e+01 8.483410552653865011e+01 1.018953323668994102e+02 -7.086452522255821407e+01 -7.819284665417291080e+01 6.685779699165546219e+01 6.506602901678733986e+01 5.616626370828213055e+01 -8.889388552456740200e+00 -8.639172055842097109e+01 5.124179831476535441e+01 -1.700380719117906665e+02 6.379064424986756876e+01 -4.223327950704209144e+01 -9.154506399219455659e+01 7.048546729110266540e+01 -1.632936857235773687e+01 -7.322652706035800918e+01 -5.455635507243177784e+01 -8.737854913420214586e+00 2.307676497928077595e+02 7.322458307347280027e+01 5.217263822909113458e+01 -9.877828532796669947e+01 1.411044273423156028e+02 1.038954040183295735e+00 -8.599800400544977208e+01 1.483939567290381945e+02 -1.467752866921588293e+02 1.503171187674644393e+01 -3.095178210944646224e+01 -2.117045838315832214e+02 -1.283775701038769341e+02 -8.398509573995107758e+01 -2.836974574356667489e+01 -1.147727314530735470e+02 5.549053747809315951e+01 6.260960514770337682e+01 -2.660770974643305564e+01 -9.613767552030162733e+01 1.089138167905232422e+02 1.137695842387749110e+02 4.450131221900461043e+01 1.689306406297188090e+01 2.518817820391467137e+02 4.204241633673532164e+01 -1.152201975478543829e+02 -4.347062012644565243e+01 -1.626795726782911515e+02 3.072241956104021909e+01 1.477206499481912658e+02 -1.428772697167678132e+02 1.269977389616661583e+02 -8.770192164374606136e+01 -1.828164770270889505e+01 -8.185339294512714581e-01 5.100993657316983843e+01 -1.114050646733687877e+01 -2.203858382116105474e+01 -1.808636257636215916e+01 -1.223436888398371281e+02 4.473642674404924691e+01 -2.924924809635942680e+01 -1.242653963587015298e+01 -1.035169903315582651e+01 2.180468545060318490e+02 1.681944051338967654e+02 2.244881885306496088e+02 1.271908860539815862e+02 -8.355094199439317038e+01 7.250257812934280821e+01 2.043300137764375890e+01 4.581727852411236057e+01 -3.824190348234340320e+01 2.464999053662929782e+02 -2.252359599954042224e+01 -1.319891136508116176e+02 -1.441029464562089402e+01 -4.426416529409131329e+01 -7.467601330573444329e+01 4.165365753606265997e+01 -1.130516108081994275e+01 1.756130965464637939e+02 8.909027729191340939e+01 3.945393053759513435e+01 9.456389775738840342e+01 9.143979696825130077e+01 -2.219028806498155859e+01 1.348143713862486095e+02 2.564899386074279874e+01 8.655372801884880118e+01 4.607528156366723948e+01 6.678539939112868140e+00 -1.117661759036733429e+02 -1.119253539843813883e+02 -8.697843972398305823e+01 -1.502380526206693645e+01 8.374450715957880220e+01 -2.955406765287346005e+01 9.550168220353749859e+01 4.234176025973840751e+01 -7.023947210161529142e+01 -2.890387819433975025e+01 -5.657630951098875016e+01 1.697425356157535248e+01 -4.468503296804838243e+01 -1.082177295321949089e+02 1.173403293217524066e+02 1.172154752018923887e+02 -7.630404308973996308e+01 5.176807049393563176e+00 -4.379633236199240542e+01 -3.141532050391099062e+01 -1.095366597507595685e+01 -3.019406827816502670e+01 4.301204525856492467e+01 -1.358135119616052577e+02 -5.107007477877649393e+01 -1.466214610403055758e+02 1.681211307947246496e+02 -1.944955732636177004e+01 5.683814522247942591e+01 1.147675434649402959e+01 1.393510083971891618e+02 4.301642058553976256e+01 3.442173228729945578e+01 1.489799230392909521e+02 -4.752434332538133788e+01 -9.421577890107150210e+01 2.629262877022126688e+01 -1.524093523747540360e+02 -5.151814417807112534e+01 9.871452604849946511e+01 -1.229058812771981906e+02 -3.505019234244809212e+01 8.800100971609155920e+01 -9.100700931490190726e+01 -8.619886644469534076e+01 -7.963217693430343047e+01 -6.143807911146732437e+01 2.401021555875125557e+02 1.910068374549374255e+02 9.919803805920363970e+01 -9.846285974221241588e+01 7.208014431342650141e+01 -6.383489090475119099e+01 -3.037729185133457932e+01 1.601688735528233920e+01 -3.113432599143149559e+01 -9.024361686153302742e+01 -2.757135047373868275e+00 1.417165846433479715e+01 1.047654518988089336e+02 -1.236854328977967015e+02 4.044957099931063027e+01 6.137522945319874168e+01 3.317455058747072627e+01 -8.718097632565718413e+01 -1.429017179233269701e+02 1.857191514076347971e+02 -1.710893323305833036e+01 2.421497280137070973e+01 1.505817339133456301e+02 2.562222120042623885e+01 2.664007795936257850e+01 -4.282308607231819764e+01 8.515761413906095356e+01 -1.309682310898343189e+02 -2.957391536560270850e+01 -5.898180545102852612e+00 -5.125970559721807263e+01 6.126842346533005745e+00 2.037223233236293751e+01 -3.436249714069119676e+01 1.312028331902790335e+01 2.051793624283421025e+02 -2.631482324669755357e+01 -2.690918901910959704e+01 -9.757149481573529215e+01 -1.557386237971217557e+00 -7.746840136795725584e+01 6.096339978735216825e+00 1.075682115108906913e+02 -4.990478053025628213e+01 5.790431792121435883e+00 -5.208594700165770774e+01 3.165472391984007317e+00 8.363047641099070972e+01 -1.111214797333179405e+02 -9.291319294333344203e+01 -9.841838346916199498e+01 6.840336128650790215e+01 8.301553826018285065e+01 -8.840942870607557325e+01 6.010996380829536179e+01 2.479760004474180946e+01 3.710319047532752279e+01 -1.700507271900877626e+01 8.762793461856836075e+01 7.640016936132367675e+01 -7.405722154636048060e+01 1.127091580735576493e+01 7.752771733580212299e+01 6.982718933894500424e+01 -1.911019196991713187e+01 2.391809425349200424e+01 -1.271391671624241724e+02 4.655785819787030277e+01 -3.143983207390289891e+01 -3.136391528536659123e+01 1.660404751241801762e+02 4.544543001463370757e+01 1.152243387434631643e+02 1.831132647308047581e+02 -1.319787013799996487e+02 1.429665558090195248e+02 -6.087702665670970248e+01 -1.295796993405463127e+02 7.891084952673645603e+01 -1.284923661454125465e+02 -2.753724391956296103e+01 5.405282738439647972e+01 7.687328254039848652e+00 -1.612819084565396395e+02 8.082248765570658122e+01 2.421310227271564486e+01 6.622575262851651701e+01 3.483076495850544063e+01 9.067995773063346476e+00 -6.433891142988463230e+01 1.109011588858658115e+02 5.224784548248765503e+01 -5.954241543608813458e+01 -9.706260147883571676e+01 3.727296312250789612e+01 2.470746338129717756e+01 7.901459235521312507e+01 1.762485096623624372e+02 -2.358236185303359278e+01 -1.056183887404090598e+02 -8.113514622300438361e+01 -4.919035396602097876e+01 -4.245336072244589332e+01 -1.406349943801295694e+02 -2.161276639629790708e+01 1.241913021971644184e+02 7.142923037658124485e+01 -1.172965806913827151e+02 -1.437819851211625348e+02 -6.524058908671537438e+01 -7.310894702302941539e+01 1.407870192862690431e+02 -1.634145036689025403e+02 8.301045696915257111e+01 -4.415007319213012593e+00 -4.126732150649080921e+01 1.272263131982345996e+01 8.733602069733818496e+01 4.746474163763252108e+01 1.324693795265408767e+02 -1.525451262541362496e+02 -7.760790475180164094e+01 2.435021867482539193e+01 4.018019376200647486e+01 1.975265390507167069e+02 1.394370894426680536e+02 6.284791965315118034e+01 6.910703366045588325e+01 -3.254470806072804123e+01 1.454618687423593144e+02 -1.719553973932377460e+02 -6.081260149036303631e+01 -5.144365846163459821e+01 -4.963682938139552903e+01 -9.893611165289975418e+01 -1.438290037403501209e+01 -6.576439179551886127e+01 6.818160531226847354e+01 -8.747471110097976066e+00 -5.560390693229899739e+01 -5.957667136711503986e+01 1.726731377685785844e+02 5.661628807437038802e+01 -1.318942334641950787e+01 2.001892266136081560e+02 -1.038582227303247976e+02 -3.384387718914676668e+01 6.417655109079454689e+01 -1.372185406751102454e-01 1.437870730362143767e+01 -1.199454898976175343e+02 1.688367897659545065e+02 -4.686884942860113057e+01 -2.574016374390513562e+01 -1.050848667050341589e+02 1.205531121621296222e+02 9.176884298472485568e+01 -7.422043937776756195e+01 -3.607882544272603553e+01 3.733300126851563761e+01 -1.449446390872489303e+02 -2.177297663712672304e-01 -7.152646984769563687e+01 7.341888837886501484e+00 -1.034627049448636598e+02 -1.517580963356909649e+02 -6.767002540791258980e+01 1.418475725083178816e+02 5.409009827812343474e+01 -8.580366964958118103e+01 8.529819656149140883e+01 3.271052750061650727e+01 8.456789387238647748e+01 -4.029968756312840128e+01 -8.040761690933675254e+01 1.636212658196305085e+02 3.979951256668669402e+01 2.767606010840382069e+01 -6.978008821024953079e+01 -4.046405772652611432e+01 9.070304569348479617e+00 -6.868999964734906705e+00 -1.652529304860739501e+02 -3.310899962708952415e+01 6.155529351320768683e+01 1.066254303215101373e+02 1.488633845551639467e+02 -1.270997483250347315e+01 8.564171314681270530e+01 1.507353545307674096e+02 6.056491902235256930e+01 1.410077281161401004e+02 1.534704395886532069e+01 1.254029727638034757e+02 -8.015241255567956102e+01 5.089575798555637220e+01 2.794528341287791307e+01 7.237459454841874162e+01 -1.013403386445541940e+02 1.889645946783576846e+02 -1.226829023146826927e+02 8.424050142103871508e+01 -1.023254585893124471e+02 4.402599273617509823e+01 1.316640209111204740e+01 8.639744928969946614e+01 -7.014068699455367550e+01 -7.191853670061783532e+01 -1.058477985985105896e+01 8.482666144987602763e+01 -2.817496827748797372e+01 -1.550241453944679648e+01 -1.868027670292919140e+01 4.504017957858278187e+00 9.332345198044443180e+01 -5.944694847571067697e+01 -2.563660274086331903e+00 -1.841225586611112703e+02 1.158539702513824921e+02 -1.184734635172933821e+02 -7.006175509325353801e+01 -2.229924112357894828e+01 -1.024108386627757028e+02 -5.040200471959263240e+01 -5.558491779233754215e+01 -1.869480893435267532e+01 1.291798482068996918e+02 5.127136825876807080e+01 9.521472735046495472e+01 -1.290680107012299516e+02 -1.314004925562445010e+02 -2.719441309963729054e+02 9.693591880584791909e+01 9.880925113547155547e+01 4.016326396530048726e+01 -4.031075599785394559e+01 -3.521654420303436694e+01 -1.742067113378907379e+02 1.385054066188599506e+02 -1.018473532349400443e+02 1.014358314086463224e+02 -1.509387339344812347e+02 -1.358816779337731795e+01 -5.251692209232938779e+01 -1.131114339295279052e+02 -4.373103136887365139e+01 -1.192913224309037190e+01 -8.791030606406120285e+01 -9.810395187900415692e+01 -1.172858834985684418e+01 6.750302228764452650e+01 -1.181733258730246092e+02 -1.482942048672513025e+01 -6.994506197145670967e+01 -1.246387307318968141e+02 6.211404477325745965e+00 9.015716677919846234e+01 1.570578780436306658e+02 -1.806859759233823581e+01 -4.368083965423888770e+01 -1.178436341332403714e+02 -1.553155678196970655e+02 9.853703535207561970e+01 -6.902849424385325960e+01 7.495288716156463238e+01 8.916760094057629260e+00 2.770801411461535579e+01 7.009484941493505517e+01 -8.050067304082061526e+01 7.852378559877001862e+01 1.094771727319885599e+02 1.496237592344876930e+02 -1.106202934605217365e+02 9.874696918897905107e+01 -4.540333586738385918e+01 -8.625082190799362536e+01 2.038699994501937738e+02 4.671711566804209781e+01 7.929074423007843109e+01 2.010550415932788226e+01 -6.016364441149329423e+01 -3.318313313125725728e+01 -1.998651558821866843e+02 1.003589880074692360e+02 7.738986536949248318e+01 -7.190448975292544276e+01 -6.942660170330199776e+01 1.379124627547610089e+02 9.600392723570840303e+01 4.856564372730441903e+01 7.224302114843598588e+01 -7.426436637239603122e+00 9.801743460687961829e+01 -9.842647764274677513e+01 1.769826676974842314e+02 -3.750628272202695968e+01 -1.159103778176582153e+02 -3.584716199913029300e+01 6.814496629546459872e+01 1.399431609372994956e+02 1.216475008471958219e+01 1.651171479429886801e+02 4.955780356008023801e+01 3.196461141986986121e+01 -1.057200901282301970e+02 4.251707498441579958e+01 -1.186956779805699824e+02 4.534275872925501005e+01 3.660727810029840867e+01 -1.172218294128478107e+02 -8.078182716045995448e+01 3.787857401438930793e+01 8.287386787325763393e+00 -2.202870148582403331e+01 3.980676646626442761e+01 -2.033332708986710102e+01 -5.992614424043976840e+01 -2.497376615063401673e+01 -2.127294336309694955e+01 -3.781749261895316749e+01 1.781385426134156802e+01 -7.651940921359647518e+01 1.129728995104884177e+02 -7.051991802335216164e+01 -3.948016400123442793e+00 6.239198591586274034e+01 3.665679764576948774e+00 1.517783913233377469e+01 1.517856627901204547e+01 -1.112242638268792803e+02 -4.178655298720141964e+00 6.177576701103345869e+01 -2.198034552878370675e+02 -8.065083239462600773e+01 -1.070128329605837934e+02 4.160571398325408410e+01 9.137257724406602222e+01 -8.716682618546781214e+01 -1.594407196738291645e+02 -1.759072488122217237e+02 1.893968763814673650e+01 -1.376004897446545954e+02 -6.014065375167955807e+00 1.401098941908145150e+02 -6.689552355968233499e+00 3.520962405908798587e+01 -9.372207162068066566e+01 7.568094340623714800e+01 -1.122780538592438546e+02 -1.463161699451580056e+01 -2.864477430854044115e+01 5.452222600612080328e+01 -8.337199896589021719e+00 9.995180042361828043e+01 -1.154768229493315346e+02 -4.735672879290839177e+01 8.198372255639034734e+01 6.251615866546944034e+01 -7.774981011114800822e+01 -5.141564597671145975e+01 -4.665735573997982044e+01 -2.732708098620204851e+02 1.826949453673889252e+02 7.176230042887220861e+01 -2.221745661930415494e+01 -2.799507721651182379e+01 3.916722235645629979e+01 -7.926048794677593889e+01 9.377194970266972973e+01 5.702674500428393856e+01 7.713102900296892983e+01 -7.921654827642892371e+01 -2.491667526771197316e+01 3.135105481631133628e+01 1.636535101141099346e+01 -4.036662759917044241e+01 1.487588882292893686e+02 -1.625907090442948544e+01 3.335276684818276749e+01 -2.163949436600924514e+02 -7.965447336675276802e+01 -6.881305882175476540e+01 2.167548962508368149e+01 1.027251577581283470e+02 -2.181192975389177775e+02 -1.759948096546445129e+02 2.084968895242384974e+02 -9.936478108963257228e+00 9.033747552935523117e+01 5.888639078049727260e+01 -5.204394013328749935e+01 -1.232353062838696331e+02 -8.952051704878385863e+01 -4.726133030496415444e+01 -3.517647030348470594e+01 -3.684412770195527997e+01 1.515307871537227946e+01 3.504360902277232270e+01 1.570083525893291494e+02 1.159811488402725388e+02 6.613237689978119782e+00 -4.162258237880732459e+00 -1.493061387138786245e+02 1.125641334401086766e+02 1.498419444974153123e+02 -9.736032944162003844e+01 6.934638138924563577e+01 1.554211314758257467e+00 5.171159539301915942e+01 1.179130865905344052e+02 6.674047643197251034e+01 -1.261318912734741389e+02 1.514443958520116773e+01 -2.765120022083568330e+01 1.048992651015867139e+01 -2.169643476343491884e+01 4.264684250779303198e+01 -2.453570848065923826e+02 1.704891434124472482e+02 6.807204575435084948e+00 1.500567030669347162e+02 -9.881401997744800880e+00 9.993787583225439164e+01 6.745296746747456496e+01 -3.950721749538776351e+01 2.824133477199323039e+01 -6.864390316574265682e+01 -8.388984297917039612e+01 -6.787880493162101914e+01 -3.022234807491684450e+01 4.256748581752015781e+01 1.038416646339810683e+02 2.682077966037111949e+01 5.866869987445195989e+01 -9.888021043322427772e+01 -1.293520904628016979e+02 -1.271877694473422338e+01 4.373865195841686671e+01 -4.282839576911541002e+01 8.929174215579351426e+01 5.243680957538273191e+01 -2.607555633317371502e+01 2.825350865871740424e+01 5.796301916633791507e+01 -6.803484088256094253e+01 -1.262244832959301277e+02 1.340893198618827853e+02 7.373668916208113266e+00 4.734032943310291586e+01 -1.410380359330864621e+02 -5.045620420916218762e+01 -3.946140330972447985e-01 -6.223354536637612711e+01 4.019078541468291021e+00 5.322767433502509249e+01 1.762789336307580470e+02 3.700609280013792812e+01 -1.035875404887019258e+01 6.837181452125163617e+01 -4.299831014232056248e+01 -1.030966633206342635e+02 -1.307330147956179758e+02 8.852662777331742561e+00 2.376629783171851784e+01 2.258535375001638101e+01 -5.385703736159557309e+01 1.143880215101675333e+02 -7.653395954963632164e+01 1.215381067734882805e+02 8.268297091216223293e+01 -6.161671432547660032e+01 -8.036077073703316387e+01 7.982244298378100211e+01 1.932037640968396630e+01 -4.981249159979362418e+01 -5.103487829349300853e+01 1.297214061244052914e+02 5.439740030756353661e+01 7.583579757994998261e+01 2.480580687759545100e+01 -3.987284282504285926e+01 1.018982664124170867e+02 -5.179493476784020345e+01 5.590168548488871902e-01 7.263613698079184644e+01 9.457075031243832086e+01 2.426902919603252542e+02 -1.664309278862245662e+02 1.528412081051911855e+02 -6.413981378020697832e+01 -1.447901627308487527e+01 -2.391486562732527688e+01 -1.970073424023779651e+01 -5.235439679594718854e+01 8.845397607097994808e+01 1.749802841991145783e+02 -1.129527560436432623e+02 2.942801428523809548e+01 -1.207595309144199405e+02 6.681639376289341214e+01 -4.231855169138496109e+01 -7.719932136305102688e+01 -5.137817336114354561e+01 3.927604136184060479e+01 1.844639276620674906e+01 -7.793324062633622873e+01 -1.344966663916029574e+02 1.980005480731981393e+01 1.503867871638209408e+02 1.363676134348953006e+01 1.742007202274304234e+02 7.113730340936180063e+00 1.285908231994284847e+02 -3.303501503435453657e+01 8.674569188242554674e+01 -6.827251668088338477e+01 -1.079326585723580365e+02 4.727080938401925181e+01 -5.546108786906749799e+01 -7.514257785183711746e+01 6.968621534082645042e+01 6.213128192029108376e+00 -9.022626915400304881e+01 -1.442100168988322650e+02 1.417023801525702140e+02 -8.543335024712116876e+01 -2.288454400953788159e+00 1.151261178273607584e+02 5.559959062094576865e+01 -9.419590514122030811e+01 1.023708383922279808e+01 2.705847904101185577e+02 5.112608326850237717e+01 -1.513570791376511409e+02 -4.582694770462282463e+01 -5.902098303775166954e+01 9.224529438385021152e+00 1.033203488889990069e+02 -9.944805615362797369e+01 2.076287097234647661e+01 1.253766549128181964e+02 1.804041841181643235e+01 -2.031054157165473271e+02 4.639767642886772592e+01 7.258490017809278072e+01 -1.308274475327545261e+01 3.151846910585810946e+01 1.862989235518426878e-01 2.172744428050632948e+01 2.667404462100672546e+01 1.114319960992635430e+02 9.433187006165303501e+01 1.507745629934332854e+01 1.433405108049207684e+02 -6.158414641075885498e+01 2.372815184645379532e+02 6.258217671385494896e+01 1.363826109650003673e+02 -2.112617112159103527e+01 8.668269313236115181e+01 -4.703217490580115623e+01 -1.408563351880037544e+02 2.515858763529025666e+01 9.135963064309537174e+01 -8.424361942635931655e+01 -1.008039996363012989e+02 -6.403923106873681093e+01 3.525675689309500171e+01 -1.098725352897915570e+02 7.187633343803217656e+01 2.696837987511916523e+01 -9.394697114514534064e+01 1.827683942792670280e+02 -1.131793495370194336e+01 -9.797253802409851176e+01 -1.292982652303193092e+01 -1.967047045845881925e+01 -1.349538739248658317e+02 -3.850884003641032649e+01 5.921492069184508011e+01 1.268739520319371223e+02 2.797132028578161922e+01 2.572716360022612747e+01 4.310933977395042405e+01 -3.435574399199798279e+01 -1.401854397071134315e+02 1.532176097226983735e+01 2.977360069699352607e+01 1.281591495057023735e+02 -9.492122928869365595e+00 -7.326965118757648554e+01 7.045900194583848020e+01 9.270883147433107707e-01 3.056309481310839971e+01 1.339846812557057660e+02 -1.708138435448133521e+02 -8.940037795126144715e+01 1.200845415746441205e+02 -2.018048497082825747e+02 -1.720314794255963875e+02 8.517392775110515402e+01 1.440526801891847413e+02 5.934833612230462307e+01 -4.203169925163717124e+00 1.456441518597687832e+02 -2.053859612406797908e+02 1.002369902001540822e+02 3.963887905373287168e+01 1.188665618233198131e+02 -1.764137654901678900e+02 9.957600542535060129e+01 -2.637653331068158025e+01 -1.250533163202542823e+02 -4.976117595173908725e+00 -8.641394752080339003e+01 -1.512690935413977300e+01 -4.099814603879809560e+00 -1.152419513144770633e+02 -1.153568125896902217e+02 -5.851943536407477353e+01 -1.205697255442915576e+02 1.879911975028611835e+02 -1.507633676291721372e+02 -4.694915656482869792e+01 1.614049671370715942e+02 3.174481737659464642e+01 -2.768914487382252787e+02 -1.189527239508105509e+02 3.319653507121694247e+01 5.114379536977737928e+01 7.957082940677659977e+00 -1.445893045209672891e+02 3.338027140570214613e+01 7.042057680562042066e+00 -6.953237221898417886e+01 1.896638553970316536e+02 1.894753199633802865e+02 4.077057401584044172e+00 -1.950993948268258293e+02 1.178368253095111129e+02 2.875173126909568921e+01 3.597307665367504459e+00 7.161435560169874748e+01 -1.941058507771268751e+02 -1.290946055941219583e+02 1.318938944032375957e+02 1.025812382419507003e+02 4.946964239042255684e+01 1.339045705004580213e+02 -1.667531426357908231e+02 -1.916149095584574269e+01 -1.219612994901937100e+02 4.088668502866231336e+01 -9.717268099277190174e+01 8.146411695965483091e+01 -3.175518275739952045e+01 1.158740619143778439e+01 1.659919311528488777e+02 2.673492129283734897e+01 -2.465533606559243367e+02 -1.182491208101398001e+02 -7.795288867251660747e+01 1.479020864809699276e+02 1.173345674055512333e+01 -5.044912470242940827e+01 2.833080156282908391e+01 5.843144003203521919e+01 -3.697377142408050332e+01 1.005669523329699899e+02 -9.424722221792451649e+01 4.603583195542712048e+01 1.047085236941076118e+02 -3.326852956236163550e+01 -9.179099661432218227e+01 -1.061607077864701836e+02 1.120308876090433330e+02 -4.648983638899100868e+01 1.838592840816785099e+02 5.351217340981059323e+01 1.037731375049000349e+02 1.726464782414964247e+02 8.000091663324706559e+00 -1.163051013253844843e+02 -1.550010861937601021e+02 -1.067782505106957274e+02 3.978490924457109656e+01
-1.240046999644522963e+01 -4.445299763878916899e+00 9.458982348083183922e+01 -2.092856696721513003e+02 1.420076381716126548e+02 5.798817186216222552e+01 1.390187912393942042e+02 -1.180252700279888813e+02 -2.516512049030740883e+00 -2.197272210818780280e+01 -2.005507677146029266e+02 2.986452397544241322e+01 -1.673113441509847021e+01 1.117598409132740755e+02 -1.143349827443061457e+02 5.638779527865234797e+01 1.144368726259374682e+02 -4.199482519055776919e+01 -4.525871629726175627e+01 -2.460993408280628358e+01 5.641605455182241258e+01 5.758570414601062026e+01 2.964669771960347333e+01 -2.123901550367528159e+02 -4.706476356158464824e+01 8.367447728749196756e+01 9.063276030577384290e+00 -9.499667789775351423e+00 -6.075874345814380462e+01 -1.418607258559577566e+01 6.699417869444486939e+01 -1.328200777159620998e+02 -5.662543947174462033e+01 8.178457522080185171e+00 1.896640378160284968e+02 1.937225848539543165e+02 -2.940508207880854030e+01 5.104618910181121549e+01 -2.272917089894151699e-01 -1.275404918300091168e+02 8.764862050879553124e+01 9.791835220487411107e+01 9.910650401898502082e+01 1.065286225401140641e+01 5.650744680680012522e+01 4.394380180730738772e+01 3.550255979673742956e+01 2.684258900065724163e+01 1.007161751125721310e+02 8.192009746210624144e+01 5.987529321167642138e+01 1.488846118252272390e+02 2.264223804664119655e+02 1.786511889740972379e+02 -5.402208189522555415e+01 4.499960064245413349e+01 -5.867506785610365938e+01 5.147990225081468907e+01 -1.755781704917217780e+02 5.160077353818299883e+01 -1.869799935408197484e+02 -1.541053286998071883e+02 1.183720596013928095e+01 -8.479766143953844093e+00 1.548149956589871579e+02 -1.899942184629491351e+02 6.874357958743306085e+01 2.099726549217677416e+02 -6.789870927546332702e+00 -1.779962561576595874e+02 3.241953726126776303e+01 1.800899240159202179e+02 -5.583046379225839928e+01 -2.435625942633020315e+02 -9.369826565478265934e+01 8.182248319223933919e+00 -2.102066699869432682e+02 2.936088259061231653e+01 -1.639656893232194363e+02 -1.695334156555358618e+02 -5.229652740021172974e+01 1.392725680135864934e+02 6.343970558791215097e+01 9.714003104272377342e+00 -8.108892683242603994e+01 -3.893820539120938662e+01 5.825326600877397709e+01 -2.122975380578023987e+02 4.946338002585623173e+01 -6.848334641146789181e+01 -7.148958868715513404e+01 -1.616951190217465637e+02 5.944353815076255643e+01 8.475208382206001545e+01 -1.484513903797614773e+02 1.580834786087617374e+02 -3.646274628691882924e+01 -1.548248407283471550e+01 8.023654275795767887e+01 1.430670541075969595e+02 1.993382496745392274e+01 1.386022089014758194e+02 -1.696201569334237647e+01 -8.300466488445029256e+01 -1.793431310038021564e+01 9.247908302714456852e+01 4.232853472212737955e+01 9.207962592756669551e+01 8.882249098618515859e+01 -7.824005985612792813e+01 -1.599354901555747404e+02 1.158179611898250698e+02 5.104846745072816105e+01 1.532719192106900152e+01 2.877280856779036711e+01 -6.394198412934132136e+01 9.039375462197762090e+01 8.462035402901157966e+01 -1.295805613691661407e+01 -6.710138734990252374e+01 2.886641203126604083e+01 5.925638133196922119e+00 -5.786332656451430267e+01 1.597178857571866502e+02 -3.080422824977411622e+01 1.145176063547981187e+02 -6.600120818309181914e+01 3.615905932079142815e+01 -3.394611070398362784e+01 8.431235282060092118e+01 2.210130752226129047e+01 1.088973778190335508e+02 -1.093438494127526184e+02 7.005445815917333618e+01 1.163229246164589341e+02 -4.209712906570826618e+01 7.247552152535583048e+00 -1.210701954939755609e+01 1.101314078428332692e+02 3.503913485904500469e+00 1.589056554369129799e+02 -1.333161069863169246e+02 1.099496515974399671e+02 -8.601835973106048527e+01 9.037192253006924147e+01 -1.292554068797058164e+02 2.782193485078184736e+01 2.335914748425016541e+01 1.656454356791666305e+00 3.425683958033170029e+01 4.345319515630544771e+01 -1.165088655898260761e+01 1.033524622395314196e+01 1.019989077696017858e+02 1.200537147143896277e+02 -8.185620158190533857e+01 -5.109427219361795380e+01 4.464200108341503181e+01 1.415869618246591966e+00 -1.293347444173930967e+02 -5.208894382888586705e+01 -3.340055533619727157e+01 4.614709289112474266e+01 -6.184396568737295752e+01 2.162305995101181111e+01 1.514901471289998653e+02 -7.503866694869134335e+01 7.640675207950158665e+01 7.941201342760732018e+01 1.068905553800610342e+01 1.166921972252579280e+02 5.944676280968820237e+01 1.588881924397841772e+02 -3.277743566269436570e+01 1.063348071540435740e+02 5.257711352392860960e+01 -1.518710369723480369e+01 1.931980917848124193e+02 -1.313540597400705110e+02 4.630439990007209161e+01 -1.776513717528861775e+02 -7.971820468557686468e+01 3.890150696336144165e+01 -6.843813744662264753e+01 -1.476383909830904599e+02 1.889607025181526581e+02 -8.132147055934377988e+01 -4.503635891046508277e+01 -4.387720089851971750e+01 1.154607794325386720e+02 1.847089591093354954e+02 6.140495796048509902e+01 1.387141598684511621e+02 2.081997136831511455e+02 -1.497071025497576979e+00 1.544834680174582218e+02 6.723970384000037370e+01 1.806221080374515395e+02 -1.193728634165994293e+02 -1.120378874313295370e+01 6.045127699997898674e+00 1.801771678158538350e+02 -8.616171821983755308e+01 -5.745807965760465663e+01 -5.020555434767237557e+01 -1.271984028398873079e+02 4.438751041473375736e+00 -9.574153105859603841e+01 1.463165383719312445e+02 2.232018488474952989e+01 1.136021254352052345e+01 6.859454671640445156e+01 -4.642399063180953078e+00 1.110416393377680890e+02 -1.507604544432444129e+02 4.311634543990860635e+01 -1.619962842332663513e+02 1.114063509642557648e+02 9.122866701138948997e+01 -6.381315750862058422e+01 4.442931349374902794e+01 2.259447998285132826e+02 -2.892806889793257596e+01 3.950912748011988640e+01 -3.101196107875107089e+01 5.498154216309823994e+01 6.094954271460708384e+01 -5.973230136148015568e+00 9.664333077560090146e+01 9.620400400417798892e+01 -1.839062276464408683e+02 -1.453581996519672259e+02 -1.137073835544636466e+02 -8.923855986807296858e+00 -1.420376299462978977e+02 1.096094197371226358e+02 1.046287823410545741e+02 5.599125659925344678e+01 1.059327527288184001e+01 1.495376700258958920e+02 7.962892548201838849e+01 6.404307393257910519e+01 -9.632186188602968002e+01 1.446159605030321131e+02 -3.438522768002201246e+00 1.037333861894936433e+02 8.370710531479613081e+00 3.484009475438916326e+01 -7.174416809150474705e+01 -8.601740972328610724e+01 6.787635673931183078e+01 -3.686639722993890977e+00 1.385455551595211432e+02 -1.188892663322111432e+01 -2.685886341901735808e+00 4.346248746798340790e+01 2.142960160720112128e+01 1.340113520842277808e+02 1.396285110338170199e+01 3.398289407743587986e+01 -1.465233653329331958e+02 6.232438827689774996e+01 1.265658828815015511e+02 -1.660471117048084366e+01 -2.158636254236783998e+02 7.988640625094066650e+01 1.288152386694913218e+02 1.930504311111349480e+01 1.786707079182778273e+02 -4.101078592704798353e+00 4.046906148870608888e+01 -4.120774322078211327e+01 -1.307652773210836301e+02 5.287225760899273297e+01 -4.478535454204013178e+01 -7.631240600365134696e+01 3.886488732823710990e+01 -1.740842037965907991e+02 6.745208169999715153e+01 1.549357914545792312e+02 -9.531426113417606416e+01 1.629300190269059385e+02 -9.183823186668531946e+01 -5.597701584827366794e+00 -9.942629134077913378e+00 7.214747618286716602e+01 -4.389134832441569500e+01 -1.013456389758643326e+02 -8.334695292737978889e+01 1.370861244524714380e+02 5.557207089505491382e+01 -1.239531362903907166e+02 4.136680871382354852e+00 4.076601340066794421e+01 7.753901089434742744e+01 -3.787299060333715062e+01 5.627063333773210729e+01 -6.476408481506533121e+01 -1.523586435834108102e+02 -3.249770920281786601e+01 1.322975854254977435e+02 -1.064705113725917016e+02 -5.971286947980332549e+00 -1.527781506108151177e+02 -4.589746209142892219e+00 -1.368733905849936718e+02 3.093629391119696237e+01 5.654224679939360954e+01 -4.719704861988100930e+01 -7.722591368393602806e+01 5.297968736168582993e+00 6.976869125278761885e+01 -6.353448923680847571e+01 1.262206099963289887e+02 9.897908071648562611e+01 -1.196134844319529975e+02 -9.882798733893110921e+01 1.265463620347699276e+02 6.676932720694027523e+01 1.406894454423203626e+02 9.353163844098622803e+01 7.593829711807339322e+01 -5.643465733727563816e+01 -7.648137218243388702e+01 -7.208113756851875564e+01 1.913064375149409102e+02 2.867057157967086667e+01 -2.331711662011191066e+01 -6.400930025721660854e+01 -4.662295507932532246e+01 -1.226875108398267997e+02 -1.536349636271440033e+01 -1.634596471782840297e+02 1.164498628961427897e+02 4.279755124144649159e+01 -1.072889451229512474e+02 -4.509730154053465867e+01 1.115059553251241056e+02 -9.021902629316168998e+01 9.578238039950218763e+01 -1.103549898040058252e+02 -1.097763524998530293e+01 -8.894032073698448926e+01 8.359703677304445080e+01 -3.954313653254197192e+01 9.514007540461621559e+00 2.734979240620307905e+01 -1.178979528525170650e+02 1.163300693480184833e+01 4.506348910521999329e+01 -2.076585736035581320e+01 -6.399319808629866202e+01 1.886484942445509887e+02 8.049276526149839128e+01 4.381982093555393476e+01 -2.922888657538856805e+01 7.462846026169113145e+01 1.560104426319894912e+02 -8.580368081345561393e+01 1.949871367416562293e+02 -1.238884191099097478e+02 -1.711368954017046065e+02 1.412106386009036498e+02 -2.177609076326960746e+02 -8.493763438383026276e-01 -2.279510763340155393e+02 -1.422467926491048900e+02 6.680773969546144997e+01 -1.354668147930568978e+02 5.430579922288588079e+01 1.023760294775000972e+02 -1.491662989316160406e+02 -2.797115197652503937e+01 7.019716220157688724e+01 1.246034712168978587e+02 -1.732378086857741835e+02 8.145407653188661357e+01 -9.118374231986092582e+01 -9.146723340993437645e+00 -1.286542604005565238e+01 -7.402666141937108080e+01 -8.399989697697466795e+01 1.687901773645012895e+02 -2.023288320783861494e+01 1.271873618292964636e+00 1.212398706500441534e+02 -8.078454277850714504e+01 -3.205714802017137544e+01 -1.003090823788890162e+02 -4.545626002901665430e+01 4.770126226802178238e+00 5.527231875445389164e+01 -1.259039501123315148e+02 2.211940598110803933e+02 -5.025279168777854721e+01 1.143896013115274144e+02 -4.557067589902938920e+01 1.117936850251010839e+02 1.300106943464764413e+02 4.473488425024826398e+01 1.139971812998373366e+02 -4.038552017959342777e+01 1.307837866870484618e+02 -1.462853845958461250e+02 -6.112745457882176936e+01 -5.885874052509340970e+01 2.394310261070691581e+01 -1.517061719760859546e+02 6.780512823197757655e+01 -2.884014216604045089e+01 -7.726511197353147509e+01 8.373466670550844526e+01 -1.412931449525814571e+02 -8.532150238137214160e+01 -4.927319228699320774e+01 3.091628745438379156e+01 1.213635116300558252e+02 1.092108452622172337e+02 6.457513081711218206e+01 -1.421623938865827386e+00 1.635999314822895485e+02 1.145748799813190999e+02 -8.839262620755404498e+01 -7.300291800544115972e+01 5.137684598016164728e+01 9.267751523558438009e+00 9.161813674856900036e+01 1.559824137890688576e+02 6.602895918733391056e+01 2.290387609629890875e+01 -9.561130429128232322e+01 1.605841258236133626e+02 -1.062623289375771805e+02 -1.545084360207775092e+02 6.145944153792908082e+01 1.042544648772027642e+02 1.838888835858367798e+01 -1.297866178347090056e+02 2.774612170610195605e+01 3.961269577218747173e+01 -3.764663432740347759e-01 1.223651078826708840e+02 9.148279791224491930e+01 1.599403863971673978e+01 7.318731477589996359e+01 -9.983738252844359806e+01 -5.991884537033831393e+00 9.187395981482472962e+01 2.774214724403953625e+01 -6.072319014038617979e+01 1.849880515432887478e+02 2.158219135388586380e+02 -1.170996252671090758e+02 -2.582044951869847793e+01 -1.961503304599732758e+02 -6.737501316253877803e+01 1.460785524692761328e+02 3.106303210833819772e+00 -6.625190984517890058e+01 1.527835094368428486e+02 -5.827665691103482004e+01 -1.498696220367057492e+02 1.274158660937957706e+02 -6.264563796173157328e+01 3.224962928939849149e+01 8.050224739437261690e+01 1.287755503631102805e+01 -2.222361470467360789e+02 3.950391402144799713e+01 -5.793785105338036701e+00 8.407658058821105840e+01 -2.198234521907638594e+01 9.422940923282500592e+01 1.587807988665349157e+01 -7.890825263628879327e+01 -1.911281944391452825e+01 -1.634324960015948704e+02 1.071998786538012780e+02 2.358826584013724670e+01 -3.879032105335681280e+01 -4.828486156205032387e+01 -5.870899943113868602e+01 3.837402022761560971e+01 1.498463952731141546e+02 1.237157297065140114e+02 4.010814988056561958e+01 -1.844950698829153168e+02 -3.617471773586451178e+01 4.087192581191912666e+01 1.093646304579826705e+02 8.125206502573283274e+01 1.437498306603886000e+01 -1.734086345989499591e+02 1.227141521251267022e+02 -2.085836270250452174e+02 -1.918765634499776240e+02 -1.685356991124523640e+00 -6.876464621480414507e+01 -2.252898128383675669e+01 8.120591541781196554e+01 5.212727558432614927e+01 -1.036320814648171904e+02 -1.412332948610832943e+02 1.357955339580650289e+01 1.153058966412607305e+02 1.923497775036320334e+01 -5.286639691746545822e+01 -4.819383754358282346e+01 -1.085263629085080872e+01 1.504438303139527306e+02 2.083714842466734751e+01 -1.649356697091451451e+02 1.218789942514129194e+02 -6.347553085051062283e+01 -3.958954291605967235e+00 1.461667588604348111e+02 -4.959390029220875107e+01 -1.861061430134263972e+01 -1.042702116620795039e+02 -5.686205343492277464e+00 -2.262243213567682076e+01 1.249460280058584658e+02 1.139312318929472951e+02 6.414536204780044670e+01 6.215671386773850315e+01 -1.774946613828149466e+01 1.282415921246046935e+02 -1.070590888222711783e+02 -4.028616723197820271e+00 -8.641904539569837596e+01 1.490416083119424115e+02 6.920656822494110827e+01 4.900917470424164435e+01 7.805374815416074696e+00 -5.061735402475655832e+01 3.262707526947192349e+01 6.356670897912891860e+00 3.522632309594956546e+00 2.285328117391923897e+01 5.672561566900200347e+01 1.615823953998330182e+02 -3.691440402543092603e+01 -4.930526124972166002e+01 6.339380966200609180e+01 1.097527144004877186e+02 -1.216854697461378088e+01 8.729314474924910883e+01 9.884740615818137144e+01 2.000756017673812721e+02 -8.211196534666159152e+01 -1.163834793924326618e+02 -2.719213324949410904e+01 5.901600921933020061e+01 -9.631782529661345293e+00 1.019125601094808076e+02 3.535888525846105068e+01 -1.542875198924018889e+02 4.273704963048221828e+01 -8.486644841686303664e+01 -1.283360185956914563e+02 1.275915416266397671e+02 -7.216384290601033058e+01 5.616680561871331179e+01 1.053855705180981772e+02 -9.383453199128079802e+01 2.231423061484782266e+01 -6.839184607309228170e+01 3.822196091148744301e+01 -1.087406029850462801e+02 5.842572712357447529e+01 5.185513224882897276e+01 3.623711552963749583e+00 7.960312604803810643e+01 -1.448331822937000766e+02 7.235339740694691102e+01 -2.783312756809595712e+01 -1.589391025463111191e+02 8.894802577740124150e+01 2.312413576764230427e+01 -1.844565905620434876e+02 2.213887507091810960e+02 -5.136201620394038603e-01 9.892047139160671065e+01 -1.134426952732123084e+02 -1.826841771164970396e+02 -8.779205622970555112e+01 2.375450456738419813e+00 1.343743411240748173e+02 3.691785008252655764e+00 -8.992339086937032278e+01 4.732197807705951931e+01 1.289178605347104565e+02 6.109363826004778275e+01 -4.863310827478110809e+01 -5.564909444203242117e+01 7.949091525903016020e+01 2.886727215407476876e+01 -1.840309280295641088e+02 -1.949864618194077082e+01 1.589923287109823491e+02 9.290375625947423543e+01 -5.395845747147897953e+01 -1.051760168414077867e+02 -4.013204028081982244e+01 -4.523255401253736352e+01 -1.076600243445315925e+02 -1.730423450894260640e+01 -4.294687921337517622e+01 -1.068888064157452220e+02 -1.241455291234320271e+02 -2.538743557418355579e+01 -1.182465719426369759e+02 -1.259554727724689513e+02 -3.606021348756317479e+01 -5.202541342552078163e+01 -1.044795327840931236e+02 1.813965425200207449e+02 1.024467327456610022e+01 -2.740181316112317589e+01 -1.655385491058166991e+01 7.666009110369112989e+01 1.525887708036385426e+01 2.440634343557083241e+01 -2.065752932692441490e+01 -4.515063605501628530e+01 2.036654509526452728e+01 -1.416837749601667724e+02 -1.550999677133033572e+02 -8.802247870934458263e+01 -1.859636288944085436e+02 -8.730139432901913210e+01 8.353188633489811821e+01 5.982567277936345818e+01 -2.537088452967249808e+01 5.920847847156386479e+01 -1.526020271013451861e+02 -3.988758118172106748e+01 -1.131894073907855756e+02 -6.503244561034409799e+01 2.056421737067828701e+02 -2.000311552865011606e+02 2.000033582121683935e+02 2.429671425719231337e+01 -5.497566403722542816e+01 8.980336623903788507e+01 1.208981137727340780e+02 -5.055351868809505334e+01 -1.985834343575890557e+02 -1.452741217485674667e+02 9.967929792174824399e+01 8.160992584837256913e+01 -1.320770465802185925e+02 3.109549668342856421e+01 -3.869425238682031676e+01 -7.542253493548159327e+01 -2.770292054928115277e+01 -5.339710752687410888e+01 -8.418980171210507990e+01 -3.321228964609903045e+01 4.445885635384966506e+00 -3.178614826480234612e+01 -3.387472485419304458e-01 -1.391658468555307238e+01 8.955220593506625448e+01 1.238918277849778491e+02 1.281414869494423847e+01 1.638460386040623362e+01 -6.155941554001640981e+01 -1.910879531693286708e+02 3.297733106566534644e+01 -8.935270916502389582e+01 2.519213651661341302e+01 -7.871122933164828694e+00 1.064531274662531279e+00 7.060021046770796715e+01 1.187880386136971680e+02 -6.870661050161598382e+01 3.702826420366618976e+01 -1.880270146305238086e+02 9.453907821629030650e+00 6.706358024302876863e+00 -1.194459582766007060e+02 -3.283538002321237315e+01 -4.319748972511745677e+01 4.634698926844486699e+00 -9.962217130797097298e+01 2.635472783156063770e+01 -9.513960300628073696e+01 5.457489337615227498e+01 6.615981107496894253e+01 3.597069154882780140e+01 -2.827101691791363791e+01 1.047541169962864984e+02 5.955817691860963947e+01 7.796772286124426898e+01 -6.530748304528428605e+01 1.970076195616718095e+01 1.245831601128956549e+02 -5.700823629196210618e+01 -6.744688009301293974e+00 3.115528963468754142e+01 -1.251300778887884917e+02 9.526178283922109813e+01 8.725437262612469169e+01 -9.858282390784786742e+01 -8.020024257303870741e+01 -5.410302971119864424e+01 -4.449528337775674913e+01 -1.559927754478806889e+02 -1.323168574238707720e+02 -1.290195371008329062e+02 1.028810069094247694e+02 5.825329581167110859e+01 1.553282110859514376e+02 7.024237600508021373e+00 -8.336833134047063254e+01 1.827672558667653746e+01 1.345321410688067942e+01 -6.189597604863048730e+01 7.205826539754774274e+01 1.148667350687186257e+02 9.666306773347036696e+00 1.394222874304595905e+02 2.186135718470133682e+01 1.079025760855948306e+02 1.463729273813526888e+01 -2.020808879060543575e+02 2.123638239795712650e+02 -4.758368040017870726e+01 -1.449005117581015725e+02 -6.532208616719475458e+01 -4.161880740840408066e+01 4.011104651243690711e+01 2.478136143175428430e+01 4.429843041618616439e+01 -7.162887363582102296e+01 1.183436544794054299e+02 -8.339582254088766433e+01 -6.780077507587479069e+00 1.375659137655289044e+02 1.058138229641605363e+02 5.605712014774459817e+01 -1.708733946180218766e+02 2.453929187348207819e+01 1.353980732968016980e+02 2.258130665377877122e+01 9.406199887207819188e+01 1.025227252071450010e+02 -2.037242348863219377e+02 7.405832198544689504e+01 -5.558356085494274623e+01 -2.164350125333422739e+02 8.510361946132248079e+01 2.359262294340032540e+01 -1.167148714865705728e+02 -5.592755020483409112e+01 1.323432780365006636e+02 1.405873277898217850e+02 -7.221012271344588385e+01 -1.214767310589776912e+02 -7.919960734250004464e+01 -1.572827340815271100e+02 1.855539173800983122e+01 3.595318866800821667e+01 -1.611379096199722838e+01 -1.171117796388856469e+01 -8.457095554410608429e+01 -8.327990778666696770e+01 -2.325855858953732280e+01 1.258581396937539267e+02 1.278124294413788675e+02 7.606185960680042513e+01 9.101731984802583497e+01 -7.347133760644929623e+01 -1.689696157331993334e+02 -1.230783770092925877e+01 -2.155572847595828989e+01 -6.632870591271800720e+01 1.376691747622398099e+00 6.815670353080668065e+01 -4.936411511125343310e+01 2.309162965452710026e+01 7.389850631233396427e+01 6.542279749612518458e+01 1.031715510525740029e+02 -1.391670636970018506e+02 3.697681471360571948e+01 7.773763553068476995e+01 8.841519366489949050e+01 5.507984728594837520e+01 -9.632150077878112882e+01 1.277483131454416707e+02 1.189665733693912273e+02 8.944524593667442502e+01 9.474491949799788415e+01 -7.856254833804922555e+01 -1.385583933870087847e+01 -1.209707786123876971e+01 7.186662765373658601e+01 6.062884809731498592e+01 5.229868285661726190e+01 9.101618978060028553e+01 1.087293409439992615e+02 1.157035371248079514e+02 -6.045548847859322450e+01 7.522746310439914907e+01 6.085266512015222418e+01 -1.097926606329033774e+02 1.228060310103543884e+02 -9.344265512639148952e+00 -2.607272671891346150e+01 1.860748484850821853e+02 8.265749377494303474e+01 1.159306033304872443e+02 -1.348464595613169479e+02 -1.474302650897949718e+02 -1.435494907294224163e+02 -1.141372149886665852e+02 -4.139145404596034439e+01 1.025822110348404692e+02 -1.577376335689059204e+02 3.038352847931302136e+01 1.350240046334901081e+02 -5.554643791160343369e+01 -8.547158773836567036e+01 -3.290139237553702856e+01 1.271645783030109698e+02 2.128071790075830734e+02 -6.250411314004963259e+01 1.857610544303229361e+01 -2.591709884157062405e+01 6.418778562917995600e+01 5.643461203811197180e+01 -1.998724818066577313e+02 -8.313192180293506794e+01 1.290194012013692770e+02 1.310831341182177709e+02 8.865619300380963352e+01 -4.677027712386774283e+01 -7.107946494862184750e+01 -4.254946934289059612e+01 -1.657085908532513372e+02 6.673007279721777252e+01 -2.405415481014887291e+01 1.561366625848257286e+02 -2.623951272919208577e+01 -2.953690404340714508e+02 1.359878824665277648e+02 4.710350928896107803e+01 -1.107238586603798609e+02 -2.085136870013938193e+01 3.313791796147302904e+01 -1.950492375926299076e+02 -1.072914393087284139e+02 -1.030107792262602686e+02 -5.293693323959369224e+01 5.895425585339093999e+01 -1.548734536785538864e+02 1.013246221442370683e+02 -5.103586292149196879e+01 2.761599051463913490e+00 -1.253488892078162991e+02 -9.745110179107739157e+01 1.652197904176344707e+02 8.144147608017944151e+01 -3.968518774317443132e+01 3.488895819470636894e+01 -2.634904144148341132e+01 4.074865646202144376e+01 -9.834349055791088290e+01 9.304093669695305380e+01 4.745214368815355499e+01 -1.117666504358107176e+02 1.097560518088946395e+02 -4.615123585117981975e+01 9.392154395103696629e+01 -4.643631634791503870e+01 8.307760338480909468e+01 -1.442310797761469132e+02 1.342403190002502527e+02 2.327919592931515069e+01 9.469397860975720960e+01 1.226881858868086113e+02 -1.379648132511111669e+02 -8.081859808900303221e+01 -9.938573077195383121e+01 6.290104189204725316e+01 -1.612289546195639502e+02 1.426416072560458304e+02 1.339242201518501076e+02 4.984141538697646467e+01 -7.989738019356306609e+01 5.371541367121292865e+01 -1.010510357801960026e+02 -1.026442422643268237e+01 3.290011314778263340e+01 -1.729515560486538561e+02 -7.676004227138410840e+01 -1.274003408981879737e+01 9.618185576130730396e+01 -4.728855284965102612e+01 1.024260397270310960e+02 -6.055172047168108662e+01 -1.984737099455429643e+02 -1.008493997644144429e+02 -3.201728158177243699e+01 -5.666878232824175399e+01 2.832587353507014782e+01 4.847396545810531876e+01 5.957253221370619301e+00 2.397733176723661686e+01 -1.106307302333885048e+02 5.081682150560943967e+01 3.076818077580965038e+01 -6.798817963722378011e+01 8.768232599073547462e+00 5.320443695967580311e+01 -8.994723981831809567e+01 -5.197499571514391903e+01 -2.282075819080619183e+01 9.200918458252395737e+01 -1.616200263239327484e+01 3.959982205146284517e+00 -2.152712800331715073e+02 -8.963627600494372416e+01 9.337035906777212801e+01 -8.409130709272933757e+01 2.956561907118780042e+01 2.930165791309658019e+01 3.574321951226480820e+01 6.235991174445553042e+01 -1.674835671317554500e+02 1.359143087895762392e+02 7.702598806790649633e+01 -7.134409968056249163e+00 -7.627310916597609491e+01 1.055630303228444262e+02 5.862584832645477206e+01 -1.899045737590207352e+02 -4.754703336525167856e+01 -7.716535398436022319e+01 -4.888317280667364884e+01 -5.842392498058931238e+01 -9.344343265880944216e+01 -5.697934644580203667e+01 1.808747394297523954e+02 -1.611922231080372399e+02 6.180325322794330134e+01 2.620353328692170081e+01 -7.101365678312114937e+01 9.830213340301398262e+00 -3.725804547569486402e+01 3.256080168395777630e+00 -9.081968138671726365e+01 -1.866113125354685849e+02 1.737509250569468122e+01 3.955328993810024940e+01 -1.208148311612665360e+01 -8.422447939284507967e+00 -3.756880759681037318e+01 -1.793427460057742451e+02 -2.891907257996381730e+01 -6.172276134746115162e+01 1.314100941806424672e+01 -1.475646624472765644e+01 8.560748192560058101e+01 -5.955129189332808437e+01 -9.793398472053688408e+01 -3.368618932397841093e+01 -8.456032106060961340e+00 4.287869814907371335e+01 -2.087713426788883098e+01 -6.979835593398918547e+01 -1.501131050647605036e+01 1.891865679066183858e+01 4.487860931247212903e+01 -1.076735272289002694e+02 -1.313449831697195691e+02 2.176670970745048805e+02 -2.062828160089025573e+02 -7.172573554477790481e+01 -4.375200034312540964e+01 1.321443800292072694e+02 5.979109829913663532e+01 2.163996399317166777e+02 2.313320946402153311e+02 -5.895902206142078228e+01 1.223161875164186085e+02 -5.301514639183078259e+01 -3.859196233312474789e+01 -9.507318619648557956e+01 -7.545537943284831783e+01 -6.570480727231402795e+01 -8.416508502600488839e+01 -2.304296682506249567e+02 -2.559697002710939273e+02 1.272809184713268706e+02 -2.509817132356592495e+01 5.035660208177750974e+01 1.237798754227032845e+02
