# 
#                 ----------------------------------------------------
#                 Data from a 3D direct N-body simulation. 
# 
#                 rows are i-particle; 
#                 coumns are :mass, tag, x ,y, z, vx, vy, vz, ax, ay, az
# 
#                 NTHU, Computational Physics Lab
# 
#                 ----------------------------------------------------
#                 Time = 4.699999999999944
1.000000000000000000e+00 2.000000000000000000e+00 3.000000000000000000e+00 4.000000000000000000e+00 5.000000000000000000e+00 6.000000000000000000e+00 7.000000000000000000e+00 8.000000000000000000e+00 9.000000000000000000e+00 1.000000000000000000e+01 1.100000000000000000e+01 1.200000000000000000e+01 1.300000000000000000e+01 1.400000000000000000e+01 1.500000000000000000e+01 1.600000000000000000e+01 1.700000000000000000e+01 1.800000000000000000e+01 1.900000000000000000e+01 2.000000000000000000e+01 2.100000000000000000e+01 2.200000000000000000e+01 2.300000000000000000e+01 2.400000000000000000e+01 2.500000000000000000e+01 2.600000000000000000e+01 2.700000000000000000e+01 2.800000000000000000e+01 2.900000000000000000e+01 3.000000000000000000e+01 3.100000000000000000e+01 3.200000000000000000e+01 3.300000000000000000e+01 3.400000000000000000e+01 3.500000000000000000e+01 3.600000000000000000e+01 3.700000000000000000e+01 3.800000000000000000e+01 3.900000000000000000e+01 4.000000000000000000e+01 4.100000000000000000e+01 4.200000000000000000e+01 4.300000000000000000e+01 4.400000000000000000e+01 4.500000000000000000e+01 4.600000000000000000e+01 4.700000000000000000e+01 4.800000000000000000e+01 4.900000000000000000e+01 5.000000000000000000e+01 5.100000000000000000e+01 5.200000000000000000e+01 5.300000000000000000e+01 5.400000000000000000e+01 5.500000000000000000e+01 5.600000000000000000e+01 5.700000000000000000e+01 5.800000000000000000e+01 5.900000000000000000e+01 6.000000000000000000e+01 6.100000000000000000e+01 6.200000000000000000e+01 6.300000000000000000e+01 6.400000000000000000e+01 6.500000000000000000e+01 6.600000000000000000e+01 6.700000000000000000e+01 6.800000000000000000e+01 6.900000000000000000e+01 7.000000000000000000e+01 7.100000000000000000e+01 7.200000000000000000e+01 7.300000000000000000e+01 7.400000000000000000e+01 7.500000000000000000e+01 7.600000000000000000e+01 7.700000000000000000e+01 7.800000000000000000e+01 7.900000000000000000e+01 8.000000000000000000e+01 8.100000000000000000e+01 8.200000000000000000e+01 8.300000000000000000e+01 8.400000000000000000e+01 8.500000000000000000e+01 8.600000000000000000e+01 8.700000000000000000e+01 8.800000000000000000e+01 8.900000000000000000e+01 9.000000000000000000e+01 9.100000000000000000e+01 9.200000000000000000e+01 9.300000000000000000e+01 9.400000000000000000e+01 9.500000000000000000e+01 9.600000000000000000e+01 9.700000000000000000e+01 9.800000000000000000e+01 9.900000000000000000e+01 1.000000000000000000e+02 1.010000000000000000e+02 1.020000000000000000e+02 1.030000000000000000e+02 1.040000000000000000e+02 1.050000000000000000e+02 1.060000000000000000e+02 1.070000000000000000e+02 1.080000000000000000e+02 1.090000000000000000e+02 1.100000000000000000e+02 1.110000000000000000e+02 1.120000000000000000e+02 1.130000000000000000e+02 1.140000000000000000e+02 1.150000000000000000e+02 1.160000000000000000e+02 1.170000000000000000e+02 1.180000000000000000e+02 1.190000000000000000e+02 1.200000000000000000e+02 1.210000000000000000e+02 1.220000000000000000e+02 1.230000000000000000e+02 1.240000000000000000e+02 1.250000000000000000e+02 1.260000000000000000e+02 1.270000000000000000e+02 1.280000000000000000e+02 1.290000000000000000e+02 1.300000000000000000e+02 1.310000000000000000e+02 1.320000000000000000e+02 1.330000000000000000e+02 1.340000000000000000e+02 1.350000000000000000e+02 1.360000000000000000e+02 1.370000000000000000e+02 1.380000000000000000e+02 1.390000000000000000e+02 1.400000000000000000e+02 1.410000000000000000e+02 1.420000000000000000e+02 1.430000000000000000e+02 1.440000000000000000e+02 1.450000000000000000e+02 1.460000000000000000e+02 1.470000000000000000e+02 1.480000000000000000e+02 1.490000000000000000e+02 1.500000000000000000e+02 1.510000000000000000e+02 1.520000000000000000e+02 1.530000000000000000e+02 1.540000000000000000e+02 1.550000000000000000e+02 1.560000000000000000e+02 1.570000000000000000e+02 1.580000000000000000e+02 1.590000000000000000e+02 1.600000000000000000e+02 1.610000000000000000e+02 1.620000000000000000e+02 1.630000000000000000e+02 1.640000000000000000e+02 1.650000000000000000e+02 1.660000000000000000e+02 1.670000000000000000e+02 1.680000000000000000e+02 1.690000000000000000e+02 1.700000000000000000e+02 1.710000000000000000e+02 1.720000000000000000e+02 1.730000000000000000e+02 1.740000000000000000e+02 1.750000000000000000e+02 1.760000000000000000e+02 1.770000000000000000e+02 1.780000000000000000e+02 1.790000000000000000e+02 1.800000000000000000e+02 1.810000000000000000e+02 1.820000000000000000e+02 1.830000000000000000e+02 1.840000000000000000e+02 1.850000000000000000e+02 1.860000000000000000e+02 1.870000000000000000e+02 1.880000000000000000e+02 1.890000000000000000e+02 1.900000000000000000e+02 1.910000000000000000e+02 1.920000000000000000e+02 1.930000000000000000e+02 1.940000000000000000e+02 1.950000000000000000e+02 1.960000000000000000e+02 1.970000000000000000e+02 1.980000000000000000e+02 1.990000000000000000e+02 2.000000000000000000e+02 2.010000000000000000e+02 2.020000000000000000e+02 2.030000000000000000e+02 2.040000000000000000e+02 2.050000000000000000e+02 2.060000000000000000e+02 2.070000000000000000e+02 2.080000000000000000e+02 2.090000000000000000e+02 2.100000000000000000e+02 2.110000000000000000e+02 2.120000000000000000e+02 2.130000000000000000e+02 2.140000000000000000e+02 2.150000000000000000e+02 2.160000000000000000e+02 2.170000000000000000e+02 2.180000000000000000e+02 2.190000000000000000e+02 2.200000000000000000e+02 2.210000000000000000e+02 2.220000000000000000e+02 2.230000000000000000e+02 2.240000000000000000e+02 2.250000000000000000e+02 2.260000000000000000e+02 2.270000000000000000e+02 2.280000000000000000e+02 2.290000000000000000e+02 2.300000000000000000e+02 2.310000000000000000e+02 2.320000000000000000e+02 2.330000000000000000e+02 2.340000000000000000e+02 2.350000000000000000e+02 2.360000000000000000e+02 2.370000000000000000e+02 2.380000000000000000e+02 2.390000000000000000e+02 2.400000000000000000e+02 2.410000000000000000e+02 2.420000000000000000e+02 2.430000000000000000e+02 2.440000000000000000e+02 2.450000000000000000e+02 2.460000000000000000e+02 2.470000000000000000e+02 2.480000000000000000e+02 2.490000000000000000e+02 2.500000000000000000e+02 2.510000000000000000e+02 2.520000000000000000e+02 2.530000000000000000e+02 2.540000000000000000e+02 2.550000000000000000e+02 2.560000000000000000e+02 2.570000000000000000e+02 2.580000000000000000e+02 2.590000000000000000e+02 2.600000000000000000e+02 2.610000000000000000e+02 2.620000000000000000e+02 2.630000000000000000e+02 2.640000000000000000e+02 2.650000000000000000e+02 2.660000000000000000e+02 2.670000000000000000e+02 2.680000000000000000e+02 2.690000000000000000e+02 2.700000000000000000e+02 2.710000000000000000e+02 2.720000000000000000e+02 2.730000000000000000e+02 2.740000000000000000e+02 2.750000000000000000e+02 2.760000000000000000e+02 2.770000000000000000e+02 2.780000000000000000e+02 2.790000000000000000e+02 2.800000000000000000e+02 2.810000000000000000e+02 2.820000000000000000e+02 2.830000000000000000e+02 2.840000000000000000e+02 2.850000000000000000e+02 2.860000000000000000e+02 2.870000000000000000e+02 2.880000000000000000e+02 2.890000000000000000e+02 2.900000000000000000e+02 2.910000000000000000e+02 2.920000000000000000e+02 2.930000000000000000e+02 2.940000000000000000e+02 2.950000000000000000e+02 2.960000000000000000e+02 2.970000000000000000e+02 2.980000000000000000e+02 2.990000000000000000e+02 3.000000000000000000e+02 3.010000000000000000e+02 3.020000000000000000e+02 3.030000000000000000e+02 3.040000000000000000e+02 3.050000000000000000e+02 3.060000000000000000e+02 3.070000000000000000e+02 3.080000000000000000e+02 3.090000000000000000e+02 3.100000000000000000e+02 3.110000000000000000e+02 3.120000000000000000e+02 3.130000000000000000e+02 3.140000000000000000e+02 3.150000000000000000e+02 3.160000000000000000e+02 3.170000000000000000e+02 3.180000000000000000e+02 3.190000000000000000e+02 3.200000000000000000e+02 3.210000000000000000e+02 3.220000000000000000e+02 3.230000000000000000e+02 3.240000000000000000e+02 3.250000000000000000e+02 3.260000000000000000e+02 3.270000000000000000e+02 3.280000000000000000e+02 3.290000000000000000e+02 3.300000000000000000e+02 3.310000000000000000e+02 3.320000000000000000e+02 3.330000000000000000e+02 3.340000000000000000e+02 3.350000000000000000e+02 3.360000000000000000e+02 3.370000000000000000e+02 3.380000000000000000e+02 3.390000000000000000e+02 3.400000000000000000e+02 3.410000000000000000e+02 3.420000000000000000e+02 3.430000000000000000e+02 3.440000000000000000e+02 3.450000000000000000e+02 3.460000000000000000e+02 3.470000000000000000e+02 3.480000000000000000e+02 3.490000000000000000e+02 3.500000000000000000e+02 3.510000000000000000e+02 3.520000000000000000e+02 3.530000000000000000e+02 3.540000000000000000e+02 3.550000000000000000e+02 3.560000000000000000e+02 3.570000000000000000e+02 3.580000000000000000e+02 3.590000000000000000e+02 3.600000000000000000e+02 3.610000000000000000e+02 3.620000000000000000e+02 3.630000000000000000e+02 3.640000000000000000e+02 3.650000000000000000e+02 3.660000000000000000e+02 3.670000000000000000e+02 3.680000000000000000e+02 3.690000000000000000e+02 3.700000000000000000e+02 3.710000000000000000e+02 3.720000000000000000e+02 3.730000000000000000e+02 3.740000000000000000e+02 3.750000000000000000e+02 3.760000000000000000e+02 3.770000000000000000e+02 3.780000000000000000e+02 3.790000000000000000e+02 3.800000000000000000e+02 3.810000000000000000e+02 3.820000000000000000e+02 3.830000000000000000e+02 3.840000000000000000e+02 3.850000000000000000e+02 3.860000000000000000e+02 3.870000000000000000e+02 3.880000000000000000e+02 3.890000000000000000e+02 3.900000000000000000e+02 3.910000000000000000e+02 3.920000000000000000e+02 3.930000000000000000e+02 3.940000000000000000e+02 3.950000000000000000e+02 3.960000000000000000e+02 3.970000000000000000e+02 3.980000000000000000e+02 3.990000000000000000e+02 4.000000000000000000e+02 4.010000000000000000e+02 4.020000000000000000e+02 4.030000000000000000e+02 4.040000000000000000e+02 4.050000000000000000e+02 4.060000000000000000e+02 4.070000000000000000e+02 4.080000000000000000e+02 4.090000000000000000e+02 4.100000000000000000e+02 4.110000000000000000e+02 4.120000000000000000e+02 4.130000000000000000e+02 4.140000000000000000e+02 4.150000000000000000e+02 4.160000000000000000e+02 4.170000000000000000e+02 4.180000000000000000e+02 4.190000000000000000e+02 4.200000000000000000e+02 4.210000000000000000e+02 4.220000000000000000e+02 4.230000000000000000e+02 4.240000000000000000e+02 4.250000000000000000e+02 4.260000000000000000e+02 4.270000000000000000e+02 4.280000000000000000e+02 4.290000000000000000e+02 4.300000000000000000e+02 4.310000000000000000e+02 4.320000000000000000e+02 4.330000000000000000e+02 4.340000000000000000e+02 4.350000000000000000e+02 4.360000000000000000e+02 4.370000000000000000e+02 4.380000000000000000e+02 4.390000000000000000e+02 4.400000000000000000e+02 4.410000000000000000e+02 4.420000000000000000e+02 4.430000000000000000e+02 4.440000000000000000e+02 4.450000000000000000e+02 4.460000000000000000e+02 4.470000000000000000e+02 4.480000000000000000e+02 4.490000000000000000e+02 4.500000000000000000e+02 4.510000000000000000e+02 4.520000000000000000e+02 4.530000000000000000e+02 4.540000000000000000e+02 4.550000000000000000e+02 4.560000000000000000e+02 4.570000000000000000e+02 4.580000000000000000e+02 4.590000000000000000e+02 4.600000000000000000e+02 4.610000000000000000e+02 4.620000000000000000e+02 4.630000000000000000e+02 4.640000000000000000e+02 4.650000000000000000e+02 4.660000000000000000e+02 4.670000000000000000e+02 4.680000000000000000e+02 4.690000000000000000e+02 4.700000000000000000e+02 4.710000000000000000e+02 4.720000000000000000e+02 4.730000000000000000e+02 4.740000000000000000e+02 4.750000000000000000e+02 4.760000000000000000e+02 4.770000000000000000e+02 4.780000000000000000e+02 4.790000000000000000e+02 4.800000000000000000e+02 4.810000000000000000e+02 4.820000000000000000e+02 4.830000000000000000e+02 4.840000000000000000e+02 4.850000000000000000e+02 4.860000000000000000e+02 4.870000000000000000e+02 4.880000000000000000e+02 4.890000000000000000e+02 4.900000000000000000e+02 4.910000000000000000e+02 4.920000000000000000e+02 4.930000000000000000e+02 4.940000000000000000e+02 4.950000000000000000e+02 4.960000000000000000e+02 4.970000000000000000e+02 4.980000000000000000e+02 4.990000000000000000e+02 5.000000000000000000e+02 5.010000000000000000e+02 5.020000000000000000e+02 5.030000000000000000e+02 5.040000000000000000e+02 5.050000000000000000e+02 5.060000000000000000e+02 5.070000000000000000e+02 5.080000000000000000e+02 5.090000000000000000e+02 5.100000000000000000e+02 5.110000000000000000e+02 5.120000000000000000e+02 5.130000000000000000e+02 5.140000000000000000e+02 5.150000000000000000e+02 5.160000000000000000e+02 5.170000000000000000e+02 5.180000000000000000e+02 5.190000000000000000e+02 5.200000000000000000e+02 5.210000000000000000e+02 5.220000000000000000e+02 5.230000000000000000e+02 5.240000000000000000e+02 5.250000000000000000e+02 5.260000000000000000e+02 5.270000000000000000e+02 5.280000000000000000e+02 5.290000000000000000e+02 5.300000000000000000e+02 5.310000000000000000e+02 5.320000000000000000e+02 5.330000000000000000e+02 5.340000000000000000e+02 5.350000000000000000e+02 5.360000000000000000e+02 5.370000000000000000e+02 5.380000000000000000e+02 5.390000000000000000e+02 5.400000000000000000e+02 5.410000000000000000e+02 5.420000000000000000e+02 5.430000000000000000e+02 5.440000000000000000e+02 5.450000000000000000e+02 5.460000000000000000e+02 5.470000000000000000e+02 5.480000000000000000e+02 5.490000000000000000e+02 5.500000000000000000e+02 5.510000000000000000e+02 5.520000000000000000e+02 5.530000000000000000e+02 5.540000000000000000e+02 5.550000000000000000e+02 5.560000000000000000e+02 5.570000000000000000e+02 5.580000000000000000e+02 5.590000000000000000e+02 5.600000000000000000e+02 5.610000000000000000e+02 5.620000000000000000e+02 5.630000000000000000e+02 5.640000000000000000e+02 5.650000000000000000e+02 5.660000000000000000e+02 5.670000000000000000e+02 5.680000000000000000e+02 5.690000000000000000e+02 5.700000000000000000e+02 5.710000000000000000e+02 5.720000000000000000e+02 5.730000000000000000e+02 5.740000000000000000e+02 5.750000000000000000e+02 5.760000000000000000e+02 5.770000000000000000e+02 5.780000000000000000e+02 5.790000000000000000e+02 5.800000000000000000e+02 5.810000000000000000e+02 5.820000000000000000e+02 5.830000000000000000e+02 5.840000000000000000e+02 5.850000000000000000e+02 5.860000000000000000e+02 5.870000000000000000e+02 5.880000000000000000e+02 5.890000000000000000e+02 5.900000000000000000e+02 5.910000000000000000e+02 5.920000000000000000e+02 5.930000000000000000e+02 5.940000000000000000e+02 5.950000000000000000e+02 5.960000000000000000e+02 5.970000000000000000e+02 5.980000000000000000e+02 5.990000000000000000e+02 6.000000000000000000e+02 6.010000000000000000e+02 6.020000000000000000e+02 6.030000000000000000e+02 6.040000000000000000e+02 6.050000000000000000e+02 6.060000000000000000e+02 6.070000000000000000e+02 6.080000000000000000e+02 6.090000000000000000e+02 6.100000000000000000e+02 6.110000000000000000e+02 6.120000000000000000e+02 6.130000000000000000e+02 6.140000000000000000e+02 6.150000000000000000e+02 6.160000000000000000e+02 6.170000000000000000e+02 6.180000000000000000e+02 6.190000000000000000e+02 6.200000000000000000e+02 6.210000000000000000e+02 6.220000000000000000e+02 6.230000000000000000e+02 6.240000000000000000e+02 6.250000000000000000e+02 6.260000000000000000e+02 6.270000000000000000e+02 6.280000000000000000e+02 6.290000000000000000e+02 6.300000000000000000e+02 6.310000000000000000e+02 6.320000000000000000e+02 6.330000000000000000e+02 6.340000000000000000e+02 6.350000000000000000e+02 6.360000000000000000e+02 6.370000000000000000e+02 6.380000000000000000e+02 6.390000000000000000e+02 6.400000000000000000e+02 6.410000000000000000e+02 6.420000000000000000e+02 6.430000000000000000e+02 6.440000000000000000e+02 6.450000000000000000e+02 6.460000000000000000e+02 6.470000000000000000e+02 6.480000000000000000e+02 6.490000000000000000e+02 6.500000000000000000e+02 6.510000000000000000e+02 6.520000000000000000e+02 6.530000000000000000e+02 6.540000000000000000e+02 6.550000000000000000e+02 6.560000000000000000e+02 6.570000000000000000e+02 6.580000000000000000e+02 6.590000000000000000e+02 6.600000000000000000e+02 6.610000000000000000e+02 6.620000000000000000e+02 6.630000000000000000e+02 6.640000000000000000e+02 6.650000000000000000e+02 6.660000000000000000e+02 6.670000000000000000e+02 6.680000000000000000e+02 6.690000000000000000e+02 6.700000000000000000e+02 6.710000000000000000e+02 6.720000000000000000e+02 6.730000000000000000e+02 6.740000000000000000e+02 6.750000000000000000e+02 6.760000000000000000e+02 6.770000000000000000e+02 6.780000000000000000e+02 6.790000000000000000e+02 6.800000000000000000e+02 6.810000000000000000e+02 6.820000000000000000e+02 6.830000000000000000e+02 6.840000000000000000e+02 6.850000000000000000e+02 6.860000000000000000e+02 6.870000000000000000e+02 6.880000000000000000e+02 6.890000000000000000e+02 6.900000000000000000e+02 6.910000000000000000e+02 6.920000000000000000e+02 6.930000000000000000e+02 6.940000000000000000e+02 6.950000000000000000e+02 6.960000000000000000e+02 6.970000000000000000e+02 6.980000000000000000e+02 6.990000000000000000e+02 7.000000000000000000e+02 7.010000000000000000e+02 7.020000000000000000e+02 7.030000000000000000e+02 7.040000000000000000e+02 7.050000000000000000e+02 7.060000000000000000e+02 7.070000000000000000e+02 7.080000000000000000e+02 7.090000000000000000e+02 7.100000000000000000e+02 7.110000000000000000e+02 7.120000000000000000e+02 7.130000000000000000e+02 7.140000000000000000e+02 7.150000000000000000e+02 7.160000000000000000e+02 7.170000000000000000e+02 7.180000000000000000e+02 7.190000000000000000e+02 7.200000000000000000e+02 7.210000000000000000e+02 7.220000000000000000e+02 7.230000000000000000e+02 7.240000000000000000e+02 7.250000000000000000e+02 7.260000000000000000e+02 7.270000000000000000e+02 7.280000000000000000e+02 7.290000000000000000e+02 7.300000000000000000e+02 7.310000000000000000e+02 7.320000000000000000e+02 7.330000000000000000e+02 7.340000000000000000e+02 7.350000000000000000e+02 7.360000000000000000e+02 7.370000000000000000e+02 7.380000000000000000e+02 7.390000000000000000e+02 7.400000000000000000e+02 7.410000000000000000e+02 7.420000000000000000e+02 7.430000000000000000e+02 7.440000000000000000e+02 7.450000000000000000e+02 7.460000000000000000e+02 7.470000000000000000e+02 7.480000000000000000e+02 7.490000000000000000e+02 7.500000000000000000e+02 7.510000000000000000e+02 7.520000000000000000e+02 7.530000000000000000e+02 7.540000000000000000e+02 7.550000000000000000e+02 7.560000000000000000e+02 7.570000000000000000e+02 7.580000000000000000e+02 7.590000000000000000e+02 7.600000000000000000e+02 7.610000000000000000e+02 7.620000000000000000e+02 7.630000000000000000e+02 7.640000000000000000e+02 7.650000000000000000e+02 7.660000000000000000e+02 7.670000000000000000e+02 7.680000000000000000e+02 7.690000000000000000e+02 7.700000000000000000e+02 7.710000000000000000e+02 7.720000000000000000e+02 7.730000000000000000e+02 7.740000000000000000e+02 7.750000000000000000e+02 7.760000000000000000e+02 7.770000000000000000e+02 7.780000000000000000e+02 7.790000000000000000e+02 7.800000000000000000e+02 7.810000000000000000e+02 7.820000000000000000e+02 7.830000000000000000e+02 7.840000000000000000e+02 7.850000000000000000e+02 7.860000000000000000e+02 7.870000000000000000e+02 7.880000000000000000e+02 7.890000000000000000e+02 7.900000000000000000e+02 7.910000000000000000e+02 7.920000000000000000e+02 7.930000000000000000e+02 7.940000000000000000e+02 7.950000000000000000e+02 7.960000000000000000e+02 7.970000000000000000e+02 7.980000000000000000e+02 7.990000000000000000e+02 8.000000000000000000e+02 8.010000000000000000e+02 8.020000000000000000e+02 8.030000000000000000e+02 8.040000000000000000e+02 8.050000000000000000e+02 8.060000000000000000e+02 8.070000000000000000e+02 8.080000000000000000e+02 8.090000000000000000e+02 8.100000000000000000e+02 8.110000000000000000e+02 8.120000000000000000e+02 8.130000000000000000e+02 8.140000000000000000e+02 8.150000000000000000e+02 8.160000000000000000e+02 8.170000000000000000e+02 8.180000000000000000e+02 8.190000000000000000e+02 8.200000000000000000e+02 8.210000000000000000e+02 8.220000000000000000e+02 8.230000000000000000e+02 8.240000000000000000e+02 8.250000000000000000e+02 8.260000000000000000e+02 8.270000000000000000e+02 8.280000000000000000e+02 8.290000000000000000e+02 8.300000000000000000e+02 8.310000000000000000e+02 8.320000000000000000e+02 8.330000000000000000e+02 8.340000000000000000e+02 8.350000000000000000e+02 8.360000000000000000e+02 8.370000000000000000e+02 8.380000000000000000e+02 8.390000000000000000e+02 8.400000000000000000e+02 8.410000000000000000e+02 8.420000000000000000e+02 8.430000000000000000e+02 8.440000000000000000e+02 8.450000000000000000e+02 8.460000000000000000e+02 8.470000000000000000e+02 8.480000000000000000e+02 8.490000000000000000e+02 8.500000000000000000e+02 8.510000000000000000e+02 8.520000000000000000e+02 8.530000000000000000e+02 8.540000000000000000e+02 8.550000000000000000e+02 8.560000000000000000e+02 8.570000000000000000e+02 8.580000000000000000e+02 8.590000000000000000e+02 8.600000000000000000e+02 8.610000000000000000e+02 8.620000000000000000e+02 8.630000000000000000e+02 8.640000000000000000e+02 8.650000000000000000e+02 8.660000000000000000e+02 8.670000000000000000e+02 8.680000000000000000e+02 8.690000000000000000e+02 8.700000000000000000e+02 8.710000000000000000e+02 8.720000000000000000e+02 8.730000000000000000e+02 8.740000000000000000e+02 8.750000000000000000e+02 8.760000000000000000e+02 8.770000000000000000e+02 8.780000000000000000e+02 8.790000000000000000e+02 8.800000000000000000e+02 8.810000000000000000e+02 8.820000000000000000e+02 8.830000000000000000e+02 8.840000000000000000e+02 8.850000000000000000e+02 8.860000000000000000e+02 8.870000000000000000e+02 8.880000000000000000e+02 8.890000000000000000e+02 8.900000000000000000e+02 8.910000000000000000e+02 8.920000000000000000e+02 8.930000000000000000e+02 8.940000000000000000e+02 8.950000000000000000e+02 8.960000000000000000e+02 8.970000000000000000e+02 8.980000000000000000e+02 8.990000000000000000e+02 9.000000000000000000e+02 9.010000000000000000e+02 9.020000000000000000e+02 9.030000000000000000e+02 9.040000000000000000e+02 9.050000000000000000e+02 9.060000000000000000e+02 9.070000000000000000e+02 9.080000000000000000e+02 9.090000000000000000e+02 9.100000000000000000e+02 9.110000000000000000e+02 9.120000000000000000e+02 9.130000000000000000e+02 9.140000000000000000e+02 9.150000000000000000e+02 9.160000000000000000e+02 9.170000000000000000e+02 9.180000000000000000e+02 9.190000000000000000e+02 9.200000000000000000e+02 9.210000000000000000e+02 9.220000000000000000e+02 9.230000000000000000e+02 9.240000000000000000e+02 9.250000000000000000e+02 9.260000000000000000e+02 9.270000000000000000e+02 9.280000000000000000e+02 9.290000000000000000e+02 9.300000000000000000e+02 9.310000000000000000e+02 9.320000000000000000e+02 9.330000000000000000e+02 9.340000000000000000e+02 9.350000000000000000e+02 9.360000000000000000e+02 9.370000000000000000e+02 9.380000000000000000e+02 9.390000000000000000e+02 9.400000000000000000e+02 9.410000000000000000e+02 9.420000000000000000e+02 9.430000000000000000e+02 9.440000000000000000e+02 9.450000000000000000e+02 9.460000000000000000e+02 9.470000000000000000e+02 9.480000000000000000e+02 9.490000000000000000e+02 9.500000000000000000e+02 9.510000000000000000e+02 9.520000000000000000e+02 9.530000000000000000e+02 9.540000000000000000e+02 9.550000000000000000e+02 9.560000000000000000e+02 9.570000000000000000e+02 9.580000000000000000e+02 9.590000000000000000e+02 9.600000000000000000e+02 9.610000000000000000e+02 9.620000000000000000e+02 9.630000000000000000e+02 9.640000000000000000e+02 9.650000000000000000e+02 9.660000000000000000e+02 9.670000000000000000e+02 9.680000000000000000e+02 9.690000000000000000e+02 9.700000000000000000e+02 9.710000000000000000e+02 9.720000000000000000e+02 9.730000000000000000e+02 9.740000000000000000e+02 9.750000000000000000e+02 9.760000000000000000e+02 9.770000000000000000e+02 9.780000000000000000e+02 9.790000000000000000e+02 9.800000000000000000e+02 9.810000000000000000e+02 9.820000000000000000e+02 9.830000000000000000e+02 9.840000000000000000e+02 9.850000000000000000e+02 9.860000000000000000e+02 9.870000000000000000e+02 9.880000000000000000e+02 9.890000000000000000e+02 9.900000000000000000e+02 9.910000000000000000e+02 9.920000000000000000e+02 9.930000000000000000e+02 9.940000000000000000e+02 9.950000000000000000e+02 9.960000000000000000e+02 9.970000000000000000e+02 9.980000000000000000e+02 9.990000000000000000e+02 1.000000000000000000e+03
1.000000000000000021e-02 1.000000000000000021e-02 1.000000000000000021e-02 1.000000000000000021e-02 1.000000000000000021e-02 1.000000000000000021e-02 1.000000000000000021e-02 1.000000000000000021e-02 1.000000000000000021e-02 1.000000000000000021e-02 1.000000000000000021e-02 1.000000000000000021e-02 1.000000000000000021e-02 1.000000000000000021e-02 1.000000000000000021e-02 1.000000000000000021e-02 1.000000000000000021e-02 1.000000000000000021e-02 1.000000000000000021e-02 1.000000000000000021e-02 1.000000000000000021e-02 1.000000000000000021e-02 1.000000000000000021e-02 1.000000000000000021e-02 1.000000000000000021e-02 1.000000000000000021e-02 1.000000000000000021e-02 1.000000000000000021e-02 1.000000000000000021e-02 1.000000000000000021e-02 1.000000000000000021e-02 1.000000000000000021e-02 1.000000000000000021e-02 1.000000000000000021e-02 1.000000000000000021e-02 1.000000000000000021e-02 1.000000000000000021e-02 1.000000000000000021e-02 1.000000000000000021e-02 1.000000000000000021e-02 1.000000000000000021e-02 1.000000000000000021e-02 1.000000000000000021e-02 1.000000000000000021e-02 1.000000000000000021e-02 1.000000000000000021e-02 1.000000000000000021e-02 1.000000000000000021e-02 1.000000000000000021e-02 1.000000000000000021e-02 1.000000000000000021e-02 1.000000000000000021e-02 1.000000000000000021e-02 1.000000000000000021e-02 1.000000000000000021e-02 1.000000000000000021e-02 1.000000000000000021e-02 1.000000000000000021e-02 1.000000000000000021e-02 1.000000000000000021e-02 1.000000000000000021e-02 1.000000000000000021e-02 1.000000000000000021e-02 1.000000000000000021e-02 1.000000000000000021e-02 1.000000000000000021e-02 1.000000000000000021e-02 1.000000000000000021e-02 1.000000000000000021e-02 1.000000000000000021e-02 1.000000000000000021e-02 1.000000000000000021e-02 1.000000000000000021e-02 1.000000000000000021e-02 1.000000000000000021e-02 1.000000000000000021e-02 1.000000000000000021e-02 1.000000000000000021e-02 1.000000000000000021e-02 1.000000000000000021e-02 1.000000000000000021e-02 1.000000000000000021e-02 1.000000000000000021e-02 1.000000000000000021e-02 1.000000000000000021e-02 1.000000000000000021e-02 1.000000000000000021e-02 1.000000000000000021e-02 1.000000000000000021e-02 1.000000000000000021e-02 1.000000000000000021e-02 1.000000000000000021e-02 1.000000000000000021e-02 1.000000000000000021e-02 1.000000000000000021e-02 1.000000000000000021e-02 1.000000000000000021e-02 1.000000000000000021e-02 1.000000000000000021e-02 1.000000000000000021e-02 1.000000000000000021e-02 1.000000000000000021e-02 1.000000000000000021e-02 1.000000000000000021e-02 1.000000000000000021e-02 1.000000000000000021e-02 1.000000000000000021e-02 1.000000000000000021e-02 1.000000000000000021e-02 1.000000000000000021e-02 1.000000000000000021e-02 1.000000000000000021e-02 1.000000000000000021e-02 1.000000000000000021e-02 1.000000000000000021e-02 1.000000000000000021e-02 1.000000000000000021e-02 1.000000000000000021e-02 1.000000000000000021e-02 1.000000000000000021e-02 1.000000000000000021e-02 1.000000000000000021e-02 1.000000000000000021e-02 1.000000000000000021e-02 1.000000000000000021e-02 1.000000000000000021e-02 1.000000000000000021e-02 1.000000000000000021e-02 1.000000000000000021e-02 1.000000000000000021e-02 1.000000000000000021e-02 1.000000000000000021e-02 1.000000000000000021e-02 1.000000000000000021e-02 1.000000000000000021e-02 1.000000000000000021e-02 1.000000000000000021e-02 1.000000000000000021e-02 1.000000000000000021e-02 1.000000000000000021e-02 1.000000000000000021e-02 1.000000000000000021e-02 1.000000000000000021e-02 1.000000000000000021e-02 1.000000000000000021e-02 1.000000000000000021e-02 1.000000000000000021e-02 1.000000000000000021e-02 1.000000000000000021e-02 1.000000000000000021e-02 1.000000000000000021e-02 1.000000000000000021e-02 1.000000000000000021e-02 1.000000000000000021e-02 1.000000000000000021e-02 1.000000000000000021e-02 1.000000000000000021e-02 1.000000000000000021e-02 1.000000000000000021e-02 1.000000000000000021e-02 1.000000000000000021e-02 1.000000000000000021e-02 1.000000000000000021e-02 1.000000000000000021e-02 1.000000000000000021e-02 1.000000000000000021e-02 1.000000000000000021e-02 1.000000000000000021e-02 1.000000000000000021e-02 1.000000000000000021e-02 1.000000000000000021e-02 1.000000000000000021e-02 1.000000000000000021e-02 1.000000000000000021e-02 1.000000000000000021e-02 1.000000000000000021e-02 1.000000000000000021e-02 1.000000000000000021e-02 1.000000000000000021e-02 1.000000000000000021e-02 1.000000000000000021e-02 1.000000000000000021e-02 1.000000000000000021e-02 1.000000000000000021e-02 1.000000000000000021e-02 1.000000000000000021e-02 1.000000000000000021e-02 1.000000000000000021e-02 1.000000000000000021e-02 1.000000000000000021e-02 1.000000000000000021e-02 1.000000000000000021e-02 1.000000000000000021e-02 1.000000000000000021e-02 1.000000000000000021e-02 1.000000000000000021e-02 1.000000000000000021e-02 1.000000000000000021e-02 1.000000000000000021e-02 1.000000000000000021e-02 1.000000000000000021e-02 1.000000000000000021e-02 1.000000000000000021e-02 1.000000000000000021e-02 1.000000000000000021e-02 1.000000000000000021e-02 1.000000000000000021e-02 1.000000000000000021e-02 1.000000000000000021e-02 1.000000000000000021e-02 1.000000000000000021e-02 1.000000000000000021e-02 1.000000000000000021e-02 1.000000000000000021e-02 1.000000000000000021e-02 1.000000000000000021e-02 1.000000000000000021e-02 1.000000000000000021e-02 1.000000000000000021e-02 1.000000000000000021e-02 1.000000000000000021e-02 1.000000000000000021e-02 1.000000000000000021e-02 1.000000000000000021e-02 1.000000000000000021e-02 1.000000000000000021e-02 1.000000000000000021e-02 1.000000000000000021e-02 1.000000000000000021e-02 1.000000000000000021e-02 1.000000000000000021e-02 1.000000000000000021e-02 1.000000000000000021e-02 1.000000000000000021e-02 1.000000000000000021e-02 1.000000000000000021e-02 1.000000000000000021e-02 1.000000000000000021e-02 1.000000000000000021e-02 1.000000000000000021e-02 1.000000000000000021e-02 1.000000000000000021e-02 1.000000000000000021e-02 1.000000000000000021e-02 1.000000000000000021e-02 1.000000000000000021e-02 1.000000000000000021e-02 1.000000000000000021e-02 1.000000000000000021e-02 1.000000000000000021e-02 1.000000000000000021e-02 1.000000000000000021e-02 1.000000000000000021e-02 1.000000000000000021e-02 1.000000000000000021e-02 1.000000000000000021e-02 1.000000000000000021e-02 1.000000000000000021e-02 1.000000000000000021e-02 1.000000000000000021e-02 1.000000000000000021e-02 1.000000000000000021e-02 1.000000000000000021e-02 1.000000000000000021e-02 1.000000000000000021e-02 1.000000000000000021e-02 1.000000000000000021e-02 1.000000000000000021e-02 1.000000000000000021e-02 1.000000000000000021e-02 1.000000000000000021e-02 1.000000000000000021e-02 1.000000000000000021e-02 1.000000000000000021e-02 1.000000000000000021e-02 1.000000000000000021e-02 1.000000000000000021e-02 1.000000000000000021e-02 1.000000000000000021e-02 1.000000000000000021e-02 1.000000000000000021e-02 1.000000000000000021e-02 1.000000000000000021e-02 1.000000000000000021e-02 1.000000000000000021e-02 1.000000000000000021e-02 1.000000000000000021e-02 1.000000000000000021e-02 1.000000000000000021e-02 1.000000000000000021e-02 1.000000000000000021e-02 1.000000000000000021e-02 1.000000000000000021e-02 1.000000000000000021e-02 1.000000000000000021e-02 1.000000000000000021e-02 1.000000000000000021e-02 1.000000000000000021e-02 1.000000000000000021e-02 1.000000000000000021e-02 1.000000000000000021e-02 1.000000000000000021e-02 1.000000000000000021e-02 1.000000000000000021e-02 1.000000000000000021e-02 1.000000000000000021e-02 1.000000000000000021e-02 1.000000000000000021e-02 1.000000000000000021e-02 1.000000000000000021e-02 1.000000000000000021e-02 1.000000000000000021e-02 1.000000000000000021e-02 1.000000000000000021e-02 1.000000000000000021e-02 1.000000000000000021e-02 1.000000000000000021e-02 1.000000000000000021e-02 1.000000000000000021e-02 1.000000000000000021e-02 1.000000000000000021e-02 1.000000000000000021e-02 1.000000000000000021e-02 1.000000000000000021e-02 1.000000000000000021e-02 1.000000000000000021e-02 1.000000000000000021e-02 1.000000000000000021e-02 1.000000000000000021e-02 1.000000000000000021e-02 1.000000000000000021e-02 1.000000000000000021e-02 1.000000000000000021e-02 1.000000000000000021e-02 1.000000000000000021e-02 1.000000000000000021e-02 1.000000000000000021e-02 1.000000000000000021e-02 1.000000000000000021e-02 1.000000000000000021e-02 1.000000000000000021e-02 1.000000000000000021e-02 1.000000000000000021e-02 1.000000000000000021e-02 1.000000000000000021e-02 1.000000000000000021e-02 1.000000000000000021e-02 1.000000000000000021e-02 1.000000000000000021e-02 1.000000000000000021e-02 1.000000000000000021e-02 1.000000000000000021e-02 1.000000000000000021e-02 1.000000000000000021e-02 1.000000000000000021e-02 1.000000000000000021e-02 1.000000000000000021e-02 1.000000000000000021e-02 1.000000000000000021e-02 1.000000000000000021e-02 1.000000000000000021e-02 1.000000000000000021e-02 1.000000000000000021e-02 1.000000000000000021e-02 1.000000000000000021e-02 1.000000000000000021e-02 1.000000000000000021e-02 1.000000000000000021e-02 1.000000000000000021e-02 1.000000000000000021e-02 1.000000000000000021e-02 1.000000000000000021e-02 1.000000000000000021e-02 1.000000000000000021e-02 1.000000000000000021e-02 1.000000000000000021e-02 1.000000000000000021e-02 1.000000000000000021e-02 1.000000000000000021e-02 1.000000000000000021e-02 1.000000000000000021e-02 1.000000000000000021e-02 1.000000000000000021e-02 1.000000000000000021e-02 1.000000000000000021e-02 1.000000000000000021e-02 1.000000000000000021e-02 1.000000000000000021e-02 1.000000000000000021e-02 1.000000000000000021e-02 1.000000000000000021e-02 1.000000000000000021e-02 1.000000000000000021e-02 1.000000000000000021e-02 1.000000000000000021e-02 1.000000000000000021e-02 1.000000000000000021e-02 1.000000000000000021e-02 1.000000000000000021e-02 1.000000000000000021e-02 1.000000000000000021e-02 1.000000000000000021e-02 1.000000000000000021e-02 1.000000000000000021e-02 1.000000000000000021e-02 1.000000000000000021e-02 1.000000000000000021e-02 1.000000000000000021e-02 1.000000000000000021e-02 1.000000000000000021e-02 1.000000000000000021e-02 1.000000000000000021e-02 1.000000000000000021e-02 1.000000000000000021e-02 1.000000000000000021e-02 1.000000000000000021e-02 1.000000000000000021e-02 1.000000000000000021e-02 1.000000000000000021e-02 1.000000000000000021e-02 1.000000000000000021e-02 1.000000000000000021e-02 1.000000000000000021e-02 1.000000000000000021e-02 1.000000000000000021e-02 1.000000000000000021e-02 1.000000000000000021e-02 1.000000000000000021e-02 1.000000000000000021e-02 1.000000000000000021e-02 1.000000000000000021e-02 1.000000000000000021e-02 1.000000000000000021e-02 1.000000000000000021e-02 1.000000000000000021e-02 1.000000000000000021e-02 1.000000000000000021e-02 1.000000000000000021e-02 1.000000000000000021e-02 1.000000000000000021e-02 1.000000000000000021e-02 1.000000000000000021e-02 1.000000000000000021e-02 1.000000000000000021e-02 1.000000000000000021e-02 1.000000000000000021e-02 1.000000000000000021e-02 1.000000000000000021e-02 1.000000000000000021e-02 1.000000000000000021e-02 1.000000000000000021e-02 1.000000000000000021e-02 1.000000000000000021e-02 1.000000000000000021e-02 1.000000000000000021e-02 1.000000000000000021e-02 1.000000000000000021e-02 1.000000000000000021e-02 1.000000000000000021e-02 1.000000000000000021e-02 1.000000000000000021e-02 1.000000000000000021e-02 1.000000000000000021e-02 1.000000000000000021e-02 1.000000000000000021e-02 1.000000000000000021e-02 1.000000000000000021e-02 1.000000000000000021e-02 1.000000000000000021e-02 1.000000000000000021e-02 1.000000000000000021e-02 1.000000000000000021e-02 1.000000000000000021e-02 1.000000000000000021e-02 1.000000000000000021e-02 1.000000000000000021e-02 1.000000000000000021e-02 1.000000000000000021e-02 1.000000000000000021e-02 1.000000000000000021e-02 1.000000000000000021e-02 1.000000000000000021e-02 1.000000000000000021e-02 1.000000000000000021e-02 1.000000000000000021e-02 1.000000000000000021e-02 1.000000000000000021e-02 1.000000000000000021e-02 1.000000000000000021e-02 1.000000000000000021e-02 1.000000000000000021e-02 1.000000000000000021e-02 1.000000000000000021e-02 1.000000000000000021e-02 1.000000000000000021e-02 1.000000000000000021e-02 1.000000000000000021e-02 1.000000000000000021e-02 1.000000000000000021e-02 1.000000000000000021e-02 1.000000000000000021e-02 1.000000000000000021e-02 1.000000000000000021e-02 1.000000000000000021e-02 1.000000000000000021e-02 1.000000000000000021e-02 1.000000000000000021e-02 1.000000000000000021e-02 1.000000000000000021e-02 1.000000000000000021e-02 1.000000000000000021e-02 1.000000000000000021e-02 1.000000000000000021e-02 1.000000000000000021e-02 1.000000000000000021e-02 1.000000000000000021e-02 1.000000000000000021e-02 1.000000000000000021e-02 1.000000000000000021e-02 1.000000000000000021e-02 1.000000000000000021e-02 1.000000000000000021e-02 1.000000000000000021e-02 1.000000000000000021e-02 1.000000000000000021e-02 1.000000000000000021e-02 1.000000000000000021e-02 1.000000000000000021e-02 1.000000000000000021e-02 1.000000000000000021e-02 1.000000000000000021e-02 1.000000000000000021e-02 1.000000000000000021e-02 1.000000000000000021e-02 1.000000000000000021e-02 1.000000000000000021e-02 1.000000000000000021e-02 1.000000000000000021e-02 1.000000000000000021e-02 1.000000000000000021e-02 1.000000000000000021e-02 1.000000000000000021e-02 1.000000000000000021e-02 1.000000000000000021e-02 1.000000000000000021e-02 1.000000000000000021e-02 1.000000000000000021e-02 1.000000000000000021e-02 1.000000000000000021e-02 1.000000000000000021e-02 1.000000000000000021e-02 1.000000000000000021e-02 1.000000000000000021e-02 1.000000000000000021e-02 1.000000000000000021e-02 1.000000000000000021e-02 1.000000000000000021e-02 1.000000000000000021e-02 1.000000000000000021e-02 1.000000000000000021e-02 1.000000000000000021e-02 1.000000000000000021e-02 1.000000000000000021e-02 1.000000000000000021e-02 1.000000000000000021e-02 1.000000000000000021e-02 1.000000000000000021e-02 1.000000000000000021e-02 1.000000000000000021e-02 1.000000000000000021e-02 1.000000000000000021e-02 1.000000000000000021e-02 1.000000000000000021e-02 1.000000000000000021e-02 1.000000000000000021e-02 1.000000000000000021e-02 1.000000000000000021e-02 1.000000000000000021e-02 1.000000000000000021e-02 1.000000000000000021e-02 1.000000000000000021e-02 1.000000000000000021e-02 1.000000000000000021e-02 1.000000000000000021e-02 1.000000000000000021e-02 1.000000000000000021e-02 1.000000000000000021e-02 1.000000000000000021e-02 1.000000000000000021e-02 1.000000000000000021e-02 1.000000000000000021e-02 1.000000000000000021e-02 1.000000000000000021e-02 1.000000000000000021e-02 1.000000000000000021e-02 1.000000000000000021e-02 1.000000000000000021e-02 1.000000000000000021e-02 1.000000000000000021e-02 1.000000000000000021e-02 1.000000000000000021e-02 1.000000000000000021e-02 1.000000000000000021e-02 1.000000000000000021e-02 1.000000000000000021e-02 1.000000000000000021e-02 1.000000000000000021e-02 1.000000000000000021e-02 1.000000000000000021e-02 1.000000000000000021e-02 1.000000000000000021e-02 1.000000000000000021e-02 1.000000000000000021e-02 1.000000000000000021e-02 1.000000000000000021e-02 1.000000000000000021e-02 1.000000000000000021e-02 1.000000000000000021e-02 1.000000000000000021e-02 1.000000000000000021e-02 1.000000000000000021e-02 1.000000000000000021e-02 1.000000000000000021e-02 1.000000000000000021e-02 1.000000000000000021e-02 1.000000000000000021e-02 1.000000000000000021e-02 1.000000000000000021e-02 1.000000000000000021e-02 1.000000000000000021e-02 1.000000000000000021e-02 1.000000000000000021e-02 1.000000000000000021e-02 1.000000000000000021e-02 1.000000000000000021e-02 1.000000000000000021e-02 1.000000000000000021e-02 1.000000000000000021e-02 1.000000000000000021e-02 1.000000000000000021e-02 1.000000000000000021e-02 1.000000000000000021e-02 1.000000000000000021e-02 1.000000000000000021e-02 1.000000000000000021e-02 1.000000000000000021e-02 1.000000000000000021e-02 1.000000000000000021e-02 1.000000000000000021e-02 1.000000000000000021e-02 1.000000000000000021e-02 1.000000000000000021e-02 1.000000000000000021e-02 1.000000000000000021e-02 1.000000000000000021e-02 1.000000000000000021e-02 1.000000000000000021e-02 1.000000000000000021e-02 1.000000000000000021e-02 1.000000000000000021e-02 1.000000000000000021e-02 1.000000000000000021e-02 1.000000000000000021e-02 1.000000000000000021e-02 1.000000000000000021e-02 1.000000000000000021e-02 1.000000000000000021e-02 1.000000000000000021e-02 1.000000000000000021e-02 1.000000000000000021e-02 1.000000000000000021e-02 1.000000000000000021e-02 1.000000000000000021e-02 1.000000000000000021e-02 1.000000000000000021e-02 1.000000000000000021e-02 1.000000000000000021e-02 1.000000000000000021e-02 1.000000000000000021e-02 1.000000000000000021e-02 1.000000000000000021e-02 1.000000000000000021e-02 1.000000000000000021e-02 1.000000000000000021e-02 1.000000000000000021e-02 1.000000000000000021e-02 1.000000000000000021e-02 1.000000000000000021e-02 1.000000000000000021e-02 1.000000000000000021e-02 1.000000000000000021e-02 1.000000000000000021e-02 1.000000000000000021e-02 1.000000000000000021e-02 1.000000000000000021e-02 1.000000000000000021e-02 1.000000000000000021e-02 1.000000000000000021e-02 1.000000000000000021e-02 1.000000000000000021e-02 1.000000000000000021e-02 1.000000000000000021e-02 1.000000000000000021e-02 1.000000000000000021e-02 1.000000000000000021e-02 1.000000000000000021e-02 1.000000000000000021e-02 1.000000000000000021e-02 1.000000000000000021e-02 1.000000000000000021e-02 1.000000000000000021e-02 1.000000000000000021e-02 1.000000000000000021e-02 1.000000000000000021e-02 1.000000000000000021e-02 1.000000000000000021e-02 1.000000000000000021e-02 1.000000000000000021e-02 1.000000000000000021e-02 1.000000000000000021e-02 1.000000000000000021e-02 1.000000000000000021e-02 1.000000000000000021e-02 1.000000000000000021e-02 1.000000000000000021e-02 1.000000000000000021e-02 1.000000000000000021e-02 1.000000000000000021e-02 1.000000000000000021e-02 1.000000000000000021e-02 1.000000000000000021e-02 1.000000000000000021e-02 1.000000000000000021e-02 1.000000000000000021e-02 1.000000000000000021e-02 1.000000000000000021e-02 1.000000000000000021e-02 1.000000000000000021e-02 1.000000000000000021e-02 1.000000000000000021e-02 1.000000000000000021e-02 1.000000000000000021e-02 1.000000000000000021e-02 1.000000000000000021e-02 1.000000000000000021e-02 1.000000000000000021e-02 1.000000000000000021e-02 1.000000000000000021e-02 1.000000000000000021e-02 1.000000000000000021e-02 1.000000000000000021e-02 1.000000000000000021e-02 1.000000000000000021e-02 1.000000000000000021e-02 1.000000000000000021e-02 1.000000000000000021e-02 1.000000000000000021e-02 1.000000000000000021e-02 1.000000000000000021e-02 1.000000000000000021e-02 1.000000000000000021e-02 1.000000000000000021e-02 1.000000000000000021e-02 1.000000000000000021e-02 1.000000000000000021e-02 1.000000000000000021e-02 1.000000000000000021e-02 1.000000000000000021e-02 1.000000000000000021e-02 1.000000000000000021e-02 1.000000000000000021e-02 1.000000000000000021e-02 1.000000000000000021e-02 1.000000000000000021e-02 1.000000000000000021e-02 1.000000000000000021e-02 1.000000000000000021e-02 1.000000000000000021e-02 1.000000000000000021e-02 1.000000000000000021e-02 1.000000000000000021e-02 1.000000000000000021e-02 1.000000000000000021e-02 1.000000000000000021e-02 1.000000000000000021e-02 1.000000000000000021e-02 1.000000000000000021e-02 1.000000000000000021e-02 1.000000000000000021e-02 1.000000000000000021e-02 1.000000000000000021e-02 1.000000000000000021e-02 1.000000000000000021e-02 1.000000000000000021e-02 1.000000000000000021e-02 1.000000000000000021e-02 1.000000000000000021e-02 1.000000000000000021e-02 1.000000000000000021e-02 1.000000000000000021e-02 1.000000000000000021e-02 1.000000000000000021e-02 1.000000000000000021e-02 1.000000000000000021e-02 1.000000000000000021e-02 1.000000000000000021e-02 1.000000000000000021e-02 1.000000000000000021e-02 1.000000000000000021e-02 1.000000000000000021e-02 1.000000000000000021e-02 1.000000000000000021e-02 1.000000000000000021e-02 1.000000000000000021e-02 1.000000000000000021e-02 1.000000000000000021e-02 1.000000000000000021e-02 1.000000000000000021e-02 1.000000000000000021e-02 1.000000000000000021e-02 1.000000000000000021e-02 1.000000000000000021e-02 1.000000000000000021e-02 1.000000000000000021e-02 1.000000000000000021e-02 1.000000000000000021e-02 1.000000000000000021e-02 1.000000000000000021e-02 1.000000000000000021e-02 1.000000000000000021e-02 1.000000000000000021e-02 1.000000000000000021e-02 1.000000000000000021e-02 1.000000000000000021e-02 1.000000000000000021e-02 1.000000000000000021e-02 1.000000000000000021e-02 1.000000000000000021e-02 1.000000000000000021e-02 1.000000000000000021e-02 1.000000000000000021e-02 1.000000000000000021e-02 1.000000000000000021e-02 1.000000000000000021e-02 1.000000000000000021e-02 1.000000000000000021e-02 1.000000000000000021e-02 1.000000000000000021e-02 1.000000000000000021e-02 1.000000000000000021e-02 1.000000000000000021e-02 1.000000000000000021e-02 1.000000000000000021e-02 1.000000000000000021e-02 1.000000000000000021e-02 1.000000000000000021e-02 1.000000000000000021e-02 1.000000000000000021e-02 1.000000000000000021e-02 1.000000000000000021e-02 1.000000000000000021e-02 1.000000000000000021e-02 1.000000000000000021e-02 1.000000000000000021e-02 1.000000000000000021e-02 1.000000000000000021e-02 1.000000000000000021e-02 1.000000000000000021e-02 1.000000000000000021e-02 1.000000000000000021e-02 1.000000000000000021e-02 1.000000000000000021e-02 1.000000000000000021e-02 1.000000000000000021e-02 1.000000000000000021e-02 1.000000000000000021e-02 1.000000000000000021e-02 1.000000000000000021e-02 1.000000000000000021e-02 1.000000000000000021e-02 1.000000000000000021e-02 1.000000000000000021e-02 1.000000000000000021e-02 1.000000000000000021e-02 1.000000000000000021e-02 1.000000000000000021e-02 1.000000000000000021e-02 1.000000000000000021e-02 1.000000000000000021e-02 1.000000000000000021e-02 1.000000000000000021e-02 1.000000000000000021e-02 1.000000000000000021e-02 1.000000000000000021e-02 1.000000000000000021e-02 1.000000000000000021e-02 1.000000000000000021e-02 1.000000000000000021e-02 1.000000000000000021e-02 1.000000000000000021e-02 1.000000000000000021e-02 1.000000000000000021e-02 1.000000000000000021e-02 1.000000000000000021e-02 1.000000000000000021e-02 1.000000000000000021e-02 1.000000000000000021e-02 1.000000000000000021e-02 1.000000000000000021e-02 1.000000000000000021e-02 1.000000000000000021e-02 1.000000000000000021e-02 1.000000000000000021e-02 1.000000000000000021e-02 1.000000000000000021e-02 1.000000000000000021e-02 1.000000000000000021e-02 1.000000000000000021e-02 1.000000000000000021e-02 1.000000000000000021e-02 1.000000000000000021e-02 1.000000000000000021e-02 1.000000000000000021e-02 1.000000000000000021e-02 1.000000000000000021e-02 1.000000000000000021e-02 1.000000000000000021e-02 1.000000000000000021e-02 1.000000000000000021e-02 1.000000000000000021e-02 1.000000000000000021e-02 1.000000000000000021e-02 1.000000000000000021e-02 1.000000000000000021e-02 1.000000000000000021e-02 1.000000000000000021e-02 1.000000000000000021e-02 1.000000000000000021e-02 1.000000000000000021e-02 1.000000000000000021e-02 1.000000000000000021e-02 1.000000000000000021e-02 1.000000000000000021e-02 1.000000000000000021e-02 1.000000000000000021e-02 1.000000000000000021e-02 1.000000000000000021e-02 1.000000000000000021e-02 1.000000000000000021e-02 1.000000000000000021e-02 1.000000000000000021e-02 1.000000000000000021e-02 1.000000000000000021e-02 1.000000000000000021e-02 1.000000000000000021e-02 1.000000000000000021e-02 1.000000000000000021e-02 1.000000000000000021e-02 1.000000000000000021e-02 1.000000000000000021e-02 1.000000000000000021e-02 1.000000000000000021e-02 1.000000000000000021e-02 1.000000000000000021e-02 1.000000000000000021e-02 1.000000000000000021e-02 1.000000000000000021e-02 1.000000000000000021e-02 1.000000000000000021e-02 1.000000000000000021e-02 1.000000000000000021e-02 1.000000000000000021e-02 1.000000000000000021e-02 1.000000000000000021e-02 1.000000000000000021e-02 1.000000000000000021e-02 1.000000000000000021e-02 1.000000000000000021e-02 1.000000000000000021e-02 1.000000000000000021e-02 1.000000000000000021e-02 1.000000000000000021e-02 1.000000000000000021e-02 1.000000000000000021e-02 1.000000000000000021e-02 1.000000000000000021e-02 1.000000000000000021e-02 1.000000000000000021e-02 1.000000000000000021e-02 1.000000000000000021e-02 1.000000000000000021e-02 1.000000000000000021e-02 1.000000000000000021e-02 1.000000000000000021e-02 1.000000000000000021e-02 1.000000000000000021e-02 1.000000000000000021e-02 1.000000000000000021e-02 1.000000000000000021e-02 1.000000000000000021e-02
-1.099732783760397865e+02 1.672124853687098494e+02 3.875995123086754290e+01 -8.708669713001787827e+00 -8.662499707613267219e+01 -1.319916445878514466e+01 -2.049713570920715426e+02 6.869218579660866242e-01 -8.350811497398557037e+01 -1.389185773781017019e+01 -1.955902947006383386e+01 6.440029547738295612e+00 -1.756800841872464991e+00 1.654111838308770359e+02 8.342488953997523993e+01 -3.824910912384410011e+01 -5.206844116535521039e+01 7.809597342139814202e+01 3.236224516507959237e+01 -2.501772773220523760e+01 -7.772676200758787957e+01 -7.275422944292805028e+01 -1.360416524115028736e+01 2.852431225886078892e+01 -1.921606568710454610e+02 -9.732815659618746906e+01 -2.572272701470839351e+01 1.987751385376851943e+02 6.976329821955040700e+01 7.565559715164546617e+01 7.916417678453584017e+01 1.165953542080603755e+00 -7.815622406542081535e+01 2.045408014567109660e+02 -2.414160779978206506e+02 5.802415256197688365e+01 -1.184299532654743956e+02 -3.419784146508025913e+01 3.979136581308790444e+00 1.249301459569046386e+02 -1.211644469669241460e+02 -1.344477128154775336e+01 7.625830551838919291e+01 1.711645164365173741e+02 7.034016881618941852e+01 -6.743560537907718810e+01 4.062070335645261565e+01 -2.799095222318917209e+01 -6.513564360706565992e+01 1.543875391200699880e+02 -6.954280369459969791e+01 -5.137134085745694989e+01 -1.373974137285309212e+02 5.702448172067493104e+00 -4.981935511310536668e+01 3.813035342886222878e+01 -8.748715120379218035e+01 -4.935400634397068842e+01 -9.999021968946239269e+01 -1.532786877917698405e+02 1.916680954374148982e+01 4.474543775568857740e+01 -1.214095467634791277e+02 1.267451348825533231e+01 -7.817279307816117750e+01 4.843732628731243750e+01 1.643286956559299767e+02 -1.422618558894076841e+02 -4.269935191261912166e+01 7.107108453563375505e+00 2.893476753622760800e+00 4.179739833696183382e+01 8.281534855595687361e+01 8.311027786854487953e-01 -8.694730934182839377e+00 -6.904628615884388410e+01 7.716796567017304653e+01 -3.229087931004989542e+01 2.593656996371898416e+01 1.025778288573992114e+02 8.698790119701682499e+01 -4.217040196076386849e+01 5.698098876801753221e+01 1.453893190848432653e+02 1.146034162354957147e+02 -3.954438683650309816e+00 1.717846417524428091e+02 -1.099792172396755774e+02 4.126718371871416657e+00 -4.135815388531955961e+01 2.039643111515515557e+02 -2.092977336822470136e+01 2.850673098283170948e+00 -7.572120293202785035e+01 -7.044587709168912859e+00 -6.294777738625139563e+01 6.684148368264830253e+01 -9.324804702553325342e+01 6.765433131986826254e+01 -4.709913001187064907e+01 -4.906584431986451023e+01 -9.039694600905963284e+01 5.234245437068737772e+01 -5.394275143959794150e+01 -1.472667559597791183e+02 -7.836221388250443454e+01 -1.031633918880808238e+02 -1.550555587641725310e+02 1.340550594547123069e+02 -2.709249719927576194e+01 3.159547110921247892e+01 8.842835981673805179e+01 -1.026177443793152122e+02 5.617087967163990925e+01 -4.272007236260873952e+01 -6.841247087758303280e+01 -8.886705740735453674e+01 2.004315483523995454e+02 -5.595637021650618692e+01 -4.882391302320911564e+01 -4.653792351939355854e+01 7.928800319784748751e+01 -4.084417884857736425e+01 1.360687440383694593e+02 -4.921411391514859446e+01 5.435524449983463313e+01 4.480153414334317574e+00 -7.998999237412630237e+01 6.784876313861349217e+01 2.735713439756413550e+02 -9.078029272080824796e+01 4.682789696015269953e+01 -7.521165941918476960e+01 4.462152267216376345e+01 1.294052342423656512e+02 -5.070590126706877498e+01 1.440688131517962667e+01 -2.657136001900609656e+01 -1.005675393248783109e+02 -1.709445053926893010e+01 4.235853135873074216e+00 -7.708617490817644580e+00 -1.474435140270373878e+01 1.166256428767135134e+02 1.286295280913215038e+02 1.839796291407518822e+02 -3.002996538288598458e+02 3.769934274296840471e+01 -1.555656409609953705e+01 -6.152417630118394953e+01 1.779833223547188652e+02 7.517790685326659172e+01 -2.568354193859700541e+00 -1.144447451590997531e+02 -1.074765142264259232e+01 9.880511038223251319e+01 -1.326555747872282041e+02 -1.664663887539637699e+02 1.060037131322230941e+01 4.188628675014931702e+01 -6.025974753172969400e+01 4.151088674817704316e+01 -1.057405975369271545e+02 -1.494295084586754001e+02 2.083685961171471490e+01 4.798022263969404122e+01 4.757039874118481393e+00 -8.244222024999130838e+01 -9.245600016618922723e+01 -8.328583261731591847e+01 -8.650915313836603104e+01 1.250080712084007395e+01 5.616200153991771771e+01 1.151637745745742194e+02 7.851622870589974923e+01 8.850298247684123965e+01 1.062730165841908274e+02 -7.396060568432548621e+01 -8.160781744490780909e+01 6.976223190449921674e+01 6.778928446407044817e+01 5.860976259071157557e+01 -9.289037611681782991e+00 -9.015102164526807371e+01 5.345343040316956973e+01 -1.772944714496407244e+02 6.652942555957226034e+01 -4.410629060407682545e+01 -9.554182752712506499e+01 7.353814661902758587e+01 -1.700018358390504503e+01 -7.644531476415687621e+01 -5.696291974987047979e+01 -9.086980003882239032e+00 2.407342424677708834e+02 7.628649476962056042e+01 5.442109753651853055e+01 -1.031034477487682466e+02 1.471979262132123836e+02 1.052268643040328522e+00 -8.975388036347231946e+01 1.547827504174172191e+02 -1.531441797595464323e+02 1.567807783064139215e+01 -3.233057953790715544e+01 -2.208466378920006719e+02 -1.340209362911285496e+02 -8.765329320277584202e+01 -2.949060014962010001e+01 -1.198026624818957089e+02 5.792873654227526004e+01 6.531141878112711652e+01 -2.772511750528203933e+01 -1.002459863270335489e+02 1.136489249831836332e+02 1.187694951445793237e+02 4.644207668581617554e+01 1.757782757697901843e+01 2.627540553269669203e+02 4.389107900357551983e+01 -1.201201533525970575e+02 -4.531764759872331183e+01 -1.697809382585060405e+02 3.205239608778086335e+01 1.541786777559131281e+02 -1.491895305957465041e+02 1.325119133436630818e+02 -9.150899307047421871e+01 -1.903633538402457859e+01 -7.903334297292325950e-01 5.319886801514508790e+01 -1.165750293445265839e+01 -2.295526000037938630e+01 -1.897380926214927044e+01 -1.275548646319396369e+02 4.670799931156972917e+01 -3.054539852050147530e+01 -1.303134398691290308e+01 -1.079043277044399751e+01 2.274829471488036461e+02 1.754131843824372083e+02 2.342078361490320901e+02 1.326989202670405348e+02 -8.716721358025532140e+01 7.568781175464808086e+01 2.128089673291424333e+01 4.788107047536850303e+01 -3.996885378614214090e+01 2.572020052294811308e+02 -2.347494681945402917e+01 -1.377016614656290017e+02 -1.505329660643662670e+01 -4.616320411789057943e+01 -7.794384747306375516e+01 4.346727528105830629e+01 -1.179715984777957871e+01 1.832343523355422690e+02 9.303966905171205326e+01 4.117912796365155970e+01 9.872506596347392360e+01 9.527113201617692084e+01 -2.315731986915942997e+01 1.406740698000272971e+02 2.671312994170561694e+01 9.026960599560106857e+01 4.803381475443792681e+01 6.980979455520754939e+00 -1.166372129496888022e+02 -1.167381288454860169e+02 -9.072141348025290597e+01 -1.568694750800645465e+01 8.735898118881098640e+01 -3.087519052620757165e+01 9.964918214619493142e+01 4.415666314575779694e+01 -7.328563644736956917e+01 -3.018435057163139845e+01 -5.904287824065024637e+01 1.770265166599648765e+01 -4.666724083839205406e+01 -1.129113229607341111e+02 1.224598025925621556e+02 1.222828434053975570e+02 -7.957719056946868363e+01 5.461420710679007584e+00 -4.567310304080206862e+01 -3.283459634643278946e+01 -1.142954031367540679e+01 -3.147619116549275375e+01 4.482234004561261287e+01 -1.416394180439576189e+02 -5.325395701142721805e+01 -1.530127417640612180e+02 1.754152834521116802e+02 -2.035188239995831339e+01 5.934961421981624596e+01 1.200137164047443328e+01 1.454145743840345517e+02 4.493301882808014369e+01 3.595960979274330782e+01 1.554148491804884884e+02 -4.959207945632260817e+01 -9.826098855531992626e+01 2.737454360244790053e+01 -1.590259480874417193e+02 -5.374280263039150185e+01 1.029585193036752884e+02 -1.284067147896699055e+02 -3.658198097546413408e+01 9.183851595410789059e+01 -9.502230108116846452e+01 -9.000227640659694828e+01 -8.312107609143235720e+01 -6.417002895706481524e+01 2.504943400191440901e+02 1.993112535920362802e+02 1.035568387194607993e+02 -1.027570207572271670e+02 7.524878097420734946e+01 -6.653186802313321380e+01 -3.151161554139426002e+01 1.669673047560210932e+01 -3.240201521398230255e+01 -9.419419964247400401e+01 -2.787709896648029151e+00 1.483698759780626553e+01 1.092776074109700346e+02 -1.290419361406777057e+02 4.211255620277120215e+01 6.401960380343852819e+01 3.465823955865376149e+01 -9.095027081616676412e+01 -1.490509011851466994e+02 1.938319453124976803e+02 -1.786561149236227664e+01 2.526803805891094967e+01 1.570361551373101179e+02 2.674083844618686356e+01 2.781159540879420433e+01 -4.465935417907746796e+01 8.882610170380634429e+01 -1.366621770561156097e+02 -3.087071820088720386e+01 -6.150263753364911601e+00 -5.351165915977219356e+01 6.272884956670056411e+00 2.131293448357934750e+01 -3.585423332002242347e+01 1.369027075481661271e+01 2.140770961464406810e+02 -2.744121803174324370e+01 -2.803507346098357544e+01 -1.018078288868517234e+02 -1.644697343750616270e+00 -8.085363729131256605e+01 6.394390826628741031e+00 1.122198943071838357e+02 -5.208559201653596915e+01 6.051477586331484915e+00 -5.437186246851445759e+01 3.324283374062614094e+00 8.728858042643567217e+01 -1.159648499065725815e+02 -9.692050609612046230e+01 -1.026681733763309836e+02 7.142854267906768939e+01 8.663292820765929036e+01 -9.233356390509311495e+01 6.268074440861867203e+01 2.584964386582485929e+01 3.871767552175690952e+01 -1.776104408836221182e+01 9.141749458130465200e+01 7.976589863289729010e+01 -7.731379137551692793e+01 1.182573445837357973e+01 8.093432642735128013e+01 7.289408446238189754e+01 -1.991101279751905651e+01 2.498564285115375583e+01 -1.326689996705646024e+02 4.855698397978040504e+01 -3.279415364288533397e+01 -3.268863406556341999e+01 1.732753842917794884e+02 4.745063766876110378e+01 1.202661998032246373e+02 1.910587343221099275e+02 -1.377505766093892419e+02 1.491571509110563056e+02 -6.345730509536591768e+01 -1.352049440022415752e+02 8.235588330355875541e+01 -1.341243839609178110e+02 -2.872415341214828644e+01 5.643271305872890053e+01 8.065927670894028623e+00 -1.682269294272802256e+02 8.429060157523706209e+01 2.524084352262805453e+01 6.912221050457814897e+01 3.631051437715764507e+01 9.473997239622343969e+00 -6.714512342610623818e+01 1.157690567228837182e+02 5.451401303686314748e+01 -6.214641251747715955e+01 -1.012847386864267207e+02 3.894214316056289249e+01 2.571521057715985847e+01 8.243070386245372561e+01 1.838475079924701276e+02 -2.463464181756424765e+01 -1.101977326582545516e+02 -8.473630635330549410e+01 -5.133775392478491284e+01 -4.436555822574550234e+01 -1.467782728242084431e+02 -2.252341392491451799e+01 1.295555103878611192e+02 7.455993599349191925e+01 -1.224090722228806527e+02 -1.499377619654952696e+02 -6.811307634230657015e+01 -7.635909438045786146e+01 1.468327270086291492e+02 -1.705118407892828714e+02 8.657814724000417073e+01 -4.608552557155445761e+00 -4.304271308653294170e+01 1.329855868911433525e+01 9.117905516866413507e+01 4.958375999623035568e+01 1.382362825165050424e+02 -1.591702995991876435e+02 -8.098697178558143150e+01 2.536400968534110945e+01 4.193908366154133205e+01 2.061652717081944957e+02 1.454835547379891807e+02 6.554889249226475556e+01 7.211559968946642130e+01 -3.412986217357738639e+01 1.518331252045622080e+02 -1.793766580768849792e+02 -6.342139185647425137e+01 -5.368950864270188106e+01 -5.179886817112756603e+01 -1.032803078379581905e+02 -1.499242421059462949e+01 -6.864204850553475978e+01 7.117640507939981376e+01 -9.151998608593626017e+00 -5.808068241759296768e+01 -6.226357390954753868e+01 1.801962079343552432e+02 5.902130010213618050e+01 -1.372204490529663623e+01 2.088853757568241178e+02 -1.083412498206571826e+02 -3.533035049047801834e+01 6.695912804755582215e+01 -1.338377499532137915e-01 1.495895361212647146e+01 -1.250854120989365299e+02 1.761694455317287407e+02 -4.896192291093190363e+01 -2.691569800814216507e+01 -1.096689919007462350e+02 1.257995077215013850e+02 9.582007389890843285e+01 -7.747314503801703722e+01 -3.757634685727431645e+01 3.892734873992749556e+01 -1.512784026757701668e+02 -1.715702521285326076e-01 -7.463878400451982031e+01 7.686817039578150990e+00 -1.080008766757589882e+02 -1.583666817623552561e+02 -7.060363134295953103e+01 1.479981667885104457e+02 5.649224828970159251e+01 -8.950626660014343372e+01 8.904181809905463751e+01 3.417253811325603152e+01 8.818711553148787630e+01 -4.204667247048119094e+01 -8.393467985332954129e+01 1.707130774425172319e+02 4.156553590230696216e+01 2.889146757058826864e+01 -7.284319653622219448e+01 -4.221901454119831953e+01 9.513640751715685795e+00 -7.150176685759187301e+00 -1.724164603901474777e+02 -3.452641412087748307e+01 6.424595596977096079e+01 1.113001974013785826e+02 1.552925418803486934e+02 -1.324013273387498835e+01 8.935500711856863632e+01 1.572424949952650479e+02 6.321273839064195244e+01 1.472400854691874486e+02 1.600924288976354504e+01 1.308329104991748011e+02 -8.362740496702281234e+01 5.314074772901420118e+01 2.920200317201464912e+01 7.553549072851181734e+01 -1.057336005110975208e+02 1.971181022482371645e+02 -1.281150002407290458e+02 8.786605244951942950e+01 -1.068446644911422112e+02 4.590632570616033092e+01 1.372721204234366255e+01 9.018147817770770303e+01 -7.322758833204311202e+01 -7.505411202346267885e+01 -1.108103172457193430e+01 8.852488427332997389e+01 -2.939588995055534326e+01 -1.619473935916002816e+01 -1.949759621396617959e+01 4.703138356448295809e+00 9.741695651288222280e+01 -6.208054153658899565e+01 -2.688295806276772115e+00 -1.921404785317319579e+02 1.208146121057741595e+02 -1.236196899832919769e+02 -7.312836799885496930e+01 -2.329463583489458145e+01 -1.068445541598219961e+02 -5.261349449190039707e+01 -5.798176335576540907e+01 -1.948081845251202537e+01 1.348503683752907136e+02 5.350490068252689468e+01 9.938902678426197213e+01 -1.346932857144657874e+02 -1.371450103264918994e+02 -2.836540767126047058e+02 1.011153608390300604e+02 1.031727195202738017e+02 4.186507422218778629e+01 -4.201046959790488700e+01 -3.680786999150540595e+01 -1.817657881888425493e+02 1.446061974620834292e+02 -1.063093041949937998e+02 1.058625707872645307e+02 -1.575722969212853570e+02 -1.416817340480290532e+01 -5.480983846761782985e+01 -1.180384927881407719e+02 -4.563123708992578997e+01 -1.239137366297334530e+01 -9.172639896702621343e+01 -1.024312447359904894e+02 -1.223302640757360571e+01 7.047340653875340877e+01 -1.233644385596327311e+02 -1.550049443667169591e+01 -7.301248736667938033e+01 -1.300968345893437004e+02 6.565348384407138305e+00 9.418960793031450862e+01 1.638904673637390488e+02 -1.887680253110484685e+01 -4.560153172421021139e+01 -1.229542859427153303e+02 -1.620307227727539612e+02 1.027948486808944040e+02 -7.204945180254721038e+01 7.825593382211644666e+01 9.312494439966149784e+00 2.895788609881601516e+01 7.316054442543723724e+01 -8.396674001165084178e+01 8.191919108659685378e+01 1.142287793290317381e+02 1.560427251460343143e+02 -1.155010341247682106e+02 1.030185979674542978e+02 -4.734868597484631891e+01 -8.998886114619047305e+01 2.126749358923600823e+02 4.879452259957838578e+01 8.272857928252030035e+01 2.105920720493730158e+01 -6.267411026794479056e+01 -3.462655999797090800e+01 -2.085205068925227181e+02 1.047015704693512106e+02 8.077475469075899639e+01 -7.502972841800337278e+01 -7.248640474753065632e+01 1.439095446463153394e+02 1.001728632580755942e+02 5.066596074446539433e+01 7.540252435996569602e+01 -7.802769502954417291e+00 1.022829363333131738e+02 -1.026476521455026045e+02 1.847338201819702874e+02 -3.913498233802586412e+01 -1.209244573542127767e+02 -3.735632331950866813e+01 7.111148766191018922e+01 1.460397616807778149e+02 1.277198735286549791e+01 1.722941052328624210e+02 5.173632637468106310e+01 3.333061970505082172e+01 -1.103340986922408007e+02 4.440266499900778996e+01 -1.239140967299337461e+02 4.728663121001832081e+01 3.826915355573113686e+01 -1.222781348826035526e+02 -8.429125493370058564e+01 3.949805751734239578e+01 8.649016690314244471e+00 -2.301804687107982161e+01 4.150321550178619390e+01 -2.121316980365499205e+01 -6.253740752864679564e+01 -2.596327403454972327e+01 -2.224048775698748415e+01 -3.947479661499934878e+01 1.860657704252810873e+01 -7.980661909752100769e+01 1.179025897330410544e+02 -7.364876042611238915e+01 -4.207360072436455489e+00 6.499823555441611234e+01 3.852253473494773317e+00 1.581502662667725012e+01 1.582407051101739981e+01 -1.160947236712174231e+02 -4.373880721380874803e+00 6.447598896122153178e+01 -2.293923368949249095e+02 -8.412240124950200482e+01 -1.117127876173341150e+02 4.340770851348919734e+01 9.536632498128459190e+01 -9.094457581550840075e+01 -1.663965290914137540e+02 -1.835212568057924329e+02 1.978575648449636049e+01 -1.436250151061700535e+02 -6.265975072523278122e+00 1.462153042536059218e+02 -7.022631896634889515e+00 3.676882601454037314e+01 -9.787254816854760975e+01 7.897785469159394722e+01 -1.171983273209680760e+02 -1.524122942349993970e+01 -2.993293031520964576e+01 5.687687023262889596e+01 -8.748249196472823286e+00 1.043241704282727085e+02 -1.204743921171184553e+02 -4.941534142773976157e+01 8.542956726604130324e+01 6.523363826417079281e+01 -8.117540966732339314e+01 -5.362872834799858879e+01 -4.865274439629172321e+01 -2.851012722982703735e+02 1.906210229343231219e+02 7.492847577245731827e+01 -2.321985707688166300e+01 -2.920295749850547296e+01 4.087135382535218042e+01 -8.277602874010057121e+01 9.789795885519697549e+01 5.947096812744803884e+01 8.059671390678533953e+01 -8.267329624407943811e+01 -2.607980098646751443e+01 3.275858122066521361e+01 1.708049360356692858e+01 -4.208717608352522177e+01 1.551678925406762062e+02 -1.698208145824636972e+01 3.477239890711365433e+01 -2.257434598404858832e+02 -8.315361676833026650e+01 -7.183320659253007534e+01 2.260632027281257095e+01 1.071997901718651178e+02 -2.274983975464059540e+02 -1.836258932624020304e+02 2.175975504351184497e+02 -1.037363448763415086e+01 9.429672732653909861e+01 6.152938165967837136e+01 -5.433864193056305680e+01 -1.285956359439548464e+02 -9.341336480364412864e+01 -4.933206894979034018e+01 -3.673633034508770834e+01 -3.843904509795003577e+01 1.585501417313496830e+01 3.649493153964412073e+01 1.637741839899963452e+02 1.209607590826799850e+02 6.834788173160213809e+00 -4.317074707428746549e+00 -1.558493176124713102e+02 1.174505281111791390e+02 1.563796508486101686e+02 -1.015375126923291731e+02 7.237030195744408445e+01 1.700277109197721792e+00 5.390669830121697714e+01 1.231003318111134064e+02 6.963866470520234486e+01 -1.315783565147052343e+02 1.583566572082194135e+01 -2.884898486249181460e+01 1.093959852383918374e+01 -2.271117595022037250e+01 4.452152925497389191e+01 -2.558931646635464290e+02 1.779386746748300254e+02 7.157445557327165808e+00 1.566009097439971640e+02 -1.035509892368010298e+01 1.043234294931636015e+02 7.039437506568232550e+01 -4.126910951949442818e+01 2.941599445062356821e+01 -7.158753394347579047e+01 -8.750222541606002835e+01 -7.086881049574985525e+01 -3.152782593551498636e+01 4.443875229516182657e+01 1.083845805693488842e+02 2.802383885365704330e+01 6.114571540989024356e+01 -1.031681241321209086e+02 -1.349836289773226952e+02 -1.327320195505183698e+01 4.567064774613965028e+01 -4.477399360005646400e+01 9.311645750013640566e+01 5.468524862284086652e+01 -2.722478639822901059e+01 2.949349295428442019e+01 6.045726678146727551e+01 -7.102212087499657400e+01 -1.317238494582946373e+02 1.399617036698504080e+02 7.698635967956684034e+00 4.940955220823479976e+01 -1.471514041634544299e+02 -5.264675828799094148e+01 -4.424549592804877252e-01 -6.484837822487516235e+01 4.207037277535866870e+00 5.552114975254151119e+01 1.839202799893355120e+02 3.860494876872053993e+01 -1.081533865402057160e+01 7.128013517539379507e+01 -4.488464541826382259e+01 -1.075757214958643004e+02 -1.364311554007932159e+02 9.250212976340131732e+00 2.479995405767923344e+01 2.352270005695494959e+01 -5.618999476747931254e+01 1.193724271334721152e+02 -7.987359449406072542e+01 1.268223161118784503e+02 8.628426453844126343e+01 -6.429696354819972726e+01 -8.377056802121649071e+01 8.326454080053832740e+01 2.022317936672272509e+01 -5.193405876283133438e+01 -5.326129071118668890e+01 1.352605605490290657e+02 5.671678186850913761e+01 7.907351821789113444e+01 2.587833562649814567e+01 -4.163749256612642569e+01 1.063652315522193561e+02 -5.402921404527614868e+01 5.474046124419679193e-01 7.581751062005041319e+01 9.864585679457675838e+01 2.531131779400371045e+02 -1.735644151758272073e+02 1.594741294130024869e+02 -6.696892293805325380e+01 -1.509525275337193762e+01 -2.487406261894799187e+01 -2.055578751513738922e+01 -5.468539193267204723e+01 9.221260393823908430e+01 1.826028091179952924e+02 -1.178799807975054392e+02 3.070301575717479992e+01 -1.259973812276866312e+02 6.971011430180790569e+01 -4.418857112041191471e+01 -8.049651482145213777e+01 -5.357295084345628311e+01 4.095141102281464640e+01 1.927245022549799103e+01 -8.135088010931440294e+01 -1.403580421375216361e+02 2.067072625196065516e+01 1.569223223007853676e+02 1.422755933937383155e+01 1.817721713468150995e+02 7.433305771195530376e+00 1.341635246686927303e+02 -3.448322342210212810e+01 9.046702439818088237e+01 -7.124706130590372766e+01 -1.126275896378983106e+02 4.932472483415150322e+01 -5.789325222334643684e+01 -7.838930067346797159e+01 7.276986659727889162e+01 6.449558073352048559e+00 -9.418428445816181238e+01 -1.504414562190567608e+02 1.478308856667742361e+02 -8.914746927624229045e+01 -2.355589911222979005e+00 1.201076446896940695e+02 5.804554670883791090e+01 -9.826705219220058041e+01 1.064503819263072693e+01 2.823308395842531127e+02 5.337827226368575140e+01 -1.579610723349239265e+02 -4.780099447226493226e+01 -6.162799247998495389e+01 9.644559575748274938e+00 1.078055617611755252e+02 -1.037363604540296649e+02 2.163285564594292865e+01 1.308475519033645185e+02 1.883013814643964068e+01 -2.119090312764676867e+02 4.847344345873499805e+01 7.572874502006975206e+01 -1.362914681171131903e+01 3.290527657194363087e+01 1.538955138952247115e-01 2.260383335680664629e+01 2.783216643362357701e+01 1.162352478223743475e+02 9.838027864527424526e+01 1.563945513393740860e+01 1.495583587125933036e+02 -6.425226534942314061e+01 2.475495587825422774e+02 6.527329989931087084e+01 1.422404069392651422e+02 -2.205238722792980965e+01 9.041406030268966276e+01 -4.917886176665373199e+01 -1.469475590300803560e+02 2.628119527503488939e+01 9.541407926078765911e+01 -8.794247643713512730e+01 -1.051635071437408158e+02 -6.680908258526689281e+01 3.675313179505253203e+01 -1.146826566610195073e+02 7.502421711721794395e+01 2.817504246784159605e+01 -9.801874107843575246e+01 1.907247431435340843e+02 -1.181167955154405647e+01 -1.021877326592984474e+02 -1.345178914727801356e+01 -2.052190110102813136e+01 -1.408217061151603104e+02 -4.019920773703390893e+01 6.176975410579353820e+01 1.323471088097464587e+02 2.915416718340870261e+01 2.687078362553875976e+01 4.498138394551529728e+01 -3.589277268822861089e+01 -1.462323098348218195e+02 1.593894382931562959e+01 3.111093893558304657e+01 1.336853884234967040e+02 -9.960297375981200574e+00 -7.646781050599400942e+01 7.352604817078332644e+01 9.921591363593463830e-01 3.202091358318408254e+01 1.398704340110807323e+02 -1.783010046320434014e+02 -9.326809741726555103e+01 1.252878432789405139e+02 -2.105678279651565390e+02 -1.795011396949362847e+02 8.882556487337400597e+01 1.503046662413650552e+02 6.188011236326118336e+01 -4.354331400233553140e+00 1.520202388540684240e+02 -2.142461799836684975e+02 1.045878898196750129e+02 4.136354699306666305e+01 1.240303999988003767e+02 -1.840716394079025804e+02 1.039829633247977512e+02 -2.758129224317130479e+01 -1.304911973888384580e+02 -5.196800439050246467e+00 -9.018445024366349116e+01 -1.588199665881769995e+01 -4.209183623144485686e+00 -1.202403023542870386e+02 -1.203627887535208174e+02 -6.107154197861554934e+01 -1.258273062282844421e+02 1.961719134769815298e+02 -1.572061171295868576e+02 -4.897128694635682677e+01 1.684037336924245665e+02 3.311505073138317101e+01 -2.888945213016875755e+02 -1.240584200788653391e+02 3.466226142476845240e+01 5.334367293177970026e+01 8.369473198381172097e+00 -1.509069134867956166e+02 3.483117506371502969e+01 7.305194010363194046e+00 -7.254681984469578993e+01 1.978621467638750175e+02 1.977286685660806711e+02 4.234648172720931747e+00 -2.035385436144962625e+02 1.229646200788560151e+02 3.002417935003064642e+01 3.689253085409659683e+00 7.477223796807213319e+01 -2.025015907351269675e+02 -1.347185072953217286e+02 1.376489737982751080e+02 1.070176452347300966e+02 5.164975158620372753e+01 1.397707912620346349e+02 -1.739867998525164126e+02 -1.995738490655764252e+01 -1.272894451191661602e+02 4.257608261576713460e+01 -1.013764631022766167e+02 8.496863126042133274e+01 -3.308353603720801317e+01 1.208648899518155773e+01 1.731756933837780252e+02 2.783432633161352499e+01 -2.572436762739489495e+02 -1.233394121448872767e+02 -8.134788301031295532e+01 1.543113150323316347e+02 1.223621978852467151e+01 -5.255557004684629163e+01 2.962660381935092602e+01 6.100289296939642725e+01 -3.861651057589985925e+01 1.049312656745702128e+02 -9.832177047482271348e+01 4.803135962946206661e+01 1.092419881826699140e+02 -3.462733947541181578e+01 -9.576816406746740995e+01 -1.107119327843043664e+02 1.168840535115090091e+02 -4.847757324930079648e+01 1.918306148812657170e+02 5.583106841116558883e+01 1.082859151979949957e+02 1.800253287894009588e+02 8.353311370481270259e+00 -1.213073878468958071e+02 -1.617665425200397920e+02 -1.114364233130542061e+02 4.146905720982582011e+01
-1.297209591872743673e+01 -4.603706758528418597e+00 9.871933036206866063e+01 -2.183375115718070560e+02 1.481621126819986500e+02 6.054112779388893983e+01 1.450369008571814788e+02 -1.231292854877151370e+02 -2.645328296394090728e+00 -2.294380167322803032e+01 -2.092337402241345501e+02 3.119376159168816187e+01 -1.746561790904988953e+01 1.165887945513078421e+02 -1.192385143586843839e+02 5.882756621577991751e+01 1.194334902074412383e+02 -4.380173213238460761e+01 -4.730358030303569450e+01 -2.575215695553669804e+01 5.883136520735616415e+01 6.013904068162077010e+01 3.090974454204592092e+01 -2.216383616128370022e+02 -4.917745712482058451e+01 8.724277876307461099e+01 9.445071093965008657e+00 -9.881225070944211097e+00 -6.341324929599867488e+01 -1.475554991286738016e+01 6.990403138073941136e+01 -1.385942975147279128e+02 -5.903133327109785711e+01 8.560582697275336272e+00 1.978246084079796674e+02 2.021151429746325903e+02 -3.060490798983371619e+01 5.326621221752483137e+01 -2.547039554199485023e-01 -1.331055578263729160e+02 9.147560990157222705e+01 1.022011335319347154e+02 1.034257823569765264e+02 1.113547480274463020e+01 5.898491824546498208e+01 4.586368254793056565e+01 3.705692276059028956e+01 2.796911979226424094e+01 1.051083489936181081e+02 8.550295077852841530e+01 6.251086500676071012e+01 1.553392344973280217e+02 2.361227800435962365e+02 1.864020111773386930e+02 -5.635954736508112717e+01 4.695465928734555661e+01 -6.125990839832012824e+01 5.375366767680637992e+01 -1.831573627005735716e+02 5.384791660895538001e+01 -1.951480540050411889e+02 -1.607973731039465690e+02 1.234072423825755216e+01 -8.819077532320115154e+00 1.615726684056368470e+02 -1.982027689608564742e+02 7.174657075589986732e+01 2.190547328400939193e+02 -7.019044291905661481e+00 -1.856350427742472675e+02 3.388905430643654881e+01 1.879598830074466775e+02 -5.824533549609602545e+01 -2.540550269021959195e+02 -9.776694508258367478e+01 8.461932180376759760e+00 -2.193391808920222843e+02 3.056377522658045720e+01 -1.710914561410091039e+02 -1.769349963299384854e+02 -5.449146997770526468e+01 1.453802755588678792e+02 6.625770642759160012e+01 1.012152290267941446e+01 -8.456019240855505359e+01 -4.063865073650439541e+01 6.080878990641128468e+01 -2.214612016235522276e+02 5.162181507366312161e+01 -7.153856733353352126e+01 -7.455439088115399215e+01 -1.687249624827504419e+02 6.208801307584320739e+01 8.849912979144994551e+01 -1.549318046599005640e+02 1.649277813867445843e+02 -3.807604010090300761e+01 -1.615149860977031793e+01 8.364173265713212402e+01 1.492533000040439219e+02 2.073805137533792120e+01 1.446114652880794722e+02 -1.765558192145104854e+01 -8.661564427416112721e+01 -1.872786753128110959e+01 9.652200089882137490e+01 4.415881935991074414e+01 9.605989464611702999e+01 9.268564970654894353e+01 -8.157700257761611340e+01 -1.668513980755512591e+02 1.208370280509265768e+02 5.327225893261360312e+01 1.591327298098116394e+01 3.002681515972054527e+01 -6.670949853086550263e+01 9.431729548962063348e+01 8.825170435183355266e+01 -1.346034193133129087e+01 -6.998688423088732691e+01 3.018678112028043969e+01 6.169602807325365923e+00 -6.042363335110771771e+01 1.665911809915487822e+02 -3.230727215178234246e+01 1.194860984246094517e+02 -6.888583585477219629e+01 3.772401910103106815e+01 -3.546759672246867012e+01 8.794109561838237710e+01 2.307662657816837282e+01 1.136131918597424715e+02 -1.140487938385812896e+02 7.309143266754080059e+01 1.214013028995587291e+02 -4.395422931266590894e+01 7.494769432989436098e+00 -1.251799114415810799e+01 1.148679007374058045e+02 3.545265249563857690e+00 1.658809797813701152e+02 -1.391105334824902400e+02 1.147721807863955519e+02 -8.983408585460882989e+01 9.425000017824415011e+01 -1.348742069437691953e+02 2.904695758327438782e+01 2.435938844421604443e+01 1.768389868880255955e+00 3.574709030586947733e+01 4.524547281260965548e+01 -1.221096237243102500e+01 1.068729668363743102e+01 1.064354069240842477e+02 1.253100800010464155e+02 -8.537918747630976668e+01 -5.337506364596646335e+01 4.663248787669278528e+01 1.504568724399319990e+00 -1.349329643479757124e+02 -5.430168953290426259e+01 -3.491104407286044875e+01 4.818902914286146455e+01 -6.458562839779524722e+01 2.258891587657089062e+01 1.580808534326040729e+02 -7.833383763918075715e+01 7.968293096002358311e+01 8.290706111286367275e+01 1.110025757699951399e+01 1.217611018396867877e+02 6.203839679379317573e+01 1.658113687697288299e+02 -3.413213194649936355e+01 1.109937023928058721e+02 5.484278092768381185e+01 -1.586563156266774222e+01 2.015871976851398983e+02 -1.370903693178842957e+02 4.829738539114000417e+01 -1.853468148745756139e+02 -8.318987701857490435e+01 4.056235152069153571e+01 -7.139065395589724972e+01 -1.540747502812059508e+02 1.971251484049272733e+02 -8.484310770521940981e+01 -4.697982254011503045e+01 -4.578232966638037027e+01 1.204535130549842137e+02 1.927179859087107729e+02 6.407166343764987460e+01 1.447225858941527576e+02 2.171877696828285877e+02 -1.593921936747563883e+00 1.612139060009995433e+02 7.015887439752359001e+01 1.884445750115857265e+02 -1.245069443369029472e+02 -1.173000722108191596e+01 6.283327367219173176e+00 1.880057502880490858e+02 -8.994768866276614006e+01 -5.988188822566232261e+01 -5.240194043209934449e+01 -1.326297448690372960e+02 4.620719638954158270e+00 -9.990429552038918359e+01 1.525741288353208063e+02 2.331691833250402013e+01 1.187703910967935172e+01 7.157139812828226866e+01 -4.873367734456035549e+00 1.157901475333578674e+02 -1.572504672218683481e+02 4.495580216144289665e+01 -1.690841021745305000e+02 1.162323072241385233e+02 9.509042214715458385e+01 -6.661522601199746418e+01 4.630956695771625675e+01 2.357237046310607980e+02 -3.015671006268334153e+01 4.123196889405536325e+01 -3.234527332673710731e+01 5.735292660544510568e+01 6.362058826133394263e+01 -6.215369107274074878e+00 1.008694244810647405e+02 1.004441218757211516e+02 -1.918852421481010140e+02 -1.516663250094175055e+02 -1.185981312325150299e+02 -9.342008281327251140e+00 -1.482322784843520083e+02 1.143553458924822195e+02 1.091980960557428091e+02 5.837871919056605208e+01 1.104725360154254155e+01 1.560387995707943674e+02 8.308489643572521288e+01 6.679878158024521895e+01 -1.005513522676953926e+02 1.507884720328137291e+02 -3.553959764798385823e+00 1.081912584418408017e+02 8.725976331516278606e+00 3.635393186558847844e+01 -7.488673125267916930e+01 -8.977146369214155186e+01 7.081414274117965135e+01 -3.809131509183444120e+00 1.446286297266354666e+02 -1.242719126573772748e+01 -2.818422829854092537e+00 4.534694457836526738e+01 2.238088709282375532e+01 1.398272586034012193e+02 1.450000670991086871e+01 3.544015270513455818e+01 -1.529159759858611665e+02 6.506876886112615921e+01 1.320853327318357913e+02 -1.741945815062333480e+01 -2.252595602465854085e+02 8.336802846484101792e+01 1.343840839183528999e+02 2.007341834419910143e+01 1.863681981449721832e+02 -4.155004350720119533e+00 4.225399378576710774e+01 -4.294982392793541237e+01 -1.364894904015044119e+02 5.512443809552723195e+01 -4.671175319212165533e+01 -7.969804983195483317e+01 4.053629468626658650e+01 -1.816713911657334961e+02 7.046262684261095899e+01 1.615830185441658102e+02 -9.946015552294331030e+01 1.699430181018116741e+02 -9.589350110452895137e+01 -5.865852508627555473e+00 -1.034286165746911834e+01 7.522912280421375897e+01 -4.574231235684352725e+01 -1.057829344104519720e+02 -8.690106431452488778e+01 1.430071782681181389e+02 5.797140114671559274e+01 -1.292252406962441569e+02 4.342003702490836226e+00 4.256528503808308983e+01 8.091686300434562895e+01 -3.952271551180014342e+01 5.875745427650051056e+01 -6.757335408358710538e+01 -1.590291691482707108e+02 -3.392054067989172239e+01 1.380672751366021487e+02 -1.110457647961259795e+02 -6.268675452143958715e+00 -1.594885679244988808e+02 -4.713227390097611824e+00 -1.428133706127032667e+02 3.222755955199841793e+01 5.891448207121501923e+01 -4.925497561722148987e+01 -8.061528685211489176e+01 5.515746137279726291e+00 7.278932854573159261e+01 -6.629737446276809010e+01 1.317450113811204346e+02 1.032199161643028162e+02 -1.248208804652984156e+02 -1.031138073633583190e+02 1.320579363333633580e+02 6.971650330783498362e+01 1.467985055901357612e+02 9.781837307842666007e+01 7.928847807006336268e+01 -5.887792465306139178e+01 -7.985450805937814778e+01 -7.525312613319182731e+01 1.996670724892321402e+02 2.984547170822967388e+01 -2.431328066882162275e+01 -6.685874445190782467e+01 -4.875443061362661012e+01 -1.280123409828093770e+02 -1.607418651836480450e+01 -1.705530601571340696e+02 1.215336071688744823e+02 4.470765192101145402e+01 -1.119962311468572551e+02 -4.703923165761051450e+01 1.163797899583234425e+02 -9.421950190653326729e+01 9.994028529544425510e+01 -1.151333255514558545e+02 -1.144144677753331329e+01 -9.281117218005928748e+01 8.719762922393400117e+01 -4.127598120589252773e+01 1.000046229119066865e+01 2.851114196535297296e+01 -1.230521090348573097e+02 1.214457666905518529e+01 4.698001415189311558e+01 -2.173495806775953909e+01 -6.678254990628963128e+01 1.967685645308149276e+02 8.398096496156449575e+01 4.576446388366128559e+01 -3.051284507117670231e+01 7.791535634121250098e+01 1.627875172336460707e+02 -8.959980362735115023e+01 2.034397700441997472e+02 -1.292703653947596933e+02 -1.786144779447114956e+02 1.474338459320809704e+02 -2.272131640765089742e+02 -9.385128399103970231e-01 -2.378556268934827358e+02 -1.484818535553518473e+02 6.969300954749958521e+01 -1.414066828398950406e+02 5.668659236933402923e+01 1.067536628290170881e+02 -1.557121501641470616e+02 -2.923949979238645014e+01 7.323089063251121900e+01 1.300445262353972566e+02 -1.807257751170949689e+02 8.495274689731631668e+01 -9.512893421292997687e+01 -9.574506104970016196e+00 -1.346526461407464836e+01 -7.726840498935639800e+01 -8.768445205063076742e+01 1.761213505718161514e+02 -2.107024498276389579e+01 1.304924904553613763e+00 1.264845398283559490e+02 -8.422672692260657357e+01 -3.344335219227402689e+01 -1.046141172562023627e+02 -4.744853374816940317e+01 5.015617062973217521e+00 5.770632665135075001e+01 -1.313731234909214720e+02 2.307902710247042819e+02 -5.246206114665550757e+01 1.194294693849248858e+02 -4.755934940418266166e+01 1.167012327591267393e+02 1.355871695296031021e+02 4.675296542511063080e+01 1.190101727476942557e+02 -4.214360023750580808e+01 1.364790716140471432e+02 -1.525944291822469836e+02 -6.378077972045116439e+01 -6.142167034304205941e+01 2.493148457995394196e+01 -1.583232457745206716e+02 7.077190772623512771e+01 -3.008820819880024189e+01 -8.062802871634892199e+01 8.741124197273506979e+01 -1.474322642274435964e+02 -8.900895807524285885e+01 -5.135647174713793817e+01 3.227405520447788945e+01 1.266643625633565762e+02 1.140129171453421151e+02 6.743158913878058058e+01 -1.540103004411889298e+00 1.706510632698980032e+02 1.195555038862862034e+02 -9.217494620127500582e+01 -7.623299920015834630e+01 5.391043670731586701e+01 9.719039198251026690e+00 9.559825252132182527e+01 1.626646248531401113e+02 6.887594350680507205e+01 2.382949394860997216e+01 -9.972008541964056860e+01 1.675929578874634842e+02 -1.108906017416409355e+02 -1.612205051588711342e+02 6.410936699907767888e+01 1.087461323644412801e+02 1.915791560443242503e+01 -1.354045239928187812e+02 2.898070612077561137e+01 4.135668279945437575e+01 -3.369477958960651054e-01 1.276447915095952084e+02 9.524189845759106277e+01 1.667834808221283893e+01 7.636005809460633031e+01 -1.042573454427398616e+02 -6.183338239672991676e+00 9.583088030941397051e+01 2.893113497334656969e+01 -6.336335888288898843e+01 1.929591907754495139e+02 2.251533979747672731e+02 -1.222433724997627849e+02 -2.690635684382609938e+01 -2.047150032641737880e+02 -7.029832821907903906e+01 1.524861650807163187e+02 3.292137053115010481e+00 -6.912307165730830150e+01 1.594633852063420818e+02 -6.084659166475071856e+01 -1.563598996320029926e+02 1.329368693959747532e+02 -6.541196556713548205e+01 3.357656683852296453e+01 8.403568084244869851e+01 1.341901445643532576e+01 -2.318554441334925400e+02 4.117512366982483485e+01 -5.993093167148065170e+00 8.768006061407992036e+01 -2.293007803717025794e+01 9.839574502284864366e+01 1.652832510611214545e+01 -8.242498622459136470e+01 -1.992889339971319984e+01 -1.704966100047059001e+02 1.118715313275457817e+02 2.459428695230215567e+01 -4.049260091193078637e+01 -5.040002990966723218e+01 -6.119734928802871110e+01 4.000431618420418545e+01 1.563363017889681146e+02 1.290968043614452085e+02 4.188422549970243125e+01 -1.924940709140045385e+02 -3.774144529057564768e+01 4.262971778991698102e+01 1.141429839175434040e+02 8.483363936767779023e+01 1.502354329821468149e+01 -1.809719399853490529e+02 1.281089211538631503e+02 -2.176697866490543447e+02 -2.002184542800223710e+02 -1.784965731739898587e+00 -7.176620849252930157e+01 -2.345344153073717308e+01 8.475493025017617299e+01 5.440002135784534687e+01 -1.081733053465250549e+02 -1.473460017513836249e+02 1.418928326924008942e+01 1.203278253220891401e+02 2.011967558494271202e+01 -5.516816618609077238e+01 -5.023783306445728414e+01 -1.141344195476765755e+01 1.569893886273491717e+02 2.176014398720673171e+01 -1.720219521751014895e+02 1.270867014735319458e+02 -6.617871297053656576e+01 -4.134324798326840522e+00 1.525137197708947951e+02 -5.178697585853752372e+01 -1.940148768493736142e+01 -1.087961146238346117e+02 -5.945750515164274219e+00 -2.362199195022786213e+01 1.304245362160876311e+02 1.189226025839622451e+02 6.693255912171640887e+01 6.480859339504736738e+01 -1.852938062703178090e+01 1.338886793646552746e+02 -1.116799483480082529e+02 -4.216623175489983666e+00 -9.017760248773106468e+01 1.555971747198739479e+02 7.223508013934807082e+01 5.118105975366258065e+01 8.182110260841758631e+00 -5.278179417386301964e+01 3.405032678087744102e+01 6.669960519367552187e+00 3.599853699795504181e+00 2.387311498707769530e+01 5.919603746126983879e+01 1.686045163578852453e+02 -3.847160617112466241e+01 -5.147369025139845178e+01 6.613930736519598952e+01 1.145400230993994199e+02 -1.268807908438718712e+01 9.104502777972861338e+01 1.030537698985288415e+02 2.087128882409814992e+02 -8.569300851572337763e+01 -1.214730180530133055e+02 -2.836032084410396337e+01 6.154248072815872206e+01 -1.004739619863382316e+01 1.063461494706849777e+02 3.687206270315541445e+01 -1.609962573790575675e+02 4.460315649645708902e+01 -8.855422133077185265e+01 -1.339194426148565071e+02 1.331270874231570644e+02 -7.525698197690174140e+01 5.855329360113579895e+01 1.100191619819927098e+02 -9.796664262712451432e+01 2.324266803602834486e+01 -7.137319695424103827e+01 3.984377142755784718e+01 -1.133793315313901076e+02 6.091632965912754116e+01 5.407644300483227795e+01 3.849193100463232042e+00 8.310848753463125149e+01 -1.511855893042197181e+02 7.550886376526185018e+01 -2.895539592316862354e+01 -1.658304842777893668e+02 9.275663695150089438e+01 2.408632851575748290e+01 -1.925222179707300256e+02 2.309346181683325199e+02 -5.256153038997435356e-01 1.032272188161133357e+02 -1.183737271061854415e+02 -1.906185481098949310e+02 -9.159726289009564937e+01 2.444617896958815706e+00 1.402495489641783024e+02 3.910027329747503000e+00 -9.381143528470050796e+01 4.944775353058812328e+01 1.345167142990371474e+02 6.377581503455569134e+01 -5.077798524500638422e+01 -5.805353534834515017e+01 8.294698265347271615e+01 3.016604068966761787e+01 -1.919631952755343889e+02 -2.034942491515042207e+01 1.659120162585138303e+02 9.698892993003853746e+01 -5.627426471213782122e+01 -1.097418681940533531e+02 -4.188817194189750381e+01 -4.719437840399186257e+01 -1.123387108258393141e+02 -1.811780988683655380e+01 -4.481824406699973906e+01 -1.115221839598376334e+02 -1.294740357876700330e+02 -2.644776703775088578e+01 -1.233535830888116891e+02 -1.313458644766328689e+02 -3.762472913165034782e+01 -5.431784341970936225e+01 -1.089692242027514197e+02 1.893061800666909846e+02 1.070414538045899100e+01 -2.860746080014885351e+01 -1.729160524745537586e+01 8.000149834996857123e+01 1.590865323044824642e+01 2.547202933060262353e+01 -2.162375684240415907e+01 -4.704479435938056753e+01 2.126912733500853037e+01 -1.478373416691605087e+02 -1.618878932657657401e+02 -9.193743995287796622e+01 -1.940787326218580517e+02 -9.113412482946324644e+01 8.723725550335626622e+01 6.242620313682415656e+01 -2.649717197845808414e+01 6.179764129627365321e+01 -1.592222904107776174e+02 -4.154410410650340424e+01 -1.181045995660905561e+02 -6.788074649222463108e+01 2.145409888383839814e+02 -2.087644796433087606e+02 2.087424903594372836e+02 2.540328940965801863e+01 -5.741708638368515949e+01 9.378954148653373579e+01 1.261841256199513026e+02 -5.276767766704221430e+01 -2.072002580783839107e+02 -1.516236491431447462e+02 1.040089824431626511e+02 8.517942141727661465e+01 -1.378735239402767832e+02 3.248795794961810657e+01 -4.034917399013784944e+01 -7.871322731812175277e+01 -2.890771290354282286e+01 -5.575092713938037292e+01 -8.789652293801151473e+01 -3.462631251962158530e+01 4.575998849979767691e+00 -3.323955164135274742e+01 -3.898979876042533155e-01 -1.458270229040001276e+01 9.351956907645050876e+01 1.292542888365705664e+02 1.338751790448145940e+01 1.708061968935424701e+01 -6.419613399304869006e+01 -1.993694171245096527e+02 3.442532941607053232e+01 -9.328211370612062581e+01 2.627330960745834432e+01 -8.293226251885991829e+00 1.054856952485136112e+00 7.354574483935476792e+01 1.239540454339163773e+02 -7.167005837904738996e+01 3.864384687732895429e+01 -1.961439542694377849e+02 9.841706740834656131e+00 7.087817513875959818e+00 -1.246359193475929459e+02 -3.429172809843669256e+01 -4.508025432572522817e+01 4.849075323854132868e+00 -1.039833250233036779e+02 2.751268108547121827e+01 -9.930428042638880015e+01 5.704077029850566305e+01 6.901001402943953167e+01 3.751433734303026313e+01 -2.950880112846733283e+01 1.092823245182052148e+02 6.211448972261106860e+01 8.134884036262596396e+01 -6.812676912863805967e+01 2.061826476328249669e+01 1.300247899986796369e+02 -5.945741470609911516e+01 -7.030526094926475622e+00 3.251966994572413938e+01 -1.305368860885626816e+02 9.942631811138518572e+01 9.104534427923759665e+01 -1.028080594281748716e+02 -8.369282071823728586e+01 -5.642969996876096417e+01 -4.632908480554914377e+01 -1.628319184793727175e+02 -1.380946072405800749e+02 -1.345954838656392099e+02 1.073418978377840318e+02 6.073287283085610255e+01 1.620350931499986871e+02 7.313640232520542739e+00 -8.705474459227153261e+01 1.903298097063922967e+01 1.404346733457597374e+01 -6.450696137270526265e+01 7.517815615161632081e+01 1.198480361000226395e+02 1.012882153737134949e+01 1.455364703164286766e+02 2.283784398295919260e+01 1.126003169081456861e+02 1.530791208026363748e+01 -2.108343588233241519e+02 2.215684637547497573e+02 -4.964827496487828995e+01 -1.512563593623066538e+02 -6.815639082106230262e+01 -4.350839093240187339e+01 4.177971133740079779e+01 2.583520475299244623e+01 4.617003990080542764e+01 -7.475906645312632293e+01 1.234332761542341927e+02 -8.698464599653264884e+01 -7.068827266026388223e+00 1.435637601859890822e+02 1.104415376736836691e+02 5.843623944551374905e+01 -1.782625757080737685e+02 2.560298337831477866e+01 1.413021268244171722e+02 2.357470806832226984e+01 9.814219770319124336e+01 1.069893615388453014e+02 -2.124713067555476584e+02 7.727444758683807891e+01 -5.800030638786704884e+01 -2.258013558088894399e+02 8.879436026223858391e+01 2.463499537182601173e+01 -1.218025250850265593e+02 -5.837262711373281832e+01 1.381638329694745266e+02 1.466720988941689541e+02 -7.529529597841229815e+01 -1.267465564341144812e+02 -8.265896985814249831e+01 -1.641471115416933060e+02 1.934747719272535704e+01 3.747723267928651580e+01 -1.674833991867034300e+01 -1.220817252607643688e+01 -8.818814117874465808e+01 -8.695920147906225850e+01 -2.424561826239336071e+01 1.313122853988929251e+02 1.334378344995953398e+02 7.939671871616604903e+01 9.495153654797752552e+01 -7.675762664792871703e+01 -1.762640061686218189e+02 -1.289094811649446903e+01 -2.255841677547052981e+01 -6.918209452082614064e+01 1.453623668814803649e+00 7.115820054025903119e+01 -5.153875346831301130e+01 2.402474573742329866e+01 7.711576089757292607e+01 6.826970147986544646e+01 1.076468248809469799e+02 -1.452742509222878766e+02 3.860218200056360160e+01 8.113392723253126348e+01 9.228030322175527544e+01 5.751632592055319293e+01 -1.005369937698199863e+02 1.333491458332945001e+02 1.241360074296113822e+02 9.333552515025741059e+01 9.887759094473750565e+01 -8.201571810070424817e+01 -1.447806303311427101e+01 -1.259814128100567032e+01 7.503526717443112659e+01 6.327097943557950543e+01 5.452459755697938704e+01 9.502251568784853930e+01 1.134427695943750649e+02 1.206693771153473165e+02 -6.317976923919993482e+01 7.849458453686305859e+01 6.353360235329422778e+01 -1.145839157885810806e+02 1.281659272746905174e+02 -9.770849918769286546e+00 -2.719738063620259183e+01 1.941403102039543569e+02 8.621149088420598616e+01 1.209380673005609310e+02 -1.406772032011183171e+02 -1.538087922533929657e+02 -1.498629645085614754e+02 -1.191186048989790436e+02 -4.318798269531247769e+01 1.070961140999068135e+02 -1.645556275547915845e+02 3.173316090493151265e+01 1.408901442420977332e+02 -5.793791841206966353e+01 -8.919257130863384475e+01 -3.430123960913564929e+01 1.327170425827642646e+02 2.220622342724702492e+02 -6.514626563343155397e+01 1.936913320802289107e+01 -2.706492963998178780e+01 6.695894487749083623e+01 5.890909403396349120e+01 -2.085189648499033410e+02 -8.671926028267971276e+01 1.345805565564912172e+02 1.367633123233150627e+02 9.249505518065384990e+01 -4.875203448301948583e+01 -7.418056568343438073e+01 -4.443087541916609240e+01 -1.728177033097609296e+02 6.965017410250787577e+01 -2.512298334610276740e+01 1.629074141468515791e+02 -2.735374912226766853e+01 -3.080808376716879025e+02 1.418905683851893968e+02 4.923426815734575257e+01 -1.155470036445357209e+02 -2.170919305102972885e+01 3.458991940208059646e+01 -2.034763885883444630e+02 -1.119687998463703451e+02 -1.074142086983963083e+02 -5.528524784628125133e+01 6.154091901377557150e+01 -1.615488619023115859e+02 1.057684508920581976e+02 -5.324141943862451853e+01 2.860037848777034153e+00 -1.307849621483289297e+02 -1.015915160906443617e+02 1.724026761134654748e+02 8.496953544215894283e+01 -4.141104882103573459e+01 3.644039204527773279e+01 -2.750972271589553131e+01 4.243036305195563784e+01 -1.026080055205660102e+02 9.698449001077217702e+01 4.953690938355866535e+01 -1.166367979256412752e+02 1.145356842226914296e+02 -4.819521161905510098e+01 9.801996779370504953e+01 -4.847243932645936582e+01 8.671810381328832307e+01 -1.505298419686552620e+02 1.400485957830092616e+02 2.430589203217163075e+01 9.878728210695201994e+01 1.280106114859907507e+02 -1.439543837305139675e+02 -8.432548398359963926e+01 -1.037022424243476308e+02 6.565444281257798309e+01 -1.682380539355346514e+02 1.487719277733978060e+02 1.398070008795347974e+02 5.202592796590615620e+01 -8.337421728467410276e+01 5.603970236146228245e+01 -1.054033427494428565e+02 -1.074611983225846679e+01 3.435697611131249118e+01 -1.804886150342086353e+02 -8.013967521108990866e+01 -1.329646386621085341e+01 1.004070363758464453e+02 -4.933570509455615394e+01 1.068347673507456079e+02 -6.321623725402339744e+01 -2.071664473823562957e+02 -1.052559738096814783e+02 -3.347180639244563594e+01 -5.915932383688858209e+01 2.958170137827637092e+01 5.053309198097724675e+01 6.236205403435209682e+00 2.492344937497927404e+01 -1.153796677445987484e+02 5.296843002335472050e+01 3.209648436154996887e+01 -7.098965455715188000e+01 9.120663851977248271e+00 5.543863079101394220e+01 -9.387201406640018320e+01 -5.420447335639436659e+01 -2.377240005218805408e+01 9.603810672307622553e+01 -1.686000487321423691e+01 4.128604527911226008e+00 -2.245244583536512835e+02 -9.355098305170713502e+01 9.740180225872958886e+01 -8.782211264441762921e+01 3.085500284613794619e+01 3.058411380096115906e+01 3.734006920462399393e+01 6.507213917924082125e+01 -1.747517789086328150e+02 1.417885710511858406e+02 8.027569749410831434e+01 -7.413192431472403143e+00 -7.958577304065774172e+01 1.102086343166257478e+02 6.116371747469879239e+01 -1.980925272770451784e+02 -4.962594022168260466e+01 -8.047939680717917099e+01 -5.105106206500658317e+01 -6.100152034609998708e+01 -9.755943501843036358e+01 -5.946834558343708466e+01 1.886691605209559270e+02 -1.682368384248591155e+02 6.450724810472544846e+01 2.733435571521658503e+01 -7.407495061834728745e+01 1.023682174546598844e+01 -3.884618395567810722e+01 3.382520486063970822e+00 -9.472975943264414411e+01 -1.946696020971914720e+02 1.812531360535821889e+01 4.129206413558137001e+01 -1.261038572964039517e+01 -8.862222516462443522e+00 -3.920048384481905401e+01 -1.871559304654020366e+02 -3.019680005512896770e+01 -6.441384568577313985e+01 1.375124703300382478e+01 -1.538763475395175817e+01 8.926300567872758052e+01 -6.212749089140304903e+01 -1.022004023036256513e+02 -3.520789758958973437e+01 -8.867994020163951774e+00 4.482268541447453458e+01 -2.181368695176963968e+01 -7.272246917543920119e+01 -1.565091488824941202e+01 1.976938084278792473e+01 4.682647174107366084e+01 -1.123815090023076664e+02 -1.370587212337031531e+02 2.270938201011015281e+02 -2.152079313861045193e+02 -7.487220030541213589e+01 -4.568197795037771414e+01 1.378956008591896136e+02 6.239367645720060551e+01 2.257022934806269916e+02 2.413445716607414511e+02 -6.148033516080050020e+01 1.276585807299535844e+02 -5.521454341215734019e+01 -4.024979912733784460e+01 -9.923779791251850213e+01 -7.873454877798872076e+01 -6.859401019937367039e+01 -8.777730098132337844e+01 -2.404082717506008748e+02 -2.671138230759988801e+02 1.328276118944024802e+02 -2.616911214446428602e+01 5.253288237098398383e+01 1.290856064624758517e+02
