# 
#                 ----------------------------------------------------
#                 Data from a 3D direct N-body simulation. 
# 
#                 rows are i-particle; 
#                 coumns are :mass, tag, x ,y, z, vx, vy, vz, ax, ay, az
# 
#                 NTHU, Computational Physics Lab
# 
#                 ----------------------------------------------------
#                 Time = 8.099999999999872
1.000000000000000000e+00 2.000000000000000000e+00 3.000000000000000000e+00 4.000000000000000000e+00 5.000000000000000000e+00 6.000000000000000000e+00 7.000000000000000000e+00 8.000000000000000000e+00 9.000000000000000000e+00 1.000000000000000000e+01 1.100000000000000000e+01 1.200000000000000000e+01 1.300000000000000000e+01 1.400000000000000000e+01 1.500000000000000000e+01 1.600000000000000000e+01 1.700000000000000000e+01 1.800000000000000000e+01 1.900000000000000000e+01 2.000000000000000000e+01 2.100000000000000000e+01 2.200000000000000000e+01 2.300000000000000000e+01 2.400000000000000000e+01 2.500000000000000000e+01 2.600000000000000000e+01 2.700000000000000000e+01 2.800000000000000000e+01 2.900000000000000000e+01 3.000000000000000000e+01 3.100000000000000000e+01 3.200000000000000000e+01 3.300000000000000000e+01 3.400000000000000000e+01 3.500000000000000000e+01 3.600000000000000000e+01 3.700000000000000000e+01 3.800000000000000000e+01 3.900000000000000000e+01 4.000000000000000000e+01 4.100000000000000000e+01 4.200000000000000000e+01 4.300000000000000000e+01 4.400000000000000000e+01 4.500000000000000000e+01 4.600000000000000000e+01 4.700000000000000000e+01 4.800000000000000000e+01 4.900000000000000000e+01 5.000000000000000000e+01 5.100000000000000000e+01 5.200000000000000000e+01 5.300000000000000000e+01 5.400000000000000000e+01 5.500000000000000000e+01 5.600000000000000000e+01 5.700000000000000000e+01 5.800000000000000000e+01 5.900000000000000000e+01 6.000000000000000000e+01 6.100000000000000000e+01 6.200000000000000000e+01 6.300000000000000000e+01 6.400000000000000000e+01 6.500000000000000000e+01 6.600000000000000000e+01 6.700000000000000000e+01 6.800000000000000000e+01 6.900000000000000000e+01 7.000000000000000000e+01 7.100000000000000000e+01 7.200000000000000000e+01 7.300000000000000000e+01 7.400000000000000000e+01 7.500000000000000000e+01 7.600000000000000000e+01 7.700000000000000000e+01 7.800000000000000000e+01 7.900000000000000000e+01 8.000000000000000000e+01 8.100000000000000000e+01 8.200000000000000000e+01 8.300000000000000000e+01 8.400000000000000000e+01 8.500000000000000000e+01 8.600000000000000000e+01 8.700000000000000000e+01 8.800000000000000000e+01 8.900000000000000000e+01 9.000000000000000000e+01 9.100000000000000000e+01 9.200000000000000000e+01 9.300000000000000000e+01 9.400000000000000000e+01 9.500000000000000000e+01 9.600000000000000000e+01 9.700000000000000000e+01 9.800000000000000000e+01 9.900000000000000000e+01 1.000000000000000000e+02 1.010000000000000000e+02 1.020000000000000000e+02 1.030000000000000000e+02 1.040000000000000000e+02 1.050000000000000000e+02 1.060000000000000000e+02 1.070000000000000000e+02 1.080000000000000000e+02 1.090000000000000000e+02 1.100000000000000000e+02 1.110000000000000000e+02 1.120000000000000000e+02 1.130000000000000000e+02 1.140000000000000000e+02 1.150000000000000000e+02 1.160000000000000000e+02 1.170000000000000000e+02 1.180000000000000000e+02 1.190000000000000000e+02 1.200000000000000000e+02 1.210000000000000000e+02 1.220000000000000000e+02 1.230000000000000000e+02 1.240000000000000000e+02 1.250000000000000000e+02 1.260000000000000000e+02 1.270000000000000000e+02 1.280000000000000000e+02 1.290000000000000000e+02 1.300000000000000000e+02 1.310000000000000000e+02 1.320000000000000000e+02 1.330000000000000000e+02 1.340000000000000000e+02 1.350000000000000000e+02 1.360000000000000000e+02 1.370000000000000000e+02 1.380000000000000000e+02 1.390000000000000000e+02 1.400000000000000000e+02 1.410000000000000000e+02 1.420000000000000000e+02 1.430000000000000000e+02 1.440000000000000000e+02 1.450000000000000000e+02 1.460000000000000000e+02 1.470000000000000000e+02 1.480000000000000000e+02 1.490000000000000000e+02 1.500000000000000000e+02 1.510000000000000000e+02 1.520000000000000000e+02 1.530000000000000000e+02 1.540000000000000000e+02 1.550000000000000000e+02 1.560000000000000000e+02 1.570000000000000000e+02 1.580000000000000000e+02 1.590000000000000000e+02 1.600000000000000000e+02 1.610000000000000000e+02 1.620000000000000000e+02 1.630000000000000000e+02 1.640000000000000000e+02 1.650000000000000000e+02 1.660000000000000000e+02 1.670000000000000000e+02 1.680000000000000000e+02 1.690000000000000000e+02 1.700000000000000000e+02 1.710000000000000000e+02 1.720000000000000000e+02 1.730000000000000000e+02 1.740000000000000000e+02 1.750000000000000000e+02 1.760000000000000000e+02 1.770000000000000000e+02 1.780000000000000000e+02 1.790000000000000000e+02 1.800000000000000000e+02 1.810000000000000000e+02 1.820000000000000000e+02 1.830000000000000000e+02 1.840000000000000000e+02 1.850000000000000000e+02 1.860000000000000000e+02 1.870000000000000000e+02 1.880000000000000000e+02 1.890000000000000000e+02 1.900000000000000000e+02 1.910000000000000000e+02 1.920000000000000000e+02 1.930000000000000000e+02 1.940000000000000000e+02 1.950000000000000000e+02 1.960000000000000000e+02 1.970000000000000000e+02 1.980000000000000000e+02 1.990000000000000000e+02 2.000000000000000000e+02 2.010000000000000000e+02 2.020000000000000000e+02 2.030000000000000000e+02 2.040000000000000000e+02 2.050000000000000000e+02 2.060000000000000000e+02 2.070000000000000000e+02 2.080000000000000000e+02 2.090000000000000000e+02 2.100000000000000000e+02 2.110000000000000000e+02 2.120000000000000000e+02 2.130000000000000000e+02 2.140000000000000000e+02 2.150000000000000000e+02 2.160000000000000000e+02 2.170000000000000000e+02 2.180000000000000000e+02 2.190000000000000000e+02 2.200000000000000000e+02 2.210000000000000000e+02 2.220000000000000000e+02 2.230000000000000000e+02 2.240000000000000000e+02 2.250000000000000000e+02 2.260000000000000000e+02 2.270000000000000000e+02 2.280000000000000000e+02 2.290000000000000000e+02 2.300000000000000000e+02 2.310000000000000000e+02 2.320000000000000000e+02 2.330000000000000000e+02 2.340000000000000000e+02 2.350000000000000000e+02 2.360000000000000000e+02 2.370000000000000000e+02 2.380000000000000000e+02 2.390000000000000000e+02 2.400000000000000000e+02 2.410000000000000000e+02 2.420000000000000000e+02 2.430000000000000000e+02 2.440000000000000000e+02 2.450000000000000000e+02 2.460000000000000000e+02 2.470000000000000000e+02 2.480000000000000000e+02 2.490000000000000000e+02 2.500000000000000000e+02 2.510000000000000000e+02 2.520000000000000000e+02 2.530000000000000000e+02 2.540000000000000000e+02 2.550000000000000000e+02 2.560000000000000000e+02 2.570000000000000000e+02 2.580000000000000000e+02 2.590000000000000000e+02 2.600000000000000000e+02 2.610000000000000000e+02 2.620000000000000000e+02 2.630000000000000000e+02 2.640000000000000000e+02 2.650000000000000000e+02 2.660000000000000000e+02 2.670000000000000000e+02 2.680000000000000000e+02 2.690000000000000000e+02 2.700000000000000000e+02 2.710000000000000000e+02 2.720000000000000000e+02 2.730000000000000000e+02 2.740000000000000000e+02 2.750000000000000000e+02 2.760000000000000000e+02 2.770000000000000000e+02 2.780000000000000000e+02 2.790000000000000000e+02 2.800000000000000000e+02 2.810000000000000000e+02 2.820000000000000000e+02 2.830000000000000000e+02 2.840000000000000000e+02 2.850000000000000000e+02 2.860000000000000000e+02 2.870000000000000000e+02 2.880000000000000000e+02 2.890000000000000000e+02 2.900000000000000000e+02 2.910000000000000000e+02 2.920000000000000000e+02 2.930000000000000000e+02 2.940000000000000000e+02 2.950000000000000000e+02 2.960000000000000000e+02 2.970000000000000000e+02 2.980000000000000000e+02 2.990000000000000000e+02 3.000000000000000000e+02 3.010000000000000000e+02 3.020000000000000000e+02 3.030000000000000000e+02 3.040000000000000000e+02 3.050000000000000000e+02 3.060000000000000000e+02 3.070000000000000000e+02 3.080000000000000000e+02 3.090000000000000000e+02 3.100000000000000000e+02 3.110000000000000000e+02 3.120000000000000000e+02 3.130000000000000000e+02 3.140000000000000000e+02 3.150000000000000000e+02 3.160000000000000000e+02 3.170000000000000000e+02 3.180000000000000000e+02 3.190000000000000000e+02 3.200000000000000000e+02 3.210000000000000000e+02 3.220000000000000000e+02 3.230000000000000000e+02 3.240000000000000000e+02 3.250000000000000000e+02 3.260000000000000000e+02 3.270000000000000000e+02 3.280000000000000000e+02 3.290000000000000000e+02 3.300000000000000000e+02 3.310000000000000000e+02 3.320000000000000000e+02 3.330000000000000000e+02 3.340000000000000000e+02 3.350000000000000000e+02 3.360000000000000000e+02 3.370000000000000000e+02 3.380000000000000000e+02 3.390000000000000000e+02 3.400000000000000000e+02 3.410000000000000000e+02 3.420000000000000000e+02 3.430000000000000000e+02 3.440000000000000000e+02 3.450000000000000000e+02 3.460000000000000000e+02 3.470000000000000000e+02 3.480000000000000000e+02 3.490000000000000000e+02 3.500000000000000000e+02 3.510000000000000000e+02 3.520000000000000000e+02 3.530000000000000000e+02 3.540000000000000000e+02 3.550000000000000000e+02 3.560000000000000000e+02 3.570000000000000000e+02 3.580000000000000000e+02 3.590000000000000000e+02 3.600000000000000000e+02 3.610000000000000000e+02 3.620000000000000000e+02 3.630000000000000000e+02 3.640000000000000000e+02 3.650000000000000000e+02 3.660000000000000000e+02 3.670000000000000000e+02 3.680000000000000000e+02 3.690000000000000000e+02 3.700000000000000000e+02 3.710000000000000000e+02 3.720000000000000000e+02 3.730000000000000000e+02 3.740000000000000000e+02 3.750000000000000000e+02 3.760000000000000000e+02 3.770000000000000000e+02 3.780000000000000000e+02 3.790000000000000000e+02 3.800000000000000000e+02 3.810000000000000000e+02 3.820000000000000000e+02 3.830000000000000000e+02 3.840000000000000000e+02 3.850000000000000000e+02 3.860000000000000000e+02 3.870000000000000000e+02 3.880000000000000000e+02 3.890000000000000000e+02 3.900000000000000000e+02 3.910000000000000000e+02 3.920000000000000000e+02 3.930000000000000000e+02 3.940000000000000000e+02 3.950000000000000000e+02 3.960000000000000000e+02 3.970000000000000000e+02 3.980000000000000000e+02 3.990000000000000000e+02 4.000000000000000000e+02 4.010000000000000000e+02 4.020000000000000000e+02 4.030000000000000000e+02 4.040000000000000000e+02 4.050000000000000000e+02 4.060000000000000000e+02 4.070000000000000000e+02 4.080000000000000000e+02 4.090000000000000000e+02 4.100000000000000000e+02 4.110000000000000000e+02 4.120000000000000000e+02 4.130000000000000000e+02 4.140000000000000000e+02 4.150000000000000000e+02 4.160000000000000000e+02 4.170000000000000000e+02 4.180000000000000000e+02 4.190000000000000000e+02 4.200000000000000000e+02 4.210000000000000000e+02 4.220000000000000000e+02 4.230000000000000000e+02 4.240000000000000000e+02 4.250000000000000000e+02 4.260000000000000000e+02 4.270000000000000000e+02 4.280000000000000000e+02 4.290000000000000000e+02 4.300000000000000000e+02 4.310000000000000000e+02 4.320000000000000000e+02 4.330000000000000000e+02 4.340000000000000000e+02 4.350000000000000000e+02 4.360000000000000000e+02 4.370000000000000000e+02 4.380000000000000000e+02 4.390000000000000000e+02 4.400000000000000000e+02 4.410000000000000000e+02 4.420000000000000000e+02 4.430000000000000000e+02 4.440000000000000000e+02 4.450000000000000000e+02 4.460000000000000000e+02 4.470000000000000000e+02 4.480000000000000000e+02 4.490000000000000000e+02 4.500000000000000000e+02 4.510000000000000000e+02 4.520000000000000000e+02 4.530000000000000000e+02 4.540000000000000000e+02 4.550000000000000000e+02 4.560000000000000000e+02 4.570000000000000000e+02 4.580000000000000000e+02 4.590000000000000000e+02 4.600000000000000000e+02 4.610000000000000000e+02 4.620000000000000000e+02 4.630000000000000000e+02 4.640000000000000000e+02 4.650000000000000000e+02 4.660000000000000000e+02 4.670000000000000000e+02 4.680000000000000000e+02 4.690000000000000000e+02 4.700000000000000000e+02 4.710000000000000000e+02 4.720000000000000000e+02 4.730000000000000000e+02 4.740000000000000000e+02 4.750000000000000000e+02 4.760000000000000000e+02 4.770000000000000000e+02 4.780000000000000000e+02 4.790000000000000000e+02 4.800000000000000000e+02 4.810000000000000000e+02 4.820000000000000000e+02 4.830000000000000000e+02 4.840000000000000000e+02 4.850000000000000000e+02 4.860000000000000000e+02 4.870000000000000000e+02 4.880000000000000000e+02 4.890000000000000000e+02 4.900000000000000000e+02 4.910000000000000000e+02 4.920000000000000000e+02 4.930000000000000000e+02 4.940000000000000000e+02 4.950000000000000000e+02 4.960000000000000000e+02 4.970000000000000000e+02 4.980000000000000000e+02 4.990000000000000000e+02 5.000000000000000000e+02 5.010000000000000000e+02 5.020000000000000000e+02 5.030000000000000000e+02 5.040000000000000000e+02 5.050000000000000000e+02 5.060000000000000000e+02 5.070000000000000000e+02 5.080000000000000000e+02 5.090000000000000000e+02 5.100000000000000000e+02 5.110000000000000000e+02 5.120000000000000000e+02 5.130000000000000000e+02 5.140000000000000000e+02 5.150000000000000000e+02 5.160000000000000000e+02 5.170000000000000000e+02 5.180000000000000000e+02 5.190000000000000000e+02 5.200000000000000000e+02 5.210000000000000000e+02 5.220000000000000000e+02 5.230000000000000000e+02 5.240000000000000000e+02 5.250000000000000000e+02 5.260000000000000000e+02 5.270000000000000000e+02 5.280000000000000000e+02 5.290000000000000000e+02 5.300000000000000000e+02 5.310000000000000000e+02 5.320000000000000000e+02 5.330000000000000000e+02 5.340000000000000000e+02 5.350000000000000000e+02 5.360000000000000000e+02 5.370000000000000000e+02 5.380000000000000000e+02 5.390000000000000000e+02 5.400000000000000000e+02 5.410000000000000000e+02 5.420000000000000000e+02 5.430000000000000000e+02 5.440000000000000000e+02 5.450000000000000000e+02 5.460000000000000000e+02 5.470000000000000000e+02 5.480000000000000000e+02 5.490000000000000000e+02 5.500000000000000000e+02 5.510000000000000000e+02 5.520000000000000000e+02 5.530000000000000000e+02 5.540000000000000000e+02 5.550000000000000000e+02 5.560000000000000000e+02 5.570000000000000000e+02 5.580000000000000000e+02 5.590000000000000000e+02 5.600000000000000000e+02 5.610000000000000000e+02 5.620000000000000000e+02 5.630000000000000000e+02 5.640000000000000000e+02 5.650000000000000000e+02 5.660000000000000000e+02 5.670000000000000000e+02 5.680000000000000000e+02 5.690000000000000000e+02 5.700000000000000000e+02 5.710000000000000000e+02 5.720000000000000000e+02 5.730000000000000000e+02 5.740000000000000000e+02 5.750000000000000000e+02 5.760000000000000000e+02 5.770000000000000000e+02 5.780000000000000000e+02 5.790000000000000000e+02 5.800000000000000000e+02 5.810000000000000000e+02 5.820000000000000000e+02 5.830000000000000000e+02 5.840000000000000000e+02 5.850000000000000000e+02 5.860000000000000000e+02 5.870000000000000000e+02 5.880000000000000000e+02 5.890000000000000000e+02 5.900000000000000000e+02 5.910000000000000000e+02 5.920000000000000000e+02 5.930000000000000000e+02 5.940000000000000000e+02 5.950000000000000000e+02 5.960000000000000000e+02 5.970000000000000000e+02 5.980000000000000000e+02 5.990000000000000000e+02 6.000000000000000000e+02 6.010000000000000000e+02 6.020000000000000000e+02 6.030000000000000000e+02 6.040000000000000000e+02 6.050000000000000000e+02 6.060000000000000000e+02 6.070000000000000000e+02 6.080000000000000000e+02 6.090000000000000000e+02 6.100000000000000000e+02 6.110000000000000000e+02 6.120000000000000000e+02 6.130000000000000000e+02 6.140000000000000000e+02 6.150000000000000000e+02 6.160000000000000000e+02 6.170000000000000000e+02 6.180000000000000000e+02 6.190000000000000000e+02 6.200000000000000000e+02 6.210000000000000000e+02 6.220000000000000000e+02 6.230000000000000000e+02 6.240000000000000000e+02 6.250000000000000000e+02 6.260000000000000000e+02 6.270000000000000000e+02 6.280000000000000000e+02 6.290000000000000000e+02 6.300000000000000000e+02 6.310000000000000000e+02 6.320000000000000000e+02 6.330000000000000000e+02 6.340000000000000000e+02 6.350000000000000000e+02 6.360000000000000000e+02 6.370000000000000000e+02 6.380000000000000000e+02 6.390000000000000000e+02 6.400000000000000000e+02 6.410000000000000000e+02 6.420000000000000000e+02 6.430000000000000000e+02 6.440000000000000000e+02 6.450000000000000000e+02 6.460000000000000000e+02 6.470000000000000000e+02 6.480000000000000000e+02 6.490000000000000000e+02 6.500000000000000000e+02 6.510000000000000000e+02 6.520000000000000000e+02 6.530000000000000000e+02 6.540000000000000000e+02 6.550000000000000000e+02 6.560000000000000000e+02 6.570000000000000000e+02 6.580000000000000000e+02 6.590000000000000000e+02 6.600000000000000000e+02 6.610000000000000000e+02 6.620000000000000000e+02 6.630000000000000000e+02 6.640000000000000000e+02 6.650000000000000000e+02 6.660000000000000000e+02 6.670000000000000000e+02 6.680000000000000000e+02 6.690000000000000000e+02 6.700000000000000000e+02 6.710000000000000000e+02 6.720000000000000000e+02 6.730000000000000000e+02 6.740000000000000000e+02 6.750000000000000000e+02 6.760000000000000000e+02 6.770000000000000000e+02 6.780000000000000000e+02 6.790000000000000000e+02 6.800000000000000000e+02 6.810000000000000000e+02 6.820000000000000000e+02 6.830000000000000000e+02 6.840000000000000000e+02 6.850000000000000000e+02 6.860000000000000000e+02 6.870000000000000000e+02 6.880000000000000000e+02 6.890000000000000000e+02 6.900000000000000000e+02 6.910000000000000000e+02 6.920000000000000000e+02 6.930000000000000000e+02 6.940000000000000000e+02 6.950000000000000000e+02 6.960000000000000000e+02 6.970000000000000000e+02 6.980000000000000000e+02 6.990000000000000000e+02 7.000000000000000000e+02 7.010000000000000000e+02 7.020000000000000000e+02 7.030000000000000000e+02 7.040000000000000000e+02 7.050000000000000000e+02 7.060000000000000000e+02 7.070000000000000000e+02 7.080000000000000000e+02 7.090000000000000000e+02 7.100000000000000000e+02 7.110000000000000000e+02 7.120000000000000000e+02 7.130000000000000000e+02 7.140000000000000000e+02 7.150000000000000000e+02 7.160000000000000000e+02 7.170000000000000000e+02 7.180000000000000000e+02 7.190000000000000000e+02 7.200000000000000000e+02 7.210000000000000000e+02 7.220000000000000000e+02 7.230000000000000000e+02 7.240000000000000000e+02 7.250000000000000000e+02 7.260000000000000000e+02 7.270000000000000000e+02 7.280000000000000000e+02 7.290000000000000000e+02 7.300000000000000000e+02 7.310000000000000000e+02 7.320000000000000000e+02 7.330000000000000000e+02 7.340000000000000000e+02 7.350000000000000000e+02 7.360000000000000000e+02 7.370000000000000000e+02 7.380000000000000000e+02 7.390000000000000000e+02 7.400000000000000000e+02 7.410000000000000000e+02 7.420000000000000000e+02 7.430000000000000000e+02 7.440000000000000000e+02 7.450000000000000000e+02 7.460000000000000000e+02 7.470000000000000000e+02 7.480000000000000000e+02 7.490000000000000000e+02 7.500000000000000000e+02 7.510000000000000000e+02 7.520000000000000000e+02 7.530000000000000000e+02 7.540000000000000000e+02 7.550000000000000000e+02 7.560000000000000000e+02 7.570000000000000000e+02 7.580000000000000000e+02 7.590000000000000000e+02 7.600000000000000000e+02 7.610000000000000000e+02 7.620000000000000000e+02 7.630000000000000000e+02 7.640000000000000000e+02 7.650000000000000000e+02 7.660000000000000000e+02 7.670000000000000000e+02 7.680000000000000000e+02 7.690000000000000000e+02 7.700000000000000000e+02 7.710000000000000000e+02 7.720000000000000000e+02 7.730000000000000000e+02 7.740000000000000000e+02 7.750000000000000000e+02 7.760000000000000000e+02 7.770000000000000000e+02 7.780000000000000000e+02 7.790000000000000000e+02 7.800000000000000000e+02 7.810000000000000000e+02 7.820000000000000000e+02 7.830000000000000000e+02 7.840000000000000000e+02 7.850000000000000000e+02 7.860000000000000000e+02 7.870000000000000000e+02 7.880000000000000000e+02 7.890000000000000000e+02 7.900000000000000000e+02 7.910000000000000000e+02 7.920000000000000000e+02 7.930000000000000000e+02 7.940000000000000000e+02 7.950000000000000000e+02 7.960000000000000000e+02 7.970000000000000000e+02 7.980000000000000000e+02 7.990000000000000000e+02 8.000000000000000000e+02 8.010000000000000000e+02 8.020000000000000000e+02 8.030000000000000000e+02 8.040000000000000000e+02 8.050000000000000000e+02 8.060000000000000000e+02 8.070000000000000000e+02 8.080000000000000000e+02 8.090000000000000000e+02 8.100000000000000000e+02 8.110000000000000000e+02 8.120000000000000000e+02 8.130000000000000000e+02 8.140000000000000000e+02 8.150000000000000000e+02 8.160000000000000000e+02 8.170000000000000000e+02 8.180000000000000000e+02 8.190000000000000000e+02 8.200000000000000000e+02 8.210000000000000000e+02 8.220000000000000000e+02 8.230000000000000000e+02 8.240000000000000000e+02 8.250000000000000000e+02 8.260000000000000000e+02 8.270000000000000000e+02 8.280000000000000000e+02 8.290000000000000000e+02 8.300000000000000000e+02 8.310000000000000000e+02 8.320000000000000000e+02 8.330000000000000000e+02 8.340000000000000000e+02 8.350000000000000000e+02 8.360000000000000000e+02 8.370000000000000000e+02 8.380000000000000000e+02 8.390000000000000000e+02 8.400000000000000000e+02 8.410000000000000000e+02 8.420000000000000000e+02 8.430000000000000000e+02 8.440000000000000000e+02 8.450000000000000000e+02 8.460000000000000000e+02 8.470000000000000000e+02 8.480000000000000000e+02 8.490000000000000000e+02 8.500000000000000000e+02 8.510000000000000000e+02 8.520000000000000000e+02 8.530000000000000000e+02 8.540000000000000000e+02 8.550000000000000000e+02 8.560000000000000000e+02 8.570000000000000000e+02 8.580000000000000000e+02 8.590000000000000000e+02 8.600000000000000000e+02 8.610000000000000000e+02 8.620000000000000000e+02 8.630000000000000000e+02 8.640000000000000000e+02 8.650000000000000000e+02 8.660000000000000000e+02 8.670000000000000000e+02 8.680000000000000000e+02 8.690000000000000000e+02 8.700000000000000000e+02 8.710000000000000000e+02 8.720000000000000000e+02 8.730000000000000000e+02 8.740000000000000000e+02 8.750000000000000000e+02 8.760000000000000000e+02 8.770000000000000000e+02 8.780000000000000000e+02 8.790000000000000000e+02 8.800000000000000000e+02 8.810000000000000000e+02 8.820000000000000000e+02 8.830000000000000000e+02 8.840000000000000000e+02 8.850000000000000000e+02 8.860000000000000000e+02 8.870000000000000000e+02 8.880000000000000000e+02 8.890000000000000000e+02 8.900000000000000000e+02 8.910000000000000000e+02 8.920000000000000000e+02 8.930000000000000000e+02 8.940000000000000000e+02 8.950000000000000000e+02 8.960000000000000000e+02 8.970000000000000000e+02 8.980000000000000000e+02 8.990000000000000000e+02 9.000000000000000000e+02 9.010000000000000000e+02 9.020000000000000000e+02 9.030000000000000000e+02 9.040000000000000000e+02 9.050000000000000000e+02 9.060000000000000000e+02 9.070000000000000000e+02 9.080000000000000000e+02 9.090000000000000000e+02 9.100000000000000000e+02 9.110000000000000000e+02 9.120000000000000000e+02 9.130000000000000000e+02 9.140000000000000000e+02 9.150000000000000000e+02 9.160000000000000000e+02 9.170000000000000000e+02 9.180000000000000000e+02 9.190000000000000000e+02 9.200000000000000000e+02 9.210000000000000000e+02 9.220000000000000000e+02 9.230000000000000000e+02 9.240000000000000000e+02 9.250000000000000000e+02 9.260000000000000000e+02 9.270000000000000000e+02 9.280000000000000000e+02 9.290000000000000000e+02 9.300000000000000000e+02 9.310000000000000000e+02 9.320000000000000000e+02 9.330000000000000000e+02 9.340000000000000000e+02 9.350000000000000000e+02 9.360000000000000000e+02 9.370000000000000000e+02 9.380000000000000000e+02 9.390000000000000000e+02 9.400000000000000000e+02 9.410000000000000000e+02 9.420000000000000000e+02 9.430000000000000000e+02 9.440000000000000000e+02 9.450000000000000000e+02 9.460000000000000000e+02 9.470000000000000000e+02 9.480000000000000000e+02 9.490000000000000000e+02 9.500000000000000000e+02 9.510000000000000000e+02 9.520000000000000000e+02 9.530000000000000000e+02 9.540000000000000000e+02 9.550000000000000000e+02 9.560000000000000000e+02 9.570000000000000000e+02 9.580000000000000000e+02 9.590000000000000000e+02 9.600000000000000000e+02 9.610000000000000000e+02 9.620000000000000000e+02 9.630000000000000000e+02 9.640000000000000000e+02 9.650000000000000000e+02 9.660000000000000000e+02 9.670000000000000000e+02 9.680000000000000000e+02 9.690000000000000000e+02 9.700000000000000000e+02 9.710000000000000000e+02 9.720000000000000000e+02 9.730000000000000000e+02 9.740000000000000000e+02 9.750000000000000000e+02 9.760000000000000000e+02 9.770000000000000000e+02 9.780000000000000000e+02 9.790000000000000000e+02 9.800000000000000000e+02 9.810000000000000000e+02 9.820000000000000000e+02 9.830000000000000000e+02 9.840000000000000000e+02 9.850000000000000000e+02 9.860000000000000000e+02 9.870000000000000000e+02 9.880000000000000000e+02 9.890000000000000000e+02 9.900000000000000000e+02 9.910000000000000000e+02 9.920000000000000000e+02 9.930000000000000000e+02 9.940000000000000000e+02 9.950000000000000000e+02 9.960000000000000000e+02 9.970000000000000000e+02 9.980000000000000000e+02 9.990000000000000000e+02 1.000000000000000000e+03
1.000000000000000021e-02 1.000000000000000021e-02 1.000000000000000021e-02 1.000000000000000021e-02 1.000000000000000021e-02 1.000000000000000021e-02 1.000000000000000021e-02 1.000000000000000021e-02 1.000000000000000021e-02 1.000000000000000021e-02 1.000000000000000021e-02 1.000000000000000021e-02 1.000000000000000021e-02 1.000000000000000021e-02 1.000000000000000021e-02 1.000000000000000021e-02 1.000000000000000021e-02 1.000000000000000021e-02 1.000000000000000021e-02 1.000000000000000021e-02 1.000000000000000021e-02 1.000000000000000021e-02 1.000000000000000021e-02 1.000000000000000021e-02 1.000000000000000021e-02 1.000000000000000021e-02 1.000000000000000021e-02 1.000000000000000021e-02 1.000000000000000021e-02 1.000000000000000021e-02 1.000000000000000021e-02 1.000000000000000021e-02 1.000000000000000021e-02 1.000000000000000021e-02 1.000000000000000021e-02 1.000000000000000021e-02 1.000000000000000021e-02 1.000000000000000021e-02 1.000000000000000021e-02 1.000000000000000021e-02 1.000000000000000021e-02 1.000000000000000021e-02 1.000000000000000021e-02 1.000000000000000021e-02 1.000000000000000021e-02 1.000000000000000021e-02 1.000000000000000021e-02 1.000000000000000021e-02 1.000000000000000021e-02 1.000000000000000021e-02 1.000000000000000021e-02 1.000000000000000021e-02 1.000000000000000021e-02 1.000000000000000021e-02 1.000000000000000021e-02 1.000000000000000021e-02 1.000000000000000021e-02 1.000000000000000021e-02 1.000000000000000021e-02 1.000000000000000021e-02 1.000000000000000021e-02 1.000000000000000021e-02 1.000000000000000021e-02 1.000000000000000021e-02 1.000000000000000021e-02 1.000000000000000021e-02 1.000000000000000021e-02 1.000000000000000021e-02 1.000000000000000021e-02 1.000000000000000021e-02 1.000000000000000021e-02 1.000000000000000021e-02 1.000000000000000021e-02 1.000000000000000021e-02 1.000000000000000021e-02 1.000000000000000021e-02 1.000000000000000021e-02 1.000000000000000021e-02 1.000000000000000021e-02 1.000000000000000021e-02 1.000000000000000021e-02 1.000000000000000021e-02 1.000000000000000021e-02 1.000000000000000021e-02 1.000000000000000021e-02 1.000000000000000021e-02 1.000000000000000021e-02 1.000000000000000021e-02 1.000000000000000021e-02 1.000000000000000021e-02 1.000000000000000021e-02 1.000000000000000021e-02 1.000000000000000021e-02 1.000000000000000021e-02 1.000000000000000021e-02 1.000000000000000021e-02 1.000000000000000021e-02 1.000000000000000021e-02 1.000000000000000021e-02 1.000000000000000021e-02 1.000000000000000021e-02 1.000000000000000021e-02 1.000000000000000021e-02 1.000000000000000021e-02 1.000000000000000021e-02 1.000000000000000021e-02 1.000000000000000021e-02 1.000000000000000021e-02 1.000000000000000021e-02 1.000000000000000021e-02 1.000000000000000021e-02 1.000000000000000021e-02 1.000000000000000021e-02 1.000000000000000021e-02 1.000000000000000021e-02 1.000000000000000021e-02 1.000000000000000021e-02 1.000000000000000021e-02 1.000000000000000021e-02 1.000000000000000021e-02 1.000000000000000021e-02 1.000000000000000021e-02 1.000000000000000021e-02 1.000000000000000021e-02 1.000000000000000021e-02 1.000000000000000021e-02 1.000000000000000021e-02 1.000000000000000021e-02 1.000000000000000021e-02 1.000000000000000021e-02 1.000000000000000021e-02 1.000000000000000021e-02 1.000000000000000021e-02 1.000000000000000021e-02 1.000000000000000021e-02 1.000000000000000021e-02 1.000000000000000021e-02 1.000000000000000021e-02 1.000000000000000021e-02 1.000000000000000021e-02 1.000000000000000021e-02 1.000000000000000021e-02 1.000000000000000021e-02 1.000000000000000021e-02 1.000000000000000021e-02 1.000000000000000021e-02 1.000000000000000021e-02 1.000000000000000021e-02 1.000000000000000021e-02 1.000000000000000021e-02 1.000000000000000021e-02 1.000000000000000021e-02 1.000000000000000021e-02 1.000000000000000021e-02 1.000000000000000021e-02 1.000000000000000021e-02 1.000000000000000021e-02 1.000000000000000021e-02 1.000000000000000021e-02 1.000000000000000021e-02 1.000000000000000021e-02 1.000000000000000021e-02 1.000000000000000021e-02 1.000000000000000021e-02 1.000000000000000021e-02 1.000000000000000021e-02 1.000000000000000021e-02 1.000000000000000021e-02 1.000000000000000021e-02 1.000000000000000021e-02 1.000000000000000021e-02 1.000000000000000021e-02 1.000000000000000021e-02 1.000000000000000021e-02 1.000000000000000021e-02 1.000000000000000021e-02 1.000000000000000021e-02 1.000000000000000021e-02 1.000000000000000021e-02 1.000000000000000021e-02 1.000000000000000021e-02 1.000000000000000021e-02 1.000000000000000021e-02 1.000000000000000021e-02 1.000000000000000021e-02 1.000000000000000021e-02 1.000000000000000021e-02 1.000000000000000021e-02 1.000000000000000021e-02 1.000000000000000021e-02 1.000000000000000021e-02 1.000000000000000021e-02 1.000000000000000021e-02 1.000000000000000021e-02 1.000000000000000021e-02 1.000000000000000021e-02 1.000000000000000021e-02 1.000000000000000021e-02 1.000000000000000021e-02 1.000000000000000021e-02 1.000000000000000021e-02 1.000000000000000021e-02 1.000000000000000021e-02 1.000000000000000021e-02 1.000000000000000021e-02 1.000000000000000021e-02 1.000000000000000021e-02 1.000000000000000021e-02 1.000000000000000021e-02 1.000000000000000021e-02 1.000000000000000021e-02 1.000000000000000021e-02 1.000000000000000021e-02 1.000000000000000021e-02 1.000000000000000021e-02 1.000000000000000021e-02 1.000000000000000021e-02 1.000000000000000021e-02 1.000000000000000021e-02 1.000000000000000021e-02 1.000000000000000021e-02 1.000000000000000021e-02 1.000000000000000021e-02 1.000000000000000021e-02 1.000000000000000021e-02 1.000000000000000021e-02 1.000000000000000021e-02 1.000000000000000021e-02 1.000000000000000021e-02 1.000000000000000021e-02 1.000000000000000021e-02 1.000000000000000021e-02 1.000000000000000021e-02 1.000000000000000021e-02 1.000000000000000021e-02 1.000000000000000021e-02 1.000000000000000021e-02 1.000000000000000021e-02 1.000000000000000021e-02 1.000000000000000021e-02 1.000000000000000021e-02 1.000000000000000021e-02 1.000000000000000021e-02 1.000000000000000021e-02 1.000000000000000021e-02 1.000000000000000021e-02 1.000000000000000021e-02 1.000000000000000021e-02 1.000000000000000021e-02 1.000000000000000021e-02 1.000000000000000021e-02 1.000000000000000021e-02 1.000000000000000021e-02 1.000000000000000021e-02 1.000000000000000021e-02 1.000000000000000021e-02 1.000000000000000021e-02 1.000000000000000021e-02 1.000000000000000021e-02 1.000000000000000021e-02 1.000000000000000021e-02 1.000000000000000021e-02 1.000000000000000021e-02 1.000000000000000021e-02 1.000000000000000021e-02 1.000000000000000021e-02 1.000000000000000021e-02 1.000000000000000021e-02 1.000000000000000021e-02 1.000000000000000021e-02 1.000000000000000021e-02 1.000000000000000021e-02 1.000000000000000021e-02 1.000000000000000021e-02 1.000000000000000021e-02 1.000000000000000021e-02 1.000000000000000021e-02 1.000000000000000021e-02 1.000000000000000021e-02 1.000000000000000021e-02 1.000000000000000021e-02 1.000000000000000021e-02 1.000000000000000021e-02 1.000000000000000021e-02 1.000000000000000021e-02 1.000000000000000021e-02 1.000000000000000021e-02 1.000000000000000021e-02 1.000000000000000021e-02 1.000000000000000021e-02 1.000000000000000021e-02 1.000000000000000021e-02 1.000000000000000021e-02 1.000000000000000021e-02 1.000000000000000021e-02 1.000000000000000021e-02 1.000000000000000021e-02 1.000000000000000021e-02 1.000000000000000021e-02 1.000000000000000021e-02 1.000000000000000021e-02 1.000000000000000021e-02 1.000000000000000021e-02 1.000000000000000021e-02 1.000000000000000021e-02 1.000000000000000021e-02 1.000000000000000021e-02 1.000000000000000021e-02 1.000000000000000021e-02 1.000000000000000021e-02 1.000000000000000021e-02 1.000000000000000021e-02 1.000000000000000021e-02 1.000000000000000021e-02 1.000000000000000021e-02 1.000000000000000021e-02 1.000000000000000021e-02 1.000000000000000021e-02 1.000000000000000021e-02 1.000000000000000021e-02 1.000000000000000021e-02 1.000000000000000021e-02 1.000000000000000021e-02 1.000000000000000021e-02 1.000000000000000021e-02 1.000000000000000021e-02 1.000000000000000021e-02 1.000000000000000021e-02 1.000000000000000021e-02 1.000000000000000021e-02 1.000000000000000021e-02 1.000000000000000021e-02 1.000000000000000021e-02 1.000000000000000021e-02 1.000000000000000021e-02 1.000000000000000021e-02 1.000000000000000021e-02 1.000000000000000021e-02 1.000000000000000021e-02 1.000000000000000021e-02 1.000000000000000021e-02 1.000000000000000021e-02 1.000000000000000021e-02 1.000000000000000021e-02 1.000000000000000021e-02 1.000000000000000021e-02 1.000000000000000021e-02 1.000000000000000021e-02 1.000000000000000021e-02 1.000000000000000021e-02 1.000000000000000021e-02 1.000000000000000021e-02 1.000000000000000021e-02 1.000000000000000021e-02 1.000000000000000021e-02 1.000000000000000021e-02 1.000000000000000021e-02 1.000000000000000021e-02 1.000000000000000021e-02 1.000000000000000021e-02 1.000000000000000021e-02 1.000000000000000021e-02 1.000000000000000021e-02 1.000000000000000021e-02 1.000000000000000021e-02 1.000000000000000021e-02 1.000000000000000021e-02 1.000000000000000021e-02 1.000000000000000021e-02 1.000000000000000021e-02 1.000000000000000021e-02 1.000000000000000021e-02 1.000000000000000021e-02 1.000000000000000021e-02 1.000000000000000021e-02 1.000000000000000021e-02 1.000000000000000021e-02 1.000000000000000021e-02 1.000000000000000021e-02 1.000000000000000021e-02 1.000000000000000021e-02 1.000000000000000021e-02 1.000000000000000021e-02 1.000000000000000021e-02 1.000000000000000021e-02 1.000000000000000021e-02 1.000000000000000021e-02 1.000000000000000021e-02 1.000000000000000021e-02 1.000000000000000021e-02 1.000000000000000021e-02 1.000000000000000021e-02 1.000000000000000021e-02 1.000000000000000021e-02 1.000000000000000021e-02 1.000000000000000021e-02 1.000000000000000021e-02 1.000000000000000021e-02 1.000000000000000021e-02 1.000000000000000021e-02 1.000000000000000021e-02 1.000000000000000021e-02 1.000000000000000021e-02 1.000000000000000021e-02 1.000000000000000021e-02 1.000000000000000021e-02 1.000000000000000021e-02 1.000000000000000021e-02 1.000000000000000021e-02 1.000000000000000021e-02 1.000000000000000021e-02 1.000000000000000021e-02 1.000000000000000021e-02 1.000000000000000021e-02 1.000000000000000021e-02 1.000000000000000021e-02 1.000000000000000021e-02 1.000000000000000021e-02 1.000000000000000021e-02 1.000000000000000021e-02 1.000000000000000021e-02 1.000000000000000021e-02 1.000000000000000021e-02 1.000000000000000021e-02 1.000000000000000021e-02 1.000000000000000021e-02 1.000000000000000021e-02 1.000000000000000021e-02 1.000000000000000021e-02 1.000000000000000021e-02 1.000000000000000021e-02 1.000000000000000021e-02 1.000000000000000021e-02 1.000000000000000021e-02 1.000000000000000021e-02 1.000000000000000021e-02 1.000000000000000021e-02 1.000000000000000021e-02 1.000000000000000021e-02 1.000000000000000021e-02 1.000000000000000021e-02 1.000000000000000021e-02 1.000000000000000021e-02 1.000000000000000021e-02 1.000000000000000021e-02 1.000000000000000021e-02 1.000000000000000021e-02 1.000000000000000021e-02 1.000000000000000021e-02 1.000000000000000021e-02 1.000000000000000021e-02 1.000000000000000021e-02 1.000000000000000021e-02 1.000000000000000021e-02 1.000000000000000021e-02 1.000000000000000021e-02 1.000000000000000021e-02 1.000000000000000021e-02 1.000000000000000021e-02 1.000000000000000021e-02 1.000000000000000021e-02 1.000000000000000021e-02 1.000000000000000021e-02 1.000000000000000021e-02 1.000000000000000021e-02 1.000000000000000021e-02 1.000000000000000021e-02 1.000000000000000021e-02 1.000000000000000021e-02 1.000000000000000021e-02 1.000000000000000021e-02 1.000000000000000021e-02 1.000000000000000021e-02 1.000000000000000021e-02 1.000000000000000021e-02 1.000000000000000021e-02 1.000000000000000021e-02 1.000000000000000021e-02 1.000000000000000021e-02 1.000000000000000021e-02 1.000000000000000021e-02 1.000000000000000021e-02 1.000000000000000021e-02 1.000000000000000021e-02 1.000000000000000021e-02 1.000000000000000021e-02 1.000000000000000021e-02 1.000000000000000021e-02 1.000000000000000021e-02 1.000000000000000021e-02 1.000000000000000021e-02 1.000000000000000021e-02 1.000000000000000021e-02 1.000000000000000021e-02 1.000000000000000021e-02 1.000000000000000021e-02 1.000000000000000021e-02 1.000000000000000021e-02 1.000000000000000021e-02 1.000000000000000021e-02 1.000000000000000021e-02 1.000000000000000021e-02 1.000000000000000021e-02 1.000000000000000021e-02 1.000000000000000021e-02 1.000000000000000021e-02 1.000000000000000021e-02 1.000000000000000021e-02 1.000000000000000021e-02 1.000000000000000021e-02 1.000000000000000021e-02 1.000000000000000021e-02 1.000000000000000021e-02 1.000000000000000021e-02 1.000000000000000021e-02 1.000000000000000021e-02 1.000000000000000021e-02 1.000000000000000021e-02 1.000000000000000021e-02 1.000000000000000021e-02 1.000000000000000021e-02 1.000000000000000021e-02 1.000000000000000021e-02 1.000000000000000021e-02 1.000000000000000021e-02 1.000000000000000021e-02 1.000000000000000021e-02 1.000000000000000021e-02 1.000000000000000021e-02 1.000000000000000021e-02 1.000000000000000021e-02 1.000000000000000021e-02 1.000000000000000021e-02 1.000000000000000021e-02 1.000000000000000021e-02 1.000000000000000021e-02 1.000000000000000021e-02 1.000000000000000021e-02 1.000000000000000021e-02 1.000000000000000021e-02 1.000000000000000021e-02 1.000000000000000021e-02 1.000000000000000021e-02 1.000000000000000021e-02 1.000000000000000021e-02 1.000000000000000021e-02 1.000000000000000021e-02 1.000000000000000021e-02 1.000000000000000021e-02 1.000000000000000021e-02 1.000000000000000021e-02 1.000000000000000021e-02 1.000000000000000021e-02 1.000000000000000021e-02 1.000000000000000021e-02 1.000000000000000021e-02 1.000000000000000021e-02 1.000000000000000021e-02 1.000000000000000021e-02 1.000000000000000021e-02 1.000000000000000021e-02 1.000000000000000021e-02 1.000000000000000021e-02 1.000000000000000021e-02 1.000000000000000021e-02 1.000000000000000021e-02 1.000000000000000021e-02 1.000000000000000021e-02 1.000000000000000021e-02 1.000000000000000021e-02 1.000000000000000021e-02 1.000000000000000021e-02 1.000000000000000021e-02 1.000000000000000021e-02 1.000000000000000021e-02 1.000000000000000021e-02 1.000000000000000021e-02 1.000000000000000021e-02 1.000000000000000021e-02 1.000000000000000021e-02 1.000000000000000021e-02 1.000000000000000021e-02 1.000000000000000021e-02 1.000000000000000021e-02 1.000000000000000021e-02 1.000000000000000021e-02 1.000000000000000021e-02 1.000000000000000021e-02 1.000000000000000021e-02 1.000000000000000021e-02 1.000000000000000021e-02 1.000000000000000021e-02 1.000000000000000021e-02 1.000000000000000021e-02 1.000000000000000021e-02 1.000000000000000021e-02 1.000000000000000021e-02 1.000000000000000021e-02 1.000000000000000021e-02 1.000000000000000021e-02 1.000000000000000021e-02 1.000000000000000021e-02 1.000000000000000021e-02 1.000000000000000021e-02 1.000000000000000021e-02 1.000000000000000021e-02 1.000000000000000021e-02 1.000000000000000021e-02 1.000000000000000021e-02 1.000000000000000021e-02 1.000000000000000021e-02 1.000000000000000021e-02 1.000000000000000021e-02 1.000000000000000021e-02 1.000000000000000021e-02 1.000000000000000021e-02 1.000000000000000021e-02 1.000000000000000021e-02 1.000000000000000021e-02 1.000000000000000021e-02 1.000000000000000021e-02 1.000000000000000021e-02 1.000000000000000021e-02 1.000000000000000021e-02 1.000000000000000021e-02 1.000000000000000021e-02 1.000000000000000021e-02 1.000000000000000021e-02 1.000000000000000021e-02 1.000000000000000021e-02 1.000000000000000021e-02 1.000000000000000021e-02 1.000000000000000021e-02 1.000000000000000021e-02 1.000000000000000021e-02 1.000000000000000021e-02 1.000000000000000021e-02 1.000000000000000021e-02 1.000000000000000021e-02 1.000000000000000021e-02 1.000000000000000021e-02 1.000000000000000021e-02 1.000000000000000021e-02 1.000000000000000021e-02 1.000000000000000021e-02 1.000000000000000021e-02 1.000000000000000021e-02 1.000000000000000021e-02 1.000000000000000021e-02 1.000000000000000021e-02 1.000000000000000021e-02 1.000000000000000021e-02 1.000000000000000021e-02 1.000000000000000021e-02 1.000000000000000021e-02 1.000000000000000021e-02 1.000000000000000021e-02 1.000000000000000021e-02 1.000000000000000021e-02 1.000000000000000021e-02 1.000000000000000021e-02 1.000000000000000021e-02 1.000000000000000021e-02 1.000000000000000021e-02 1.000000000000000021e-02 1.000000000000000021e-02 1.000000000000000021e-02 1.000000000000000021e-02 1.000000000000000021e-02 1.000000000000000021e-02 1.000000000000000021e-02 1.000000000000000021e-02 1.000000000000000021e-02 1.000000000000000021e-02 1.000000000000000021e-02 1.000000000000000021e-02 1.000000000000000021e-02 1.000000000000000021e-02 1.000000000000000021e-02 1.000000000000000021e-02 1.000000000000000021e-02 1.000000000000000021e-02 1.000000000000000021e-02 1.000000000000000021e-02 1.000000000000000021e-02 1.000000000000000021e-02 1.000000000000000021e-02 1.000000000000000021e-02 1.000000000000000021e-02 1.000000000000000021e-02 1.000000000000000021e-02 1.000000000000000021e-02 1.000000000000000021e-02 1.000000000000000021e-02 1.000000000000000021e-02 1.000000000000000021e-02 1.000000000000000021e-02 1.000000000000000021e-02 1.000000000000000021e-02 1.000000000000000021e-02 1.000000000000000021e-02 1.000000000000000021e-02 1.000000000000000021e-02 1.000000000000000021e-02 1.000000000000000021e-02 1.000000000000000021e-02 1.000000000000000021e-02 1.000000000000000021e-02 1.000000000000000021e-02 1.000000000000000021e-02 1.000000000000000021e-02 1.000000000000000021e-02 1.000000000000000021e-02 1.000000000000000021e-02 1.000000000000000021e-02 1.000000000000000021e-02 1.000000000000000021e-02 1.000000000000000021e-02 1.000000000000000021e-02 1.000000000000000021e-02 1.000000000000000021e-02 1.000000000000000021e-02 1.000000000000000021e-02 1.000000000000000021e-02 1.000000000000000021e-02 1.000000000000000021e-02 1.000000000000000021e-02 1.000000000000000021e-02 1.000000000000000021e-02 1.000000000000000021e-02 1.000000000000000021e-02 1.000000000000000021e-02 1.000000000000000021e-02 1.000000000000000021e-02 1.000000000000000021e-02 1.000000000000000021e-02 1.000000000000000021e-02 1.000000000000000021e-02 1.000000000000000021e-02 1.000000000000000021e-02 1.000000000000000021e-02 1.000000000000000021e-02 1.000000000000000021e-02 1.000000000000000021e-02 1.000000000000000021e-02 1.000000000000000021e-02 1.000000000000000021e-02 1.000000000000000021e-02 1.000000000000000021e-02 1.000000000000000021e-02 1.000000000000000021e-02 1.000000000000000021e-02 1.000000000000000021e-02 1.000000000000000021e-02 1.000000000000000021e-02 1.000000000000000021e-02 1.000000000000000021e-02 1.000000000000000021e-02 1.000000000000000021e-02 1.000000000000000021e-02 1.000000000000000021e-02 1.000000000000000021e-02 1.000000000000000021e-02 1.000000000000000021e-02 1.000000000000000021e-02 1.000000000000000021e-02 1.000000000000000021e-02 1.000000000000000021e-02 1.000000000000000021e-02 1.000000000000000021e-02 1.000000000000000021e-02 1.000000000000000021e-02 1.000000000000000021e-02 1.000000000000000021e-02 1.000000000000000021e-02 1.000000000000000021e-02 1.000000000000000021e-02 1.000000000000000021e-02 1.000000000000000021e-02 1.000000000000000021e-02 1.000000000000000021e-02 1.000000000000000021e-02 1.000000000000000021e-02 1.000000000000000021e-02 1.000000000000000021e-02 1.000000000000000021e-02 1.000000000000000021e-02 1.000000000000000021e-02 1.000000000000000021e-02 1.000000000000000021e-02 1.000000000000000021e-02 1.000000000000000021e-02 1.000000000000000021e-02 1.000000000000000021e-02 1.000000000000000021e-02 1.000000000000000021e-02 1.000000000000000021e-02 1.000000000000000021e-02 1.000000000000000021e-02 1.000000000000000021e-02 1.000000000000000021e-02 1.000000000000000021e-02 1.000000000000000021e-02 1.000000000000000021e-02 1.000000000000000021e-02 1.000000000000000021e-02 1.000000000000000021e-02 1.000000000000000021e-02 1.000000000000000021e-02 1.000000000000000021e-02 1.000000000000000021e-02 1.000000000000000021e-02 1.000000000000000021e-02 1.000000000000000021e-02 1.000000000000000021e-02 1.000000000000000021e-02 1.000000000000000021e-02 1.000000000000000021e-02 1.000000000000000021e-02 1.000000000000000021e-02 1.000000000000000021e-02 1.000000000000000021e-02 1.000000000000000021e-02 1.000000000000000021e-02 1.000000000000000021e-02 1.000000000000000021e-02 1.000000000000000021e-02 1.000000000000000021e-02 1.000000000000000021e-02 1.000000000000000021e-02 1.000000000000000021e-02 1.000000000000000021e-02 1.000000000000000021e-02 1.000000000000000021e-02 1.000000000000000021e-02 1.000000000000000021e-02 1.000000000000000021e-02 1.000000000000000021e-02 1.000000000000000021e-02 1.000000000000000021e-02 1.000000000000000021e-02 1.000000000000000021e-02 1.000000000000000021e-02 1.000000000000000021e-02 1.000000000000000021e-02 1.000000000000000021e-02 1.000000000000000021e-02 1.000000000000000021e-02 1.000000000000000021e-02 1.000000000000000021e-02 1.000000000000000021e-02 1.000000000000000021e-02 1.000000000000000021e-02 1.000000000000000021e-02 1.000000000000000021e-02 1.000000000000000021e-02 1.000000000000000021e-02 1.000000000000000021e-02 1.000000000000000021e-02 1.000000000000000021e-02 1.000000000000000021e-02 1.000000000000000021e-02 1.000000000000000021e-02 1.000000000000000021e-02 1.000000000000000021e-02 1.000000000000000021e-02 1.000000000000000021e-02 1.000000000000000021e-02 1.000000000000000021e-02 1.000000000000000021e-02 1.000000000000000021e-02 1.000000000000000021e-02 1.000000000000000021e-02 1.000000000000000021e-02 1.000000000000000021e-02 1.000000000000000021e-02 1.000000000000000021e-02 1.000000000000000021e-02 1.000000000000000021e-02 1.000000000000000021e-02 1.000000000000000021e-02 1.000000000000000021e-02 1.000000000000000021e-02 1.000000000000000021e-02 1.000000000000000021e-02 1.000000000000000021e-02 1.000000000000000021e-02 1.000000000000000021e-02 1.000000000000000021e-02 1.000000000000000021e-02 1.000000000000000021e-02 1.000000000000000021e-02 1.000000000000000021e-02 1.000000000000000021e-02 1.000000000000000021e-02 1.000000000000000021e-02 1.000000000000000021e-02 1.000000000000000021e-02 1.000000000000000021e-02 1.000000000000000021e-02 1.000000000000000021e-02 1.000000000000000021e-02 1.000000000000000021e-02 1.000000000000000021e-02 1.000000000000000021e-02 1.000000000000000021e-02 1.000000000000000021e-02 1.000000000000000021e-02 1.000000000000000021e-02 1.000000000000000021e-02 1.000000000000000021e-02 1.000000000000000021e-02 1.000000000000000021e-02 1.000000000000000021e-02 1.000000000000000021e-02 1.000000000000000021e-02 1.000000000000000021e-02 1.000000000000000021e-02 1.000000000000000021e-02 1.000000000000000021e-02 1.000000000000000021e-02 1.000000000000000021e-02 1.000000000000000021e-02 1.000000000000000021e-02 1.000000000000000021e-02 1.000000000000000021e-02 1.000000000000000021e-02 1.000000000000000021e-02 1.000000000000000021e-02 1.000000000000000021e-02 1.000000000000000021e-02 1.000000000000000021e-02 1.000000000000000021e-02 1.000000000000000021e-02 1.000000000000000021e-02 1.000000000000000021e-02 1.000000000000000021e-02 1.000000000000000021e-02 1.000000000000000021e-02 1.000000000000000021e-02 1.000000000000000021e-02 1.000000000000000021e-02 1.000000000000000021e-02 1.000000000000000021e-02 1.000000000000000021e-02 1.000000000000000021e-02 1.000000000000000021e-02 1.000000000000000021e-02 1.000000000000000021e-02 1.000000000000000021e-02 1.000000000000000021e-02 1.000000000000000021e-02 1.000000000000000021e-02 1.000000000000000021e-02 1.000000000000000021e-02 1.000000000000000021e-02 1.000000000000000021e-02 1.000000000000000021e-02 1.000000000000000021e-02 1.000000000000000021e-02 1.000000000000000021e-02 1.000000000000000021e-02 1.000000000000000021e-02 1.000000000000000021e-02 1.000000000000000021e-02 1.000000000000000021e-02 1.000000000000000021e-02 1.000000000000000021e-02 1.000000000000000021e-02 1.000000000000000021e-02 1.000000000000000021e-02 1.000000000000000021e-02 1.000000000000000021e-02 1.000000000000000021e-02 1.000000000000000021e-02 1.000000000000000021e-02 1.000000000000000021e-02 1.000000000000000021e-02 1.000000000000000021e-02 1.000000000000000021e-02 1.000000000000000021e-02 1.000000000000000021e-02 1.000000000000000021e-02 1.000000000000000021e-02 1.000000000000000021e-02 1.000000000000000021e-02 1.000000000000000021e-02 1.000000000000000021e-02 1.000000000000000021e-02 1.000000000000000021e-02 1.000000000000000021e-02 1.000000000000000021e-02 1.000000000000000021e-02 1.000000000000000021e-02 1.000000000000000021e-02 1.000000000000000021e-02 1.000000000000000021e-02 1.000000000000000021e-02 1.000000000000000021e-02 1.000000000000000021e-02
-1.144676129259902240e+02 1.739023251805458870e+02 4.037765673663965060e+01 -9.080268648908210949e+00 -9.014327733207099413e+01 -1.373767247009962311e+01 -2.132155440856255666e+02 6.905796292030152994e-01 -8.692435403834075203e+01 -1.432408173768854809e+01 -2.032951251638516510e+01 6.663457371994020662e+00 -1.826113493578877423e+00 1.721078781893471046e+02 8.679006732525422763e+01 -3.974945119717349939e+01 -5.411454114216526534e+01 8.125635044759812331e+01 3.365981121539002174e+01 -2.601238738707271381e+01 -8.089229249439208047e+01 -7.572680661195597906e+01 -1.417215982050230139e+01 2.967819087271427492e+01 -1.999484833995630311e+02 -1.012933665527400962e+02 -2.675552812688915338e+01 2.068436360250296673e+02 7.258667643577202000e+01 7.866970645456687805e+01 8.235479215652037510e+01 1.218862704995735902e+00 -8.120842100256599849e+01 2.127283631949617302e+02 -2.511031999602505778e+02 6.030194097568675460e+01 -1.232846219783770323e+02 -3.556653070352376744e+01 4.133940193115359207e+00 1.299745615804326633e+02 -1.260840291074692487e+02 -1.402220939140177158e+01 7.937535534127580661e+01 1.780604352213893549e+02 7.321800607116222182e+01 -7.021729848041950106e+01 4.232729179115989382e+01 -2.910068133216615038e+01 -6.776964106756197737e+01 1.606391331180633131e+02 -7.244535051666450443e+01 -5.347758191487515234e+01 -1.428737450561058324e+02 5.850371425016447802e+00 -5.185923263557776153e+01 3.965476143201914283e+01 -9.101677410062347917e+01 -5.136507407381207457e+01 -1.040298495673122972e+02 -1.594557250218886679e+02 1.998892078186871402e+01 4.649485916444426437e+01 -1.263037663992342488e+02 1.319718302089443362e+01 -8.137514929729111657e+01 5.038761625265608046e+01 1.709009733115847212e+02 -1.479878283888085662e+02 -4.444817931434383951e+01 7.362087777810804035e+00 2.997096639913935157e+00 4.347223949037973512e+01 8.616253446985487585e+01 9.600769684171953644e-01 -9.002414137931774363e+00 -7.186123837470832143e+01 8.030689939386502374e+01 -3.365568015067418628e+01 2.696584053868931008e+01 1.067069063920248766e+02 9.054087958920428036e+01 -4.385317536538536842e+01 5.934185846184887936e+01 1.512757628652115045e+02 1.192219026378973155e+02 -4.149403543275007600e+00 1.787594489443206953e+02 -1.144075168277382062e+02 4.333580462939464972e+00 -4.302886016744892572e+01 2.122356236368472082e+02 -2.177533840304135992e+01 2.942420391871432894e+00 -7.878121164705798662e+01 -7.311303806675043759e+00 -6.553036366744468921e+01 6.952309400280267937e+01 -9.700397933987684951e+01 7.031245212047545579e+01 -4.897421836712714338e+01 -5.107108614302345728e+01 -9.404085857831400119e+01 5.449826772045513934e+01 -5.616904766791692083e+01 -1.532291926906351023e+02 -8.155586117156056503e+01 -1.073503337147814136e+02 -1.613319970464152391e+02 1.394997607548660028e+02 -2.824953097688071679e+01 3.285560082539532090e+01 9.200774311065941902e+01 -1.068124218123356997e+02 5.847222613055597407e+01 -4.445573331346227519e+01 -7.108970862825010784e+01 -9.240124937747161482e+01 2.086249384739416826e+02 -5.822804543855038872e+01 -5.076356540186375810e+01 -4.847746763929131220e+01 8.250681018963460644e+01 -4.247901254981385932e+01 1.416116842454875950e+02 -5.113866712806774473e+01 5.650320181450878465e+01 4.660234543575941579e+00 -8.329652366271770347e+01 7.064023608466048643e+01 2.846214516798840464e+02 -9.439963468654210033e+01 4.875068051726027818e+01 -7.820436892948760033e+01 4.641626437763572710e+01 1.346201296603793480e+02 -5.269698183313470707e+01 1.495535178952330035e+01 -2.761736211925265394e+01 -1.046031009416410882e+02 -1.771490487786832801e+01 4.368654321267469776e+00 -8.033624308944112613e+00 -1.535677098617503056e+01 1.213817558708726239e+02 1.337662099884670681e+02 1.913677694388822204e+02 -3.123419956757773548e+02 3.923154238838709773e+01 -1.615622435522052669e+01 -6.401778305803432545e+01 1.851386158336179335e+02 7.828083169308310119e+01 -2.627839509719979816e+00 -1.190875591401162694e+02 -1.121134277368650878e+01 1.027807022242214572e+02 -1.380456657443246513e+02 -1.732046947417501030e+02 1.102577591128459744e+01 4.359708157428119790e+01 -6.266827714678976236e+01 4.317997154730934284e+01 -1.100168154299221470e+02 -1.554881329126864955e+02 2.170860590129701606e+01 4.992246741922307507e+01 4.925207187941438747e+00 -8.583313612116336344e+01 -9.620489738337582253e+01 -8.670794827548489536e+01 -9.000201550354775293e+01 1.296753577485292297e+01 5.845690609194347331e+01 1.198085412402995615e+02 8.171374763094253524e+01 9.206751269923810810e+01 1.105261050833495915e+02 -7.696837402870939115e+01 -8.492549868961985737e+01 7.258412599467773418e+01 7.043487685621083472e+01 6.098380680462911130e+01 -9.676956474890726412e+00 -9.380324186165816513e+01 5.560206750522059593e+01 -1.843437920819494309e+02 6.919016181207634020e+01 -4.592578000221860179e+01 -9.942486291953262878e+01 7.650370641866481947e+01 -1.765195396021639596e+01 -7.957258594048722955e+01 -5.930096418629277366e+01 -9.426185816512752780e+00 2.504165242611366580e+02 7.926107101265446886e+01 5.660569379510007337e+01 -1.073053820240340457e+02 1.531176974033259626e+02 1.065339806563290193e+00 -9.340255587924791314e+01 1.609893693262798990e+02 -1.593316781611871136e+02 1.630593753264205503e+01 -3.367028619221086672e+01 -2.297278317599264597e+02 -1.395037915806566957e+02 -9.121716315047021340e+01 -3.057948663509221632e+01 -1.246892300058331529e+02 6.029801657634811818e+01 6.793633062691577607e+01 -2.880991182002242823e+01 -1.042371197434270300e+02 1.182490959951776546e+02 1.236269565812147277e+02 4.832752930264010871e+01 1.824279822101202697e+01 2.733158652292144097e+02 4.568731788316209474e+01 -1.248805679335970495e+02 -4.711194525068486172e+01 -1.766800565196508899e+02 3.334465486937625656e+01 1.604528105022105251e+02 -1.553220110170132102e+02 1.378690550736876332e+02 -9.520781174621743048e+01 -1.976957104153967748e+01 -7.626942978788243677e-01 5.532542804068279452e+01 -1.215997640874075891e+01 -2.384574480151761477e+01 -1.983626215328787268e+01 -1.326174746226349157e+02 4.862359742451022271e+01 -3.180458530302767528e+01 -1.361896128662297301e+01 -1.121610601305753363e+01 2.366497888176423601e+02 1.824259374196512340e+02 2.436502421628608488e+02 1.380501284915249016e+02 -9.068048533154041024e+01 7.878255567936891168e+01 2.210455413778050016e+01 4.988605108555665879e+01 -4.164670565030118610e+01 2.675987277782451201e+02 -2.439915106165258862e+01 -1.432516782474300783e+02 -1.567795494387060984e+01 -4.800804307095720702e+01 -8.111903250313774549e+01 4.522942048798203984e+01 -1.227499686555815295e+01 1.906385633230035808e+02 9.687660734271705110e+01 4.285555665267016678e+01 1.027677328404359116e+02 9.899325667153867414e+01 -2.409676892609335042e+01 1.463669704414222963e+02 2.774712419360693261e+01 9.387947887957481896e+01 4.993669982083292069e+01 7.275073289746736727e+00 -1.213699274960147392e+02 -1.214137494862536926e+02 -9.435754879590028565e+01 -1.633155589164723764e+01 9.087059838403112622e+01 -3.215879222035425045e+01 1.036787366227956682e+02 4.591990128719069020e+01 -7.624529898889495882e+01 -3.142840342722217173e+01 -6.143904287310709833e+01 1.841068094836873570e+01 -4.859298369822588626e+01 -1.174712178506038356e+02 1.274334075058765308e+02 1.272058810317084294e+02 -8.275720595297558191e+01 5.738037503662616778e+00 -4.749669956525387704e+01 -3.421342171114542907e+01 -1.189196656907095218e+01 -3.272162031496062440e+01 4.658109878113967994e+01 -1.472997348804137516e+02 -5.537550101459103757e+01 -1.592220131582085116e+02 1.825026479656467586e+02 -2.122854962031325243e+01 6.179014236056437426e+01 1.251117176676525133e+01 1.513054481170128156e+02 4.679526184547490431e+01 3.745400848183329856e+01 1.616661405684171484e+02 -5.160081688012662227e+01 -1.021914724484064578e+02 2.842551197597361323e+01 -1.654538179383488057e+02 -5.590406454870323216e+01 1.070818332617814264e+02 -1.337511157035925180e+02 -3.807027610151310171e+01 9.556673027899319095e+01 -9.892343855848058354e+01 -9.369750545652665608e+01 -8.651088934517886742e+01 -6.682435550497990562e+01 2.605900474039216874e+02 2.073788263864392434e+02 1.077914407331287663e+02 -1.069287268260899282e+02 7.832742087790802543e+01 -6.915192178986509930e+01 -3.261293949597369846e+01 1.735744255975369654e+01 -3.363364374919012789e+01 -9.803221007408657783e+01 -2.817268229940226298e+00 1.548342124827933830e+01 1.136613845927236497e+02 -1.342456971327646329e+02 4.372804080833331142e+01 6.658891543659051138e+01 3.609946010006733275e+01 -9.461223764018492943e+01 -1.550246501164440645e+02 2.017134470955988377e+02 -1.860059889292737623e+01 2.629123732879370934e+01 1.633064775271718361e+02 2.782802397901794222e+01 2.894977374489114652e+01 -4.644353050642904179e+01 9.239026915419584896e+01 -1.421942026756740916e+02 -3.213048788004225997e+01 -6.395148529801476300e+00 -5.569972147580087096e+01 6.414693826771806329e+00 2.222690409301004522e+01 -3.730334268560955735e+01 1.424407261314395434e+01 2.227210163253405710e+02 -2.853547205200361958e+01 -2.912879376275138554e+01 -1.059232699577898984e+02 -1.729425910588886284e+00 -8.414241154072712447e+01 6.684248352096893164e+00 1.167392887975474451e+02 -5.420414911735175423e+01 6.305198317649045592e+00 -5.659254700377930192e+01 3.478676512623625428e+00 9.084252416263166197e+01 -1.206704649863938101e+02 -1.008135662324799142e+02 -1.067967284275161433e+02 7.436741843526350237e+01 9.014733772511303300e+01 -9.614619042693095707e+01 6.517821268966801540e+01 2.687189736632682013e+01 4.028594701511646292e+01 -1.849545772231560292e+01 9.509942105501319531e+01 8.303594512305014064e+01 -8.047780992538133660e+01 1.236471510995160550e+01 8.424392821646084428e+01 7.587391545347611554e+01 -2.068882965966792753e+01 2.602232687159439095e+01 -1.380414478532310056e+02 5.049923502685415144e+01 -3.410993073725162361e+01 -3.397570474483960368e+01 1.803041342011601671e+02 4.939894727495124727e+01 1.251647884780186928e+02 1.987777313061670270e+02 -1.433580553875141561e+02 1.551718816673101173e+02 -6.596439251666591019e+01 -1.406699468389916490e+02 8.570289313642612683e+01 -1.395957072391813938e+02 -2.987690404188956705e+01 5.874462650956620280e+01 8.433894209036349565e+00 -1.749739968092346487e+02 8.766025786359581673e+01 2.623934438042681805e+01 7.193625130669603607e+01 3.774825373166816433e+01 9.868292109824992053e+00 -6.987159092137969196e+01 1.204984469211150468e+02 5.671596808882744511e+01 -6.467637906628394262e+01 -1.053867093568963611e+02 4.056392629865829491e+01 2.669428838025372741e+01 8.574972703276425534e+01 1.912298861070040061e+02 -2.565669804911781071e+01 -1.146468257531915214e+02 -8.823512185585096290e+01 -5.342411995392784263e+01 -4.622342719750332662e+01 -1.527467080386826126e+02 -2.340803960678106321e+01 1.347663697390599395e+02 7.760163410078156687e+01 -1.273760335502766168e+02 -1.559184038239388030e+02 -7.090398843722374522e+01 -7.951667443353390752e+01 1.527062011812366507e+02 -1.774068540699007883e+02 9.004416675637055789e+01 -4.796685900332066765e+00 -4.476766864106971155e+01 1.385831359508631166e+01 9.491263199881842638e+01 5.164253505587210924e+01 1.438388736492738076e+02 -1.656070172891484162e+02 -8.426985246390184159e+01 2.634904670415175332e+01 4.364789625835003051e+01 2.145578694502769963e+02 1.513577361090351019e+02 6.817321039416748363e+01 7.503858410362985865e+01 -3.567132635745692681e+01 1.580229509864109616e+02 -1.865865661042429338e+02 -6.595624010276283400e+01 -5.587163252100216937e+01 -5.389918378698602908e+01 -1.075015056653092955e+02 -1.558438321611644639e+01 -7.143775662189054287e+01 7.408580445466188280e+01 -9.545105673933321100e+00 -6.048726052381314844e+01 -6.487385366258403963e+01 1.875049044541958949e+02 6.135734251833426356e+01 -1.423925987445659302e+01 2.173339190401918870e+02 -1.126965876894194309e+02 -3.677463866377832602e+01 6.966249358056927576e+01 -1.307240894998801528e-01 1.552264525718797294e+01 -1.300793130173350391e+02 1.832934071948642440e+02 -5.099556088489787697e+01 -2.805772000128565935e+01 -1.141226934301000426e+02 1.308974310620375547e+02 9.975619109168434306e+01 -8.063322000363432096e+01 -3.903133846489522085e+01 4.047612626999677587e+01 -1.574319351141728305e+02 -1.263904991734919603e-01 -7.766246327128395421e+01 8.021903303712972999e+00 -1.124095536464876091e+02 -1.647872247732622384e+02 -7.345246562085610265e+01 1.539736097069307732e+02 5.882647113099336167e+01 -9.310358593197425137e+01 9.267872017752323188e+01 3.559321456752075363e+01 9.170324671377065329e+01 -4.374417564452600260e+01 -8.736159110885657242e+01 1.776028149156054781e+02 4.328121786668991433e+01 3.007229360261035467e+01 -7.581908034300192867e+01 -4.392400228714576116e+01 9.944410152063886343e+00 -7.423425775633887724e+00 -1.793760923780442340e+02 -3.590369853125171318e+01 6.686019203371000685e+01 1.158419638207463862e+02 1.615386685074401498e+02 -1.375521551097350503e+01 9.296264226753008586e+01 1.635646765903713060e+02 6.578520947349247194e+01 1.532949157723532494e+02 1.665256977560514429e+01 1.361082301902614518e+02 -8.700359034283249571e+01 5.532226237496751509e+01 3.042287823227822940e+01 7.860611482790113769e+01 -1.100016784470469418e+02 2.050390720161920228e+02 -1.333927315610211508e+02 9.138834589938041120e+01 -1.112353596539829965e+02 4.773352607968433148e+01 1.427207094026869605e+01 9.385784186672350415e+01 -7.622686155846521672e+01 -7.810026359922690631e+01 -1.156323582594272992e+01 9.211789798685953201e+01 -3.058213359875701087e+01 -1.686734758526831968e+01 -2.029153366289326499e+01 4.896379666015385546e+00 1.013941169468296692e+02 -6.463926290191540147e+01 -2.809432510717875697e+00 -1.999300893397006860e+02 1.256341503115372120e+02 -1.286193303131984464e+02 -7.610979669090222899e+01 -2.426182731676835402e+01 -1.111520953361191459e+02 -5.476216005597459713e+01 -6.031056596873381892e+01 -2.024452315003581759e+01 1.403595354929319114e+02 5.567492929319211470e+01 1.034445167034538997e+02 -1.401585825270193766e+02 -1.427260831216758561e+02 -2.950297127474473200e+02 1.051756329093654614e+02 1.074113810138778717e+02 4.351836468705011640e+01 -4.366193717410529018e+01 -3.835395312207302965e+01 -1.891093402339340344e+02 1.505332914543894560e+02 -1.106444076689993068e+02 1.101641645086092609e+02 -1.640172783758684147e+02 -1.473165263848391504e+01 -5.703753846899080315e+01 -1.228250944784988690e+02 -4.747736491948282378e+01 -1.284058324170189991e+01 -9.543404832961061857e+01 -1.066352978639050519e+02 -1.272306792435357004e+01 7.335932910634114990e+01 -1.284079412944016099e+02 -1.615250562729436723e+01 -7.599287507333988856e+01 -1.353995392060502923e+02 6.909353442279332569e+00 9.810712790034000363e+01 1.705286171122058931e+02 -1.966198155194303965e+01 -4.746755203112070376e+01 -1.279194817256002210e+02 -1.685546751969859258e+02 1.069313870775354758e+02 -7.498455036927539652e+01 8.146510310014123490e+01 9.697084790949308086e+00 3.017205709184255369e+01 7.613930268460632078e+01 -8.733414743940691949e+01 8.521805533928512943e+01 1.188450223535579369e+02 1.622789239014467739e+02 -1.202433669936375225e+02 1.071686334890096930e+02 -4.923876811741829584e+01 -9.362065215120291839e+01 2.212285691199646180e+02 5.081260099776666550e+01 8.606878897040800780e+01 2.198585602964318042e+01 -6.511305474154039530e+01 -3.602887573306556845e+01 -2.169290976772727504e+02 1.089202881100850533e+02 8.406349715900044828e+01 -7.806599081307891197e+01 -7.545933607378253782e+01 1.497356432320278827e+02 1.042232102452176292e+02 5.270673363565869352e+01 7.847222162929972455e+01 -8.168445230187851180e+00 1.064274205545419818e+02 -1.067488807626699554e+02 1.922640661373241642e+02 -4.071742742221849909e+01 -1.257955478595743841e+02 -3.882246609906569290e+01 7.399360204766603033e+01 1.519627191149567977e+02 1.336178840297150572e+01 1.792664411834547309e+02 5.385281007133991693e+01 3.465776255601725353e+01 -1.148167624334082717e+02 4.623478177919552223e+01 -1.289838592255302387e+02 4.917518146714196092e+01 3.988412322101034135e+01 -1.271904181113204260e+02 -8.770039022093449432e+01 4.107208215372987326e+01 9.000387559438216556e+00 -2.397922156542971805e+01 4.315159851123546986e+01 -2.206819951503241484e+01 -6.507433361556250873e+01 -2.692418454816648676e+01 -2.318056797328673113e+01 -4.108515806213542731e+01 1.937691118040356031e+01 -8.300026000076341859e+01 1.226921132777743821e+02 -7.668860752979466611e+01 -4.459297087822293726e+00 6.753018915522616794e+01 4.033445526956240812e+00 1.643399196205436397e+01 1.645106993355190284e+01 -1.208265790390693013e+02 -4.563568795677211298e+00 6.709905131985829030e+01 -2.387077720753001699e+02 -8.749510175860996242e+01 -1.162789046948705618e+02 4.515781363057911335e+01 9.924681364973079667e+01 -9.461496880415224098e+01 -1.731539800544354080e+02 -1.909183336403490330e+02 2.060782184052333221e+01 -1.494780807078394105e+02 -6.510629608909588306e+00 1.521468005446151324e+02 -7.346292345964511306e+00 3.828525879371494511e+01 -1.019052937275391884e+02 8.218103826646813559e+01 -1.219783029309365503e+02 -1.583347431507656466e+01 -3.118445328502189540e+01 5.916465529340709395e+01 -9.147602164508008116e+00 1.085721518599615365e+02 -1.253294992782433894e+02 -5.141535198441659560e+01 8.877729152578132243e+01 6.787387941233296829e+01 -8.450362654135305718e+01 -5.577879024169008204e+01 -5.059148760439272507e+01 -2.965940102119800486e+02 1.983211897148401590e+02 7.800526344215073493e+01 -2.419350956950654208e+01 -3.037638091189471012e+01 4.252553379337225437e+01 -8.619144995474033522e+01 1.019063859154513096e+02 6.184555911670950934e+01 8.396371561655544724e+01 -8.603179842411962852e+01 -2.721118441732869542e+01 3.412602939687402426e+01 1.777522286068819213e+01 -4.375881850125125538e+01 1.613944815372237827e+02 -1.768470239163249147e+01 3.615166361646781468e+01 -2.348254015073754317e+02 -8.655340228909102507e+01 -7.476757618827350882e+01 2.351054601658768561e+01 1.115470168479896813e+02 -2.366100248936819810e+02 -1.910392983948141818e+02 2.264386574055708081e+02 -1.079844455728468411e+01 9.814334681336792698e+01 6.409744083124989800e+01 -5.656832383563032352e+01 -1.338036212284671365e+02 -9.719560792511941827e+01 -5.134403848528184255e+01 -3.825170379658844411e+01 -3.998847102794705677e+01 1.653702031592652943e+01 3.790525417654280460e+01 1.703472507296794447e+02 1.257983320752184113e+02 7.049336969727449720e+00 -4.467618489793763636e+00 -1.622063828793918674e+02 1.221979164327138818e+02 1.627313877716958643e+02 -1.055956623797760727e+02 7.530801226658614667e+01 1.842612277604794180e+00 5.603936751297371899e+01 1.281400063882080360e+02 7.245408443254281394e+01 -1.368699577642566112e+02 1.650715965884948133e+01 -3.001258440875525935e+01 1.137513184569111679e+01 -2.369727391940459782e+01 4.634303062561907183e+01 -2.661284758365027869e+02 1.851760322926272977e+02 7.497419539187827553e+00 1.629588077217699151e+02 -1.081539737692158809e+01 1.085841806311419759e+02 7.325205236749800974e+01 -4.298106381089577610e+01 3.055726926484245709e+01 -7.444658971355846688e+01 -9.101192207008034529e+01 -7.377365681892547400e+01 -3.279494982478035325e+01 4.625637259178427030e+01 1.127977500339595878e+02 2.919282499611326642e+01 6.355215617691296615e+01 -1.073337021015817641e+02 -1.404546264414338168e+02 -1.381207373320629372e+01 4.754757273227379244e+01 -4.666414872471045072e+01 9.683215344547024017e+01 5.686971901959943665e+01 -2.834129216264002338e+01 3.069816216449783042e+01 6.288030661424579648e+01 -7.392433647057472967e+01 -1.370665414833167688e+02 1.456664835456501237e+02 8.014356129657036476e+00 5.142011225805182306e+01 -1.530906740364075915e+02 -5.477506288848697125e+01 -4.890600552853089922e-01 -6.738853292538945539e+01 4.389773386063686722e+00 5.774918660550647331e+01 1.913436853069531196e+02 4.015838804054889977e+01 -1.125892642710563862e+01 7.410554908131513230e+01 -4.671727107567333093e+01 -1.119270409872285370e+02 -1.419670825085661647e+02 9.636311457210160469e+00 2.580410810146219802e+01 2.443321695679221150e+01 -5.845656895991000113e+01 1.242149059395520538e+02 -8.311828095621901014e+01 1.319560891755416776e+02 8.978305199921850033e+01 -6.690167740437442490e+01 -8.708315455336118305e+01 8.660804643032540184e+01 2.110014333545527876e+01 -5.399510558507102331e+01 -5.542426978549853089e+01 1.406419400880079706e+02 5.897056540345957387e+01 8.221884982830692934e+01 2.692025739668646267e+01 -4.335208588022639020e+01 1.107050780314184948e+02 -5.619994260465995239e+01 5.359354126381588035e-01 7.890839638622162511e+01 1.026049828841583889e+02 2.632387232514803372e+02 -1.804944754900758710e+02 1.659180568835475356e+02 -6.971756327676216358e+01 -1.569409523810844931e+01 -2.580593825214642933e+01 -2.138665630872025503e+01 -5.695001066319873217e+01 9.586400783843618001e+01 1.900079941937406716e+02 -1.226668293849578220e+02 3.194161983236604030e+01 -1.310858820914437217e+02 7.252169131230137111e+01 -4.600551000139089552e+01 -8.369974794955803077e+01 -5.570493410154881531e+01 4.257912208804977183e+01 2.007481801044824721e+01 -8.467125860018853700e+01 -1.460523794336937158e+02 2.151680015489682063e+01 1.632714663285514973e+02 1.480122196745758956e+01 1.891276413954595625e+02 7.743902114539824133e+00 1.395774697537468398e+02 -3.589014827778055405e+01 9.408258570977636737e+01 -7.413688373016337607e+01 -1.171887027890780928e+02 5.132019644942777603e+01 -6.025600057155720179e+01 -8.154346647073742815e+01 7.576581433494099826e+01 6.679259551840361020e+00 -9.802941481039097482e+01 -1.564954036978406577e+02 1.537847813457114796e+02 -9.275585869111078807e+01 -2.420961732573586378e+00 1.249472293586174203e+02 6.042181985598848826e+01 -1.022223183860050284e+02 1.104144305584032004e+01 2.937416328338125027e+02 5.556616699451189589e+01 -1.643766916047062523e+02 -4.971902229878566004e+01 -6.416072164073590045e+01 1.005285292764835070e+01 1.121630794953506864e+02 -1.079023526631444696e+02 2.247813240549367464e+01 1.361625418529471006e+02 1.959767598635988861e+01 -2.204615901933690623e+02 5.048998827872149064e+01 7.878305556440709267e+01 -1.415987695612177255e+01 3.425268291444182012e+01 1.225102713553799655e-01 2.345497757249870219e+01 2.895724619667144140e+01 1.209017960682736401e+02 1.023134850852863877e+02 1.618550547841108411e+01 1.555991271225291541e+02 -6.684425679952981625e+01 2.575244760965211981e+02 6.788751146444779749e+01 1.479264803699517472e+02 -2.295220009958492113e+01 9.403926259692477174e+01 -5.126443025739005321e+01 -1.528650720687924434e+02 2.737191357682561588e+01 9.935299051040688312e+01 -9.153590639157651765e+01 -1.093985539193830618e+02 -6.950011454110351394e+01 3.820675938018219853e+01 -1.193561325376771833e+02 7.808244000768986837e+01 2.934754356676081954e+01 -1.019744849667314810e+02 1.984542236658198249e+02 -1.229131819100100032e+01 -1.062826741208080392e+02 -1.395897386055408340e+01 -2.134925039884037190e+01 -1.465220538658683722e+02 -4.184134969707279339e+01 6.425175469139080064e+01 1.376643429442368358e+02 3.030345688218129041e+01 2.798179109853689184e+01 4.680002208821058929e+01 -3.738624291548676126e+01 -1.521070516931189900e+02 1.653973629831250491e+01 3.241006918276699622e+01 1.390540598276721482e+02 -1.041509047243473773e+01 -7.957476325580350363e+01 7.650601162113792952e+01 1.055418848545615296e+00 3.343712785964187617e+01 1.455931105455321699e+02 -1.855747669108107800e+02 -9.702575243349923539e+01 1.303428280614708399e+02 -2.190808628320954199e+02 -1.867577094720888056e+02 9.237308560820309822e+01 1.563784217819290348e+02 6.433966827385742704e+01 -4.501245961811758178e+00 1.582146732462544492e+02 -2.228538132877623354e+02 1.088149178047139571e+02 4.303912089281180187e+01 1.290472375771065288e+02 -1.915109503865500642e+02 1.082643745373580373e+02 -2.875176492151893370e+01 -1.357744249500206308e+02 -5.411490988441464367e+00 -9.384771531991475513e+01 -1.661558271964706535e+01 -4.315468923603129170e+00 -1.250961300320246607e+02 -1.252260969719583557e+02 -6.355100570262876403e+01 -1.309349980237898876e+02 2.041191752139957316e+02 -1.634650655421372107e+02 -5.093590151619832085e+01 1.752028089904490287e+02 3.444624410255333657e+01 -3.005549339474429758e+02 -1.290186135706253765e+02 3.608642897614474521e+01 5.548091740201491717e+01 8.770301291830689294e+00 -1.570442671597710103e+02 3.624072728521227305e+01 7.560848799774110951e+00 -7.547544418603968097e+01 2.058266372577157028e+02 2.057466663948682140e+02 4.387712323381165902e+00 -2.117371593265953891e+02 1.279462040861575645e+02 3.126043438549698905e+01 3.778593741769378678e+00 7.784015239067235825e+01 -2.106577616951603034e+02 -1.401821371431333034e+02 1.432400877133214010e+02 1.113274618977911814e+02 5.376783286674475448e+01 1.454697270407442318e+02 -1.810142302664792453e+02 -2.073066893801362909e+01 -1.324657570078119591e+02 4.421696015435743021e+01 -1.054604076464173517e+02 8.837331218718463788e+01 -3.437390298255433407e+01 1.257142178987071546e+01 1.801546649862942786e+02 2.890237319393444437e+01 -2.676286554566461291e+02 -1.282845943898475412e+02 -8.464617778861888553e+01 1.605378298293876753e+02 1.272465606125397741e+01 -5.460191902316513790e+01 3.088546734723668763e+01 6.350104690007341190e+01 -4.021252543348105490e+01 1.091712157344417733e+02 -1.022802948623234585e+02 4.996994342652712362e+01 1.136460896758210453e+02 -3.594715680948885961e+01 -9.963196265057264611e+01 -1.151335092153011601e+02 1.215988077955164925e+02 -5.040868715622173823e+01 1.995746524266436381e+02 5.808400815657167726e+01 1.126701226777960727e+02 1.871935059822124856e+02 8.696446689967572752e+00 -1.261667357923646904e+02 -1.683390952535358167e+02 -1.159618460167186953e+02 4.310499081460311999e+01
-1.352749290829459028e+01 -4.757599281899717703e+00 1.027311926221441212e+02 -2.271310663949895741e+02 1.541411617719253400e+02 6.302144530325514893e+01 1.508832545684178115e+02 -1.280878123470926084e+02 -2.770506336852909257e+00 -2.388716500299700130e+01 -2.176690523268248398e+02 3.248518024815845706e+01 -1.817926285104294948e+01 1.212800028995446979e+02 -1.240022985987060480e+02 6.119793194173998785e+01 1.242876704065212721e+02 -4.555724143290370876e+01 -4.929030390077494417e+01 -2.686197046722549686e+01 6.117779879440669077e+01 6.261976326727597808e+01 3.213686801701188500e+01 -2.306226916482418403e+02 -5.122991761913858255e+01 9.070946791903952544e+01 9.815992519179150833e+00 -1.025192506708117790e+01 -6.599208355242730306e+01 -1.530853164648487663e+01 7.273095556352808444e+01 -1.442038260937600285e+02 -6.136853704696552825e+01 8.931792708435310146e+00 2.057521897714655950e+02 2.102682850569312336e+02 -3.177052800904249708e+01 5.542298560247324701e+01 -2.814563180458418135e-01 -1.385118649779571172e+02 9.519351017759518641e+01 1.063617573994935555e+02 1.076218951611116239e+02 1.160431331418380019e+01 6.139173629897908313e+01 4.772874236108856394e+01 3.856727235011272370e+01 2.906367514955012510e+01 1.093753346758461191e+02 8.898356021687803263e+01 6.507150443162130671e+01 1.616096883860784885e+02 2.455462169721193959e+02 1.939317743968381080e+02 -5.863043882013091945e+01 4.885396941910750002e+01 -6.377107559442156770e+01 5.596261263875965852e+01 -1.905204035890656940e+02 5.603096648001308466e+01 -2.030832509152488967e+02 -1.672987595287512477e+02 1.282990500299715997e+01 -9.148707775535802611e+00 1.681377082430885253e+02 -2.061773461098147493e+02 7.466389697264982317e+01 2.278776487851669685e+02 -7.241861429613123846e+00 -1.930556172037712770e+02 3.531689006602695002e+01 1.956055628589067794e+02 -6.059128178532699849e+01 -2.642478089418925151e+02 -1.017198314681269693e+02 8.733667338455843421e+00 -2.282110994744234631e+02 3.173250656149583548e+01 -1.780141441549339731e+02 -1.841254679260399598e+02 -5.662380876196750989e+01 1.513140250354821319e+02 6.899550298909646529e+01 1.051739126003512936e+01 -8.793240217367706180e+01 -4.229062146080944729e+01 6.329143062267997522e+01 -2.303634380995817139e+02 5.371827465639982790e+01 -7.450700878478568256e+01 -7.753176550610118056e+01 -1.755545045167012859e+02 6.465757325625999385e+01 9.213957120691908642e+01 -1.612275072771138298e+02 1.715771743291024904e+02 -3.964332001009902484e+01 -1.680145805907899259e+01 8.694975672764847729e+01 1.552631959593080921e+02 2.151912568833519401e+01 1.504493889658189971e+02 -1.832944129103443842e+01 -9.012366985151811605e+01 -1.949885241396051683e+01 1.004496286776553831e+02 4.593704091279124668e+01 9.992663724059455888e+01 9.643858462502785756e+01 -8.481873163200883425e+01 -1.735701163679914600e+02 1.257130949462617480e+02 5.543224493841199774e+01 1.648273532498380689e+01 3.124506998466694085e+01 -6.939827153618027467e+01 9.812905525640007909e+01 9.177947149145718697e+01 -1.394841700083379443e+01 -7.279028574297768728e+01 3.146965417600129911e+01 6.406584823839154730e+00 -6.291091028799166196e+01 1.732684624832616578e+02 -3.376732555310616135e+01 1.243130054483788030e+02 -7.168817678172547403e+01 3.924418994283699647e+01 -3.694598137399580651e+01 9.146625599299176201e+01 2.402419637130766716e+01 1.181950446549970337e+02 -1.186198785661168245e+02 7.604175394065252647e+01 1.263349348683741624e+02 -4.575852034568397642e+01 7.734795768182737952e+00 -1.291700184348265346e+01 1.194694051293300134e+02 3.584100093999866399e+00 1.726575327987723369e+02 -1.447399554873856289e+02 1.194573596360362302e+02 -9.354101179311275871e+01 9.801753987149731984e+01 -1.403327595647471071e+02 3.023700322612435087e+01 2.533088963650333980e+01 1.878434263397823933e+00 3.719486406852033866e+01 4.698554890462158795e+01 -1.275516887269668764e+01 1.102893220781947292e+01 1.107454818774794774e+02 1.304168363794489949e+02 -8.880168210899051928e+01 -5.559093858113035935e+01 4.856626426010689102e+01 1.590699629696829653e+00 -1.403718783571597726e+02 -5.645141007697093016e+01 -3.637856668848782959e+01 5.017289609966674391e+01 -6.724916275753616901e+01 2.352719594505990841e+01 1.644837836168206593e+02 -8.153509651243500400e+01 8.286575695298677147e+01 8.630264781808300256e+01 1.149979794300556435e+01 1.266856045540502294e+02 6.455587607068224543e+01 1.725371356645391359e+02 -3.544815614814659455e+01 1.155199064614814404e+02 5.704387202432813098e+01 -1.652491057147539166e+01 2.097371160365430001e+02 -1.426632106624067262e+02 5.023349337955680483e+01 -1.928227706263255925e+02 -8.656266838550892828e+01 4.217569094135959062e+01 -7.425909400177681619e+01 -1.603274834662098272e+02 2.050566303760003564e+02 -8.826436455154068028e+01 -4.886830587487167321e+01 -4.763326774891499582e+01 1.253040222217165081e+02 2.004987498052224453e+02 6.666236413414641504e+01 1.505600585696121243e+02 2.259196837328367735e+02 -1.688037796155049897e+00 1.677524604978028151e+02 7.299478701540822101e+01 1.960439926685801879e+02 -1.294946570024085020e+02 -1.224113888174694154e+01 6.514723060385152920e+00 1.956110638685876495e+02 -9.362586652942798082e+01 -6.223653437630669316e+01 -5.453556215750695912e+01 -1.379061172827356643e+02 4.797596274850300269e+00 -1.039485272920603762e+02 1.586534414675142841e+02 2.428517925612591455e+01 1.237926570099075185e+01 7.446340126961908368e+01 -5.098062802177378394e+00 1.204033497646924218e+02 -1.635553654775079337e+02 4.674277486227092737e+01 -1.759697589914997877e+02 1.209207535911887135e+02 9.884192396523216928e+01 -6.933751752039198379e+01 4.813619276014815540e+01 2.452237004165313863e+02 -3.135033304405807897e+01 4.290570809337218350e+01 -3.364034580421210308e+01 5.965681268122274616e+01 6.621556012458351859e+01 -6.450570540516463502e+00 1.049754596531508639e+02 1.045637251822180929e+02 -1.996367162506323041e+02 -1.577947129074208306e+02 -1.233495688822449949e+02 -9.748086233773635811e+00 -1.542503438740168065e+02 1.189659883801575688e+02 1.136372226286685816e+02 6.069823144865571152e+01 1.148820151562244440e+01 1.623544358178576488e+02 8.644204523381466743e+01 6.947586426813460037e+01 -1.046602973778686589e+02 1.567851157815933902e+02 -3.666300082179634767e+00 1.125222007757931948e+02 9.070923403058147372e+00 3.782493153366315397e+01 -7.793960026874493963e+01 -9.341873220728153626e+01 7.366816640885755874e+01 -3.928184606369229837e+00 1.505385050974041121e+02 -1.295017515765438176e+01 -2.947223487687705479e+00 4.717843226196642092e+01 2.330503555184727915e+01 1.454776490678233074e+02 1.502171454415463003e+01 3.685567916904402352e+01 -1.591265750106942392e+02 6.773492338267537605e+01 1.374474962801235449e+02 -1.821228032935810859e+01 -2.343874701693115696e+02 8.675079424656335902e+01 1.397946153854517775e+02 2.081990216240946978e+01 1.938461830960452801e+02 -4.207348253857985831e+00 4.398791636064022015e+01 -4.464228520308663661e+01 -1.420505078956206262e+02 5.731246833965852261e+01 -4.858344307886810753e+01 -8.298756004503304951e+01 4.215999909388337841e+01 -1.890420437455018146e+02 7.338787806472110731e+01 1.680410766985125690e+02 -1.034880401408480282e+02 1.767561245565769354e+02 -9.983367209891913774e+01 -6.126627950163754832e+00 -1.073166401493783617e+01 7.822291864886685175e+01 -4.754061222229635320e+01 -1.100941550639005442e+02 -9.035391385850225276e+01 1.487597175699814613e+02 6.030248511863600669e+01 -1.343468433770605941e+02 4.541405633963818467e+00 4.431433287040844249e+01 8.419848491870077112e+01 -4.112522797996856383e+01 6.117346887631867247e+01 -7.030256747470504308e+01 -1.655097396647734058e+02 -3.530297725299418943e+01 1.436724001795262780e+02 -1.154910158843991610e+02 -6.557188927234184561e+00 -1.660078940496951532e+02 -4.833178083646203937e+00 -1.485842026217172815e+02 3.348205024107936367e+01 6.121940135011174533e+01 -5.125448469677893115e+01 -8.390833348000612091e+01 5.727358862574532417e+00 7.572423276806053138e+01 -6.898179352325726654e+01 1.371120819182387152e+02 1.073397670737910232e+02 -1.298797351470630588e+02 -1.072777148712852551e+02 1.374123890884833941e+02 7.257998546108112237e+01 1.527334835213977158e+02 1.019840032718850154e+02 8.254353692662158437e+01 -6.125199879033596062e+01 -8.313163830803517840e+01 -7.833508758544876116e+01 2.077894702440686387e+02 3.098685954617465654e+01 -2.528101831971920532e+01 -6.962710953837648731e+01 -5.082541605397229745e+01 -1.331853483680483521e+02 -1.676476140810016702e+01 -1.774440275794696333e+02 1.264723487872897465e+02 4.656373849561691713e+01 -1.165694529334469109e+02 -4.892597102179049529e+01 1.211149085371712744e+02 -9.810611590785563862e+01 1.039799311304188620e+02 -1.197755519346261650e+02 -1.189216676341009737e+01 -9.657251054156502335e+01 9.069562239613038912e+01 -4.295978782541179442e+01 1.047300304020481931e+01 2.963896511539850920e+01 -1.280594048465468973e+02 1.264157058958040203e+01 4.884184761356763715e+01 -2.267674349540147105e+01 -6.949295092161968057e+01 2.046572049895976022e+02 8.737016344921923405e+01 4.765366420984866380e+01 -3.176042621796919363e+01 8.110858965322923098e+01 1.693712295282622335e+02 -9.328792762797279181e+01 2.116516476674671310e+02 -1.344992747867563878e+02 -1.858788853718575638e+02 1.534798422586671904e+02 -2.363958589834235511e+02 -1.025658241499838308e+00 -2.474774921086505515e+02 -1.545394302312788284e+02 7.249629421175662003e+01 -1.471771760891380723e+02 5.899965105988211889e+01 1.110064934095244666e+02 -1.620715920758173922e+02 -3.047181940849533888e+01 7.617820980851652735e+01 1.353306446229421738e+02 -1.880003771747709891e+02 8.835158315213264757e+01 -9.896190014914873245e+01 -9.989833565767842316e+00 -1.404724025835657031e+01 -8.041778771668373338e+01 -9.126437488335945147e+01 1.832437407715966629e+02 -2.188382797503336263e+01 1.336948369439990847e+00 1.315797743677203471e+02 -8.757063743514729026e+01 -3.478998332618704836e+01 -1.087966724435472941e+02 -4.938419643091319244e+01 5.254187747666959396e+00 6.007109440784291365e+01 -1.366864977259904492e+02 2.401126894053865897e+02 -5.460834739570861274e+01 1.243259671591995215e+02 -4.949153591827215593e+01 1.214688315821628919e+02 1.410047295162155763e+02 4.871381575202236291e+01 1.238804960370997037e+02 -4.385179801487309703e+01 1.420122332493332067e+02 -1.587238511917222752e+02 -6.635858834426487363e+01 -6.391164993013498474e+01 2.589178617090660595e+01 -1.647517855582472635e+02 7.365432964900450941e+01 -3.130043749857080115e+01 -8.389529668884189562e+01 9.098299542734099532e+01 -1.533962940922152427e+02 -9.259147276956113615e+01 -5.338052708155873205e+01 3.359321370383305094e+01 1.318144501057622904e+02 1.186781380728898654e+02 7.020681724751267438e+01 -1.656081372947926678e+00 1.775015483696128911e+02 1.243943373873847378e+02 -9.584949588895042893e+01 -7.937127262228693780e+01 5.637198124982093361e+01 1.015736401585879456e+01 9.946505551744246532e+01 1.691563433239125800e+02 7.164191247198601786e+01 2.472903905231133947e+01 -1.037119756875594021e+02 1.744023545561639423e+02 -1.153869778504000294e+02 -1.677412721538426581e+02 6.668384462695634340e+01 1.131098443963261815e+02 1.990515589073461200e+01 -1.408625797864879416e+02 3.018010435662918312e+01 4.305096156949489483e+01 -2.985623278867381436e-01 1.327742133488581828e+02 9.889329946533358395e+01 1.734312117335244352e+01 7.944237511062641488e+01 -1.085515304111723793e+02 -6.369318419939411058e+00 9.967532666048127510e+01 3.008575581772052132e+01 -6.592828853726587113e+01 2.007031583483271220e+02 2.342186993516687608e+02 -1.272406703521476175e+02 -2.796141103092053370e+01 -2.130356349136706058e+02 -7.313831555582677879e+01 1.587119293438239254e+02 3.472776304534615388e+00 -7.191243929353456110e+01 1.659530428663522628e+02 -6.334354309492432833e+01 -1.626655459737058322e+02 1.383005598300071313e+02 -6.809941243837971570e+01 3.486556253183043452e+01 8.746873816144089631e+01 1.394544955498530214e+01 -2.412005253520147505e+02 4.279869502116729052e+01 -6.185819398573265460e+00 9.118097450140437843e+01 -2.385077960030363187e+01 1.024436641318016257e+02 1.716004988899287653e+01 -8.584147136897807684e+01 -2.072168939959740541e+01 -1.773594887847188488e+02 1.164104496253693242e+02 2.557230154075626771e+01 -4.214646364061829331e+01 -5.245331973905337009e+01 -6.361485137589997407e+01 4.158833112024277057e+01 1.626414134968950691e+02 1.343247691974937368e+02 4.360999217954964990e+01 -2.002651184226400289e+02 -3.926362282445158769e+01 4.433748540857810383e+01 1.187850274674975424e+02 8.831325490548164225e+01 1.565375544974238053e+01 -1.883197249203349486e+02 1.333502781647736413e+02 -2.264970766434522602e+02 -2.083227447568817752e+02 -1.881835889497512460e+00 -7.468264489939799944e+01 -2.435163140155047046e+01 8.820292241355907947e+01 5.660821897092598221e+01 -1.125853981215544906e+02 -1.532845709834422507e+02 1.478151438091273562e+01 1.252068687974222172e+02 2.097924200555497976e+01 -5.740482363533026700e+01 -5.222357982320507119e+01 -1.195865097824309942e+01 1.633484288657978425e+02 2.265671989916693718e+01 -1.789058905253805563e+02 1.321460078090189540e+02 -6.880481238757968754e+01 -4.304886043634687631e+00 1.586800064602466307e+02 -5.391770109881905881e+01 -2.016997820907849714e+01 -1.131933409373059902e+02 -6.197841845545349670e+00 -2.459320041109354804e+01 1.357472149951251765e+02 1.237722592172705447e+02 6.964018619042161617e+01 6.738522840323396679e+01 -1.928724574383232238e+01 1.393749740576544127e+02 -1.161693391226469032e+02 -4.399310273341189514e+00 -9.382916238616189730e+01 1.619663001724211142e+02 7.517723842670092438e+01 5.329104417614783529e+01 8.548185461575888766e+00 -5.488625297059858354e+01 3.543312411040933796e+01 6.974097289928528731e+00 3.674731531352641856e+00 2.486391798324764224e+01 6.159601837383224421e+01 1.754266470192511065e+02 -3.998461545203015532e+01 -5.358045269406176203e+01 6.880667896304250064e+01 1.191909838745829973e+02 -1.319279689497230734e+01 9.468936942449769845e+01 1.071396789481432137e+02 2.171039934989111657e+02 -8.917209222156198223e+01 -1.264178886909406003e+02 -2.949520656144264308e+01 6.399701204279420352e+01 -1.045132044280144434e+01 1.106544644326429108e+02 3.834178959000871600e+01 -1.675138965245632789e+02 4.641617557320358856e+01 -9.213718803935775270e+01 -1.393437784552733945e+02 1.385050723264684507e+02 -7.826200241432749749e+01 6.087179147445434069e+01 1.145210583444647909e+02 -1.019813998818801224e+02 2.414450720291304719e+01 -7.427005976373312990e+01 4.141955471140905587e+01 -1.178859413064848383e+02 6.333604371457536786e+01 5.623469572888608070e+01 4.068139926898836300e+00 8.651431946581978139e+01 -1.573572111719448401e+02 7.857407324515386904e+01 -3.004575477715041032e+01 -1.725254922184861073e+02 9.645691831443014053e+01 2.502124379570605583e+01 -2.003579099719465830e+02 2.402081684392065029e+02 -5.370832390584668881e-01 1.074112989679715753e+02 -1.231641728698387084e+02 -1.983267696388923014e+02 -9.529417322273951640e+01 2.511893172924191564e+00 1.459575575476256120e+02 4.121688743343020711e+00 -9.758881581224376589e+01 5.151277634450594434e+01 1.399560055366948745e+02 6.638154290532338564e+01 -5.286176500895034991e+01 -6.038968010030214373e+01 8.630512053115575100e+01 3.142776795474985718e+01 -1.996692716133403565e+02 -2.117605194672091784e+01 1.726346000578664075e+02 1.009578284020000609e+02 -5.852394208482853344e+01 -1.141778427257759034e+02 -4.359435981338424426e+01 -4.910040484902007307e+01 -1.168841099385869029e+02 -1.890839483178442748e+01 -4.663629092300732282e+01 -1.160235748851731330e+02 -1.346503075334521498e+02 -2.747796952781408208e+01 -1.283150873172874071e+02 -1.365827908061704932e+02 -3.914460997830935440e+01 -5.654501934213204350e+01 -1.133308824558200314e+02 1.969906498201799252e+02 1.115029692632116642e+01 -2.977900740618598618e+01 -1.800852276210043357e+01 8.324779150186266463e+01 1.654068190725280019e+01 2.650746274706739669e+01 -2.256238719960502337e+01 -4.888523786648730152e+01 2.214639113100895429e+01 -1.538157653995970691e+02 -1.684826721232502109e+02 -9.574075545490731542e+01 -2.019629148883356038e+02 -9.485794203775814992e+01 9.083694823720016132e+01 6.495289031974918714e+01 -2.759172036683163753e+01 6.431321276762614048e+01 -1.656535438969009135e+02 -4.315331685996780919e+01 -1.228799439836805050e+02 -7.064823852526031089e+01 2.231861623584745757e+02 -2.172489397901576638e+02 2.172326880207968998e+02 2.647867931933704710e+01 -5.978914448452860597e+01 9.766231584503960050e+01 1.313198782457652953e+02 -5.491878299007385777e+01 -2.155714818381929092e+02 -1.577922317932846568e+02 1.082154258376828437e+02 8.864756734485538914e+01 -1.435048873128669698e+02 3.384075481632060445e+01 -4.195702396705488013e+01 -8.191046545785559374e+01 -3.007841591874734988e+01 -5.803776458809046801e+01 -9.149768924891890265e+01 -3.599999389766407631e+01 4.703090557785221115e+00 -3.465161143140790756e+01 -4.395224448386348404e-01 -1.522970931317305343e+01 9.737386614600031010e+01 1.344641653276942463e+02 1.394455323007051284e+01 1.775681823108022428e+01 -6.675782939029265606e+01 -2.074146966805512022e+02 3.583217775350296108e+01 -9.709978176175017950e+01 2.732371915170896770e+01 -8.703364247082072680e+00 1.045269970196778031e+00 7.640731949659299005e+01 1.289725550461209593e+02 -7.454902183686860440e+01 4.021348898023310170e+01 -2.040292858029069407e+02 1.021851710957555959e+01 7.456958634271068753e+00 -1.296778866733193922e+02 -3.570641265919881846e+01 -4.690953548492289116e+01 5.057270257245406242e+00 -1.082203970775362052e+02 2.863722832946719876e+01 -1.033506481597945452e+02 5.943646585089901180e+01 7.177907546665453253e+01 3.901459050846391108e+01 -3.071145257396095474e+01 1.136816041747113815e+02 6.459784096293066114e+01 8.463371187626464121e+01 -7.086568436835054285e+01 2.150960580780580145e+01 1.353112168383769642e+02 -6.183661422468402691e+01 -7.308268438234741815e+00 3.384520158684934188e+01 -1.357895493949947081e+02 1.034722096026458331e+02 9.472875364365093276e+01 -1.069126247567535728e+02 -8.708578281752619432e+01 -5.869032515348227719e+01 -4.811070093685334115e+01 -1.694761669377076601e+02 -1.437081835489585444e+02 -1.400127187486618254e+02 1.116754497394656767e+02 6.314173162718706322e+01 1.685506678934423803e+02 7.595120185712679550e+00 -9.063642008309589926e+01 1.976784116493601573e+01 1.461694538712161595e+01 -6.704363131643872009e+01 7.820928061982880308e+01 1.246874347068671796e+02 1.057799348590312505e+01 1.514766148011655957e+02 2.378646722084309673e+01 1.171641230995730467e+02 1.595941212060903247e+01 -2.193382868926581750e+02 2.305106598346079636e+02 -5.165426173183449521e+01 -1.574313175155738236e+02 -7.091007042847446940e+01 -4.534406925851784820e+01 4.340078369220554322e+01 2.685923122357686310e+01 4.798779328855736281e+01 -7.780002254222034708e+01 1.283780467097269877e+02 -9.047147401598267891e+01 -7.349370870939911704e+00 1.493908342700706839e+02 1.149374080580030153e+02 6.074765019379031372e+01 -1.854410686793923162e+02 2.663690907350606096e+01 1.470382033904990067e+02 2.453988309547202817e+01 1.021063755173024532e+02 1.113287102349468825e+02 -2.209689512161490939e+02 8.039884053553699061e+01 -6.034835880450764023e+01 -2.349006181630812762e+02 9.238004398883582269e+01 2.564771910823803580e+01 -1.267455488060729039e+02 -6.074806182434983270e+01 1.438188003934133974e+02 1.525833206730490872e+02 -7.829277276593397517e+01 -1.318661867139862238e+02 -8.601971287718937731e+01 -1.708160338250282564e+02 2.011701796433127143e+01 3.895785172424268694e+01 -1.736491211781319066e+01 -1.269108476425234855e+01 -9.170224792838087069e+01 -9.053387341945500566e+01 -2.520436878861616847e+01 1.366108536094557735e+02 1.389027946510015283e+02 8.263663140971141274e+01 9.877377177168943945e+01 -7.995031522410737068e+01 -1.833503441467356083e+02 -1.345737416356695348e+01 -2.353251550183271235e+01 -7.195449206516751417e+01 1.528146677953514221e+00 7.407431188422629020e+01 -5.365156046846529136e+01 2.493115587471352157e+01 8.024125685150070808e+01 7.103549440957417005e+01 1.119949290070326242e+02 -1.512078006814950868e+02 4.018122937558385388e+01 8.443304691959798447e+01 9.603549397442243674e+01 5.988332117581465752e+01 -1.046323900276969994e+02 1.387904750180101701e+02 1.291584346750066175e+02 9.711495113730431683e+01 1.028925779836723819e+02 -8.537057638370424684e+01 -1.508246150749302039e+01 -1.308487625872346882e+01 7.811371582976137518e+01 6.583786140130008846e+01 5.668701602601741740e+01 9.891452787019842674e+01 1.180218878893339252e+02 1.254937573461920834e+02 -6.582660587945133557e+01 8.166871365955998385e+01 6.613782367313338284e+01 -1.192390772018886764e+02 1.333732389270657848e+02 -1.018532159659216774e+01 -2.828998392472286127e+01 2.019757538225693168e+02 8.966450701988091510e+01 1.258026678776868010e+02 -1.463419007570693111e+02 -1.600055273967249718e+02 -1.559965694724411378e+02 -1.239580947980676768e+02 -4.493287079985813648e+01 1.114814381292509466e+02 -1.711791653765268677e+02 3.304433942171736760e+01 1.465890420344603911e+02 -6.026142672228084507e+01 -9.280743005134647206e+01 -3.566106154800415595e+01 1.381113043812970318e+02 2.310532545612554998e+02 -6.771303093601399326e+01 2.013962965369577418e+01 -2.818010621086983392e+01 6.965115097309353587e+01 6.131298193841296040e+01 -2.169188099345929857e+02 -9.020432080803458064e+01 1.399833601958389977e+02 1.422816339048546013e+02 9.622453923862435943e+01 -5.067733504957278257e+01 -7.719326752922142987e+01 -4.625872963948063443e+01 -1.797240169727117518e+02 7.248700609862119393e+01 -2.616135859441761369e+01 1.694851257203985710e+02 -2.843616446612178095e+01 -3.204297413160992960e+02 1.476248982803050751e+02 5.130442472082409466e+01 -1.202326888334904709e+02 -2.254308349382079868e+01 3.600067505387831801e+01 -2.116632093481842958e+02 -1.165128506205897594e+02 -1.116921383909418211e+02 -5.756683517012863405e+01 6.405389333239865834e+01 -1.680339011058110827e+02 1.100858339281140985e+02 -5.538416604134194188e+01 2.955564683731113362e+00 -1.360661127048574883e+02 -1.056142532980567381e+02 1.793809943170723216e+02 8.839703962433583229e+01 -4.308793532890648237e+01 3.794744359197407135e+01 -2.863730425443081273e+01 4.406417105542638524e+01 -1.067507949997431922e+02 1.008150325162478111e+02 5.156411564116923074e+01 -1.213680183649093607e+02 1.191789754445818801e+02 -5.018091718472510365e+01 1.020017614799210719e+02 -5.045122245250036030e+01 9.025476229923728511e+01 -1.566489888539174444e+02 1.456914172581195999e+02 2.530335610290640602e+01 1.027639337250105456e+02 1.331816688279585890e+02 -1.497732609724822055e+02 -8.773240273612184126e+01 -1.078956818060740090e+02 6.832940134611446581e+01 -1.750474126759937121e+02 1.547271760680714863e+02 1.455223022694650297e+02 5.414865368243193444e+01 -8.675199883759238162e+01 5.829788331981792027e+01 -1.096318392752364446e+02 -1.121405388605772480e+01 3.577226310756576311e+01 -1.878106415451794646e+02 -8.342321524671646671e+01 -1.383717396283718593e+01 1.045118602274650357e+02 -5.132448492082957614e+01 1.111179260778663291e+02 -6.580478319814862687e+01 -2.156112332274268510e+02 -1.095368598607875583e+02 -3.488488364185542423e+01 -6.157881851934033079e+01 3.080210659118183969e+01 5.253147511160948113e+01 6.507192413144637477e+00 2.584255178503015671e+01 -1.199934022150324324e+02 5.505860048902406589e+01 3.338687968702782172e+01 -7.390581133891853938e+01 9.463135825687340130e+00 5.760931747859812901e+01 -9.768471349116506985e+01 -5.637037166214552286e+01 -2.469697670087640518e+01 9.995220517286855966e+01 -1.753809367938908537e+01 4.292419020679846042e+00 -2.335135082002436491e+02 -9.735426432023095344e+01 1.013185729109508770e+02 -9.144642648295055665e+01 3.210772615913253958e+01 3.183010371309446995e+01 3.889140052913350587e+01 6.770711673239624417e+01 -1.818126412897480009e+02 1.474955215619446278e+02 8.343293411557532124e+01 -7.684017694466284354e+00 -8.280391647184160320e+01 1.147216906813204105e+02 6.362932138828224993e+01 -2.060468512619242176e+02 -5.164560605451815434e+01 -8.369885240698390305e+01 -5.315737589515625672e+01 -6.350570753314408279e+01 -1.015581626073689563e+02 -6.188623696789768758e+01 1.962411801147745507e+02 -1.750805826013141768e+02 6.713419648847535370e+01 2.843289291232634497e+01 -7.704899036959092484e+01 1.063180968829996154e+01 -4.038900666350703972e+01 3.505379063691934860e+00 -9.852846731478372533e+01 -2.024982175655881917e+02 1.885394824815445602e+01 4.298122366936546968e+01 -1.312412106124100752e+01 -9.289440023001541036e+00 -4.078556537826653994e+01 -1.947462983430921497e+02 -3.143816153216041442e+01 -6.702826152608697896e+01 1.434406673229247353e+01 -1.600072687853689146e+01 9.281443383389174073e+01 -6.463010516627699076e+01 -1.063451357126160701e+02 -3.668625754577217890e+01 -9.268220550605887453e+00 4.671138786966658785e+01 -2.272359036978998503e+01 -7.556310053465247734e+01 -1.627225071595242767e+01 2.059585127624347223e+01 4.871883084836228051e+01 -1.169552257566621307e+02 -1.426096458932254336e+02 2.362515448591227596e+02 -2.238785388799699945e+02 -7.792895860294954957e+01 -4.755698630403494320e+01 1.434829330016669360e+02 6.492207091502007188e+01 2.347395317840797304e+02 2.510713137064378770e+02 -6.392972160018714334e+01 1.328486714540043465e+02 -5.735130832015603630e+01 -4.186042374680892664e+01 -1.032837823964897410e+02 -8.192018908472650196e+01 -7.140085525361229202e+01 -9.128636770829463387e+01 -2.501019414327686832e+02 -2.779399393424801019e+02 1.382157448768397501e+02 -2.720952560149445887e+01 5.464715501132592834e+01 1.342401803445943642e+02
