# 
#                 ----------------------------------------------------
#                 Data from a 3D direct N-body simulation. 
# 
#                 rows are i-particle; 
#                 coumns are :mass, tag, x ,y, z, vx, vy, vz, ax, ay, az
# 
#                 NTHU, Computational Physics Lab
# 
#                 ----------------------------------------------------
#                 Time = 5.499999999999927
1.000000000000000000e+00 2.000000000000000000e+00 3.000000000000000000e+00 4.000000000000000000e+00 5.000000000000000000e+00 6.000000000000000000e+00 7.000000000000000000e+00 8.000000000000000000e+00 9.000000000000000000e+00 1.000000000000000000e+01 1.100000000000000000e+01 1.200000000000000000e+01 1.300000000000000000e+01 1.400000000000000000e+01 1.500000000000000000e+01 1.600000000000000000e+01 1.700000000000000000e+01 1.800000000000000000e+01 1.900000000000000000e+01 2.000000000000000000e+01 2.100000000000000000e+01 2.200000000000000000e+01 2.300000000000000000e+01 2.400000000000000000e+01 2.500000000000000000e+01 2.600000000000000000e+01 2.700000000000000000e+01 2.800000000000000000e+01 2.900000000000000000e+01 3.000000000000000000e+01 3.100000000000000000e+01 3.200000000000000000e+01 3.300000000000000000e+01 3.400000000000000000e+01 3.500000000000000000e+01 3.600000000000000000e+01 3.700000000000000000e+01 3.800000000000000000e+01 3.900000000000000000e+01 4.000000000000000000e+01 4.100000000000000000e+01 4.200000000000000000e+01 4.300000000000000000e+01 4.400000000000000000e+01 4.500000000000000000e+01 4.600000000000000000e+01 4.700000000000000000e+01 4.800000000000000000e+01 4.900000000000000000e+01 5.000000000000000000e+01 5.100000000000000000e+01 5.200000000000000000e+01 5.300000000000000000e+01 5.400000000000000000e+01 5.500000000000000000e+01 5.600000000000000000e+01 5.700000000000000000e+01 5.800000000000000000e+01 5.900000000000000000e+01 6.000000000000000000e+01 6.100000000000000000e+01 6.200000000000000000e+01 6.300000000000000000e+01 6.400000000000000000e+01 6.500000000000000000e+01 6.600000000000000000e+01 6.700000000000000000e+01 6.800000000000000000e+01 6.900000000000000000e+01 7.000000000000000000e+01 7.100000000000000000e+01 7.200000000000000000e+01 7.300000000000000000e+01 7.400000000000000000e+01 7.500000000000000000e+01 7.600000000000000000e+01 7.700000000000000000e+01 7.800000000000000000e+01 7.900000000000000000e+01 8.000000000000000000e+01 8.100000000000000000e+01 8.200000000000000000e+01 8.300000000000000000e+01 8.400000000000000000e+01 8.500000000000000000e+01 8.600000000000000000e+01 8.700000000000000000e+01 8.800000000000000000e+01 8.900000000000000000e+01 9.000000000000000000e+01 9.100000000000000000e+01 9.200000000000000000e+01 9.300000000000000000e+01 9.400000000000000000e+01 9.500000000000000000e+01 9.600000000000000000e+01 9.700000000000000000e+01 9.800000000000000000e+01 9.900000000000000000e+01 1.000000000000000000e+02 1.010000000000000000e+02 1.020000000000000000e+02 1.030000000000000000e+02 1.040000000000000000e+02 1.050000000000000000e+02 1.060000000000000000e+02 1.070000000000000000e+02 1.080000000000000000e+02 1.090000000000000000e+02 1.100000000000000000e+02 1.110000000000000000e+02 1.120000000000000000e+02 1.130000000000000000e+02 1.140000000000000000e+02 1.150000000000000000e+02 1.160000000000000000e+02 1.170000000000000000e+02 1.180000000000000000e+02 1.190000000000000000e+02 1.200000000000000000e+02 1.210000000000000000e+02 1.220000000000000000e+02 1.230000000000000000e+02 1.240000000000000000e+02 1.250000000000000000e+02 1.260000000000000000e+02 1.270000000000000000e+02 1.280000000000000000e+02 1.290000000000000000e+02 1.300000000000000000e+02 1.310000000000000000e+02 1.320000000000000000e+02 1.330000000000000000e+02 1.340000000000000000e+02 1.350000000000000000e+02 1.360000000000000000e+02 1.370000000000000000e+02 1.380000000000000000e+02 1.390000000000000000e+02 1.400000000000000000e+02 1.410000000000000000e+02 1.420000000000000000e+02 1.430000000000000000e+02 1.440000000000000000e+02 1.450000000000000000e+02 1.460000000000000000e+02 1.470000000000000000e+02 1.480000000000000000e+02 1.490000000000000000e+02 1.500000000000000000e+02 1.510000000000000000e+02 1.520000000000000000e+02 1.530000000000000000e+02 1.540000000000000000e+02 1.550000000000000000e+02 1.560000000000000000e+02 1.570000000000000000e+02 1.580000000000000000e+02 1.590000000000000000e+02 1.600000000000000000e+02 1.610000000000000000e+02 1.620000000000000000e+02 1.630000000000000000e+02 1.640000000000000000e+02 1.650000000000000000e+02 1.660000000000000000e+02 1.670000000000000000e+02 1.680000000000000000e+02 1.690000000000000000e+02 1.700000000000000000e+02 1.710000000000000000e+02 1.720000000000000000e+02 1.730000000000000000e+02 1.740000000000000000e+02 1.750000000000000000e+02 1.760000000000000000e+02 1.770000000000000000e+02 1.780000000000000000e+02 1.790000000000000000e+02 1.800000000000000000e+02 1.810000000000000000e+02 1.820000000000000000e+02 1.830000000000000000e+02 1.840000000000000000e+02 1.850000000000000000e+02 1.860000000000000000e+02 1.870000000000000000e+02 1.880000000000000000e+02 1.890000000000000000e+02 1.900000000000000000e+02 1.910000000000000000e+02 1.920000000000000000e+02 1.930000000000000000e+02 1.940000000000000000e+02 1.950000000000000000e+02 1.960000000000000000e+02 1.970000000000000000e+02 1.980000000000000000e+02 1.990000000000000000e+02 2.000000000000000000e+02 2.010000000000000000e+02 2.020000000000000000e+02 2.030000000000000000e+02 2.040000000000000000e+02 2.050000000000000000e+02 2.060000000000000000e+02 2.070000000000000000e+02 2.080000000000000000e+02 2.090000000000000000e+02 2.100000000000000000e+02 2.110000000000000000e+02 2.120000000000000000e+02 2.130000000000000000e+02 2.140000000000000000e+02 2.150000000000000000e+02 2.160000000000000000e+02 2.170000000000000000e+02 2.180000000000000000e+02 2.190000000000000000e+02 2.200000000000000000e+02 2.210000000000000000e+02 2.220000000000000000e+02 2.230000000000000000e+02 2.240000000000000000e+02 2.250000000000000000e+02 2.260000000000000000e+02 2.270000000000000000e+02 2.280000000000000000e+02 2.290000000000000000e+02 2.300000000000000000e+02 2.310000000000000000e+02 2.320000000000000000e+02 2.330000000000000000e+02 2.340000000000000000e+02 2.350000000000000000e+02 2.360000000000000000e+02 2.370000000000000000e+02 2.380000000000000000e+02 2.390000000000000000e+02 2.400000000000000000e+02 2.410000000000000000e+02 2.420000000000000000e+02 2.430000000000000000e+02 2.440000000000000000e+02 2.450000000000000000e+02 2.460000000000000000e+02 2.470000000000000000e+02 2.480000000000000000e+02 2.490000000000000000e+02 2.500000000000000000e+02 2.510000000000000000e+02 2.520000000000000000e+02 2.530000000000000000e+02 2.540000000000000000e+02 2.550000000000000000e+02 2.560000000000000000e+02 2.570000000000000000e+02 2.580000000000000000e+02 2.590000000000000000e+02 2.600000000000000000e+02 2.610000000000000000e+02 2.620000000000000000e+02 2.630000000000000000e+02 2.640000000000000000e+02 2.650000000000000000e+02 2.660000000000000000e+02 2.670000000000000000e+02 2.680000000000000000e+02 2.690000000000000000e+02 2.700000000000000000e+02 2.710000000000000000e+02 2.720000000000000000e+02 2.730000000000000000e+02 2.740000000000000000e+02 2.750000000000000000e+02 2.760000000000000000e+02 2.770000000000000000e+02 2.780000000000000000e+02 2.790000000000000000e+02 2.800000000000000000e+02 2.810000000000000000e+02 2.820000000000000000e+02 2.830000000000000000e+02 2.840000000000000000e+02 2.850000000000000000e+02 2.860000000000000000e+02 2.870000000000000000e+02 2.880000000000000000e+02 2.890000000000000000e+02 2.900000000000000000e+02 2.910000000000000000e+02 2.920000000000000000e+02 2.930000000000000000e+02 2.940000000000000000e+02 2.950000000000000000e+02 2.960000000000000000e+02 2.970000000000000000e+02 2.980000000000000000e+02 2.990000000000000000e+02 3.000000000000000000e+02 3.010000000000000000e+02 3.020000000000000000e+02 3.030000000000000000e+02 3.040000000000000000e+02 3.050000000000000000e+02 3.060000000000000000e+02 3.070000000000000000e+02 3.080000000000000000e+02 3.090000000000000000e+02 3.100000000000000000e+02 3.110000000000000000e+02 3.120000000000000000e+02 3.130000000000000000e+02 3.140000000000000000e+02 3.150000000000000000e+02 3.160000000000000000e+02 3.170000000000000000e+02 3.180000000000000000e+02 3.190000000000000000e+02 3.200000000000000000e+02 3.210000000000000000e+02 3.220000000000000000e+02 3.230000000000000000e+02 3.240000000000000000e+02 3.250000000000000000e+02 3.260000000000000000e+02 3.270000000000000000e+02 3.280000000000000000e+02 3.290000000000000000e+02 3.300000000000000000e+02 3.310000000000000000e+02 3.320000000000000000e+02 3.330000000000000000e+02 3.340000000000000000e+02 3.350000000000000000e+02 3.360000000000000000e+02 3.370000000000000000e+02 3.380000000000000000e+02 3.390000000000000000e+02 3.400000000000000000e+02 3.410000000000000000e+02 3.420000000000000000e+02 3.430000000000000000e+02 3.440000000000000000e+02 3.450000000000000000e+02 3.460000000000000000e+02 3.470000000000000000e+02 3.480000000000000000e+02 3.490000000000000000e+02 3.500000000000000000e+02 3.510000000000000000e+02 3.520000000000000000e+02 3.530000000000000000e+02 3.540000000000000000e+02 3.550000000000000000e+02 3.560000000000000000e+02 3.570000000000000000e+02 3.580000000000000000e+02 3.590000000000000000e+02 3.600000000000000000e+02 3.610000000000000000e+02 3.620000000000000000e+02 3.630000000000000000e+02 3.640000000000000000e+02 3.650000000000000000e+02 3.660000000000000000e+02 3.670000000000000000e+02 3.680000000000000000e+02 3.690000000000000000e+02 3.700000000000000000e+02 3.710000000000000000e+02 3.720000000000000000e+02 3.730000000000000000e+02 3.740000000000000000e+02 3.750000000000000000e+02 3.760000000000000000e+02 3.770000000000000000e+02 3.780000000000000000e+02 3.790000000000000000e+02 3.800000000000000000e+02 3.810000000000000000e+02 3.820000000000000000e+02 3.830000000000000000e+02 3.840000000000000000e+02 3.850000000000000000e+02 3.860000000000000000e+02 3.870000000000000000e+02 3.880000000000000000e+02 3.890000000000000000e+02 3.900000000000000000e+02 3.910000000000000000e+02 3.920000000000000000e+02 3.930000000000000000e+02 3.940000000000000000e+02 3.950000000000000000e+02 3.960000000000000000e+02 3.970000000000000000e+02 3.980000000000000000e+02 3.990000000000000000e+02 4.000000000000000000e+02 4.010000000000000000e+02 4.020000000000000000e+02 4.030000000000000000e+02 4.040000000000000000e+02 4.050000000000000000e+02 4.060000000000000000e+02 4.070000000000000000e+02 4.080000000000000000e+02 4.090000000000000000e+02 4.100000000000000000e+02 4.110000000000000000e+02 4.120000000000000000e+02 4.130000000000000000e+02 4.140000000000000000e+02 4.150000000000000000e+02 4.160000000000000000e+02 4.170000000000000000e+02 4.180000000000000000e+02 4.190000000000000000e+02 4.200000000000000000e+02 4.210000000000000000e+02 4.220000000000000000e+02 4.230000000000000000e+02 4.240000000000000000e+02 4.250000000000000000e+02 4.260000000000000000e+02 4.270000000000000000e+02 4.280000000000000000e+02 4.290000000000000000e+02 4.300000000000000000e+02 4.310000000000000000e+02 4.320000000000000000e+02 4.330000000000000000e+02 4.340000000000000000e+02 4.350000000000000000e+02 4.360000000000000000e+02 4.370000000000000000e+02 4.380000000000000000e+02 4.390000000000000000e+02 4.400000000000000000e+02 4.410000000000000000e+02 4.420000000000000000e+02 4.430000000000000000e+02 4.440000000000000000e+02 4.450000000000000000e+02 4.460000000000000000e+02 4.470000000000000000e+02 4.480000000000000000e+02 4.490000000000000000e+02 4.500000000000000000e+02 4.510000000000000000e+02 4.520000000000000000e+02 4.530000000000000000e+02 4.540000000000000000e+02 4.550000000000000000e+02 4.560000000000000000e+02 4.570000000000000000e+02 4.580000000000000000e+02 4.590000000000000000e+02 4.600000000000000000e+02 4.610000000000000000e+02 4.620000000000000000e+02 4.630000000000000000e+02 4.640000000000000000e+02 4.650000000000000000e+02 4.660000000000000000e+02 4.670000000000000000e+02 4.680000000000000000e+02 4.690000000000000000e+02 4.700000000000000000e+02 4.710000000000000000e+02 4.720000000000000000e+02 4.730000000000000000e+02 4.740000000000000000e+02 4.750000000000000000e+02 4.760000000000000000e+02 4.770000000000000000e+02 4.780000000000000000e+02 4.790000000000000000e+02 4.800000000000000000e+02 4.810000000000000000e+02 4.820000000000000000e+02 4.830000000000000000e+02 4.840000000000000000e+02 4.850000000000000000e+02 4.860000000000000000e+02 4.870000000000000000e+02 4.880000000000000000e+02 4.890000000000000000e+02 4.900000000000000000e+02 4.910000000000000000e+02 4.920000000000000000e+02 4.930000000000000000e+02 4.940000000000000000e+02 4.950000000000000000e+02 4.960000000000000000e+02 4.970000000000000000e+02 4.980000000000000000e+02 4.990000000000000000e+02 5.000000000000000000e+02 5.010000000000000000e+02 5.020000000000000000e+02 5.030000000000000000e+02 5.040000000000000000e+02 5.050000000000000000e+02 5.060000000000000000e+02 5.070000000000000000e+02 5.080000000000000000e+02 5.090000000000000000e+02 5.100000000000000000e+02 5.110000000000000000e+02 5.120000000000000000e+02 5.130000000000000000e+02 5.140000000000000000e+02 5.150000000000000000e+02 5.160000000000000000e+02 5.170000000000000000e+02 5.180000000000000000e+02 5.190000000000000000e+02 5.200000000000000000e+02 5.210000000000000000e+02 5.220000000000000000e+02 5.230000000000000000e+02 5.240000000000000000e+02 5.250000000000000000e+02 5.260000000000000000e+02 5.270000000000000000e+02 5.280000000000000000e+02 5.290000000000000000e+02 5.300000000000000000e+02 5.310000000000000000e+02 5.320000000000000000e+02 5.330000000000000000e+02 5.340000000000000000e+02 5.350000000000000000e+02 5.360000000000000000e+02 5.370000000000000000e+02 5.380000000000000000e+02 5.390000000000000000e+02 5.400000000000000000e+02 5.410000000000000000e+02 5.420000000000000000e+02 5.430000000000000000e+02 5.440000000000000000e+02 5.450000000000000000e+02 5.460000000000000000e+02 5.470000000000000000e+02 5.480000000000000000e+02 5.490000000000000000e+02 5.500000000000000000e+02 5.510000000000000000e+02 5.520000000000000000e+02 5.530000000000000000e+02 5.540000000000000000e+02 5.550000000000000000e+02 5.560000000000000000e+02 5.570000000000000000e+02 5.580000000000000000e+02 5.590000000000000000e+02 5.600000000000000000e+02 5.610000000000000000e+02 5.620000000000000000e+02 5.630000000000000000e+02 5.640000000000000000e+02 5.650000000000000000e+02 5.660000000000000000e+02 5.670000000000000000e+02 5.680000000000000000e+02 5.690000000000000000e+02 5.700000000000000000e+02 5.710000000000000000e+02 5.720000000000000000e+02 5.730000000000000000e+02 5.740000000000000000e+02 5.750000000000000000e+02 5.760000000000000000e+02 5.770000000000000000e+02 5.780000000000000000e+02 5.790000000000000000e+02 5.800000000000000000e+02 5.810000000000000000e+02 5.820000000000000000e+02 5.830000000000000000e+02 5.840000000000000000e+02 5.850000000000000000e+02 5.860000000000000000e+02 5.870000000000000000e+02 5.880000000000000000e+02 5.890000000000000000e+02 5.900000000000000000e+02 5.910000000000000000e+02 5.920000000000000000e+02 5.930000000000000000e+02 5.940000000000000000e+02 5.950000000000000000e+02 5.960000000000000000e+02 5.970000000000000000e+02 5.980000000000000000e+02 5.990000000000000000e+02 6.000000000000000000e+02 6.010000000000000000e+02 6.020000000000000000e+02 6.030000000000000000e+02 6.040000000000000000e+02 6.050000000000000000e+02 6.060000000000000000e+02 6.070000000000000000e+02 6.080000000000000000e+02 6.090000000000000000e+02 6.100000000000000000e+02 6.110000000000000000e+02 6.120000000000000000e+02 6.130000000000000000e+02 6.140000000000000000e+02 6.150000000000000000e+02 6.160000000000000000e+02 6.170000000000000000e+02 6.180000000000000000e+02 6.190000000000000000e+02 6.200000000000000000e+02 6.210000000000000000e+02 6.220000000000000000e+02 6.230000000000000000e+02 6.240000000000000000e+02 6.250000000000000000e+02 6.260000000000000000e+02 6.270000000000000000e+02 6.280000000000000000e+02 6.290000000000000000e+02 6.300000000000000000e+02 6.310000000000000000e+02 6.320000000000000000e+02 6.330000000000000000e+02 6.340000000000000000e+02 6.350000000000000000e+02 6.360000000000000000e+02 6.370000000000000000e+02 6.380000000000000000e+02 6.390000000000000000e+02 6.400000000000000000e+02 6.410000000000000000e+02 6.420000000000000000e+02 6.430000000000000000e+02 6.440000000000000000e+02 6.450000000000000000e+02 6.460000000000000000e+02 6.470000000000000000e+02 6.480000000000000000e+02 6.490000000000000000e+02 6.500000000000000000e+02 6.510000000000000000e+02 6.520000000000000000e+02 6.530000000000000000e+02 6.540000000000000000e+02 6.550000000000000000e+02 6.560000000000000000e+02 6.570000000000000000e+02 6.580000000000000000e+02 6.590000000000000000e+02 6.600000000000000000e+02 6.610000000000000000e+02 6.620000000000000000e+02 6.630000000000000000e+02 6.640000000000000000e+02 6.650000000000000000e+02 6.660000000000000000e+02 6.670000000000000000e+02 6.680000000000000000e+02 6.690000000000000000e+02 6.700000000000000000e+02 6.710000000000000000e+02 6.720000000000000000e+02 6.730000000000000000e+02 6.740000000000000000e+02 6.750000000000000000e+02 6.760000000000000000e+02 6.770000000000000000e+02 6.780000000000000000e+02 6.790000000000000000e+02 6.800000000000000000e+02 6.810000000000000000e+02 6.820000000000000000e+02 6.830000000000000000e+02 6.840000000000000000e+02 6.850000000000000000e+02 6.860000000000000000e+02 6.870000000000000000e+02 6.880000000000000000e+02 6.890000000000000000e+02 6.900000000000000000e+02 6.910000000000000000e+02 6.920000000000000000e+02 6.930000000000000000e+02 6.940000000000000000e+02 6.950000000000000000e+02 6.960000000000000000e+02 6.970000000000000000e+02 6.980000000000000000e+02 6.990000000000000000e+02 7.000000000000000000e+02 7.010000000000000000e+02 7.020000000000000000e+02 7.030000000000000000e+02 7.040000000000000000e+02 7.050000000000000000e+02 7.060000000000000000e+02 7.070000000000000000e+02 7.080000000000000000e+02 7.090000000000000000e+02 7.100000000000000000e+02 7.110000000000000000e+02 7.120000000000000000e+02 7.130000000000000000e+02 7.140000000000000000e+02 7.150000000000000000e+02 7.160000000000000000e+02 7.170000000000000000e+02 7.180000000000000000e+02 7.190000000000000000e+02 7.200000000000000000e+02 7.210000000000000000e+02 7.220000000000000000e+02 7.230000000000000000e+02 7.240000000000000000e+02 7.250000000000000000e+02 7.260000000000000000e+02 7.270000000000000000e+02 7.280000000000000000e+02 7.290000000000000000e+02 7.300000000000000000e+02 7.310000000000000000e+02 7.320000000000000000e+02 7.330000000000000000e+02 7.340000000000000000e+02 7.350000000000000000e+02 7.360000000000000000e+02 7.370000000000000000e+02 7.380000000000000000e+02 7.390000000000000000e+02 7.400000000000000000e+02 7.410000000000000000e+02 7.420000000000000000e+02 7.430000000000000000e+02 7.440000000000000000e+02 7.450000000000000000e+02 7.460000000000000000e+02 7.470000000000000000e+02 7.480000000000000000e+02 7.490000000000000000e+02 7.500000000000000000e+02 7.510000000000000000e+02 7.520000000000000000e+02 7.530000000000000000e+02 7.540000000000000000e+02 7.550000000000000000e+02 7.560000000000000000e+02 7.570000000000000000e+02 7.580000000000000000e+02 7.590000000000000000e+02 7.600000000000000000e+02 7.610000000000000000e+02 7.620000000000000000e+02 7.630000000000000000e+02 7.640000000000000000e+02 7.650000000000000000e+02 7.660000000000000000e+02 7.670000000000000000e+02 7.680000000000000000e+02 7.690000000000000000e+02 7.700000000000000000e+02 7.710000000000000000e+02 7.720000000000000000e+02 7.730000000000000000e+02 7.740000000000000000e+02 7.750000000000000000e+02 7.760000000000000000e+02 7.770000000000000000e+02 7.780000000000000000e+02 7.790000000000000000e+02 7.800000000000000000e+02 7.810000000000000000e+02 7.820000000000000000e+02 7.830000000000000000e+02 7.840000000000000000e+02 7.850000000000000000e+02 7.860000000000000000e+02 7.870000000000000000e+02 7.880000000000000000e+02 7.890000000000000000e+02 7.900000000000000000e+02 7.910000000000000000e+02 7.920000000000000000e+02 7.930000000000000000e+02 7.940000000000000000e+02 7.950000000000000000e+02 7.960000000000000000e+02 7.970000000000000000e+02 7.980000000000000000e+02 7.990000000000000000e+02 8.000000000000000000e+02 8.010000000000000000e+02 8.020000000000000000e+02 8.030000000000000000e+02 8.040000000000000000e+02 8.050000000000000000e+02 8.060000000000000000e+02 8.070000000000000000e+02 8.080000000000000000e+02 8.090000000000000000e+02 8.100000000000000000e+02 8.110000000000000000e+02 8.120000000000000000e+02 8.130000000000000000e+02 8.140000000000000000e+02 8.150000000000000000e+02 8.160000000000000000e+02 8.170000000000000000e+02 8.180000000000000000e+02 8.190000000000000000e+02 8.200000000000000000e+02 8.210000000000000000e+02 8.220000000000000000e+02 8.230000000000000000e+02 8.240000000000000000e+02 8.250000000000000000e+02 8.260000000000000000e+02 8.270000000000000000e+02 8.280000000000000000e+02 8.290000000000000000e+02 8.300000000000000000e+02 8.310000000000000000e+02 8.320000000000000000e+02 8.330000000000000000e+02 8.340000000000000000e+02 8.350000000000000000e+02 8.360000000000000000e+02 8.370000000000000000e+02 8.380000000000000000e+02 8.390000000000000000e+02 8.400000000000000000e+02 8.410000000000000000e+02 8.420000000000000000e+02 8.430000000000000000e+02 8.440000000000000000e+02 8.450000000000000000e+02 8.460000000000000000e+02 8.470000000000000000e+02 8.480000000000000000e+02 8.490000000000000000e+02 8.500000000000000000e+02 8.510000000000000000e+02 8.520000000000000000e+02 8.530000000000000000e+02 8.540000000000000000e+02 8.550000000000000000e+02 8.560000000000000000e+02 8.570000000000000000e+02 8.580000000000000000e+02 8.590000000000000000e+02 8.600000000000000000e+02 8.610000000000000000e+02 8.620000000000000000e+02 8.630000000000000000e+02 8.640000000000000000e+02 8.650000000000000000e+02 8.660000000000000000e+02 8.670000000000000000e+02 8.680000000000000000e+02 8.690000000000000000e+02 8.700000000000000000e+02 8.710000000000000000e+02 8.720000000000000000e+02 8.730000000000000000e+02 8.740000000000000000e+02 8.750000000000000000e+02 8.760000000000000000e+02 8.770000000000000000e+02 8.780000000000000000e+02 8.790000000000000000e+02 8.800000000000000000e+02 8.810000000000000000e+02 8.820000000000000000e+02 8.830000000000000000e+02 8.840000000000000000e+02 8.850000000000000000e+02 8.860000000000000000e+02 8.870000000000000000e+02 8.880000000000000000e+02 8.890000000000000000e+02 8.900000000000000000e+02 8.910000000000000000e+02 8.920000000000000000e+02 8.930000000000000000e+02 8.940000000000000000e+02 8.950000000000000000e+02 8.960000000000000000e+02 8.970000000000000000e+02 8.980000000000000000e+02 8.990000000000000000e+02 9.000000000000000000e+02 9.010000000000000000e+02 9.020000000000000000e+02 9.030000000000000000e+02 9.040000000000000000e+02 9.050000000000000000e+02 9.060000000000000000e+02 9.070000000000000000e+02 9.080000000000000000e+02 9.090000000000000000e+02 9.100000000000000000e+02 9.110000000000000000e+02 9.120000000000000000e+02 9.130000000000000000e+02 9.140000000000000000e+02 9.150000000000000000e+02 9.160000000000000000e+02 9.170000000000000000e+02 9.180000000000000000e+02 9.190000000000000000e+02 9.200000000000000000e+02 9.210000000000000000e+02 9.220000000000000000e+02 9.230000000000000000e+02 9.240000000000000000e+02 9.250000000000000000e+02 9.260000000000000000e+02 9.270000000000000000e+02 9.280000000000000000e+02 9.290000000000000000e+02 9.300000000000000000e+02 9.310000000000000000e+02 9.320000000000000000e+02 9.330000000000000000e+02 9.340000000000000000e+02 9.350000000000000000e+02 9.360000000000000000e+02 9.370000000000000000e+02 9.380000000000000000e+02 9.390000000000000000e+02 9.400000000000000000e+02 9.410000000000000000e+02 9.420000000000000000e+02 9.430000000000000000e+02 9.440000000000000000e+02 9.450000000000000000e+02 9.460000000000000000e+02 9.470000000000000000e+02 9.480000000000000000e+02 9.490000000000000000e+02 9.500000000000000000e+02 9.510000000000000000e+02 9.520000000000000000e+02 9.530000000000000000e+02 9.540000000000000000e+02 9.550000000000000000e+02 9.560000000000000000e+02 9.570000000000000000e+02 9.580000000000000000e+02 9.590000000000000000e+02 9.600000000000000000e+02 9.610000000000000000e+02 9.620000000000000000e+02 9.630000000000000000e+02 9.640000000000000000e+02 9.650000000000000000e+02 9.660000000000000000e+02 9.670000000000000000e+02 9.680000000000000000e+02 9.690000000000000000e+02 9.700000000000000000e+02 9.710000000000000000e+02 9.720000000000000000e+02 9.730000000000000000e+02 9.740000000000000000e+02 9.750000000000000000e+02 9.760000000000000000e+02 9.770000000000000000e+02 9.780000000000000000e+02 9.790000000000000000e+02 9.800000000000000000e+02 9.810000000000000000e+02 9.820000000000000000e+02 9.830000000000000000e+02 9.840000000000000000e+02 9.850000000000000000e+02 9.860000000000000000e+02 9.870000000000000000e+02 9.880000000000000000e+02 9.890000000000000000e+02 9.900000000000000000e+02 9.910000000000000000e+02 9.920000000000000000e+02 9.930000000000000000e+02 9.940000000000000000e+02 9.950000000000000000e+02 9.960000000000000000e+02 9.970000000000000000e+02 9.980000000000000000e+02 9.990000000000000000e+02 1.000000000000000000e+03
1.000000000000000021e-02 1.000000000000000021e-02 1.000000000000000021e-02 1.000000000000000021e-02 1.000000000000000021e-02 1.000000000000000021e-02 1.000000000000000021e-02 1.000000000000000021e-02 1.000000000000000021e-02 1.000000000000000021e-02 1.000000000000000021e-02 1.000000000000000021e-02 1.000000000000000021e-02 1.000000000000000021e-02 1.000000000000000021e-02 1.000000000000000021e-02 1.000000000000000021e-02 1.000000000000000021e-02 1.000000000000000021e-02 1.000000000000000021e-02 1.000000000000000021e-02 1.000000000000000021e-02 1.000000000000000021e-02 1.000000000000000021e-02 1.000000000000000021e-02 1.000000000000000021e-02 1.000000000000000021e-02 1.000000000000000021e-02 1.000000000000000021e-02 1.000000000000000021e-02 1.000000000000000021e-02 1.000000000000000021e-02 1.000000000000000021e-02 1.000000000000000021e-02 1.000000000000000021e-02 1.000000000000000021e-02 1.000000000000000021e-02 1.000000000000000021e-02 1.000000000000000021e-02 1.000000000000000021e-02 1.000000000000000021e-02 1.000000000000000021e-02 1.000000000000000021e-02 1.000000000000000021e-02 1.000000000000000021e-02 1.000000000000000021e-02 1.000000000000000021e-02 1.000000000000000021e-02 1.000000000000000021e-02 1.000000000000000021e-02 1.000000000000000021e-02 1.000000000000000021e-02 1.000000000000000021e-02 1.000000000000000021e-02 1.000000000000000021e-02 1.000000000000000021e-02 1.000000000000000021e-02 1.000000000000000021e-02 1.000000000000000021e-02 1.000000000000000021e-02 1.000000000000000021e-02 1.000000000000000021e-02 1.000000000000000021e-02 1.000000000000000021e-02 1.000000000000000021e-02 1.000000000000000021e-02 1.000000000000000021e-02 1.000000000000000021e-02 1.000000000000000021e-02 1.000000000000000021e-02 1.000000000000000021e-02 1.000000000000000021e-02 1.000000000000000021e-02 1.000000000000000021e-02 1.000000000000000021e-02 1.000000000000000021e-02 1.000000000000000021e-02 1.000000000000000021e-02 1.000000000000000021e-02 1.000000000000000021e-02 1.000000000000000021e-02 1.000000000000000021e-02 1.000000000000000021e-02 1.000000000000000021e-02 1.000000000000000021e-02 1.000000000000000021e-02 1.000000000000000021e-02 1.000000000000000021e-02 1.000000000000000021e-02 1.000000000000000021e-02 1.000000000000000021e-02 1.000000000000000021e-02 1.000000000000000021e-02 1.000000000000000021e-02 1.000000000000000021e-02 1.000000000000000021e-02 1.000000000000000021e-02 1.000000000000000021e-02 1.000000000000000021e-02 1.000000000000000021e-02 1.000000000000000021e-02 1.000000000000000021e-02 1.000000000000000021e-02 1.000000000000000021e-02 1.000000000000000021e-02 1.000000000000000021e-02 1.000000000000000021e-02 1.000000000000000021e-02 1.000000000000000021e-02 1.000000000000000021e-02 1.000000000000000021e-02 1.000000000000000021e-02 1.000000000000000021e-02 1.000000000000000021e-02 1.000000000000000021e-02 1.000000000000000021e-02 1.000000000000000021e-02 1.000000000000000021e-02 1.000000000000000021e-02 1.000000000000000021e-02 1.000000000000000021e-02 1.000000000000000021e-02 1.000000000000000021e-02 1.000000000000000021e-02 1.000000000000000021e-02 1.000000000000000021e-02 1.000000000000000021e-02 1.000000000000000021e-02 1.000000000000000021e-02 1.000000000000000021e-02 1.000000000000000021e-02 1.000000000000000021e-02 1.000000000000000021e-02 1.000000000000000021e-02 1.000000000000000021e-02 1.000000000000000021e-02 1.000000000000000021e-02 1.000000000000000021e-02 1.000000000000000021e-02 1.000000000000000021e-02 1.000000000000000021e-02 1.000000000000000021e-02 1.000000000000000021e-02 1.000000000000000021e-02 1.000000000000000021e-02 1.000000000000000021e-02 1.000000000000000021e-02 1.000000000000000021e-02 1.000000000000000021e-02 1.000000000000000021e-02 1.000000000000000021e-02 1.000000000000000021e-02 1.000000000000000021e-02 1.000000000000000021e-02 1.000000000000000021e-02 1.000000000000000021e-02 1.000000000000000021e-02 1.000000000000000021e-02 1.000000000000000021e-02 1.000000000000000021e-02 1.000000000000000021e-02 1.000000000000000021e-02 1.000000000000000021e-02 1.000000000000000021e-02 1.000000000000000021e-02 1.000000000000000021e-02 1.000000000000000021e-02 1.000000000000000021e-02 1.000000000000000021e-02 1.000000000000000021e-02 1.000000000000000021e-02 1.000000000000000021e-02 1.000000000000000021e-02 1.000000000000000021e-02 1.000000000000000021e-02 1.000000000000000021e-02 1.000000000000000021e-02 1.000000000000000021e-02 1.000000000000000021e-02 1.000000000000000021e-02 1.000000000000000021e-02 1.000000000000000021e-02 1.000000000000000021e-02 1.000000000000000021e-02 1.000000000000000021e-02 1.000000000000000021e-02 1.000000000000000021e-02 1.000000000000000021e-02 1.000000000000000021e-02 1.000000000000000021e-02 1.000000000000000021e-02 1.000000000000000021e-02 1.000000000000000021e-02 1.000000000000000021e-02 1.000000000000000021e-02 1.000000000000000021e-02 1.000000000000000021e-02 1.000000000000000021e-02 1.000000000000000021e-02 1.000000000000000021e-02 1.000000000000000021e-02 1.000000000000000021e-02 1.000000000000000021e-02 1.000000000000000021e-02 1.000000000000000021e-02 1.000000000000000021e-02 1.000000000000000021e-02 1.000000000000000021e-02 1.000000000000000021e-02 1.000000000000000021e-02 1.000000000000000021e-02 1.000000000000000021e-02 1.000000000000000021e-02 1.000000000000000021e-02 1.000000000000000021e-02 1.000000000000000021e-02 1.000000000000000021e-02 1.000000000000000021e-02 1.000000000000000021e-02 1.000000000000000021e-02 1.000000000000000021e-02 1.000000000000000021e-02 1.000000000000000021e-02 1.000000000000000021e-02 1.000000000000000021e-02 1.000000000000000021e-02 1.000000000000000021e-02 1.000000000000000021e-02 1.000000000000000021e-02 1.000000000000000021e-02 1.000000000000000021e-02 1.000000000000000021e-02 1.000000000000000021e-02 1.000000000000000021e-02 1.000000000000000021e-02 1.000000000000000021e-02 1.000000000000000021e-02 1.000000000000000021e-02 1.000000000000000021e-02 1.000000000000000021e-02 1.000000000000000021e-02 1.000000000000000021e-02 1.000000000000000021e-02 1.000000000000000021e-02 1.000000000000000021e-02 1.000000000000000021e-02 1.000000000000000021e-02 1.000000000000000021e-02 1.000000000000000021e-02 1.000000000000000021e-02 1.000000000000000021e-02 1.000000000000000021e-02 1.000000000000000021e-02 1.000000000000000021e-02 1.000000000000000021e-02 1.000000000000000021e-02 1.000000000000000021e-02 1.000000000000000021e-02 1.000000000000000021e-02 1.000000000000000021e-02 1.000000000000000021e-02 1.000000000000000021e-02 1.000000000000000021e-02 1.000000000000000021e-02 1.000000000000000021e-02 1.000000000000000021e-02 1.000000000000000021e-02 1.000000000000000021e-02 1.000000000000000021e-02 1.000000000000000021e-02 1.000000000000000021e-02 1.000000000000000021e-02 1.000000000000000021e-02 1.000000000000000021e-02 1.000000000000000021e-02 1.000000000000000021e-02 1.000000000000000021e-02 1.000000000000000021e-02 1.000000000000000021e-02 1.000000000000000021e-02 1.000000000000000021e-02 1.000000000000000021e-02 1.000000000000000021e-02 1.000000000000000021e-02 1.000000000000000021e-02 1.000000000000000021e-02 1.000000000000000021e-02 1.000000000000000021e-02 1.000000000000000021e-02 1.000000000000000021e-02 1.000000000000000021e-02 1.000000000000000021e-02 1.000000000000000021e-02 1.000000000000000021e-02 1.000000000000000021e-02 1.000000000000000021e-02 1.000000000000000021e-02 1.000000000000000021e-02 1.000000000000000021e-02 1.000000000000000021e-02 1.000000000000000021e-02 1.000000000000000021e-02 1.000000000000000021e-02 1.000000000000000021e-02 1.000000000000000021e-02 1.000000000000000021e-02 1.000000000000000021e-02 1.000000000000000021e-02 1.000000000000000021e-02 1.000000000000000021e-02 1.000000000000000021e-02 1.000000000000000021e-02 1.000000000000000021e-02 1.000000000000000021e-02 1.000000000000000021e-02 1.000000000000000021e-02 1.000000000000000021e-02 1.000000000000000021e-02 1.000000000000000021e-02 1.000000000000000021e-02 1.000000000000000021e-02 1.000000000000000021e-02 1.000000000000000021e-02 1.000000000000000021e-02 1.000000000000000021e-02 1.000000000000000021e-02 1.000000000000000021e-02 1.000000000000000021e-02 1.000000000000000021e-02 1.000000000000000021e-02 1.000000000000000021e-02 1.000000000000000021e-02 1.000000000000000021e-02 1.000000000000000021e-02 1.000000000000000021e-02 1.000000000000000021e-02 1.000000000000000021e-02 1.000000000000000021e-02 1.000000000000000021e-02 1.000000000000000021e-02 1.000000000000000021e-02 1.000000000000000021e-02 1.000000000000000021e-02 1.000000000000000021e-02 1.000000000000000021e-02 1.000000000000000021e-02 1.000000000000000021e-02 1.000000000000000021e-02 1.000000000000000021e-02 1.000000000000000021e-02 1.000000000000000021e-02 1.000000000000000021e-02 1.000000000000000021e-02 1.000000000000000021e-02 1.000000000000000021e-02 1.000000000000000021e-02 1.000000000000000021e-02 1.000000000000000021e-02 1.000000000000000021e-02 1.000000000000000021e-02 1.000000000000000021e-02 1.000000000000000021e-02 1.000000000000000021e-02 1.000000000000000021e-02 1.000000000000000021e-02 1.000000000000000021e-02 1.000000000000000021e-02 1.000000000000000021e-02 1.000000000000000021e-02 1.000000000000000021e-02 1.000000000000000021e-02 1.000000000000000021e-02 1.000000000000000021e-02 1.000000000000000021e-02 1.000000000000000021e-02 1.000000000000000021e-02 1.000000000000000021e-02 1.000000000000000021e-02 1.000000000000000021e-02 1.000000000000000021e-02 1.000000000000000021e-02 1.000000000000000021e-02 1.000000000000000021e-02 1.000000000000000021e-02 1.000000000000000021e-02 1.000000000000000021e-02 1.000000000000000021e-02 1.000000000000000021e-02 1.000000000000000021e-02 1.000000000000000021e-02 1.000000000000000021e-02 1.000000000000000021e-02 1.000000000000000021e-02 1.000000000000000021e-02 1.000000000000000021e-02 1.000000000000000021e-02 1.000000000000000021e-02 1.000000000000000021e-02 1.000000000000000021e-02 1.000000000000000021e-02 1.000000000000000021e-02 1.000000000000000021e-02 1.000000000000000021e-02 1.000000000000000021e-02 1.000000000000000021e-02 1.000000000000000021e-02 1.000000000000000021e-02 1.000000000000000021e-02 1.000000000000000021e-02 1.000000000000000021e-02 1.000000000000000021e-02 1.000000000000000021e-02 1.000000000000000021e-02 1.000000000000000021e-02 1.000000000000000021e-02 1.000000000000000021e-02 1.000000000000000021e-02 1.000000000000000021e-02 1.000000000000000021e-02 1.000000000000000021e-02 1.000000000000000021e-02 1.000000000000000021e-02 1.000000000000000021e-02 1.000000000000000021e-02 1.000000000000000021e-02 1.000000000000000021e-02 1.000000000000000021e-02 1.000000000000000021e-02 1.000000000000000021e-02 1.000000000000000021e-02 1.000000000000000021e-02 1.000000000000000021e-02 1.000000000000000021e-02 1.000000000000000021e-02 1.000000000000000021e-02 1.000000000000000021e-02 1.000000000000000021e-02 1.000000000000000021e-02 1.000000000000000021e-02 1.000000000000000021e-02 1.000000000000000021e-02 1.000000000000000021e-02 1.000000000000000021e-02 1.000000000000000021e-02 1.000000000000000021e-02 1.000000000000000021e-02 1.000000000000000021e-02 1.000000000000000021e-02 1.000000000000000021e-02 1.000000000000000021e-02 1.000000000000000021e-02 1.000000000000000021e-02 1.000000000000000021e-02 1.000000000000000021e-02 1.000000000000000021e-02 1.000000000000000021e-02 1.000000000000000021e-02 1.000000000000000021e-02 1.000000000000000021e-02 1.000000000000000021e-02 1.000000000000000021e-02 1.000000000000000021e-02 1.000000000000000021e-02 1.000000000000000021e-02 1.000000000000000021e-02 1.000000000000000021e-02 1.000000000000000021e-02 1.000000000000000021e-02 1.000000000000000021e-02 1.000000000000000021e-02 1.000000000000000021e-02 1.000000000000000021e-02 1.000000000000000021e-02 1.000000000000000021e-02 1.000000000000000021e-02 1.000000000000000021e-02 1.000000000000000021e-02 1.000000000000000021e-02 1.000000000000000021e-02 1.000000000000000021e-02 1.000000000000000021e-02 1.000000000000000021e-02 1.000000000000000021e-02 1.000000000000000021e-02 1.000000000000000021e-02 1.000000000000000021e-02 1.000000000000000021e-02 1.000000000000000021e-02 1.000000000000000021e-02 1.000000000000000021e-02 1.000000000000000021e-02 1.000000000000000021e-02 1.000000000000000021e-02 1.000000000000000021e-02 1.000000000000000021e-02 1.000000000000000021e-02 1.000000000000000021e-02 1.000000000000000021e-02 1.000000000000000021e-02 1.000000000000000021e-02 1.000000000000000021e-02 1.000000000000000021e-02 1.000000000000000021e-02 1.000000000000000021e-02 1.000000000000000021e-02 1.000000000000000021e-02 1.000000000000000021e-02 1.000000000000000021e-02 1.000000000000000021e-02 1.000000000000000021e-02 1.000000000000000021e-02 1.000000000000000021e-02 1.000000000000000021e-02 1.000000000000000021e-02 1.000000000000000021e-02 1.000000000000000021e-02 1.000000000000000021e-02 1.000000000000000021e-02 1.000000000000000021e-02 1.000000000000000021e-02 1.000000000000000021e-02 1.000000000000000021e-02 1.000000000000000021e-02 1.000000000000000021e-02 1.000000000000000021e-02 1.000000000000000021e-02 1.000000000000000021e-02 1.000000000000000021e-02 1.000000000000000021e-02 1.000000000000000021e-02 1.000000000000000021e-02 1.000000000000000021e-02 1.000000000000000021e-02 1.000000000000000021e-02 1.000000000000000021e-02 1.000000000000000021e-02 1.000000000000000021e-02 1.000000000000000021e-02 1.000000000000000021e-02 1.000000000000000021e-02 1.000000000000000021e-02 1.000000000000000021e-02 1.000000000000000021e-02 1.000000000000000021e-02 1.000000000000000021e-02 1.000000000000000021e-02 1.000000000000000021e-02 1.000000000000000021e-02 1.000000000000000021e-02 1.000000000000000021e-02 1.000000000000000021e-02 1.000000000000000021e-02 1.000000000000000021e-02 1.000000000000000021e-02 1.000000000000000021e-02 1.000000000000000021e-02 1.000000000000000021e-02 1.000000000000000021e-02 1.000000000000000021e-02 1.000000000000000021e-02 1.000000000000000021e-02 1.000000000000000021e-02 1.000000000000000021e-02 1.000000000000000021e-02 1.000000000000000021e-02 1.000000000000000021e-02 1.000000000000000021e-02 1.000000000000000021e-02 1.000000000000000021e-02 1.000000000000000021e-02 1.000000000000000021e-02 1.000000000000000021e-02 1.000000000000000021e-02 1.000000000000000021e-02 1.000000000000000021e-02 1.000000000000000021e-02 1.000000000000000021e-02 1.000000000000000021e-02 1.000000000000000021e-02 1.000000000000000021e-02 1.000000000000000021e-02 1.000000000000000021e-02 1.000000000000000021e-02 1.000000000000000021e-02 1.000000000000000021e-02 1.000000000000000021e-02 1.000000000000000021e-02 1.000000000000000021e-02 1.000000000000000021e-02 1.000000000000000021e-02 1.000000000000000021e-02 1.000000000000000021e-02 1.000000000000000021e-02 1.000000000000000021e-02 1.000000000000000021e-02 1.000000000000000021e-02 1.000000000000000021e-02 1.000000000000000021e-02 1.000000000000000021e-02 1.000000000000000021e-02 1.000000000000000021e-02 1.000000000000000021e-02 1.000000000000000021e-02 1.000000000000000021e-02 1.000000000000000021e-02 1.000000000000000021e-02 1.000000000000000021e-02 1.000000000000000021e-02 1.000000000000000021e-02 1.000000000000000021e-02 1.000000000000000021e-02 1.000000000000000021e-02 1.000000000000000021e-02 1.000000000000000021e-02 1.000000000000000021e-02 1.000000000000000021e-02 1.000000000000000021e-02 1.000000000000000021e-02 1.000000000000000021e-02 1.000000000000000021e-02 1.000000000000000021e-02 1.000000000000000021e-02 1.000000000000000021e-02 1.000000000000000021e-02 1.000000000000000021e-02 1.000000000000000021e-02 1.000000000000000021e-02 1.000000000000000021e-02 1.000000000000000021e-02 1.000000000000000021e-02 1.000000000000000021e-02 1.000000000000000021e-02 1.000000000000000021e-02 1.000000000000000021e-02 1.000000000000000021e-02 1.000000000000000021e-02 1.000000000000000021e-02 1.000000000000000021e-02 1.000000000000000021e-02 1.000000000000000021e-02 1.000000000000000021e-02 1.000000000000000021e-02 1.000000000000000021e-02 1.000000000000000021e-02 1.000000000000000021e-02 1.000000000000000021e-02 1.000000000000000021e-02 1.000000000000000021e-02 1.000000000000000021e-02 1.000000000000000021e-02 1.000000000000000021e-02 1.000000000000000021e-02 1.000000000000000021e-02 1.000000000000000021e-02 1.000000000000000021e-02 1.000000000000000021e-02 1.000000000000000021e-02 1.000000000000000021e-02 1.000000000000000021e-02 1.000000000000000021e-02 1.000000000000000021e-02 1.000000000000000021e-02 1.000000000000000021e-02 1.000000000000000021e-02 1.000000000000000021e-02 1.000000000000000021e-02 1.000000000000000021e-02 1.000000000000000021e-02 1.000000000000000021e-02 1.000000000000000021e-02 1.000000000000000021e-02 1.000000000000000021e-02 1.000000000000000021e-02 1.000000000000000021e-02 1.000000000000000021e-02 1.000000000000000021e-02 1.000000000000000021e-02 1.000000000000000021e-02 1.000000000000000021e-02 1.000000000000000021e-02 1.000000000000000021e-02 1.000000000000000021e-02 1.000000000000000021e-02 1.000000000000000021e-02 1.000000000000000021e-02 1.000000000000000021e-02 1.000000000000000021e-02 1.000000000000000021e-02 1.000000000000000021e-02 1.000000000000000021e-02 1.000000000000000021e-02 1.000000000000000021e-02 1.000000000000000021e-02 1.000000000000000021e-02 1.000000000000000021e-02 1.000000000000000021e-02 1.000000000000000021e-02 1.000000000000000021e-02 1.000000000000000021e-02 1.000000000000000021e-02 1.000000000000000021e-02 1.000000000000000021e-02 1.000000000000000021e-02 1.000000000000000021e-02 1.000000000000000021e-02 1.000000000000000021e-02 1.000000000000000021e-02 1.000000000000000021e-02 1.000000000000000021e-02 1.000000000000000021e-02 1.000000000000000021e-02 1.000000000000000021e-02 1.000000000000000021e-02 1.000000000000000021e-02 1.000000000000000021e-02 1.000000000000000021e-02 1.000000000000000021e-02 1.000000000000000021e-02 1.000000000000000021e-02 1.000000000000000021e-02 1.000000000000000021e-02 1.000000000000000021e-02 1.000000000000000021e-02 1.000000000000000021e-02 1.000000000000000021e-02 1.000000000000000021e-02 1.000000000000000021e-02 1.000000000000000021e-02 1.000000000000000021e-02 1.000000000000000021e-02 1.000000000000000021e-02 1.000000000000000021e-02 1.000000000000000021e-02 1.000000000000000021e-02 1.000000000000000021e-02 1.000000000000000021e-02 1.000000000000000021e-02 1.000000000000000021e-02 1.000000000000000021e-02 1.000000000000000021e-02 1.000000000000000021e-02 1.000000000000000021e-02 1.000000000000000021e-02 1.000000000000000021e-02 1.000000000000000021e-02 1.000000000000000021e-02 1.000000000000000021e-02 1.000000000000000021e-02 1.000000000000000021e-02 1.000000000000000021e-02 1.000000000000000021e-02 1.000000000000000021e-02 1.000000000000000021e-02 1.000000000000000021e-02 1.000000000000000021e-02 1.000000000000000021e-02 1.000000000000000021e-02 1.000000000000000021e-02 1.000000000000000021e-02 1.000000000000000021e-02 1.000000000000000021e-02 1.000000000000000021e-02 1.000000000000000021e-02 1.000000000000000021e-02 1.000000000000000021e-02 1.000000000000000021e-02 1.000000000000000021e-02 1.000000000000000021e-02 1.000000000000000021e-02 1.000000000000000021e-02 1.000000000000000021e-02 1.000000000000000021e-02 1.000000000000000021e-02 1.000000000000000021e-02 1.000000000000000021e-02 1.000000000000000021e-02 1.000000000000000021e-02 1.000000000000000021e-02 1.000000000000000021e-02 1.000000000000000021e-02 1.000000000000000021e-02 1.000000000000000021e-02 1.000000000000000021e-02 1.000000000000000021e-02 1.000000000000000021e-02 1.000000000000000021e-02 1.000000000000000021e-02 1.000000000000000021e-02 1.000000000000000021e-02 1.000000000000000021e-02 1.000000000000000021e-02 1.000000000000000021e-02 1.000000000000000021e-02 1.000000000000000021e-02 1.000000000000000021e-02 1.000000000000000021e-02 1.000000000000000021e-02 1.000000000000000021e-02 1.000000000000000021e-02 1.000000000000000021e-02 1.000000000000000021e-02 1.000000000000000021e-02 1.000000000000000021e-02 1.000000000000000021e-02 1.000000000000000021e-02 1.000000000000000021e-02 1.000000000000000021e-02 1.000000000000000021e-02 1.000000000000000021e-02 1.000000000000000021e-02 1.000000000000000021e-02 1.000000000000000021e-02 1.000000000000000021e-02 1.000000000000000021e-02 1.000000000000000021e-02 1.000000000000000021e-02 1.000000000000000021e-02 1.000000000000000021e-02 1.000000000000000021e-02 1.000000000000000021e-02 1.000000000000000021e-02 1.000000000000000021e-02 1.000000000000000021e-02 1.000000000000000021e-02 1.000000000000000021e-02 1.000000000000000021e-02 1.000000000000000021e-02 1.000000000000000021e-02 1.000000000000000021e-02 1.000000000000000021e-02 1.000000000000000021e-02 1.000000000000000021e-02 1.000000000000000021e-02 1.000000000000000021e-02 1.000000000000000021e-02 1.000000000000000021e-02 1.000000000000000021e-02 1.000000000000000021e-02 1.000000000000000021e-02 1.000000000000000021e-02 1.000000000000000021e-02 1.000000000000000021e-02 1.000000000000000021e-02 1.000000000000000021e-02 1.000000000000000021e-02 1.000000000000000021e-02 1.000000000000000021e-02 1.000000000000000021e-02 1.000000000000000021e-02 1.000000000000000021e-02 1.000000000000000021e-02 1.000000000000000021e-02 1.000000000000000021e-02 1.000000000000000021e-02 1.000000000000000021e-02 1.000000000000000021e-02 1.000000000000000021e-02 1.000000000000000021e-02 1.000000000000000021e-02 1.000000000000000021e-02 1.000000000000000021e-02 1.000000000000000021e-02 1.000000000000000021e-02 1.000000000000000021e-02 1.000000000000000021e-02 1.000000000000000021e-02 1.000000000000000021e-02 1.000000000000000021e-02 1.000000000000000021e-02 1.000000000000000021e-02 1.000000000000000021e-02 1.000000000000000021e-02 1.000000000000000021e-02 1.000000000000000021e-02 1.000000000000000021e-02 1.000000000000000021e-02 1.000000000000000021e-02 1.000000000000000021e-02 1.000000000000000021e-02 1.000000000000000021e-02 1.000000000000000021e-02 1.000000000000000021e-02 1.000000000000000021e-02 1.000000000000000021e-02 1.000000000000000021e-02 1.000000000000000021e-02 1.000000000000000021e-02 1.000000000000000021e-02 1.000000000000000021e-02 1.000000000000000021e-02 1.000000000000000021e-02 1.000000000000000021e-02 1.000000000000000021e-02 1.000000000000000021e-02 1.000000000000000021e-02 1.000000000000000021e-02 1.000000000000000021e-02 1.000000000000000021e-02 1.000000000000000021e-02 1.000000000000000021e-02 1.000000000000000021e-02 1.000000000000000021e-02 1.000000000000000021e-02 1.000000000000000021e-02 1.000000000000000021e-02 1.000000000000000021e-02 1.000000000000000021e-02 1.000000000000000021e-02 1.000000000000000021e-02 1.000000000000000021e-02 1.000000000000000021e-02 1.000000000000000021e-02 1.000000000000000021e-02 1.000000000000000021e-02 1.000000000000000021e-02 1.000000000000000021e-02 1.000000000000000021e-02 1.000000000000000021e-02 1.000000000000000021e-02 1.000000000000000021e-02 1.000000000000000021e-02 1.000000000000000021e-02 1.000000000000000021e-02 1.000000000000000021e-02 1.000000000000000021e-02 1.000000000000000021e-02 1.000000000000000021e-02 1.000000000000000021e-02 1.000000000000000021e-02 1.000000000000000021e-02 1.000000000000000021e-02 1.000000000000000021e-02 1.000000000000000021e-02 1.000000000000000021e-02 1.000000000000000021e-02 1.000000000000000021e-02 1.000000000000000021e-02 1.000000000000000021e-02 1.000000000000000021e-02 1.000000000000000021e-02 1.000000000000000021e-02 1.000000000000000021e-02 1.000000000000000021e-02 1.000000000000000021e-02 1.000000000000000021e-02 1.000000000000000021e-02 1.000000000000000021e-02 1.000000000000000021e-02 1.000000000000000021e-02 1.000000000000000021e-02 1.000000000000000021e-02 1.000000000000000021e-02 1.000000000000000021e-02 1.000000000000000021e-02 1.000000000000000021e-02 1.000000000000000021e-02 1.000000000000000021e-02 1.000000000000000021e-02 1.000000000000000021e-02 1.000000000000000021e-02 1.000000000000000021e-02 1.000000000000000021e-02 1.000000000000000021e-02 1.000000000000000021e-02 1.000000000000000021e-02 1.000000000000000021e-02 1.000000000000000021e-02 1.000000000000000021e-02 1.000000000000000021e-02 1.000000000000000021e-02 1.000000000000000021e-02 1.000000000000000021e-02 1.000000000000000021e-02 1.000000000000000021e-02 1.000000000000000021e-02 1.000000000000000021e-02 1.000000000000000021e-02 1.000000000000000021e-02 1.000000000000000021e-02 1.000000000000000021e-02 1.000000000000000021e-02 1.000000000000000021e-02 1.000000000000000021e-02 1.000000000000000021e-02 1.000000000000000021e-02 1.000000000000000021e-02 1.000000000000000021e-02 1.000000000000000021e-02 1.000000000000000021e-02 1.000000000000000021e-02 1.000000000000000021e-02 1.000000000000000021e-02 1.000000000000000021e-02 1.000000000000000021e-02 1.000000000000000021e-02 1.000000000000000021e-02 1.000000000000000021e-02 1.000000000000000021e-02 1.000000000000000021e-02 1.000000000000000021e-02
-1.110307332854432474e+02 1.687865305961904596e+02 3.914057313339431232e+01 -8.796101487109416084e+00 -8.745280176185670484e+01 -1.332586830506213005e+01 -2.069111387011038516e+02 6.877781732508803092e-01 -8.431191487743888047e+01 -1.399355422038486907e+01 -1.974031567407060805e+01 6.492600124806719109e+00 -1.773119305322818473e+00 1.669868443072993784e+02 8.421667264732184321e+01 -3.860210967714681374e+01 -5.254986664041011579e+01 7.883956085357480958e+01 3.266753786294551531e+01 -2.525176221878015070e+01 -7.847156814793187607e+01 -7.345364271773259190e+01 -1.373781749434159316e+01 2.879581074352100956e+01 -1.939930501416918958e+02 -9.826110313352241121e+01 -2.596572705590343944e+01 2.006735743552823692e+02 7.042760209388322323e+01 7.636478924158190296e+01 7.991487141861070143e+01 1.178400322492210606e+00 -7.887434940550686235e+01 2.064672559848607989e+02 -2.436953823458912609e+02 5.856009534175572639e+01 -1.195721909272024277e+02 -3.451988223495117580e+01 4.015556917297708139e+00 1.261170415522206270e+02 -1.223219667472519916e+02 -1.358064084507874014e+01 7.699169835676950413e+01 1.727870561433933858e+02 7.101728987047553687e+01 -6.809011589534931375e+01 4.102221357259913503e+01 -2.825204778572196318e+01 -6.575538733946115144e+01 1.558584789308727920e+02 -7.022574495534885841e+01 -5.186693804145304654e+01 -1.386859528129758417e+02 5.737251142518671188e+00 -5.029929956161187476e+01 3.848902888805524469e+01 -8.831763016943015998e+01 -4.982719962132672009e+01 -1.009406990624546552e+02 -1.547320477477538816e+02 1.936025085207161567e+01 4.515705192141337676e+01 -1.225610855358712570e+02 1.279749052188982539e+01 -7.892626940670658087e+01 4.889620583840282819e+01 1.658750823454626016e+02 -1.436091230173483666e+02 -4.311079458411330734e+01 7.167088756072421241e+00 2.917845862862002537e+00 4.219146875249631989e+01 8.360290114826739227e+01 8.614507410357411521e-01 -8.767126308282621849e+00 -6.970862492127604071e+01 7.790652851135619983e+01 -3.261196047004901999e+01 2.617875241992764757e+01 1.035493571940455979e+02 8.782388480374667949e+01 -4.256633274507890974e+01 5.753647871991798013e+01 1.467743300383174301e+02 1.156901023703098588e+02 -4.000316502457025969e+00 1.734257340368700966e+02 -1.110211538343640427e+02 4.175380684283364729e+00 -4.175123366722536389e+01 2.059104665339816620e+02 -2.112872595027796407e+01 2.872258796916926649e+00 -7.644120062152232720e+01 -7.107343309425953493e+00 -6.355541533044371505e+01 6.747242136897173737e+01 -9.413176145922042792e+01 6.827976370205929868e+01 -4.754032029190921094e+01 -4.953764370582025833e+01 -9.125430882689136070e+01 5.284968116875453603e+01 -5.446655883649786745e+01 -1.486696442863862444e+02 -7.911364811982134881e+01 -1.041485135172776637e+02 -1.565323407235327409e+02 1.353361431212600507e+02 -2.736471599676749022e+01 3.189197555264427564e+01 8.927052235631491328e+01 -1.036046723915018219e+02 5.671234876379163126e+01 -4.312845485417997793e+01 -6.904239102392469363e+01 -8.969861151855357662e+01 2.023593663303514063e+02 -5.649086331712111075e+01 -4.928031093987287647e+01 -4.699427394032953487e+01 8.004534832990066207e+01 -4.122883417231408032e+01 1.373729426887844625e+02 -4.966692088209519795e+01 5.486062876623330453e+01 4.522525327946249618e+00 -8.076796976689341534e+01 6.850558291255909182e+01 2.761713416264334455e+02 -9.163186808450964804e+01 4.728028346017389083e+01 -7.591579735290054032e+01 4.504379682636146498e+01 1.306322420241794759e+02 -5.117437033202423891e+01 1.453592049704048428e+01 -2.681748333289262476e+01 -1.015170652905567579e+02 -1.724055537166679386e+01 4.267095809104171522e+00 -7.785088900355947139e+00 -1.488844427816052907e+01 1.177446911005927177e+02 1.298381263565939037e+02 1.857179835040882665e+02 -3.031331185956042873e+02 3.805985980703937344e+01 -1.569756349157766806e+01 -6.211087164675104333e+01 1.796669691310267751e+02 7.590797115334416389e+01 -2.582325446801248869e+00 -1.155371359901411381e+02 -1.085676122739745963e+01 9.974051563348876925e+01 -1.339237898396183084e+02 -1.680518453040992028e+02 1.070045524665132675e+01 4.228878311949414126e+01 -6.082644258716670294e+01 4.190359841649987516e+01 -1.067467458240887481e+02 -1.508550198456888438e+02 2.104196310371597889e+01 4.843719915286987998e+01 4.796598669798499692e+00 -8.324005969485594392e+01 -9.333805339550909252e+01 -8.409097707799998034e+01 -8.733097645621337790e+01 1.261062065587703174e+01 5.670196751217830666e+01 1.162566293976027652e+02 7.926856214153576730e+01 8.934165451296557592e+01 1.072737020831531822e+02 -7.466830325690031600e+01 -8.238842424729985225e+01 7.042616902420932945e+01 6.841176444076269547e+01 5.916833041462964360e+01 -9.380339139023998740e+00 -9.101033953115037889e+01 5.395897545384018912e+01 -1.789531139827350330e+02 6.715546351361398081e+01 -4.453440645314505275e+01 -9.645544308207742290e+01 7.423591672428177901e+01 -1.715353089592721147e+01 -7.718110492436701975e+01 -5.751302734664000127e+01 -9.166788364155330271e+00 2.430123879524598465e+02 7.698638239316419174e+01 5.493508772542031693e+01 -1.040921085553244012e+02 1.485907816432212485e+02 1.055332390060135017e+00 -9.061238284259394504e+01 1.562431003122895277e+02 -1.546000125857540013e+02 1.582581281892817593e+01 -3.264577862463590918e+01 -2.229363013159749869e+02 -1.353109575145396377e+02 -8.849180987901557671e+01 -2.974680388660736696e+01 -1.209524132045913376e+02 5.848615023432991933e+01 6.592902001504701559e+01 -2.798042268429519908e+01 -1.011850590855392085e+02 1.147312880379810309e+02 1.199123925229176137e+02 4.688570071286289931e+01 1.773431086566984050e+01 2.652391722436273653e+02 4.431368958781823864e+01 -1.212402117721744190e+02 -4.573983165097360626e+01 -1.714042046283153979e+02 3.235643285986320450e+01 1.556548911551426499e+02 -1.506324182587797509e+02 1.337723731531551721e+02 -9.237925881636098779e+01 -1.920885200409388105e+01 -7.838510112489344150e-01 5.369922055882415179e+01 -1.177571062873526131e+01 -2.316478594093009846e+01 -1.917670822312936352e+01 -1.287460391553207444e+02 4.715869772061854803e+01 -3.084167180414915421e+01 -1.316959890930313648e+01 -1.089063646835591825e+01 2.296398209406550848e+02 1.770632245962469256e+02 2.364295391024333810e+02 1.339579812806153711e+02 -8.799383814586887809e+01 7.641594258194488987e+01 2.147469957224824455e+01 4.835281760061495504e+01 -4.036362164544071618e+01 2.596482588836582863e+02 -2.369240363816102501e+01 -1.390074892023672817e+02 -1.520027270474305148e+01 -4.659727889305458604e+01 -7.869088844271591654e+01 4.388186815911831928e+01 -1.190960074742081964e+01 1.849764591956653703e+02 9.394244496437281100e+01 4.157353763781864586e+01 9.967624832888057540e+01 9.614690414092592619e+01 -2.337836270662968730e+01 1.420135224994162400e+02 2.695640205593200633e+01 9.111897389339694087e+01 4.848152585504831080e+01 7.050152563873509415e+00 -1.177507200211033336e+02 -1.178382443480206518e+02 -9.157696576107167630e+01 -1.583858473296006686e+01 8.818520860356181856e+01 -3.117719518836620907e+01 1.005972651149819512e+02 4.457152645885380338e+01 -7.398198203915873705e+01 -3.047705479128460482e+01 -5.960667574615818864e+01 1.786920897601384084e+01 -4.712034223327772509e+01 -1.139842047953632544e+02 1.236300280932035207e+02 1.234411668246109883e+02 -8.032539642513431488e+01 5.526495532606480410e+00 -4.610214629023156618e+01 -3.315901718571331713e+01 -1.153833374705703818e+01 -3.176923858066668416e+01 4.523614964942714778e+01 -1.429711836787476500e+02 -5.375313883033644657e+01 -1.544736955161468757e+02 1.770827583243840593e+02 -2.055814642248280322e+01 5.992378629896585807e+01 1.212130985696079577e+01 1.468006149750100064e+02 4.537115897003116061e+01 3.631119356625514882e+01 1.568857224133072350e+02 -5.006471675528183596e+01 -9.918573482105861672e+01 2.762183321888354470e+01 -1.605383606450266711e+02 -5.425132067914577760e+01 1.039286613333745066e+02 -1.296641575788684975e+02 -3.693214470782747583e+01 9.271571275150112967e+01 -9.594016709437424595e+01 -9.087170030667127207e+01 -8.391862809104881649e+01 -6.479453936011891813e+01 2.528697626658811828e+02 2.012094695387536092e+02 1.045531865647717780e+02 -1.037385784772924069e+02 7.597312095791025399e+01 -6.714833986282292244e+01 -3.177079090504340186e+01 1.685216703357242096e+01 -3.269179671105528939e+01 -9.509723510317874684e+01 -2.794677014802335879e+00 1.498907986272594073e+01 1.103090380915954967e+02 -1.302663246983906618e+02 4.249266898732273745e+01 6.462410565782890615e+01 3.499735684648577916e+01 -9.181187863403714289e+01 -1.504564671795926643e+02 1.956863733187365710e+02 -1.803855611251392332e+01 2.550877184864696900e+01 1.585114984903680124e+02 2.699660143158475734e+01 2.807939075760865677e+01 -4.507912842911699158e+01 8.966468701848687317e+01 -1.379637647283746844e+02 -3.116713293966396847e+01 -6.207883608008359921e+00 -5.402645870692138175e+01 6.306256927380040622e+00 2.152797388948735247e+01 -3.619520074400937659e+01 1.382056859417995831e+01 2.161109247917312075e+02 -2.769868602366041443e+01 -2.829241913279131992e+01 -1.027761555321761335e+02 -1.664640957117402120e+00 -8.162744432406547901e+01 6.462565029418464668e+00 1.132832284123333153e+02 -5.258407145114342995e+01 6.111165118364774607e+00 -5.489436952321167240e+01 3.360600931721528184e+00 8.812477203957509175e+01 -1.170719997702459523e+02 -9.783649954346691402e+01 -1.036395824659523868e+02 7.212003187880613098e+01 8.745981609597703255e+01 -9.323060021504200279e+01 6.326837213696246920e+01 2.609015118276763090e+01 3.908668784903712634e+01 -1.793384377067551938e+01 9.228377552196927525e+01 8.053528014870957463e+01 -7.805822405593899305e+01 1.195255228726053431e+01 8.171302853410371370e+01 7.359517308218296705e+01 -2.009403917694428898e+01 2.522959789562726840e+01 -1.339330527867154217e+02 4.901396336403715281e+01 -3.310373542229675081e+01 -3.299145691774774747e+01 1.749291604585692994e+02 4.790902949169745284e+01 1.214187420199848901e+02 1.928749225750080143e+02 -1.390699393128446957e+02 1.505722949871161518e+02 -6.404716225879754177e+01 -1.364907859101523968e+02 8.314338025909796670e+01 -1.354117352532369978e+02 -2.899540989042808903e+01 5.697669079995074526e+01 8.152492271243879429e+00 -1.698144339653050849e+02 8.508340755115784759e+01 2.547577433093472621e+01 6.978430872921005346e+01 3.664878297712630228e+01 9.566781718440426019e+00 -6.778660804030893416e+01 1.168818051670353384e+02 5.503207434457225844e+01 -6.274166712595843620e+01 -1.022498683258286007e+02 3.932371396111022221e+01 2.594557120877027856e+01 8.321160636782335018e+01 1.855844958638245998e+02 -2.487513929269169211e+01 -1.112445277553821796e+02 -8.555951038187065194e+01 -5.182863618731664701e+01 -4.480267769356910179e+01 -1.481825523051162179e+02 -2.273156162063606445e+01 1.307816035421932099e+02 7.527559183538207321e+01 -1.235777226665515371e+02 -1.513449080546969867e+02 -6.876971908162965974e+01 -7.710202915772417498e+01 1.482146780520315872e+02 -1.721341576937327602e+02 8.739365868243763202e+01 -4.652809006279480464e+00 -4.344856015460195664e+01 1.343024148035039111e+01 9.205751445157115143e+01 5.006815193479923920e+01 1.395545001183039346e+02 -1.606847498408248782e+02 -8.175938354400578589e+01 2.559576485241822397e+01 4.234114206433731908e+01 2.081399418187510264e+02 1.468656745891430546e+02 6.616633487148638437e+01 7.280332846488251164e+01 -3.449243284471985049e+01 1.532895029228310477e+02 -1.810730484715250270e+02 -6.401777575742528370e+01 -5.420291208053398435e+01 -5.229305550304010808e+01 -1.042734347439402427e+02 -1.513172153036619250e+01 -6.929983905032028701e+01 7.186095546835549897e+01 -9.244482734865155038e+00 -5.864688750654021021e+01 -6.287774488936984341e+01 1.819158522992831308e+02 5.957097953526360357e+01 -1.384375876783712478e+01 2.108731950823178920e+02 -1.093660011882889762e+02 -3.567015839713934611e+01 6.759518913712123833e+01 -1.330904934963111075e-01 1.509158494728500877e+01 -1.262603762030145305e+02 1.778456023824193437e+02 -4.944039425832176704e+01 -2.718440269039775004e+01 -1.107168744225590871e+02 1.269988958144051452e+02 9.674616461013593494e+01 -7.821666608052522918e+01 -3.791867591935426418e+01 3.929176845046720246e+01 -1.527262297966534277e+02 -1.609688279799215138e-01 -7.535021324516601737e+01 7.765659777557369026e+00 -1.090381982383330097e+02 -1.598773314049642522e+02 -7.127402005495869730e+01 1.494041036232423778e+02 5.704141672113087935e+01 -9.035265090466597826e+01 8.989753921672881631e+01 3.450677744165598426e+01 8.901441345856810017e+01 -4.244604796326080987e+01 -8.474095865145291384e+01 1.723341450992946307e+02 4.196921579393693946e+01 2.916929659372361527e+01 -7.354337941334762263e+01 -4.262017335294431319e+01 9.614989668635871567e+00 -7.214461536193630842e+00 -1.740539545144457065e+02 -3.485044966634939101e+01 6.486103181722744182e+01 1.123687999558899406e+02 1.567621622318643233e+02 -1.336132245285249809e+01 9.020382512718208545e+01 1.587299848676183842e+02 6.381799969741345535e+01 1.486647051941316136e+02 1.616060987824322481e+01 1.320741173983263650e+02 -8.442176045669401674e+01 5.365398767486431097e+01 2.948926264273821829e+01 7.625798698878365656e+01 -1.067378252109800627e+02 1.989818238112943618e+02 -1.293567477779112096e+02 8.869479912103118124e+01 -1.078777169352129022e+02 4.633620456155371414e+01 1.385540792349089223e+01 9.104646638407280079e+01 -7.393325097784318700e+01 -7.577083949615591507e+01 -1.119448033503055484e+01 8.937026033010822346e+01 -2.967498844756488552e+01 -1.635299460002850935e+01 -1.968440760087569075e+01 4.748623189089557606e+00 9.835270650724446284e+01 -6.268256155068423396e+01 -2.716793222288720333e+00 -1.939732617782470072e+02 1.219485671872377139e+02 -1.247960374852975463e+02 -7.382967908710368476e+01 -2.352219003353759064e+01 -1.078580499999191886e+02 -5.311903190508596140e+01 -5.852967944509933318e+01 -1.966050072267939086e+01 1.361465864225598068e+02 5.401546902918925497e+01 1.003432206634418407e+02 -1.359791741885183853e+02 -1.384581453330929151e+02 -2.863306746542782548e+02 1.020706979553015685e+02 1.041700773547589591e+02 4.225407490163097890e+01 -4.239902304643391062e+01 -3.717163526471552615e+01 -1.834936443309609615e+02 1.460007554183553395e+02 -1.073292740682429240e+02 1.068745821825522171e+02 -1.590886820044480885e+02 -1.430075290161143542e+01 -5.533397786680949793e+01 -1.191647248656796165e+02 -4.606560181383184016e+01 -1.249705505420824458e+01 -9.259873666138088311e+01 -1.034203994559547226e+02 -1.234832897751249625e+01 7.115241231626320939e+01 -1.245510844765838243e+02 -1.565389926703281454e+01 -7.371370335019189213e+01 -1.313444829772103049e+02 6.646275827088198973e+00 9.511135235674383637e+01 1.654523183348882753e+02 -1.906154484090705736e+01 -4.604057774847616713e+01 -1.241225191731781763e+02 -1.635657138286204315e+02 1.037681195407300407e+02 -7.274002438995783848e+01 7.901099005137049858e+01 9.402972372797215428e+00 2.924357256812129080e+01 7.386137268009051127e+01 -8.475903939243542595e+01 8.269535414166143994e+01 1.153149201795317680e+02 1.575100118891566581e+02 -1.166167880839760755e+02 1.039950380834511066e+02 -4.779338453480216486e+01 -9.084335286437394075e+01 2.146875326197101685e+02 4.926936221603931898e+01 8.351445971665886248e+01 2.127722556811206189e+01 -6.324796186184622826e+01 -3.495650541311874804e+01 -2.104989529532754489e+02 1.056941920042579000e+02 8.154852823729537192e+01 -7.574411599895891811e+01 -7.318587080126887656e+01 1.452803605234573752e+02 1.011258412486402989e+02 5.114610273387897621e+01 7.612476619624966645e+01 -7.888802677202720659e+00 1.032580359117748259e+02 -1.036125905500688731e+02 1.865055952253858891e+02 -3.950729842839862016e+01 -1.220705730471658512e+02 -3.770128931163120001e+01 7.178960217739421523e+01 1.474333519918199613e+02 1.291077136403353798e+01 1.739346176231711638e+02 5.223430502116095653e+01 3.364287477089966671e+01 -1.113888016402891310e+02 4.483371752088082474e+01 -1.251069442017585231e+02 4.773097692197528374e+01 3.864909697390220344e+01 -1.234339281155217094e+02 -8.509340663680100647e+01 3.986834659375311674e+01 8.731685917334358393e+00 -2.324419735672443466e+01 4.189103544563734971e+01 -2.141432499360285746e+01 -6.313430804841197386e+01 -2.618939843195684247e+01 -2.246166765257547127e+01 -3.985367012229562533e+01 1.878780981451236798e+01 -8.055803382211591668e+01 1.190294781086007561e+02 -7.436398428124246607e+01 -4.266639113129348182e+00 6.559397493626734388e+01 3.894891266654743944e+00 1.596066694714980549e+01 1.597160489570170405e+01 -1.172080541499635160e+02 -4.418509815589187539e+00 6.509318056711916256e+01 -2.315841593723762060e+02 -8.491595049086694758e+01 -1.127871298286299151e+02 4.381953268474548935e+01 9.627930884738223938e+01 -9.180814810252388725e+01 -1.679864849217049425e+02 -1.852616930278930454e+02 1.997916907766820671e+01 -1.450021497369729104e+02 -6.323545776010980113e+00 1.476109053366465389e+02 -7.098778947651514848e+00 3.712548227703366166e+01 -9.882135628136056482e+01 7.973150465710108392e+01 -1.183230034263137611e+02 -1.538057684373188039e+01 -3.022739161887930592e+01 5.741513694601053430e+01 -8.842210101510518783e+00 1.053236495389817122e+02 -1.216167423488938084e+02 -4.988591362848642774e+01 8.621723856832592503e+01 6.585483706404224336e+01 -8.195847743674184471e+01 -5.413460727769995628e+01 -4.910888802848357670e+01 -2.878054211893767160e+02 1.924327798815220376e+02 7.565233332937397392e+01 -2.344896139236147192e+01 -2.947905253955543259e+01 4.126067953716960091e+01 -8.357962943397231470e+01 9.884109201687643065e+01 6.002967804989749112e+01 8.138892076769373318e+01 -8.346348758311484062e+01 -2.634588062762465555e+01 3.308032227622693000e+01 1.724395759797793559e+01 -4.248048193791523630e+01 1.566329121532871795e+02 -1.714738110427935069e+01 3.509691525153546365e+01 -2.278803422351919323e+02 -8.395351333040275676e+01 -7.252360260443170148e+01 2.281908001087866822e+01 1.082226292591133330e+02 -2.296422668131188516e+02 -1.853701936888914759e+02 2.196777710897994211e+02 -1.047357748365442376e+01 9.520177234161884883e+01 6.213358080154230834e+01 -5.486322660757315361e+01 -1.298209750700229961e+02 -9.430325132790565590e+01 -4.980543974284753261e+01 -3.709288185314927944e+01 -3.880360929919466884e+01 1.601547542355908149e+01 3.682673211500262056e+01 1.653207411637357609e+02 1.220989910818053943e+02 6.885328336360544199e+00 -4.352483878522694027e+00 -1.573450262217401701e+02 1.185675087785333375e+02 1.578741065858332036e+02 -1.024923445411574932e+02 7.306151178108275701e+01 1.733729340022313492e+00 5.440847861989622203e+01 1.242860830848831029e+02 7.030111331126519758e+01 -1.328233749776204604e+02 1.599366279213104036e+01 -2.912276979664828502e+01 1.104219500907386120e+01 -2.294316909387721992e+01 4.495008549773233852e+01 -2.583014507181638351e+02 1.796415249303103678e+02 7.237461816350112542e+00 1.580968287591507533e+02 -1.046339285559592369e+01 1.053259164056957644e+02 7.106674267234782860e+01 -4.167188781034867162e+01 2.968451467417286338e+01 -7.226029355159305112e+01 -8.832799159984672599e+01 -7.155228065111279534e+01 -3.182606378452443963e+01 4.486644304432613950e+01 1.094229690528559047e+02 2.829886870699927570e+01 6.171191986729655810e+01 -1.041482450310989520e+02 -1.362708915723784742e+02 -1.339997056883549575e+01 4.611226608585680964e+01 -4.521872348472067671e+01 9.399071673081469669e+01 5.519921831003392754e+01 -2.748748413393580137e+01 2.977693488442411862e+01 6.102738898062753492e+01 -7.170497058510740374e+01 -1.329809148504484710e+02 1.413039895475594676e+02 7.772919825642572889e+00 4.988258593264842489e+01 -1.485488306499109967e+02 -5.314750693200229392e+01 -4.534095453606446502e-01 -6.544605903111592227e+01 4.250021398530795302e+00 5.604538542661057932e+01 1.856669307686283332e+02 3.897044129522109301e+01 -1.091970810726731855e+01 7.194492231635464918e+01 -4.531583555243258843e+01 -1.085995412898574131e+02 -1.377336759091389524e+02 9.341067613683827986e+00 2.503622286227177440e+01 2.373694400084745837e+01 -5.672328299575870858e+01 1.205117923377479343e+02 -8.063700988415928350e+01 1.280302163512853610e+02 8.710747528843964460e+01 -6.490974772347387045e+01 -8.454998200963210309e+01 8.405126941775945681e+01 2.042952769878796104e+01 -5.241900273136127453e+01 -5.377021170389502203e+01 1.365267257925852107e+02 5.724702655159843800e+01 7.981358620015321037e+01 2.612349053813560928e+01 -4.204089529056114571e+01 1.073863283756528517e+02 -5.453994915549812106e+01 5.447221151998077326e-01 7.654474290230862721e+01 9.957737723279129227e+01 2.554956200844487171e+02 -1.751949844280597119e+02 1.609903032470852509e+02 -6.761563078308826391e+01 -1.523613873128682528e+01 -2.509332039703966544e+01 -2.075126503499235042e+01 -5.521822426078988144e+01 9.307174356458767761e+01 1.843451673409221314e+02 -1.190062636304892294e+02 3.099444933472768682e+01 -1.271946495220029050e+02 7.037161640145912145e+01 -4.461605623402883936e+01 -8.125019573706468634e+01 -5.407460138874424871e+01 4.133438395278225386e+01 1.946124975533734158e+01 -8.213211257610238647e+01 -1.416978494101439026e+02 2.086977854194458359e+01 1.584162095430185104e+02 1.436256062432080505e+01 1.835028405281961170e+02 7.506374246980706211e+00 1.354373543798400021e+02 -3.481425652831520523e+01 9.131769742931747658e+01 -7.192699687722236490e+01 -1.137007650671822603e+02 4.979422710574041133e+01 -5.844918663801967540e+01 -7.913143964449776036e+01 7.347476169150779413e+01 6.503603202226539537e+00 -9.508900379402403757e+01 -1.518658674133083935e+02 1.492317602063786524e+02 -8.999646882221058775e+01 -2.370958188650654552e+00 1.212463373451802511e+02 5.860465251919254115e+01 -9.919766556632664845e+01 1.073830081358447863e+01 2.850157025159642217e+02 5.389306639516889419e+01 -1.594706031130014026e+02 -4.825226235619390991e+01 -6.222391113254949602e+01 9.740606007293104440e+00 1.088308211846975126e+02 -1.047165758465576317e+02 2.183173154660866189e+01 1.320981031502258247e+02 1.901070266794715735e+01 -2.139213573668967285e+02 4.894791727278688853e+01 7.644738149701213104e+01 -1.375402963387106148e+01 3.322229435670075759e+01 1.465028416827191537e-01 2.280412015675851478e+01 2.809688704979956242e+01 1.173332135246968022e+02 9.930569909751994828e+01 1.576792836829431899e+01 1.509796668611724613e+02 -6.486213670192182690e+01 2.498965767648603276e+02 6.588841061837221957e+01 1.435787000083383873e+02 -2.226410276234594932e+01 9.126701083533811243e+01 -4.966956525366212816e+01 -1.483398872655586729e+02 2.653781936266577901e+01 9.634085589324767795e+01 -8.878796755128040274e+01 -1.061599804993244760e+02 -6.744223926254831269e+01 3.709516128328699835e+01 -1.157822306344026089e+02 7.574377508908997925e+01 2.845089809486350063e+01 -9.894947776904926684e+01 1.925434054207588588e+02 -1.192453560449079397e+01 -1.031512327634651314e+02 -1.357111510945215471e+01 -2.071655052766109861e+01 -1.421629500394510615e+02 -4.058558806498145088e+01 6.235374032293353963e+01 1.335981838921552480e+02 2.942456778246726046e+01 2.713219182308104038e+01 4.540929188552146911e+01 -3.624414688792089834e+01 -1.476145472860614802e+02 1.608019254047271218e+01 3.141661647488667697e+01 1.349485774812811769e+02 -1.006730790586018998e+01 -7.719884369699862248e+01 7.422716922307363063e+01 1.007039550909800019e+00 3.235413653132084022e+01 1.412164899414029549e+02 -1.800124335527198411e+02 -9.415221372563321722e+01 1.264772215613613326e+02 -2.125708583753523726e+02 -1.812085397431564218e+02 8.966025705797466117e+01 1.517337511175131795e+02 6.245882148896940578e+01 -4.388893307920030296e+00 1.534777081985226914e+02 -2.162714571132280241e+02 1.055824469531593479e+02 4.175778405968467411e+01 1.252107862929879616e+02 -1.858220455132854170e+02 1.049903228092731950e+02 -2.785668594559313860e+01 -1.317342484849863240e+02 -5.247289069082013313e+00 -9.104635279618381105e+01 -1.605459889916624761e+01 -4.234188358551821629e+00 -1.213828254864638438e+02 -1.215070657106804077e+02 -6.165492175507255723e+01 -1.270290879861258588e+02 1.980418333789461371e+02 -1.586787870914680525e+02 -4.943352700933671429e+01 1.700034926837427065e+02 3.342826332058046290e+01 -2.916381233864469777e+02 -1.252254923557452315e+02 3.499733236430022032e+01 5.384653509678882699e+01 8.463766888891340656e+00 -1.523509754631740805e+02 3.516282559229443905e+01 7.365344952449263793e+00 -7.323588190790566443e+01 1.997361071772158709e+02 1.996152169490037238e+02 4.270665316767866315e+00 -2.054675794959173345e+02 1.241367320020145542e+02 3.031504894834741748e+01 3.710272508891638843e+00 7.549407814496188962e+01 -2.044206633417314265e+02 -1.360040320465458876e+02 1.389644901501141590e+02 1.080317056527679682e+02 5.214810128101184716e+01 1.411116897881343561e+02 -1.756402744079296951e+02 -2.013932293048005207e+01 -1.285073666781533746e+02 4.296219304276974782e+01 -1.023373680552743537e+02 8.576970735153361147e+01 -3.338715475778460728e+01 1.220058143202212264e+01 1.748177649712507957e+02 2.808562698198156582e+01 -2.596871921210303640e+02 -1.245029563603422247e+02 -8.212392666664973717e+01 1.557763424777678836e+02 1.235114273133520157e+01 -5.303705639792077164e+01 2.992279978163637821e+01 6.159067924696365282e+01 -3.899202540021506280e+01 1.059288725972168237e+02 -9.925315442341556604e+01 4.848749089548240221e+01 1.102782332606510778e+02 -3.493789934530752106e+01 -9.667727048577523874e+01 -1.117522706058059754e+02 1.179933860085501749e+02 -4.893193846776192402e+01 1.936527020322965882e+02 5.636114630125134539e+01 1.093174620926609748e+02 1.817119457811504617e+02 8.434048441027860221e+00 -1.224507652742065886e+02 -1.633129916627590603e+02 -1.125011994719430533e+02 4.185399090789152154e+01
-1.310276871762852835e+01 -4.639915788692983156e+00 9.966326872565737460e+01 -2.204065544370160410e+02 1.495689120750013217e+02 6.112470595426277242e+01 1.464124972141780745e+02 -1.242959685231414255e+02 -2.674778333067385994e+00 -2.316576706804923447e+01 -2.112184831739299966e+02 3.149761121258124064e+01 -1.763352181963916721e+01 1.176925890276284719e+02 -1.203593744917314154e+02 5.938527343203631403e+01 1.205756226331994725e+02 -4.421477358908229149e+01 -4.777102032364339124e+01 -2.601327026788803565e+01 5.938345595352657114e+01 6.072271112455160846e+01 3.119846543762781366e+01 -2.237522909601803462e+02 -4.966037789996660479e+01 8.805844127585847048e+01 9.532343717078207490e+00 -9.968444801633669528e+00 -6.402001913995044902e+01 -1.488568253751172854e+01 7.056917200811503221e+01 -1.399141620504215098e+02 -5.958125925934498213e+01 8.647925979210919323e+00 1.996899071123307294e+02 2.040334975365753678e+02 -3.087916510967039230e+01 5.377367293812383053e+01 -2.609880924719885642e-01 -1.343776092784829643e+02 9.235038825751357194e+01 1.031800860425826869e+02 1.044130822404658829e+02 1.124578847400999493e+01 5.955121710647954814e+01 4.630251731541292060e+01 3.741226522023558232e+01 2.822664411265091644e+01 1.061123197591403056e+02 8.632190713587679909e+01 6.311333668605723801e+01 1.568146140450822088e+02 2.383400428913232076e+02 1.881736864916559000e+02 -5.689385679777045368e+01 4.740154633853547494e+01 -6.185075591410192430e+01 5.427340707421247856e+01 -1.848898089009354351e+02 5.436156584324987051e+01 -1.970151155059274970e+02 -1.623270645493291795e+02 1.245582140556573769e+01 -8.896636435192496251e+00 1.631173457181853905e+02 -2.000790923685376299e+02 7.243298890163443104e+01 2.211306851356648053e+02 -7.071455498226061565e+00 -1.873810569344844623e+02 3.422498960399020973e+01 1.897588171019284289e+02 -5.879731675435360927e+01 -2.564533171278518466e+02 -9.869699702266458985e+01 8.525866300202537218e+00 -2.214266623146961592e+02 3.083875301747845654e+01 -1.727202798126063215e+02 -1.786268407650557322e+02 -5.499318746135549674e+01 1.467764049650243123e+02 6.690186731214370752e+01 1.021466908496657133e+01 -8.535364286336691464e+01 -4.102734032430391409e+01 6.139292937354751700e+01 -2.235558119268749238e+02 5.211512573711502938e+01 -7.223698041038669260e+01 -7.525493777933682793e+01 -1.703318663214256219e+02 6.269256060665170338e+01 8.935566531053495964e+01 -1.564131085007454374e+02 1.664922894830499729e+02 -3.844480497209684700e+01 -1.630442513896022660e+01 8.442008054911694614e+01 1.506673588765440286e+02 2.092184847805282288e+01 1.459850635311366034e+02 -1.781412770074175356e+01 -8.744104349547964716e+01 -1.890926687506697235e+01 9.744612960841668325e+01 4.457720464275104888e+01 9.696969965669029534e+01 9.356868018313464574e+01 -8.233975169024913043e+01 -1.684322380508969275e+02 1.219843034741884082e+02 5.378051405756796299e+01 1.604725319703467434e+01 3.031345676448684401e+01 -6.734212271480781453e+01 9.521415269550142568e+01 8.908175267906254646e+01 -1.357517120450845560e+01 -7.064647806885982106e+01 3.048861412247165603e+01 6.225364330049246497e+00 -6.100886455626868354e+01 1.681622746855167350e+02 -3.265081834796220051e+01 1.206218094467869264e+02 -6.954519895151585729e+01 3.808171289250610414e+01 -3.581542034594491497e+01 8.877053689970068717e+01 2.329957404434477297e+01 1.146912082457018158e+02 -1.151242945995962970e+02 7.378561581420609627e+01 1.225621274756164212e+02 -4.437874687458628387e+01 7.551257182909265175e+00 -1.261189448652394240e+01 1.159505787189355743e+02 3.554517945887250452e+00 1.674754179874739464e+02 -1.404350562333298456e+02 1.158745384663322824e+02 -9.070628481290560785e+01 9.513645748594321105e+01 -1.361585474458330509e+02 2.932696630340845445e+01 2.458799076454243959e+01 1.794169771460958129e+00 3.608773422018401789e+01 4.565498853045244232e+01 -1.233899956663066888e+01 1.076771180088301705e+01 1.074495136815615979e+02 1.265116206484535439e+02 -8.618446616132824545e+01 -5.389642465326677723e+01 4.708748037402394715e+01 1.524837758607581195e+00 -1.362126537532046484e+02 -5.480748944045670612e+01 -3.525632715780104576e+01 4.865579801880056010e+01 -6.521232481278688908e+01 2.280968594443832487e+01 1.595873798577072193e+02 -7.908705482705786949e+01 8.043180959822628040e+01 8.370598860134205665e+01 1.119425971948289344e+01 1.229197720044878395e+02 6.263075392812162789e+01 1.673938682522224894e+02 -3.444178182083158646e+01 1.120586556072191371e+02 5.536067126054400944e+01 -1.602074421984691099e+01 2.035047825869824578e+02 -1.384015895773356419e+02 4.875293462690001434e+01 -1.871058305374895951e+02 -8.398344845373614476e+01 4.094196528457551665e+01 -7.206555692806358593e+01 -1.555459584328928884e+02 1.989913532367664573e+02 -8.564808886585019820e+01 -4.742412433652822301e+01 -4.621782385898231382e+01 1.215947729124823269e+02 1.945487053686270258e+02 6.468122407795566176e+01 1.460960474922140691e+02 2.192422811680516475e+02 -1.616064091288434978e+00 1.627523538536996455e+02 7.082613538867940406e+01 1.902326346772779573e+02 -1.256804963945439653e+02 -1.185027802943273478e+01 6.337773262977280275e+00 1.897952011360457902e+02 -9.081310988402331930e+01 -6.043591502713246655e+01 -5.290396988944295487e+01 -1.338712261326201372e+02 4.662328505578782867e+00 -1.008558449015094425e+02 1.540045116133466649e+02 2.354474394392923386e+01 1.199519566560051409e+01 7.225185192667485978e+01 -4.926208870950511631e+00 1.168755755090319752e+02 -1.587339457665496525e+02 4.537626017162390468e+01 -1.707042270290890542e+02 1.173354390486978929e+02 9.597312138498982392e+01 -6.725574101199364918e+01 4.673935318822464779e+01 2.379589559219298280e+02 -3.043755518326739917e+01 4.162577944953212494e+01 -3.265000863075361082e+01 5.789499571100069630e+01 6.423114914260672492e+01 -6.270712318516947548e+00 1.018354915805702632e+02 1.014133861959281973e+02 -1.937090814010149415e+02 -1.531082562638438844e+02 -1.197160801366978689e+02 -9.437567158276042534e+00 -1.496482590120954796e+02 1.154401761100520929e+02 1.102425651754910234e+02 5.892446421488698149e+01 1.115101137847358359e+01 1.575248099274689366e+02 8.387481984920128752e+01 6.742867400327376970e+01 -1.015181374172191511e+02 1.521994051056118167e+02 -3.580375477962432385e+00 1.092102661782635806e+02 8.807154884233847625e+00 3.670001387812259708e+01 -7.560504537315983953e+01 -9.062960398361271075e+01 7.148566263461513870e+01 -3.837138780640032998e+00 1.460191369304244233e+02 -1.255023788065905066e+01 -2.848724446766993879e+00 4.577780843477795258e+01 2.259833013795043399e+01 1.411567063507520459e+02 1.462277017767410037e+01 3.577322600333484104e+01 -1.543772390066795595e+02 6.569608347337482712e+01 1.333469829364036627e+02 -1.760589054018165811e+01 -2.274072668795789980e+02 8.416392030865674201e+01 1.356570817533572040e+02 2.024905627763151372e+01 1.881276877960195861e+02 -4.167324170692035423e+00 4.266197642899420828e+01 -4.334803691252421487e+01 -1.377979348320387487e+02 5.563925179748991923e+01 -4.715212250934876437e+01 -8.047200093045613301e+01 4.091833825976332406e+01 -1.834056416237788198e+02 7.115085959253296721e+01 1.631024972873085517e+02 -1.004078550211638117e+02 1.715460609616619081e+02 -9.682053458792131551e+01 -5.927186805219527344e+00 -1.043434414199275473e+01 7.593352843237346406e+01 -4.616542277893825030e+01 -1.067972788534165289e+02 -8.771347496364134599e+01 1.443606605184990599e+02 5.851986540932659153e+01 -1.304303125495442259e+02 4.388926484331949318e+00 4.297672343378680893e+01 8.168898522353374858e+01 -3.989978380561557714e+01 5.932590724216866107e+01 -6.821550398719810460e+01 -1.605539551890737187e+02 -3.424579780796157280e+01 1.393861038040538745e+02 -1.120916446748036890e+02 -6.336593858682530112e+00 -1.610224725961856223e+02 -4.741451302043641292e+00 -1.441711649511070732e+02 3.252272369664574825e+01 5.945677658205845972e+01 -4.972541575324392227e+01 -8.139007740777429945e+01 5.565532459557291034e+00 7.347984538955383016e+01 -6.692896193434994245e+01 1.330078078747012569e+02 1.041892772401790239e+02 -1.260111785270324276e+02 -1.040935041711853586e+02 1.333177772280130000e+02 7.039021991673736522e+01 1.481949313428744119e+02 9.879841313763846244e+01 8.005432309882232289e+01 -5.943647780238239875e+01 -8.062556578137589725e+01 -7.597824206371443267e+01 2.015781702406004001e+02 3.011402874794370632e+01 -2.454098061044112455e+01 -6.751009589568630531e+01 -4.924168621678770563e+01 -1.292294921685044926e+02 -1.623665846781107547e+01 -1.721744451123470867e+02 1.226956428451259171e+02 4.514433017814685201e+01 -1.130722465165280255e+02 -4.748314515948209902e+01 1.174938895726426438e+02 -9.513396180134301972e+01 1.008907440890432667e+02 -1.162255785418094547e+02 -1.154748481269677818e+01 -9.369610014614865179e+01 8.802066295608416624e+01 -4.167213050805362684e+01 1.011164968292538902e+01 2.877654162174361829e+01 -1.242302619114101674e+02 1.226151291743698657e+01 4.741808694046910944e+01 -2.195652261300029906e+01 -6.742022753113721478e+01 1.986246662377959069e+02 8.477836682891661724e+01 4.620897133702830217e+01 -3.080636729763794790e+01 7.866668404306547302e+01 1.643366031102259228e+02 -9.046755794896530745e+01 2.053719124531202738e+02 -1.305006342219373039e+02 -1.803237100302628733e+02 1.488563823492235656e+02 -2.293737550835197680e+02 -9.589696352622106845e-01 -2.401195693360362782e+02 -1.499071091608051631e+02 7.035256725098952302e+01 -1.427644172085115315e+02 5.723081685823920139e+01 1.077543054336884722e+02 -1.572084367471701398e+02 -2.952943945367147194e+01 7.392435447272453075e+01 1.312882741365336017e+02 -1.824373967305216979e+02 8.575246220482910076e+01 -9.603076632017342718e+01 -9.672250238423471203e+00 -1.360225984929297027e+01 -7.800941390732685932e+01 -8.852673192634209443e+01 1.777971488611190409e+02 -2.126166383135421256e+01 1.312467004565660122e+00 1.276833832392743915e+02 -8.501352299448130623e+01 -3.376020376386046706e+01 -1.055982032066074225e+02 -4.790395724757713225e+01 5.071742973520853681e+00 5.826271640013620612e+01 -1.326232895023366609e+02 2.329837482834498701e+02 -5.296705762985852317e+01 1.205815327904762313e+02 -4.801395304903333994e+01 1.178229978500466473e+02 1.368618540993417412e+02 4.721430524837698783e+01 1.201560831392537523e+02 -4.254549924363483626e+01 1.377809408632324164e+02 -1.540365915818218525e+02 -6.438729787687512385e+01 -6.200752419193305087e+01 2.515742428900446015e+01 -1.598357983816065087e+02 7.145008966659469252e+01 -3.037345411434625930e+01 -8.139676043213511036e+01 8.825163545102574858e+01 -1.488355384453475381e+02 -8.985186715584416106e+01 -5.183269450552040780e+01 3.258442972060998244e+01 1.278760888452216165e+02 1.151105860923592132e+02 6.808455112934061049e+01 -1.567315199108919366e+00 1.722628722867316355e+02 1.206940090088793482e+02 -9.303952080061235108e+01 -7.697137529459553207e+01 5.448959427008686873e+01 9.822180328577870156e+00 9.650805384261747122e+01 1.641920513789526979e+02 6.952673166340396449e+01 2.404111964890376285e+01 -1.006593106811218661e+02 1.691950989434587598e+02 -1.119485435030189251e+02 -1.627547629060840109e+02 6.471510379548604419e+01 1.097728557574371848e+02 1.933372096762665038e+01 -1.366887157549132894e+02 2.926290996080808782e+01 4.175532633923035775e+01 -3.279155942596365114e-01 1.288516641623372152e+02 9.610106768431059265e+01 1.683476397156014315e+01 7.708529000245451357e+01 -1.052676984592338556e+02 -6.227098188187934369e+00 9.673540626876663850e+01 2.920284449496177714e+01 -6.396685510652620366e+01 1.947812514769796906e+02 2.272863731532351892e+02 -1.234191629432429949e+02 -2.715459011462607464e+01 -2.066727420818697283e+02 -7.096654376732358571e+01 1.539509453343150653e+02 3.334630558222855257e+00 -6.977937296802451783e+01 1.609903090411371238e+02 -6.143407171177675963e+01 -1.578435121504976735e+02 1.341988773505420056e+02 -6.604429252252971594e+01 3.387986245572542288e+01 8.484341016497234023e+01 1.354284270294484926e+01 -2.340542335561306970e+02 4.155713095904105359e+01 -6.038517532093351292e+00 8.850377162904861450e+01 -2.314670969114363075e+01 9.934814352520987768e+01 1.667696122299003747e+01 -8.322884539661936287e+01 -2.011543036010205299e+01 -1.721113539091245173e+02 1.129394485695062258e+02 2.482434469016490652e+01 -4.088172628292395672e+01 -5.088327232662885535e+01 -6.176615204087477906e+01 4.037699997829970755e+01 1.578198033707842853e+02 1.303268593034262608e+02 4.229025081984696754e+01 -1.943225021843583704e+02 -3.809958646783198333e+01 4.303152856363871592e+01 1.152352110841314072e+02 8.565234058158836206e+01 1.517181289483829865e+01 -1.827007813919842079e+02 1.293421196048230968e+02 -2.197467330906434029e+02 -2.021252828219629976e+02 -1.807749502749105730e+00 -7.245237449673069818e+01 -2.366476809216471366e+01 8.556619017570409369e+01 5.491956408524322342e+01 -1.092113921098722358e+02 -1.487432683506014541e+02 1.432863855690593269e+01 1.214757843202339131e+02 2.032191389204118792e+01 -5.569438255432200435e+01 -5.070505466470397948e+01 -1.154168989704273152e+01 1.584855911137292424e+02 2.197110717631170829e+01 -1.736416919307070543e+02 1.282770930226328403e+02 -6.679660577986928160e+01 -4.174439643055861460e+00 1.539645535863216139e+02 -5.228829649811297031e+01 -1.958229072552438410e+01 -1.098307017313259877e+02 -6.005069503992764623e+00 -2.385049377060673947e+01 1.316768712936104180e+02 1.200636215273510174e+02 6.756964221484369659e+01 6.541481566374717715e+01 -1.870768180232808930e+01 1.351795247795488990e+02 -1.127362279797952453e+02 -4.259603875087224267e+00 -9.103675966558581933e+01 1.570957187390280296e+02 7.292733764573840460e+01 5.167751355544254466e+01 8.268236766559406092e+00 -5.327681011939878175e+01 3.437567284067698381e+01 6.741539461250255272e+00 3.617483696511300639e+00 2.410623596313554629e+01 5.976072660782821799e+01 1.702096686633214233e+02 -3.882758170431783640e+01 -5.196937431096384330e+01 6.676689707886278313e+01 1.156343297626320350e+02 -1.280683369211446632e+01 9.190254910622108753e+01 1.040152023840734046e+02 2.106872146738490699e+02 -8.651158596193094752e+01 -1.226364529202131877e+02 -2.862734635087423740e+01 6.211999657571948319e+01 -1.014242130507099660e+01 1.073597319513778245e+02 3.721789927261428943e+01 -1.625297698556290129e+02 4.502972957626893447e+01 -8.939722447393872073e+01 -1.351957194111745650e+02 1.343924444546109100e+02 -7.596402367424778390e+01 5.909880574072442272e+01 1.110783722815133103e+02 -9.891123083023923357e+01 2.345487163507871031e+01 -7.205475233117134337e+01 4.021451735717838716e+01 -1.144396746128190614e+02 6.148565086118338741e+01 5.458423230440430274e+01 3.900717918319832833e+00 8.390980632891177038e+01 -1.526376746030240383e+02 7.623009800264017599e+01 -2.921193766674049286e+01 -1.674057354810764480e+02 9.362724956944219912e+01 2.430629031864244993e+01 -1.943658664425489349e+02 2.331165938434949965e+02 -5.283294366695294730e-01 1.042116754496226321e+02 -1.195008650698620869e+02 -1.924322004478214296e+02 -9.246708781345955686e+01 2.460440110006135939e+00 1.415925529221656234e+02 3.959860211558873910e+00 -9.470019446211678371e+01 4.993364266361838588e+01 1.357965128624864519e+02 6.438891168594616943e+01 -5.126827042586949545e+01 -5.860318214070104403e+01 8.373706316222050816e+01 3.046291200128840515e+01 -1.937763515508642058e+02 -2.054391193315259301e+01 1.674937491409060613e+02 9.792275038920342922e+01 -5.680359752745930280e+01 -1.107855775527946207e+02 -4.228960815658148675e+01 -4.764283344344387672e+01 -1.134081831221620860e+02 -1.830380803197706285e+01 -4.524600697126471260e+01 -1.125813008939267235e+02 -1.306919811574787786e+02 -2.669015303983648124e+01 -1.245209610009454622e+02 -1.325780356881048192e+02 -3.798234253086102541e+01 -5.484186389714102461e+01 -1.099954758583617433e+02 1.911142201846936359e+02 1.080913879954359835e+01 -2.888308918062354635e+01 -1.746027107456946936e+01 8.076530165663812966e+01 1.605729519843020725e+01 2.571564398540156304e+01 -2.184461016873876815e+01 -4.747780514695087106e+01 2.147550214544006053e+01 -1.492439719454076226e+02 -1.634395379228420779e+02 -9.283231984687814986e+01 -1.959337540832508466e+02 -9.201026653218727347e+01 8.808422502215682925e+01 6.302067857979400145e+01 -2.675467497599724354e+01 6.238950753695213081e+01 -1.607355145267667069e+02 -4.192274078157554840e+01 -1.192281597780990694e+02 -6.853187196687150617e+01 2.165750950266582322e+02 -2.107607667274154153e+02 2.107401192532982179e+02 2.565628681051092386e+01 -5.797518421717764880e+01 9.470074048610305795e+01 1.273924723428163190e+02 -5.327380230456168420e+01 -2.091699068026913721e+02 -1.530750400819883339e+02 1.049986941045159625e+02 8.599540158970566495e+01 -1.391985077863011213e+02 3.280625291096657747e+01 -4.072747346967306470e+01 -7.946547021290432156e+01 -2.918314385758286988e+01 -5.628898351057608096e+01 -8.874382611173869861e+01 -3.494952661042076159e+01 4.605841827181206938e+00 -3.357178542100665908e+01 -4.015798972339903461e-01 -1.473494628209626001e+01 9.442643791643671136e+01 1.304800882589578919e+02 1.351858097439722961e+01 1.723971909447121931e+01 -6.479885910334030541e+01 -2.012623873214228922e+02 3.475633358571788278e+01 -9.418034290060307967e+01 2.652045410063844955e+01 -8.389721203697943608e+00 1.052617431201000819e+00 7.421903947593277451e+01 1.251348623997176617e+02 -7.234744564926570831e+01 3.901315551268377391e+01 -1.979993000947037558e+02 9.930360211591054309e+00 7.174797674790654334e+00 -1.258222396773655305e+02 -3.462459965571463982e+01 -4.551064690463246620e+01 4.898067225979128914e+00 -1.049802383588078527e+02 2.777730858206024322e+01 -1.002563083047806458e+02 5.760444008205434585e+01 6.966153286197452132e+01 3.786727698861474067e+01 -2.979175798272081011e+01 1.103174105926769926e+02 6.269880116585087393e+01 8.212172072272124979e+01 -6.877120430066170798e+01 2.082798756231071735e+01 1.312686318324816455e+02 -6.001722653530322305e+01 -7.095871155084160442e+00 3.283154828702804906e+01 -1.317727781570473837e+02 1.003782631770587273e+02 9.191196394808544312e+01 -1.037738349256510020e+02 -8.449115000156292865e+01 -5.696157482887208801e+01 -4.674827066764088812e+01 -1.643952273860296600e+02 -1.394153715002926504e+02 -1.358700758245266513e+02 1.083615472393211689e+02 6.129965217902311991e+01 1.635681422450230684e+02 7.379840370424185281e+00 -8.789744135943284675e+01 1.920587109415284033e+01 1.417839571155779055e+01 -6.510380046481144234e+01 7.589132994589806458e+01 1.209866821588192494e+02 1.023452120988422820e+01 1.469340954425738914e+02 2.306104636600131741e+01 1.136741291128392248e+02 1.546120265483005873e+01 -2.128352353981569820e+02 2.236724631089658430e+02 -5.012023840110910555e+01 -1.527092301408060564e+02 -6.880428504752234176e+01 -4.394030813936146984e+01 4.216113294863927763e+01 2.607612705118919294e+01 4.659777951427542320e+01 -7.547456863042656039e+01 1.245967030165405163e+02 -8.780502967157715943e+01 -7.134833809945096306e+00 1.449347854732342853e+02 1.114993575600815205e+02 5.898007799185997868e+01 -1.799515959425936273e+02 2.584620583141177974e+01 1.426517310667354650e+02 2.380179465986136478e+01 9.907489775693846923e+01 1.080103565163976498e+02 -2.144707106133129457e+02 7.800958541376414246e+01 -5.855275868173163190e+01 -2.279423133982932939e+02 8.963801689667823780e+01 2.487327188249982157e+01 -1.229655267857759213e+02 -5.893153436118705457e+01 1.394943523644674315e+02 1.480629487987323216e+02 -7.600054600191725740e+01 -1.279511435067464475e+02 -8.344971411118176263e+01 -1.657162123535971148e+02 1.952853823557260782e+01 3.782560344344085479e+01 -1.689340263353647842e+01 -1.232178885374492161e+01 -8.901496665896841876e+01 -8.780025785940640048e+01 -2.447121646650163385e+01 1.325589854681658437e+02 1.347236834980677713e+02 8.015902238654975065e+01 9.585084957789679549e+01 -7.750882233476255578e+01 -1.779313490780242546e+02 -1.302422690953895668e+01 -2.278761144433619990e+01 -6.983437745631663063e+01 1.471176744586858209e+00 7.184431254533053846e+01 -5.203585868402029035e+01 2.423802259058414421e+01 7.785115775362386614e+01 6.892045662277730855e+01 1.086698482909122134e+02 -1.466703070280319992e+02 3.897371230694523092e+01 8.191020227157839884e+01 9.316383353149849711e+01 5.807325477828669591e+01 -1.015005867753797446e+02 1.346294139833547092e+02 1.253176958189274046e+02 9.422477633992595258e+01 9.982226021897187707e+01 -8.280506650402227820e+01 -1.462027846989266422e+01 -1.271266814396829048e+01 7.575957878686828906e+01 6.387493109478988629e+01 5.503339321397900363e+01 9.593827017678532343e+01 1.145201784345498908e+02 1.218044893276546219e+02 -6.380252080831009920e+01 7.924140807041057144e+01 6.414637039830353160e+01 -1.156791793653492988e+02 1.293911294902559064e+02 -9.868366207030247139e+00 -2.745445671381425612e+01 1.959839076999288068e+02 8.702391727116639686e+01 1.220826612353449718e+02 -1.420100264009729187e+02 -1.552668088670079385e+02 -1.513061214191302781e+02 -1.202572719479530576e+02 -4.359857106975875496e+01 1.081279216508646357e+02 -1.661140775976093948e+02 3.204166430171931523e+01 1.422310303401085321e+02 -5.848459582216424479e+01 -9.004311011933330633e+01 -3.462120028362208046e+01 1.339862430121626176e+02 2.241777346032099558e+02 -6.575020147609859578e+01 1.955041563665728788e+01 -2.732731206747094532e+01 6.759238605309025161e+01 5.947470569988207245e+01 -2.104953643291424044e+02 -8.753925586143516568e+01 1.358517583424287807e+02 1.380617037437276053e+02 9.337255479314465845e+01 -4.920503229637306930e+01 -7.488941922003105844e+01 -4.486094135100629643e+01 -1.744426909734033870e+02 7.031765008751706603e+01 -2.536729965729041325e+01 1.644550758358088842e+02 -2.760843386412726375e+01 -3.109864362974519167e+02 1.432397974539948962e+02 4.972134011800248743e+01 -1.166494883181331375e+02 -2.190535335649903459e+01 3.492184131639897515e+01 -2.054026611893135907e+02 -1.130379600834107947e+02 -1.084207536210116700e+02 -5.582206075239739818e+01 6.213218859225506918e+01 -1.630747228878479120e+02 1.067842609987580573e+02 -5.374557740057361599e+01 2.882523233420168918e+00 -1.320275520504730196e+02 -1.025379894311271300e+02 1.740445769673215182e+02 8.577598590645477827e+01 -4.180558161328672639e+01 3.679499544424222535e+01 -2.777503068625994231e+01 4.281477554840327571e+01 -1.035827694210668284e+02 9.788582342738963860e+01 5.001371979708873283e+01 -1.177500074221068616e+02 1.156282044939547546e+02 -4.866242539402143308e+01 9.895682038810100778e+01 -4.893796386081096728e+01 8.755024395263581027e+01 -1.519696113064144356e+02 1.413762760055749936e+02 2.454058073010091690e+01 9.972293915439858836e+01 1.292272706246227472e+02 -1.453234938468445421e+02 -8.512709225589132700e+01 -1.046889120621223981e+02 6.628382540740641105e+01 -1.698402114963334952e+02 1.501731558536206705e+02 1.411517262388521488e+02 5.252533911129987132e+01 -8.416896513026522086e+01 5.657101332091686885e+01 -1.063982367987675843e+02 -1.085622186381787202e+01 3.468998054089845340e+01 -1.822114180952834204e+02 -8.091223274354197770e+01 -1.342367453622511597e+01 1.013728461935195924e+02 -4.980364374103131553e+01 1.078425356135761319e+02 -6.382529328032812543e+01 -2.091534204996553399e+02 -1.062632227684671591e+02 -3.380428567001564488e+01 -5.972860733030622526e+01 2.986881645978679600e+01 5.100347104668982468e+01 6.299966632985566584e+00 2.513970734479395830e+01 -1.164652110998190864e+02 5.346023172229043041e+01 3.240010308091771662e+01 -7.167577162528768042e+01 9.201236057932012713e+00 5.594935260822445855e+01 -9.476911438311098834e+01 -5.471408623534979654e+01 -2.398993680127757955e+01 9.695904636789803988e+01 -1.701955265554667207e+01 4.167148263600939373e+00 -2.266395076521762064e+02 -9.444583655153945756e+01 9.832335150344177066e+01 -8.867488365636094727e+01 3.114974590717288550e+01 3.087727287392649700e+01 3.770507925363878599e+01 6.569211312492666366e+01 -1.764131314051992945e+02 1.431313379811062134e+02 8.101854457255620900e+01 -7.476915333571806599e+00 -8.034297237413073844e+01 1.112705141611245523e+02 6.174383856987426356e+01 -1.999641061878776327e+02 -5.010114232704509618e+01 -8.123690722961900690e+01 -5.154663411631734959e+01 -6.159072054006988850e+01 -9.850028422134688810e+01 -6.003726051311470968e+01 1.904507868125627681e+02 -1.698470965925967846e+02 6.512533552793607328e+01 2.759283299858638472e+01 -7.477470655769708685e+01 1.032976034711901647e+01 -3.920919596476885260e+01 3.411425744910648206e+00 -9.562354338186399616e+01 -1.965115810252601989e+02 1.829677005145517299e+01 4.168950789322570216e+01 -1.273126946181544561e+01 -8.962743602838244783e+00 -3.957344206937150233e+01 -1.889418636358469996e+02 -3.048887307509109235e+01 -6.502898353737300852e+01 1.389073252052918939e+01 -1.553189542998211081e+01 9.009860604657271210e+01 -6.271633950384949685e+01 -1.031756154045815634e+02 -3.555573593309928526e+01 -8.962161940129153237e+00 4.526706396724915749e+01 -2.202777249678488758e+01 -7.339084762121041194e+01 -1.579711105198809484e+01 1.996383993243860644e+01 4.727171986195745745e+01 -1.134576563311098738e+02 -1.383647837724504370e+02 2.292485500182810085e+02 -2.172480318805604043e+02 -7.559142106035764641e+01 -4.612314156616665883e+01 1.392102302504326019e+02 6.298857774314397062e+01 2.278286703690848469e+02 2.436331880771481337e+02 -6.205665192111896289e+01 1.288797496443962132e+02 -5.571729381166555584e+01 -4.062875637767405124e+01 -1.001897632699228495e+02 -7.948409736426565075e+01 -6.925442795803657248e+01 -8.860295890380625394e+01 -2.426891207100013048e+02 -2.696611105435786158e+02 1.340954152001775412e+02 -2.641390923158654758e+01 5.303034357738081184e+01 1.302984100148729851e+02
