# 
#                 ----------------------------------------------------
#                 Data from a 3D direct N-body simulation. 
# 
#                 rows are i-particle; 
#                 coumns are :mass, tag, x ,y, z, vx, vy, vz, ax, ay, az
# 
#                 NTHU, Computational Physics Lab
# 
#                 ----------------------------------------------------
#                 Time = 6.7999999999998995
1.000000000000000000e+00 2.000000000000000000e+00 3.000000000000000000e+00 4.000000000000000000e+00 5.000000000000000000e+00 6.000000000000000000e+00 7.000000000000000000e+00 8.000000000000000000e+00 9.000000000000000000e+00 1.000000000000000000e+01 1.100000000000000000e+01 1.200000000000000000e+01 1.300000000000000000e+01 1.400000000000000000e+01 1.500000000000000000e+01 1.600000000000000000e+01 1.700000000000000000e+01 1.800000000000000000e+01 1.900000000000000000e+01 2.000000000000000000e+01 2.100000000000000000e+01 2.200000000000000000e+01 2.300000000000000000e+01 2.400000000000000000e+01 2.500000000000000000e+01 2.600000000000000000e+01 2.700000000000000000e+01 2.800000000000000000e+01 2.900000000000000000e+01 3.000000000000000000e+01 3.100000000000000000e+01 3.200000000000000000e+01 3.300000000000000000e+01 3.400000000000000000e+01 3.500000000000000000e+01 3.600000000000000000e+01 3.700000000000000000e+01 3.800000000000000000e+01 3.900000000000000000e+01 4.000000000000000000e+01 4.100000000000000000e+01 4.200000000000000000e+01 4.300000000000000000e+01 4.400000000000000000e+01 4.500000000000000000e+01 4.600000000000000000e+01 4.700000000000000000e+01 4.800000000000000000e+01 4.900000000000000000e+01 5.000000000000000000e+01 5.100000000000000000e+01 5.200000000000000000e+01 5.300000000000000000e+01 5.400000000000000000e+01 5.500000000000000000e+01 5.600000000000000000e+01 5.700000000000000000e+01 5.800000000000000000e+01 5.900000000000000000e+01 6.000000000000000000e+01 6.100000000000000000e+01 6.200000000000000000e+01 6.300000000000000000e+01 6.400000000000000000e+01 6.500000000000000000e+01 6.600000000000000000e+01 6.700000000000000000e+01 6.800000000000000000e+01 6.900000000000000000e+01 7.000000000000000000e+01 7.100000000000000000e+01 7.200000000000000000e+01 7.300000000000000000e+01 7.400000000000000000e+01 7.500000000000000000e+01 7.600000000000000000e+01 7.700000000000000000e+01 7.800000000000000000e+01 7.900000000000000000e+01 8.000000000000000000e+01 8.100000000000000000e+01 8.200000000000000000e+01 8.300000000000000000e+01 8.400000000000000000e+01 8.500000000000000000e+01 8.600000000000000000e+01 8.700000000000000000e+01 8.800000000000000000e+01 8.900000000000000000e+01 9.000000000000000000e+01 9.100000000000000000e+01 9.200000000000000000e+01 9.300000000000000000e+01 9.400000000000000000e+01 9.500000000000000000e+01 9.600000000000000000e+01 9.700000000000000000e+01 9.800000000000000000e+01 9.900000000000000000e+01 1.000000000000000000e+02 1.010000000000000000e+02 1.020000000000000000e+02 1.030000000000000000e+02 1.040000000000000000e+02 1.050000000000000000e+02 1.060000000000000000e+02 1.070000000000000000e+02 1.080000000000000000e+02 1.090000000000000000e+02 1.100000000000000000e+02 1.110000000000000000e+02 1.120000000000000000e+02 1.130000000000000000e+02 1.140000000000000000e+02 1.150000000000000000e+02 1.160000000000000000e+02 1.170000000000000000e+02 1.180000000000000000e+02 1.190000000000000000e+02 1.200000000000000000e+02 1.210000000000000000e+02 1.220000000000000000e+02 1.230000000000000000e+02 1.240000000000000000e+02 1.250000000000000000e+02 1.260000000000000000e+02 1.270000000000000000e+02 1.280000000000000000e+02 1.290000000000000000e+02 1.300000000000000000e+02 1.310000000000000000e+02 1.320000000000000000e+02 1.330000000000000000e+02 1.340000000000000000e+02 1.350000000000000000e+02 1.360000000000000000e+02 1.370000000000000000e+02 1.380000000000000000e+02 1.390000000000000000e+02 1.400000000000000000e+02 1.410000000000000000e+02 1.420000000000000000e+02 1.430000000000000000e+02 1.440000000000000000e+02 1.450000000000000000e+02 1.460000000000000000e+02 1.470000000000000000e+02 1.480000000000000000e+02 1.490000000000000000e+02 1.500000000000000000e+02 1.510000000000000000e+02 1.520000000000000000e+02 1.530000000000000000e+02 1.540000000000000000e+02 1.550000000000000000e+02 1.560000000000000000e+02 1.570000000000000000e+02 1.580000000000000000e+02 1.590000000000000000e+02 1.600000000000000000e+02 1.610000000000000000e+02 1.620000000000000000e+02 1.630000000000000000e+02 1.640000000000000000e+02 1.650000000000000000e+02 1.660000000000000000e+02 1.670000000000000000e+02 1.680000000000000000e+02 1.690000000000000000e+02 1.700000000000000000e+02 1.710000000000000000e+02 1.720000000000000000e+02 1.730000000000000000e+02 1.740000000000000000e+02 1.750000000000000000e+02 1.760000000000000000e+02 1.770000000000000000e+02 1.780000000000000000e+02 1.790000000000000000e+02 1.800000000000000000e+02 1.810000000000000000e+02 1.820000000000000000e+02 1.830000000000000000e+02 1.840000000000000000e+02 1.850000000000000000e+02 1.860000000000000000e+02 1.870000000000000000e+02 1.880000000000000000e+02 1.890000000000000000e+02 1.900000000000000000e+02 1.910000000000000000e+02 1.920000000000000000e+02 1.930000000000000000e+02 1.940000000000000000e+02 1.950000000000000000e+02 1.960000000000000000e+02 1.970000000000000000e+02 1.980000000000000000e+02 1.990000000000000000e+02 2.000000000000000000e+02 2.010000000000000000e+02 2.020000000000000000e+02 2.030000000000000000e+02 2.040000000000000000e+02 2.050000000000000000e+02 2.060000000000000000e+02 2.070000000000000000e+02 2.080000000000000000e+02 2.090000000000000000e+02 2.100000000000000000e+02 2.110000000000000000e+02 2.120000000000000000e+02 2.130000000000000000e+02 2.140000000000000000e+02 2.150000000000000000e+02 2.160000000000000000e+02 2.170000000000000000e+02 2.180000000000000000e+02 2.190000000000000000e+02 2.200000000000000000e+02 2.210000000000000000e+02 2.220000000000000000e+02 2.230000000000000000e+02 2.240000000000000000e+02 2.250000000000000000e+02 2.260000000000000000e+02 2.270000000000000000e+02 2.280000000000000000e+02 2.290000000000000000e+02 2.300000000000000000e+02 2.310000000000000000e+02 2.320000000000000000e+02 2.330000000000000000e+02 2.340000000000000000e+02 2.350000000000000000e+02 2.360000000000000000e+02 2.370000000000000000e+02 2.380000000000000000e+02 2.390000000000000000e+02 2.400000000000000000e+02 2.410000000000000000e+02 2.420000000000000000e+02 2.430000000000000000e+02 2.440000000000000000e+02 2.450000000000000000e+02 2.460000000000000000e+02 2.470000000000000000e+02 2.480000000000000000e+02 2.490000000000000000e+02 2.500000000000000000e+02 2.510000000000000000e+02 2.520000000000000000e+02 2.530000000000000000e+02 2.540000000000000000e+02 2.550000000000000000e+02 2.560000000000000000e+02 2.570000000000000000e+02 2.580000000000000000e+02 2.590000000000000000e+02 2.600000000000000000e+02 2.610000000000000000e+02 2.620000000000000000e+02 2.630000000000000000e+02 2.640000000000000000e+02 2.650000000000000000e+02 2.660000000000000000e+02 2.670000000000000000e+02 2.680000000000000000e+02 2.690000000000000000e+02 2.700000000000000000e+02 2.710000000000000000e+02 2.720000000000000000e+02 2.730000000000000000e+02 2.740000000000000000e+02 2.750000000000000000e+02 2.760000000000000000e+02 2.770000000000000000e+02 2.780000000000000000e+02 2.790000000000000000e+02 2.800000000000000000e+02 2.810000000000000000e+02 2.820000000000000000e+02 2.830000000000000000e+02 2.840000000000000000e+02 2.850000000000000000e+02 2.860000000000000000e+02 2.870000000000000000e+02 2.880000000000000000e+02 2.890000000000000000e+02 2.900000000000000000e+02 2.910000000000000000e+02 2.920000000000000000e+02 2.930000000000000000e+02 2.940000000000000000e+02 2.950000000000000000e+02 2.960000000000000000e+02 2.970000000000000000e+02 2.980000000000000000e+02 2.990000000000000000e+02 3.000000000000000000e+02 3.010000000000000000e+02 3.020000000000000000e+02 3.030000000000000000e+02 3.040000000000000000e+02 3.050000000000000000e+02 3.060000000000000000e+02 3.070000000000000000e+02 3.080000000000000000e+02 3.090000000000000000e+02 3.100000000000000000e+02 3.110000000000000000e+02 3.120000000000000000e+02 3.130000000000000000e+02 3.140000000000000000e+02 3.150000000000000000e+02 3.160000000000000000e+02 3.170000000000000000e+02 3.180000000000000000e+02 3.190000000000000000e+02 3.200000000000000000e+02 3.210000000000000000e+02 3.220000000000000000e+02 3.230000000000000000e+02 3.240000000000000000e+02 3.250000000000000000e+02 3.260000000000000000e+02 3.270000000000000000e+02 3.280000000000000000e+02 3.290000000000000000e+02 3.300000000000000000e+02 3.310000000000000000e+02 3.320000000000000000e+02 3.330000000000000000e+02 3.340000000000000000e+02 3.350000000000000000e+02 3.360000000000000000e+02 3.370000000000000000e+02 3.380000000000000000e+02 3.390000000000000000e+02 3.400000000000000000e+02 3.410000000000000000e+02 3.420000000000000000e+02 3.430000000000000000e+02 3.440000000000000000e+02 3.450000000000000000e+02 3.460000000000000000e+02 3.470000000000000000e+02 3.480000000000000000e+02 3.490000000000000000e+02 3.500000000000000000e+02 3.510000000000000000e+02 3.520000000000000000e+02 3.530000000000000000e+02 3.540000000000000000e+02 3.550000000000000000e+02 3.560000000000000000e+02 3.570000000000000000e+02 3.580000000000000000e+02 3.590000000000000000e+02 3.600000000000000000e+02 3.610000000000000000e+02 3.620000000000000000e+02 3.630000000000000000e+02 3.640000000000000000e+02 3.650000000000000000e+02 3.660000000000000000e+02 3.670000000000000000e+02 3.680000000000000000e+02 3.690000000000000000e+02 3.700000000000000000e+02 3.710000000000000000e+02 3.720000000000000000e+02 3.730000000000000000e+02 3.740000000000000000e+02 3.750000000000000000e+02 3.760000000000000000e+02 3.770000000000000000e+02 3.780000000000000000e+02 3.790000000000000000e+02 3.800000000000000000e+02 3.810000000000000000e+02 3.820000000000000000e+02 3.830000000000000000e+02 3.840000000000000000e+02 3.850000000000000000e+02 3.860000000000000000e+02 3.870000000000000000e+02 3.880000000000000000e+02 3.890000000000000000e+02 3.900000000000000000e+02 3.910000000000000000e+02 3.920000000000000000e+02 3.930000000000000000e+02 3.940000000000000000e+02 3.950000000000000000e+02 3.960000000000000000e+02 3.970000000000000000e+02 3.980000000000000000e+02 3.990000000000000000e+02 4.000000000000000000e+02 4.010000000000000000e+02 4.020000000000000000e+02 4.030000000000000000e+02 4.040000000000000000e+02 4.050000000000000000e+02 4.060000000000000000e+02 4.070000000000000000e+02 4.080000000000000000e+02 4.090000000000000000e+02 4.100000000000000000e+02 4.110000000000000000e+02 4.120000000000000000e+02 4.130000000000000000e+02 4.140000000000000000e+02 4.150000000000000000e+02 4.160000000000000000e+02 4.170000000000000000e+02 4.180000000000000000e+02 4.190000000000000000e+02 4.200000000000000000e+02 4.210000000000000000e+02 4.220000000000000000e+02 4.230000000000000000e+02 4.240000000000000000e+02 4.250000000000000000e+02 4.260000000000000000e+02 4.270000000000000000e+02 4.280000000000000000e+02 4.290000000000000000e+02 4.300000000000000000e+02 4.310000000000000000e+02 4.320000000000000000e+02 4.330000000000000000e+02 4.340000000000000000e+02 4.350000000000000000e+02 4.360000000000000000e+02 4.370000000000000000e+02 4.380000000000000000e+02 4.390000000000000000e+02 4.400000000000000000e+02 4.410000000000000000e+02 4.420000000000000000e+02 4.430000000000000000e+02 4.440000000000000000e+02 4.450000000000000000e+02 4.460000000000000000e+02 4.470000000000000000e+02 4.480000000000000000e+02 4.490000000000000000e+02 4.500000000000000000e+02 4.510000000000000000e+02 4.520000000000000000e+02 4.530000000000000000e+02 4.540000000000000000e+02 4.550000000000000000e+02 4.560000000000000000e+02 4.570000000000000000e+02 4.580000000000000000e+02 4.590000000000000000e+02 4.600000000000000000e+02 4.610000000000000000e+02 4.620000000000000000e+02 4.630000000000000000e+02 4.640000000000000000e+02 4.650000000000000000e+02 4.660000000000000000e+02 4.670000000000000000e+02 4.680000000000000000e+02 4.690000000000000000e+02 4.700000000000000000e+02 4.710000000000000000e+02 4.720000000000000000e+02 4.730000000000000000e+02 4.740000000000000000e+02 4.750000000000000000e+02 4.760000000000000000e+02 4.770000000000000000e+02 4.780000000000000000e+02 4.790000000000000000e+02 4.800000000000000000e+02 4.810000000000000000e+02 4.820000000000000000e+02 4.830000000000000000e+02 4.840000000000000000e+02 4.850000000000000000e+02 4.860000000000000000e+02 4.870000000000000000e+02 4.880000000000000000e+02 4.890000000000000000e+02 4.900000000000000000e+02 4.910000000000000000e+02 4.920000000000000000e+02 4.930000000000000000e+02 4.940000000000000000e+02 4.950000000000000000e+02 4.960000000000000000e+02 4.970000000000000000e+02 4.980000000000000000e+02 4.990000000000000000e+02 5.000000000000000000e+02 5.010000000000000000e+02 5.020000000000000000e+02 5.030000000000000000e+02 5.040000000000000000e+02 5.050000000000000000e+02 5.060000000000000000e+02 5.070000000000000000e+02 5.080000000000000000e+02 5.090000000000000000e+02 5.100000000000000000e+02 5.110000000000000000e+02 5.120000000000000000e+02 5.130000000000000000e+02 5.140000000000000000e+02 5.150000000000000000e+02 5.160000000000000000e+02 5.170000000000000000e+02 5.180000000000000000e+02 5.190000000000000000e+02 5.200000000000000000e+02 5.210000000000000000e+02 5.220000000000000000e+02 5.230000000000000000e+02 5.240000000000000000e+02 5.250000000000000000e+02 5.260000000000000000e+02 5.270000000000000000e+02 5.280000000000000000e+02 5.290000000000000000e+02 5.300000000000000000e+02 5.310000000000000000e+02 5.320000000000000000e+02 5.330000000000000000e+02 5.340000000000000000e+02 5.350000000000000000e+02 5.360000000000000000e+02 5.370000000000000000e+02 5.380000000000000000e+02 5.390000000000000000e+02 5.400000000000000000e+02 5.410000000000000000e+02 5.420000000000000000e+02 5.430000000000000000e+02 5.440000000000000000e+02 5.450000000000000000e+02 5.460000000000000000e+02 5.470000000000000000e+02 5.480000000000000000e+02 5.490000000000000000e+02 5.500000000000000000e+02 5.510000000000000000e+02 5.520000000000000000e+02 5.530000000000000000e+02 5.540000000000000000e+02 5.550000000000000000e+02 5.560000000000000000e+02 5.570000000000000000e+02 5.580000000000000000e+02 5.590000000000000000e+02 5.600000000000000000e+02 5.610000000000000000e+02 5.620000000000000000e+02 5.630000000000000000e+02 5.640000000000000000e+02 5.650000000000000000e+02 5.660000000000000000e+02 5.670000000000000000e+02 5.680000000000000000e+02 5.690000000000000000e+02 5.700000000000000000e+02 5.710000000000000000e+02 5.720000000000000000e+02 5.730000000000000000e+02 5.740000000000000000e+02 5.750000000000000000e+02 5.760000000000000000e+02 5.770000000000000000e+02 5.780000000000000000e+02 5.790000000000000000e+02 5.800000000000000000e+02 5.810000000000000000e+02 5.820000000000000000e+02 5.830000000000000000e+02 5.840000000000000000e+02 5.850000000000000000e+02 5.860000000000000000e+02 5.870000000000000000e+02 5.880000000000000000e+02 5.890000000000000000e+02 5.900000000000000000e+02 5.910000000000000000e+02 5.920000000000000000e+02 5.930000000000000000e+02 5.940000000000000000e+02 5.950000000000000000e+02 5.960000000000000000e+02 5.970000000000000000e+02 5.980000000000000000e+02 5.990000000000000000e+02 6.000000000000000000e+02 6.010000000000000000e+02 6.020000000000000000e+02 6.030000000000000000e+02 6.040000000000000000e+02 6.050000000000000000e+02 6.060000000000000000e+02 6.070000000000000000e+02 6.080000000000000000e+02 6.090000000000000000e+02 6.100000000000000000e+02 6.110000000000000000e+02 6.120000000000000000e+02 6.130000000000000000e+02 6.140000000000000000e+02 6.150000000000000000e+02 6.160000000000000000e+02 6.170000000000000000e+02 6.180000000000000000e+02 6.190000000000000000e+02 6.200000000000000000e+02 6.210000000000000000e+02 6.220000000000000000e+02 6.230000000000000000e+02 6.240000000000000000e+02 6.250000000000000000e+02 6.260000000000000000e+02 6.270000000000000000e+02 6.280000000000000000e+02 6.290000000000000000e+02 6.300000000000000000e+02 6.310000000000000000e+02 6.320000000000000000e+02 6.330000000000000000e+02 6.340000000000000000e+02 6.350000000000000000e+02 6.360000000000000000e+02 6.370000000000000000e+02 6.380000000000000000e+02 6.390000000000000000e+02 6.400000000000000000e+02 6.410000000000000000e+02 6.420000000000000000e+02 6.430000000000000000e+02 6.440000000000000000e+02 6.450000000000000000e+02 6.460000000000000000e+02 6.470000000000000000e+02 6.480000000000000000e+02 6.490000000000000000e+02 6.500000000000000000e+02 6.510000000000000000e+02 6.520000000000000000e+02 6.530000000000000000e+02 6.540000000000000000e+02 6.550000000000000000e+02 6.560000000000000000e+02 6.570000000000000000e+02 6.580000000000000000e+02 6.590000000000000000e+02 6.600000000000000000e+02 6.610000000000000000e+02 6.620000000000000000e+02 6.630000000000000000e+02 6.640000000000000000e+02 6.650000000000000000e+02 6.660000000000000000e+02 6.670000000000000000e+02 6.680000000000000000e+02 6.690000000000000000e+02 6.700000000000000000e+02 6.710000000000000000e+02 6.720000000000000000e+02 6.730000000000000000e+02 6.740000000000000000e+02 6.750000000000000000e+02 6.760000000000000000e+02 6.770000000000000000e+02 6.780000000000000000e+02 6.790000000000000000e+02 6.800000000000000000e+02 6.810000000000000000e+02 6.820000000000000000e+02 6.830000000000000000e+02 6.840000000000000000e+02 6.850000000000000000e+02 6.860000000000000000e+02 6.870000000000000000e+02 6.880000000000000000e+02 6.890000000000000000e+02 6.900000000000000000e+02 6.910000000000000000e+02 6.920000000000000000e+02 6.930000000000000000e+02 6.940000000000000000e+02 6.950000000000000000e+02 6.960000000000000000e+02 6.970000000000000000e+02 6.980000000000000000e+02 6.990000000000000000e+02 7.000000000000000000e+02 7.010000000000000000e+02 7.020000000000000000e+02 7.030000000000000000e+02 7.040000000000000000e+02 7.050000000000000000e+02 7.060000000000000000e+02 7.070000000000000000e+02 7.080000000000000000e+02 7.090000000000000000e+02 7.100000000000000000e+02 7.110000000000000000e+02 7.120000000000000000e+02 7.130000000000000000e+02 7.140000000000000000e+02 7.150000000000000000e+02 7.160000000000000000e+02 7.170000000000000000e+02 7.180000000000000000e+02 7.190000000000000000e+02 7.200000000000000000e+02 7.210000000000000000e+02 7.220000000000000000e+02 7.230000000000000000e+02 7.240000000000000000e+02 7.250000000000000000e+02 7.260000000000000000e+02 7.270000000000000000e+02 7.280000000000000000e+02 7.290000000000000000e+02 7.300000000000000000e+02 7.310000000000000000e+02 7.320000000000000000e+02 7.330000000000000000e+02 7.340000000000000000e+02 7.350000000000000000e+02 7.360000000000000000e+02 7.370000000000000000e+02 7.380000000000000000e+02 7.390000000000000000e+02 7.400000000000000000e+02 7.410000000000000000e+02 7.420000000000000000e+02 7.430000000000000000e+02 7.440000000000000000e+02 7.450000000000000000e+02 7.460000000000000000e+02 7.470000000000000000e+02 7.480000000000000000e+02 7.490000000000000000e+02 7.500000000000000000e+02 7.510000000000000000e+02 7.520000000000000000e+02 7.530000000000000000e+02 7.540000000000000000e+02 7.550000000000000000e+02 7.560000000000000000e+02 7.570000000000000000e+02 7.580000000000000000e+02 7.590000000000000000e+02 7.600000000000000000e+02 7.610000000000000000e+02 7.620000000000000000e+02 7.630000000000000000e+02 7.640000000000000000e+02 7.650000000000000000e+02 7.660000000000000000e+02 7.670000000000000000e+02 7.680000000000000000e+02 7.690000000000000000e+02 7.700000000000000000e+02 7.710000000000000000e+02 7.720000000000000000e+02 7.730000000000000000e+02 7.740000000000000000e+02 7.750000000000000000e+02 7.760000000000000000e+02 7.770000000000000000e+02 7.780000000000000000e+02 7.790000000000000000e+02 7.800000000000000000e+02 7.810000000000000000e+02 7.820000000000000000e+02 7.830000000000000000e+02 7.840000000000000000e+02 7.850000000000000000e+02 7.860000000000000000e+02 7.870000000000000000e+02 7.880000000000000000e+02 7.890000000000000000e+02 7.900000000000000000e+02 7.910000000000000000e+02 7.920000000000000000e+02 7.930000000000000000e+02 7.940000000000000000e+02 7.950000000000000000e+02 7.960000000000000000e+02 7.970000000000000000e+02 7.980000000000000000e+02 7.990000000000000000e+02 8.000000000000000000e+02 8.010000000000000000e+02 8.020000000000000000e+02 8.030000000000000000e+02 8.040000000000000000e+02 8.050000000000000000e+02 8.060000000000000000e+02 8.070000000000000000e+02 8.080000000000000000e+02 8.090000000000000000e+02 8.100000000000000000e+02 8.110000000000000000e+02 8.120000000000000000e+02 8.130000000000000000e+02 8.140000000000000000e+02 8.150000000000000000e+02 8.160000000000000000e+02 8.170000000000000000e+02 8.180000000000000000e+02 8.190000000000000000e+02 8.200000000000000000e+02 8.210000000000000000e+02 8.220000000000000000e+02 8.230000000000000000e+02 8.240000000000000000e+02 8.250000000000000000e+02 8.260000000000000000e+02 8.270000000000000000e+02 8.280000000000000000e+02 8.290000000000000000e+02 8.300000000000000000e+02 8.310000000000000000e+02 8.320000000000000000e+02 8.330000000000000000e+02 8.340000000000000000e+02 8.350000000000000000e+02 8.360000000000000000e+02 8.370000000000000000e+02 8.380000000000000000e+02 8.390000000000000000e+02 8.400000000000000000e+02 8.410000000000000000e+02 8.420000000000000000e+02 8.430000000000000000e+02 8.440000000000000000e+02 8.450000000000000000e+02 8.460000000000000000e+02 8.470000000000000000e+02 8.480000000000000000e+02 8.490000000000000000e+02 8.500000000000000000e+02 8.510000000000000000e+02 8.520000000000000000e+02 8.530000000000000000e+02 8.540000000000000000e+02 8.550000000000000000e+02 8.560000000000000000e+02 8.570000000000000000e+02 8.580000000000000000e+02 8.590000000000000000e+02 8.600000000000000000e+02 8.610000000000000000e+02 8.620000000000000000e+02 8.630000000000000000e+02 8.640000000000000000e+02 8.650000000000000000e+02 8.660000000000000000e+02 8.670000000000000000e+02 8.680000000000000000e+02 8.690000000000000000e+02 8.700000000000000000e+02 8.710000000000000000e+02 8.720000000000000000e+02 8.730000000000000000e+02 8.740000000000000000e+02 8.750000000000000000e+02 8.760000000000000000e+02 8.770000000000000000e+02 8.780000000000000000e+02 8.790000000000000000e+02 8.800000000000000000e+02 8.810000000000000000e+02 8.820000000000000000e+02 8.830000000000000000e+02 8.840000000000000000e+02 8.850000000000000000e+02 8.860000000000000000e+02 8.870000000000000000e+02 8.880000000000000000e+02 8.890000000000000000e+02 8.900000000000000000e+02 8.910000000000000000e+02 8.920000000000000000e+02 8.930000000000000000e+02 8.940000000000000000e+02 8.950000000000000000e+02 8.960000000000000000e+02 8.970000000000000000e+02 8.980000000000000000e+02 8.990000000000000000e+02 9.000000000000000000e+02 9.010000000000000000e+02 9.020000000000000000e+02 9.030000000000000000e+02 9.040000000000000000e+02 9.050000000000000000e+02 9.060000000000000000e+02 9.070000000000000000e+02 9.080000000000000000e+02 9.090000000000000000e+02 9.100000000000000000e+02 9.110000000000000000e+02 9.120000000000000000e+02 9.130000000000000000e+02 9.140000000000000000e+02 9.150000000000000000e+02 9.160000000000000000e+02 9.170000000000000000e+02 9.180000000000000000e+02 9.190000000000000000e+02 9.200000000000000000e+02 9.210000000000000000e+02 9.220000000000000000e+02 9.230000000000000000e+02 9.240000000000000000e+02 9.250000000000000000e+02 9.260000000000000000e+02 9.270000000000000000e+02 9.280000000000000000e+02 9.290000000000000000e+02 9.300000000000000000e+02 9.310000000000000000e+02 9.320000000000000000e+02 9.330000000000000000e+02 9.340000000000000000e+02 9.350000000000000000e+02 9.360000000000000000e+02 9.370000000000000000e+02 9.380000000000000000e+02 9.390000000000000000e+02 9.400000000000000000e+02 9.410000000000000000e+02 9.420000000000000000e+02 9.430000000000000000e+02 9.440000000000000000e+02 9.450000000000000000e+02 9.460000000000000000e+02 9.470000000000000000e+02 9.480000000000000000e+02 9.490000000000000000e+02 9.500000000000000000e+02 9.510000000000000000e+02 9.520000000000000000e+02 9.530000000000000000e+02 9.540000000000000000e+02 9.550000000000000000e+02 9.560000000000000000e+02 9.570000000000000000e+02 9.580000000000000000e+02 9.590000000000000000e+02 9.600000000000000000e+02 9.610000000000000000e+02 9.620000000000000000e+02 9.630000000000000000e+02 9.640000000000000000e+02 9.650000000000000000e+02 9.660000000000000000e+02 9.670000000000000000e+02 9.680000000000000000e+02 9.690000000000000000e+02 9.700000000000000000e+02 9.710000000000000000e+02 9.720000000000000000e+02 9.730000000000000000e+02 9.740000000000000000e+02 9.750000000000000000e+02 9.760000000000000000e+02 9.770000000000000000e+02 9.780000000000000000e+02 9.790000000000000000e+02 9.800000000000000000e+02 9.810000000000000000e+02 9.820000000000000000e+02 9.830000000000000000e+02 9.840000000000000000e+02 9.850000000000000000e+02 9.860000000000000000e+02 9.870000000000000000e+02 9.880000000000000000e+02 9.890000000000000000e+02 9.900000000000000000e+02 9.910000000000000000e+02 9.920000000000000000e+02 9.930000000000000000e+02 9.940000000000000000e+02 9.950000000000000000e+02 9.960000000000000000e+02 9.970000000000000000e+02 9.980000000000000000e+02 9.990000000000000000e+02 1.000000000000000000e+03
1.000000000000000021e-02 1.000000000000000021e-02 1.000000000000000021e-02 1.000000000000000021e-02 1.000000000000000021e-02 1.000000000000000021e-02 1.000000000000000021e-02 1.000000000000000021e-02 1.000000000000000021e-02 1.000000000000000021e-02 1.000000000000000021e-02 1.000000000000000021e-02 1.000000000000000021e-02 1.000000000000000021e-02 1.000000000000000021e-02 1.000000000000000021e-02 1.000000000000000021e-02 1.000000000000000021e-02 1.000000000000000021e-02 1.000000000000000021e-02 1.000000000000000021e-02 1.000000000000000021e-02 1.000000000000000021e-02 1.000000000000000021e-02 1.000000000000000021e-02 1.000000000000000021e-02 1.000000000000000021e-02 1.000000000000000021e-02 1.000000000000000021e-02 1.000000000000000021e-02 1.000000000000000021e-02 1.000000000000000021e-02 1.000000000000000021e-02 1.000000000000000021e-02 1.000000000000000021e-02 1.000000000000000021e-02 1.000000000000000021e-02 1.000000000000000021e-02 1.000000000000000021e-02 1.000000000000000021e-02 1.000000000000000021e-02 1.000000000000000021e-02 1.000000000000000021e-02 1.000000000000000021e-02 1.000000000000000021e-02 1.000000000000000021e-02 1.000000000000000021e-02 1.000000000000000021e-02 1.000000000000000021e-02 1.000000000000000021e-02 1.000000000000000021e-02 1.000000000000000021e-02 1.000000000000000021e-02 1.000000000000000021e-02 1.000000000000000021e-02 1.000000000000000021e-02 1.000000000000000021e-02 1.000000000000000021e-02 1.000000000000000021e-02 1.000000000000000021e-02 1.000000000000000021e-02 1.000000000000000021e-02 1.000000000000000021e-02 1.000000000000000021e-02 1.000000000000000021e-02 1.000000000000000021e-02 1.000000000000000021e-02 1.000000000000000021e-02 1.000000000000000021e-02 1.000000000000000021e-02 1.000000000000000021e-02 1.000000000000000021e-02 1.000000000000000021e-02 1.000000000000000021e-02 1.000000000000000021e-02 1.000000000000000021e-02 1.000000000000000021e-02 1.000000000000000021e-02 1.000000000000000021e-02 1.000000000000000021e-02 1.000000000000000021e-02 1.000000000000000021e-02 1.000000000000000021e-02 1.000000000000000021e-02 1.000000000000000021e-02 1.000000000000000021e-02 1.000000000000000021e-02 1.000000000000000021e-02 1.000000000000000021e-02 1.000000000000000021e-02 1.000000000000000021e-02 1.000000000000000021e-02 1.000000000000000021e-02 1.000000000000000021e-02 1.000000000000000021e-02 1.000000000000000021e-02 1.000000000000000021e-02 1.000000000000000021e-02 1.000000000000000021e-02 1.000000000000000021e-02 1.000000000000000021e-02 1.000000000000000021e-02 1.000000000000000021e-02 1.000000000000000021e-02 1.000000000000000021e-02 1.000000000000000021e-02 1.000000000000000021e-02 1.000000000000000021e-02 1.000000000000000021e-02 1.000000000000000021e-02 1.000000000000000021e-02 1.000000000000000021e-02 1.000000000000000021e-02 1.000000000000000021e-02 1.000000000000000021e-02 1.000000000000000021e-02 1.000000000000000021e-02 1.000000000000000021e-02 1.000000000000000021e-02 1.000000000000000021e-02 1.000000000000000021e-02 1.000000000000000021e-02 1.000000000000000021e-02 1.000000000000000021e-02 1.000000000000000021e-02 1.000000000000000021e-02 1.000000000000000021e-02 1.000000000000000021e-02 1.000000000000000021e-02 1.000000000000000021e-02 1.000000000000000021e-02 1.000000000000000021e-02 1.000000000000000021e-02 1.000000000000000021e-02 1.000000000000000021e-02 1.000000000000000021e-02 1.000000000000000021e-02 1.000000000000000021e-02 1.000000000000000021e-02 1.000000000000000021e-02 1.000000000000000021e-02 1.000000000000000021e-02 1.000000000000000021e-02 1.000000000000000021e-02 1.000000000000000021e-02 1.000000000000000021e-02 1.000000000000000021e-02 1.000000000000000021e-02 1.000000000000000021e-02 1.000000000000000021e-02 1.000000000000000021e-02 1.000000000000000021e-02 1.000000000000000021e-02 1.000000000000000021e-02 1.000000000000000021e-02 1.000000000000000021e-02 1.000000000000000021e-02 1.000000000000000021e-02 1.000000000000000021e-02 1.000000000000000021e-02 1.000000000000000021e-02 1.000000000000000021e-02 1.000000000000000021e-02 1.000000000000000021e-02 1.000000000000000021e-02 1.000000000000000021e-02 1.000000000000000021e-02 1.000000000000000021e-02 1.000000000000000021e-02 1.000000000000000021e-02 1.000000000000000021e-02 1.000000000000000021e-02 1.000000000000000021e-02 1.000000000000000021e-02 1.000000000000000021e-02 1.000000000000000021e-02 1.000000000000000021e-02 1.000000000000000021e-02 1.000000000000000021e-02 1.000000000000000021e-02 1.000000000000000021e-02 1.000000000000000021e-02 1.000000000000000021e-02 1.000000000000000021e-02 1.000000000000000021e-02 1.000000000000000021e-02 1.000000000000000021e-02 1.000000000000000021e-02 1.000000000000000021e-02 1.000000000000000021e-02 1.000000000000000021e-02 1.000000000000000021e-02 1.000000000000000021e-02 1.000000000000000021e-02 1.000000000000000021e-02 1.000000000000000021e-02 1.000000000000000021e-02 1.000000000000000021e-02 1.000000000000000021e-02 1.000000000000000021e-02 1.000000000000000021e-02 1.000000000000000021e-02 1.000000000000000021e-02 1.000000000000000021e-02 1.000000000000000021e-02 1.000000000000000021e-02 1.000000000000000021e-02 1.000000000000000021e-02 1.000000000000000021e-02 1.000000000000000021e-02 1.000000000000000021e-02 1.000000000000000021e-02 1.000000000000000021e-02 1.000000000000000021e-02 1.000000000000000021e-02 1.000000000000000021e-02 1.000000000000000021e-02 1.000000000000000021e-02 1.000000000000000021e-02 1.000000000000000021e-02 1.000000000000000021e-02 1.000000000000000021e-02 1.000000000000000021e-02 1.000000000000000021e-02 1.000000000000000021e-02 1.000000000000000021e-02 1.000000000000000021e-02 1.000000000000000021e-02 1.000000000000000021e-02 1.000000000000000021e-02 1.000000000000000021e-02 1.000000000000000021e-02 1.000000000000000021e-02 1.000000000000000021e-02 1.000000000000000021e-02 1.000000000000000021e-02 1.000000000000000021e-02 1.000000000000000021e-02 1.000000000000000021e-02 1.000000000000000021e-02 1.000000000000000021e-02 1.000000000000000021e-02 1.000000000000000021e-02 1.000000000000000021e-02 1.000000000000000021e-02 1.000000000000000021e-02 1.000000000000000021e-02 1.000000000000000021e-02 1.000000000000000021e-02 1.000000000000000021e-02 1.000000000000000021e-02 1.000000000000000021e-02 1.000000000000000021e-02 1.000000000000000021e-02 1.000000000000000021e-02 1.000000000000000021e-02 1.000000000000000021e-02 1.000000000000000021e-02 1.000000000000000021e-02 1.000000000000000021e-02 1.000000000000000021e-02 1.000000000000000021e-02 1.000000000000000021e-02 1.000000000000000021e-02 1.000000000000000021e-02 1.000000000000000021e-02 1.000000000000000021e-02 1.000000000000000021e-02 1.000000000000000021e-02 1.000000000000000021e-02 1.000000000000000021e-02 1.000000000000000021e-02 1.000000000000000021e-02 1.000000000000000021e-02 1.000000000000000021e-02 1.000000000000000021e-02 1.000000000000000021e-02 1.000000000000000021e-02 1.000000000000000021e-02 1.000000000000000021e-02 1.000000000000000021e-02 1.000000000000000021e-02 1.000000000000000021e-02 1.000000000000000021e-02 1.000000000000000021e-02 1.000000000000000021e-02 1.000000000000000021e-02 1.000000000000000021e-02 1.000000000000000021e-02 1.000000000000000021e-02 1.000000000000000021e-02 1.000000000000000021e-02 1.000000000000000021e-02 1.000000000000000021e-02 1.000000000000000021e-02 1.000000000000000021e-02 1.000000000000000021e-02 1.000000000000000021e-02 1.000000000000000021e-02 1.000000000000000021e-02 1.000000000000000021e-02 1.000000000000000021e-02 1.000000000000000021e-02 1.000000000000000021e-02 1.000000000000000021e-02 1.000000000000000021e-02 1.000000000000000021e-02 1.000000000000000021e-02 1.000000000000000021e-02 1.000000000000000021e-02 1.000000000000000021e-02 1.000000000000000021e-02 1.000000000000000021e-02 1.000000000000000021e-02 1.000000000000000021e-02 1.000000000000000021e-02 1.000000000000000021e-02 1.000000000000000021e-02 1.000000000000000021e-02 1.000000000000000021e-02 1.000000000000000021e-02 1.000000000000000021e-02 1.000000000000000021e-02 1.000000000000000021e-02 1.000000000000000021e-02 1.000000000000000021e-02 1.000000000000000021e-02 1.000000000000000021e-02 1.000000000000000021e-02 1.000000000000000021e-02 1.000000000000000021e-02 1.000000000000000021e-02 1.000000000000000021e-02 1.000000000000000021e-02 1.000000000000000021e-02 1.000000000000000021e-02 1.000000000000000021e-02 1.000000000000000021e-02 1.000000000000000021e-02 1.000000000000000021e-02 1.000000000000000021e-02 1.000000000000000021e-02 1.000000000000000021e-02 1.000000000000000021e-02 1.000000000000000021e-02 1.000000000000000021e-02 1.000000000000000021e-02 1.000000000000000021e-02 1.000000000000000021e-02 1.000000000000000021e-02 1.000000000000000021e-02 1.000000000000000021e-02 1.000000000000000021e-02 1.000000000000000021e-02 1.000000000000000021e-02 1.000000000000000021e-02 1.000000000000000021e-02 1.000000000000000021e-02 1.000000000000000021e-02 1.000000000000000021e-02 1.000000000000000021e-02 1.000000000000000021e-02 1.000000000000000021e-02 1.000000000000000021e-02 1.000000000000000021e-02 1.000000000000000021e-02 1.000000000000000021e-02 1.000000000000000021e-02 1.000000000000000021e-02 1.000000000000000021e-02 1.000000000000000021e-02 1.000000000000000021e-02 1.000000000000000021e-02 1.000000000000000021e-02 1.000000000000000021e-02 1.000000000000000021e-02 1.000000000000000021e-02 1.000000000000000021e-02 1.000000000000000021e-02 1.000000000000000021e-02 1.000000000000000021e-02 1.000000000000000021e-02 1.000000000000000021e-02 1.000000000000000021e-02 1.000000000000000021e-02 1.000000000000000021e-02 1.000000000000000021e-02 1.000000000000000021e-02 1.000000000000000021e-02 1.000000000000000021e-02 1.000000000000000021e-02 1.000000000000000021e-02 1.000000000000000021e-02 1.000000000000000021e-02 1.000000000000000021e-02 1.000000000000000021e-02 1.000000000000000021e-02 1.000000000000000021e-02 1.000000000000000021e-02 1.000000000000000021e-02 1.000000000000000021e-02 1.000000000000000021e-02 1.000000000000000021e-02 1.000000000000000021e-02 1.000000000000000021e-02 1.000000000000000021e-02 1.000000000000000021e-02 1.000000000000000021e-02 1.000000000000000021e-02 1.000000000000000021e-02 1.000000000000000021e-02 1.000000000000000021e-02 1.000000000000000021e-02 1.000000000000000021e-02 1.000000000000000021e-02 1.000000000000000021e-02 1.000000000000000021e-02 1.000000000000000021e-02 1.000000000000000021e-02 1.000000000000000021e-02 1.000000000000000021e-02 1.000000000000000021e-02 1.000000000000000021e-02 1.000000000000000021e-02 1.000000000000000021e-02 1.000000000000000021e-02 1.000000000000000021e-02 1.000000000000000021e-02 1.000000000000000021e-02 1.000000000000000021e-02 1.000000000000000021e-02 1.000000000000000021e-02 1.000000000000000021e-02 1.000000000000000021e-02 1.000000000000000021e-02 1.000000000000000021e-02 1.000000000000000021e-02 1.000000000000000021e-02 1.000000000000000021e-02 1.000000000000000021e-02 1.000000000000000021e-02 1.000000000000000021e-02 1.000000000000000021e-02 1.000000000000000021e-02 1.000000000000000021e-02 1.000000000000000021e-02 1.000000000000000021e-02 1.000000000000000021e-02 1.000000000000000021e-02 1.000000000000000021e-02 1.000000000000000021e-02 1.000000000000000021e-02 1.000000000000000021e-02 1.000000000000000021e-02 1.000000000000000021e-02 1.000000000000000021e-02 1.000000000000000021e-02 1.000000000000000021e-02 1.000000000000000021e-02 1.000000000000000021e-02 1.000000000000000021e-02 1.000000000000000021e-02 1.000000000000000021e-02 1.000000000000000021e-02 1.000000000000000021e-02 1.000000000000000021e-02 1.000000000000000021e-02 1.000000000000000021e-02 1.000000000000000021e-02 1.000000000000000021e-02 1.000000000000000021e-02 1.000000000000000021e-02 1.000000000000000021e-02 1.000000000000000021e-02 1.000000000000000021e-02 1.000000000000000021e-02 1.000000000000000021e-02 1.000000000000000021e-02 1.000000000000000021e-02 1.000000000000000021e-02 1.000000000000000021e-02 1.000000000000000021e-02 1.000000000000000021e-02 1.000000000000000021e-02 1.000000000000000021e-02 1.000000000000000021e-02 1.000000000000000021e-02 1.000000000000000021e-02 1.000000000000000021e-02 1.000000000000000021e-02 1.000000000000000021e-02 1.000000000000000021e-02 1.000000000000000021e-02 1.000000000000000021e-02 1.000000000000000021e-02 1.000000000000000021e-02 1.000000000000000021e-02 1.000000000000000021e-02 1.000000000000000021e-02 1.000000000000000021e-02 1.000000000000000021e-02 1.000000000000000021e-02 1.000000000000000021e-02 1.000000000000000021e-02 1.000000000000000021e-02 1.000000000000000021e-02 1.000000000000000021e-02 1.000000000000000021e-02 1.000000000000000021e-02 1.000000000000000021e-02 1.000000000000000021e-02 1.000000000000000021e-02 1.000000000000000021e-02 1.000000000000000021e-02 1.000000000000000021e-02 1.000000000000000021e-02 1.000000000000000021e-02 1.000000000000000021e-02 1.000000000000000021e-02 1.000000000000000021e-02 1.000000000000000021e-02 1.000000000000000021e-02 1.000000000000000021e-02 1.000000000000000021e-02 1.000000000000000021e-02 1.000000000000000021e-02 1.000000000000000021e-02 1.000000000000000021e-02 1.000000000000000021e-02 1.000000000000000021e-02 1.000000000000000021e-02 1.000000000000000021e-02 1.000000000000000021e-02 1.000000000000000021e-02 1.000000000000000021e-02 1.000000000000000021e-02 1.000000000000000021e-02 1.000000000000000021e-02 1.000000000000000021e-02 1.000000000000000021e-02 1.000000000000000021e-02 1.000000000000000021e-02 1.000000000000000021e-02 1.000000000000000021e-02 1.000000000000000021e-02 1.000000000000000021e-02 1.000000000000000021e-02 1.000000000000000021e-02 1.000000000000000021e-02 1.000000000000000021e-02 1.000000000000000021e-02 1.000000000000000021e-02 1.000000000000000021e-02 1.000000000000000021e-02 1.000000000000000021e-02 1.000000000000000021e-02 1.000000000000000021e-02 1.000000000000000021e-02 1.000000000000000021e-02 1.000000000000000021e-02 1.000000000000000021e-02 1.000000000000000021e-02 1.000000000000000021e-02 1.000000000000000021e-02 1.000000000000000021e-02 1.000000000000000021e-02 1.000000000000000021e-02 1.000000000000000021e-02 1.000000000000000021e-02 1.000000000000000021e-02 1.000000000000000021e-02 1.000000000000000021e-02 1.000000000000000021e-02 1.000000000000000021e-02 1.000000000000000021e-02 1.000000000000000021e-02 1.000000000000000021e-02 1.000000000000000021e-02 1.000000000000000021e-02 1.000000000000000021e-02 1.000000000000000021e-02 1.000000000000000021e-02 1.000000000000000021e-02 1.000000000000000021e-02 1.000000000000000021e-02 1.000000000000000021e-02 1.000000000000000021e-02 1.000000000000000021e-02 1.000000000000000021e-02 1.000000000000000021e-02 1.000000000000000021e-02 1.000000000000000021e-02 1.000000000000000021e-02 1.000000000000000021e-02 1.000000000000000021e-02 1.000000000000000021e-02 1.000000000000000021e-02 1.000000000000000021e-02 1.000000000000000021e-02 1.000000000000000021e-02 1.000000000000000021e-02 1.000000000000000021e-02 1.000000000000000021e-02 1.000000000000000021e-02 1.000000000000000021e-02 1.000000000000000021e-02 1.000000000000000021e-02 1.000000000000000021e-02 1.000000000000000021e-02 1.000000000000000021e-02 1.000000000000000021e-02 1.000000000000000021e-02 1.000000000000000021e-02 1.000000000000000021e-02 1.000000000000000021e-02 1.000000000000000021e-02 1.000000000000000021e-02 1.000000000000000021e-02 1.000000000000000021e-02 1.000000000000000021e-02 1.000000000000000021e-02 1.000000000000000021e-02 1.000000000000000021e-02 1.000000000000000021e-02 1.000000000000000021e-02 1.000000000000000021e-02 1.000000000000000021e-02 1.000000000000000021e-02 1.000000000000000021e-02 1.000000000000000021e-02 1.000000000000000021e-02 1.000000000000000021e-02 1.000000000000000021e-02 1.000000000000000021e-02 1.000000000000000021e-02 1.000000000000000021e-02 1.000000000000000021e-02 1.000000000000000021e-02 1.000000000000000021e-02 1.000000000000000021e-02 1.000000000000000021e-02 1.000000000000000021e-02 1.000000000000000021e-02 1.000000000000000021e-02 1.000000000000000021e-02 1.000000000000000021e-02 1.000000000000000021e-02 1.000000000000000021e-02 1.000000000000000021e-02 1.000000000000000021e-02 1.000000000000000021e-02 1.000000000000000021e-02 1.000000000000000021e-02 1.000000000000000021e-02 1.000000000000000021e-02 1.000000000000000021e-02 1.000000000000000021e-02 1.000000000000000021e-02 1.000000000000000021e-02 1.000000000000000021e-02 1.000000000000000021e-02 1.000000000000000021e-02 1.000000000000000021e-02 1.000000000000000021e-02 1.000000000000000021e-02 1.000000000000000021e-02 1.000000000000000021e-02 1.000000000000000021e-02 1.000000000000000021e-02 1.000000000000000021e-02 1.000000000000000021e-02 1.000000000000000021e-02 1.000000000000000021e-02 1.000000000000000021e-02 1.000000000000000021e-02 1.000000000000000021e-02 1.000000000000000021e-02 1.000000000000000021e-02 1.000000000000000021e-02 1.000000000000000021e-02 1.000000000000000021e-02 1.000000000000000021e-02 1.000000000000000021e-02 1.000000000000000021e-02 1.000000000000000021e-02 1.000000000000000021e-02 1.000000000000000021e-02 1.000000000000000021e-02 1.000000000000000021e-02 1.000000000000000021e-02 1.000000000000000021e-02 1.000000000000000021e-02 1.000000000000000021e-02 1.000000000000000021e-02 1.000000000000000021e-02 1.000000000000000021e-02 1.000000000000000021e-02 1.000000000000000021e-02 1.000000000000000021e-02 1.000000000000000021e-02 1.000000000000000021e-02 1.000000000000000021e-02 1.000000000000000021e-02 1.000000000000000021e-02 1.000000000000000021e-02 1.000000000000000021e-02 1.000000000000000021e-02 1.000000000000000021e-02 1.000000000000000021e-02 1.000000000000000021e-02 1.000000000000000021e-02 1.000000000000000021e-02 1.000000000000000021e-02 1.000000000000000021e-02 1.000000000000000021e-02 1.000000000000000021e-02 1.000000000000000021e-02 1.000000000000000021e-02 1.000000000000000021e-02 1.000000000000000021e-02 1.000000000000000021e-02 1.000000000000000021e-02 1.000000000000000021e-02 1.000000000000000021e-02 1.000000000000000021e-02 1.000000000000000021e-02 1.000000000000000021e-02 1.000000000000000021e-02 1.000000000000000021e-02 1.000000000000000021e-02 1.000000000000000021e-02 1.000000000000000021e-02 1.000000000000000021e-02 1.000000000000000021e-02 1.000000000000000021e-02 1.000000000000000021e-02 1.000000000000000021e-02 1.000000000000000021e-02 1.000000000000000021e-02 1.000000000000000021e-02 1.000000000000000021e-02 1.000000000000000021e-02 1.000000000000000021e-02 1.000000000000000021e-02 1.000000000000000021e-02 1.000000000000000021e-02 1.000000000000000021e-02 1.000000000000000021e-02 1.000000000000000021e-02 1.000000000000000021e-02 1.000000000000000021e-02 1.000000000000000021e-02 1.000000000000000021e-02 1.000000000000000021e-02 1.000000000000000021e-02 1.000000000000000021e-02 1.000000000000000021e-02 1.000000000000000021e-02 1.000000000000000021e-02 1.000000000000000021e-02 1.000000000000000021e-02 1.000000000000000021e-02 1.000000000000000021e-02 1.000000000000000021e-02 1.000000000000000021e-02 1.000000000000000021e-02 1.000000000000000021e-02 1.000000000000000021e-02 1.000000000000000021e-02 1.000000000000000021e-02 1.000000000000000021e-02 1.000000000000000021e-02 1.000000000000000021e-02 1.000000000000000021e-02 1.000000000000000021e-02 1.000000000000000021e-02 1.000000000000000021e-02 1.000000000000000021e-02 1.000000000000000021e-02 1.000000000000000021e-02 1.000000000000000021e-02 1.000000000000000021e-02 1.000000000000000021e-02 1.000000000000000021e-02 1.000000000000000021e-02 1.000000000000000021e-02 1.000000000000000021e-02 1.000000000000000021e-02 1.000000000000000021e-02 1.000000000000000021e-02 1.000000000000000021e-02 1.000000000000000021e-02 1.000000000000000021e-02 1.000000000000000021e-02 1.000000000000000021e-02 1.000000000000000021e-02 1.000000000000000021e-02 1.000000000000000021e-02 1.000000000000000021e-02 1.000000000000000021e-02 1.000000000000000021e-02 1.000000000000000021e-02 1.000000000000000021e-02 1.000000000000000021e-02 1.000000000000000021e-02 1.000000000000000021e-02 1.000000000000000021e-02 1.000000000000000021e-02 1.000000000000000021e-02 1.000000000000000021e-02 1.000000000000000021e-02 1.000000000000000021e-02 1.000000000000000021e-02 1.000000000000000021e-02 1.000000000000000021e-02 1.000000000000000021e-02 1.000000000000000021e-02 1.000000000000000021e-02 1.000000000000000021e-02 1.000000000000000021e-02 1.000000000000000021e-02 1.000000000000000021e-02 1.000000000000000021e-02 1.000000000000000021e-02 1.000000000000000021e-02 1.000000000000000021e-02 1.000000000000000021e-02 1.000000000000000021e-02 1.000000000000000021e-02 1.000000000000000021e-02 1.000000000000000021e-02 1.000000000000000021e-02 1.000000000000000021e-02 1.000000000000000021e-02 1.000000000000000021e-02 1.000000000000000021e-02 1.000000000000000021e-02 1.000000000000000021e-02 1.000000000000000021e-02 1.000000000000000021e-02 1.000000000000000021e-02 1.000000000000000021e-02 1.000000000000000021e-02 1.000000000000000021e-02 1.000000000000000021e-02 1.000000000000000021e-02 1.000000000000000021e-02 1.000000000000000021e-02 1.000000000000000021e-02 1.000000000000000021e-02 1.000000000000000021e-02 1.000000000000000021e-02 1.000000000000000021e-02 1.000000000000000021e-02 1.000000000000000021e-02 1.000000000000000021e-02 1.000000000000000021e-02 1.000000000000000021e-02 1.000000000000000021e-02 1.000000000000000021e-02 1.000000000000000021e-02 1.000000000000000021e-02 1.000000000000000021e-02 1.000000000000000021e-02 1.000000000000000021e-02 1.000000000000000021e-02 1.000000000000000021e-02 1.000000000000000021e-02 1.000000000000000021e-02 1.000000000000000021e-02 1.000000000000000021e-02 1.000000000000000021e-02 1.000000000000000021e-02 1.000000000000000021e-02 1.000000000000000021e-02 1.000000000000000021e-02 1.000000000000000021e-02 1.000000000000000021e-02 1.000000000000000021e-02 1.000000000000000021e-02 1.000000000000000021e-02 1.000000000000000021e-02 1.000000000000000021e-02 1.000000000000000021e-02 1.000000000000000021e-02 1.000000000000000021e-02 1.000000000000000021e-02 1.000000000000000021e-02 1.000000000000000021e-02 1.000000000000000021e-02 1.000000000000000021e-02 1.000000000000000021e-02 1.000000000000000021e-02 1.000000000000000021e-02 1.000000000000000021e-02 1.000000000000000021e-02 1.000000000000000021e-02 1.000000000000000021e-02 1.000000000000000021e-02 1.000000000000000021e-02 1.000000000000000021e-02 1.000000000000000021e-02 1.000000000000000021e-02 1.000000000000000021e-02 1.000000000000000021e-02 1.000000000000000021e-02 1.000000000000000021e-02 1.000000000000000021e-02 1.000000000000000021e-02 1.000000000000000021e-02 1.000000000000000021e-02 1.000000000000000021e-02 1.000000000000000021e-02 1.000000000000000021e-02 1.000000000000000021e-02 1.000000000000000021e-02 1.000000000000000021e-02 1.000000000000000021e-02 1.000000000000000021e-02 1.000000000000000021e-02 1.000000000000000021e-02 1.000000000000000021e-02 1.000000000000000021e-02 1.000000000000000021e-02 1.000000000000000021e-02 1.000000000000000021e-02 1.000000000000000021e-02 1.000000000000000021e-02 1.000000000000000021e-02 1.000000000000000021e-02 1.000000000000000021e-02 1.000000000000000021e-02 1.000000000000000021e-02 1.000000000000000021e-02 1.000000000000000021e-02 1.000000000000000021e-02 1.000000000000000021e-02 1.000000000000000021e-02 1.000000000000000021e-02 1.000000000000000021e-02 1.000000000000000021e-02 1.000000000000000021e-02 1.000000000000000021e-02 1.000000000000000021e-02 1.000000000000000021e-02 1.000000000000000021e-02 1.000000000000000021e-02 1.000000000000000021e-02 1.000000000000000021e-02 1.000000000000000021e-02 1.000000000000000021e-02 1.000000000000000021e-02 1.000000000000000021e-02 1.000000000000000021e-02 1.000000000000000021e-02 1.000000000000000021e-02 1.000000000000000021e-02 1.000000000000000021e-02 1.000000000000000021e-02 1.000000000000000021e-02 1.000000000000000021e-02 1.000000000000000021e-02 1.000000000000000021e-02 1.000000000000000021e-02 1.000000000000000021e-02 1.000000000000000021e-02 1.000000000000000021e-02 1.000000000000000021e-02 1.000000000000000021e-02 1.000000000000000021e-02 1.000000000000000021e-02 1.000000000000000021e-02 1.000000000000000021e-02 1.000000000000000021e-02 1.000000000000000021e-02 1.000000000000000021e-02 1.000000000000000021e-02 1.000000000000000021e-02 1.000000000000000021e-02 1.000000000000000021e-02 1.000000000000000021e-02 1.000000000000000021e-02 1.000000000000000021e-02 1.000000000000000021e-02 1.000000000000000021e-02 1.000000000000000021e-02 1.000000000000000021e-02 1.000000000000000021e-02 1.000000000000000021e-02 1.000000000000000021e-02 1.000000000000000021e-02 1.000000000000000021e-02 1.000000000000000021e-02 1.000000000000000021e-02 1.000000000000000021e-02 1.000000000000000021e-02 1.000000000000000021e-02 1.000000000000000021e-02 1.000000000000000021e-02 1.000000000000000021e-02
-1.127491446736006111e+02 1.713444001307902340e+02 3.975910319498377277e+01 -8.938182454642356944e+00 -8.879801879607617821e+01 -1.353176725590839169e+01 -2.100633197373560961e+02 6.891754410711172785e-01 -8.561811762859105102e+01 -1.415881535041720696e+01 -2.003491095919065046e+01 6.578028209702619478e+00 -1.799624076813614026e+00 1.695473354209206036e+02 8.550335125902373079e+01 -3.917576355737185168e+01 -5.333219604072540676e+01 8.004793112008202627e+01 3.316366098137008578e+01 -2.563207235127007166e+01 -7.968191068807259114e+01 -7.459021136408829022e+01 -1.395499383460940557e+01 2.923699891720956501e+01 -1.969707375969552459e+02 -9.977719964337106262e+01 -2.636061800867185312e+01 2.037585778711632258e+02 7.150712295114789185e+01 7.751723973486716091e+01 8.113480109963134623e+01 1.198629568218966268e+00 -8.004135434761515455e+01 2.095977851389232285e+02 -2.473992763923851612e+02 5.943101221699176051e+01 -1.214283766123566295e+02 -3.504320346519106977e+01 4.074745323962728705e+00 1.280457810032731061e+02 -1.242029747846882515e+02 -1.380142653306091738e+01 7.818350234819540390e+01 1.754237221688861439e+02 7.211763428390062813e+01 -6.915370276901903424e+01 4.167472071225144958e+01 -2.867635089517601443e+01 -6.676249792224599844e+01 1.582487872546757899e+02 -7.133553899589892922e+01 -5.267226882025983059e+01 -1.407798413740646311e+02 5.793809285618999994e+00 -5.107924474468887155e+01 3.907188814443082947e+01 -8.966718571905853707e+01 -5.059613754418776921e+01 -1.024852569095712482e+02 -1.570938379940784841e+02 1.967458850822144356e+01 4.582594403273380124e+01 -1.244323921429470801e+02 1.299733355129057877e+01 -8.015069395189311763e+01 4.964190128733289953e+01 1.683880025821239599e+02 -1.457984593019203317e+02 -4.377944995033440989e+01 7.264576397453436307e+00 2.957461620902445354e+00 4.283184624180424294e+01 8.488270136989039827e+01 9.107647286282554155e-01 -8.884769683439472487e+00 -7.078492928267704087e+01 7.910670612016545533e+01 -3.313378152271359056e+01 2.657229739969200111e+01 1.051281163530256180e+02 8.918237316093126310e+01 -4.320974133299874609e+01 5.843916156693234143e+01 1.490250187632474024e+02 1.174559892190316219e+02 -4.074863000255898093e+00 1.760925604664068373e+02 -1.127143223418632232e+02 4.254471669249240584e+00 -4.239002489973923105e+01 2.090730164791121979e+02 -2.145202906688549760e+01 2.907338094616511714e+00 -7.761120263892620130e+01 -7.209322653572098893e+00 -6.454286599042249861e+01 6.849773418445090556e+01 -9.556784294383743372e+01 6.929610167240211638e+01 -4.825726375084413888e+01 -5.030434719419720579e+01 -9.264756102119721959e+01 5.367395574116717683e+01 -5.531778167134029189e+01 -1.509493881464503318e+02 -8.033474490854112560e+01 -1.057493907238437743e+02 -1.589321472613976880e+02 1.374179339369702859e+02 -2.780710395917800781e+01 3.237379085587129168e+01 9.063909654993543086e+01 -1.052085032116578702e+02 5.759226787492693944e+01 -4.379208743876389320e+01 -7.006603532234063891e+01 -9.104991408997520352e+01 2.054921216127246453e+02 -5.735943941490751286e+01 -5.002194543350632472e+01 -4.773586050719864460e+01 8.127606230071194204e+01 -4.185391422268027384e+01 1.394922954220563440e+02 -5.040277075058585865e+01 5.568190134583511508e+01 4.591379845049566200e+00 -8.203222275775151218e+01 6.957291148473272813e+01 2.803963745189969927e+02 -9.301572374572340607e+01 4.801545549958847658e+01 -7.706005994967917161e+01 4.573001618954415193e+01 1.326261647146199891e+02 -5.193565973202255748e+01 1.474562600312744287e+01 -2.721742681190752577e+01 -1.030600687829015669e+02 -1.747782373835674719e+01 4.317871338584849283e+00 -7.909355963172879811e+00 -1.512260296564800832e+01 1.195631937637963631e+02 1.318021419736064672e+02 1.885428512263790708e+02 -3.077375352077567072e+02 3.864570071634383197e+01 -1.592681510875045348e+01 -6.306429879680533901e+01 1.824028318479984137e+02 7.709437292844441458e+01 -2.605062143904186112e+00 -1.173123188008712390e+02 -1.103405676145590242e+01 1.012605864353100174e+02 -1.359846945095004855e+02 -1.706282482510883938e+02 1.086310658803684781e+01 4.294289754413736659e+01 -6.174734564283149751e+01 4.254177366478631939e+01 -1.083817641199982376e+02 -1.531715385655904527e+02 2.137527386549088959e+01 4.917981549882907188e+01 4.860894955933979134e+00 -8.453657943623790061e+01 -9.477144323316092311e+01 -8.539941537089033829e+01 -8.866647466030029534e+01 1.278907418714355515e+01 5.757942755800132062e+01 1.180325601490560388e+02 8.049113573980089598e+01 9.070455087722106668e+01 1.088998706441595630e+02 -7.581832854919808540e+01 -8.365694222359755372e+01 7.150511715811200020e+01 6.942331077886552748e+01 6.007604397786332839e+01 -9.528668903795956879e+00 -9.240676828973384715e+01 5.478050821014758043e+01 -1.816484361313854379e+02 6.817279856249487580e+01 -4.523009381121109129e+01 -9.794012115895652926e+01 7.536980460276951987e+01 -1.740273409529505955e+01 -7.837681483295388318e+01 -5.840697935877589231e+01 -9.296483274960527510e+00 2.467144253568774275e+02 7.812371657771323896e+01 5.577036481175034055e+01 -1.056987216939374434e+02 1.508542140133325802e+02 1.060326617411335270e+00 -9.200746183970548486e+01 1.586162100238123003e+02 -1.569658060875348724e+02 1.606587780212709049e+01 -3.315801160673696302e+01 -2.263320431544262874e+02 -1.374073246895700606e+02 -8.985445377551158685e+01 -3.016314138463208394e+01 -1.228207977355213671e+02 5.939203220520977311e+01 6.693265527907246337e+01 -2.839521497173103270e+01 -1.027110754342516685e+02 1.164901679351769701e+02 1.217696467939485387e+02 4.760660551037566535e+01 1.798857024131886106e+01 2.692775068843905046e+02 4.500047666394991808e+01 -1.230603586035178836e+02 -4.642588555122092231e+01 -1.740420861544055811e+02 3.285052459003658498e+01 1.580538083575536348e+02 -1.529771755125245534e+02 1.358206788414090624e+02 -9.379349971355487980e+01 -1.948920401498770616e+01 -7.732893579485716762e-01 5.451231269343572450e+01 -1.196782641674127845e+01 -2.350526546791236271e+01 -1.950646027124710358e+01 -1.306817346501026975e+02 4.789112313203550286e+01 -3.132312378167697275e+01 -1.339427372539054240e+01 -1.105340756695233217e+01 2.331447807939016172e+02 1.797445655154687927e+02 2.400398589464062127e+02 1.360040174819403092e+02 -8.933713966480155477e+01 7.759921381541219887e+01 2.178962774519243339e+01 4.911942399952074823e+01 -4.100514701162407505e+01 2.636234661519324618e+02 -2.404577494071835986e+01 -1.411295369429316509e+02 -1.543911198131925744e+01 -4.730265701989815597e+01 -7.990491142310692396e+01 4.455562072939811458e+01 -1.209230561773148693e+01 1.878074629537861995e+02 9.540949970293553406e+01 4.221451210291996858e+01 1.012219639070068098e+02 9.757006291025932398e+01 -2.373756260940025697e+01 1.441902038328016715e+02 2.735174728253780430e+01 9.249921523262018752e+01 4.920909161201078774e+01 7.162592545046410741e+00 -1.195602655540953236e+02 -1.196259724285795301e+02 -9.296725007610434943e+01 -1.608504209081593572e+01 8.952787515691902342e+01 -3.166797831610853464e+01 1.021379629066872354e+02 4.524570088505585375e+01 -7.511360404453880335e+01 -3.095271787137638952e+01 -6.052285456399700792e+01 1.813991479668613138e+01 -4.785665129900328196e+01 -1.157276836634130888e+02 1.255316902324874917e+02 1.253234933612587128e+02 -8.154127478136931018e+01 5.632257356408620019e+00 -4.679939235315557511e+01 -3.368621250422376079e+01 -1.171513995794303575e+01 -3.224543364131761081e+01 4.590861144633397828e+01 -1.451354004950938759e+02 -5.456431592167797362e+01 -1.568478133555026659e+02 1.797925902253233517e+02 -2.089333949629020282e+01 6.085690851020526537e+01 1.231622902062340330e+01 1.490529936895567289e+02 4.608318265568060212e+01 3.688256950480565166e+01 1.592759164120307389e+02 -5.083276139462930843e+01 -1.006885447358251326e+02 2.802367494902385303e+01 -1.629960673867301182e+02 -5.507768128138282293e+01 1.055052077422270287e+02 -1.317075858831944117e+02 -3.750119171715611088e+01 9.414119745450665278e+01 -9.743176391216204024e+01 -9.228456951837824818e+01 -8.521471787303144652e+01 -6.580941784842018194e+01 2.567298747270933745e+02 2.042941188081256314e+02 1.061722903530297373e+02 -1.053336365129186447e+02 7.715023424858226520e+01 -6.815012172151465109e+01 -3.219189433977613390e+01 1.710478473139417588e+01 -3.316270954222871126e+01 -9.656470195727177952e+01 -2.805982379212331068e+00 1.523624274654015309e+01 1.119851743294011186e+02 -1.322559902957581812e+02 4.311035384893038014e+01 6.560647693143748427e+01 3.554841369916511695e+01 -9.321203299634400707e+01 -1.527405410707397095e+02 1.986998758383822405e+02 -1.831958273702161222e+01 2.589998941521988485e+01 1.609089667973125302e+02 2.741227641858352726e+01 2.851457322657092064e+01 -4.576130393825808085e+01 9.102744424688596325e+01 -1.400789314291274081e+02 -3.164880906442341768e+01 -6.301516083666194312e+00 -5.486305916883556932e+01 6.360479504311888022e+00 2.187742923798197836e+01 -3.674927212878794336e+01 1.403231385248418661e+01 2.194159426359798886e+02 -2.811707623928572986e+01 -2.871060623839086645e+01 -1.043497028114120440e+02 -1.697039396149628399e+00 -8.288491020395240128e+01 6.573384663806337791e+00 1.150112163752649792e+02 -5.339410664286056374e+01 6.208172542304063235e+00 -5.574345269576562600e+01 3.419630547358909478e+00 8.948362382007182703e+01 -1.188711894812035297e+02 -9.932501633988947276e+01 -1.052181431406312413e+02 7.324371638211061963e+01 8.880355133932064859e+01 -9.468835349501300414e+01 6.422328294337516752e+01 2.648100597166659398e+01 3.968632322943335566e+01 -1.821464794270785603e+01 9.369155460137717739e+01 8.178557971900265500e+01 -7.926798320785788121e+01 1.215863279984465706e+01 8.297845623517029878e+01 7.473450584066911517e+01 -2.039144295939142282e+01 2.562598526755202144e+01 -1.359872084819080271e+02 4.975658250547239447e+01 -3.360682284663506181e+01 -3.348356697606735111e+01 1.776166094720984177e+02 4.865396112148535224e+01 1.232917117891505683e+02 1.958262899085889330e+02 -1.412139621358034276e+02 1.528720189873367872e+02 -6.500574072061061770e+01 -1.385803334893869589e+02 8.442310890139104629e+01 -1.375037061364367048e+02 -2.943617370756470919e+01 5.786065722234919662e+01 8.293180654965679466e+00 -1.723941828336194817e+02 8.637178919824422962e+01 2.585755091879631706e+01 7.086025682495794342e+01 3.719849995504318230e+01 9.717544341092121840e+00 -6.882906975949688899e+01 1.186900866910166314e+02 5.587398465156272920e+01 -6.370899780144340241e+01 -1.038182569276495428e+02 3.994379996384860476e+01 2.631992129952481818e+01 8.448063143502466232e+01 1.884071572132712049e+02 -2.526592961292723416e+01 -1.129456365289775448e+02 -8.689727882994010599e+01 -5.262635618572702612e+01 -4.551303152261284879e+01 -1.504645836256003406e+02 -2.306980107281685477e+01 1.327739939806536711e+02 7.643858273406432602e+01 -1.254768410842314381e+02 -1.536316049818562135e+02 -6.983681983152017381e+01 -7.830933160808147875e+01 1.504604053569431983e+02 -1.747704745884759632e+02 8.871889467556027853e+01 -4.724739244957309126e+00 -4.410809453005519742e+01 1.364425813444394109e+01 9.348504974818627034e+01 5.085532292844135327e+01 1.416966556024416377e+02 -1.631458263328979115e+02 -8.301459338979726965e+01 2.597239114029166629e+01 4.299450705227091873e+01 2.113488586594729099e+02 1.491116729895800859e+02 6.716973732072219150e+01 7.392093051706652318e+01 -3.508178145663860192e+01 1.556561854618682332e+02 -1.838297604889691854e+02 -6.498696714381165407e+01 -5.503724246313808521e+01 -5.309611586986015652e+01 -1.058873933779839547e+02 -1.535806267060727670e+01 -7.036877935356571356e+01 7.297336863086638914e+01 -9.394784932297230995e+00 -5.956703519731048857e+01 -6.387578928704343895e+01 1.847103392690907526e+02 6.046417912899641323e+01 -1.404152230817295433e+01 2.141034985276680800e+02 -1.110312672564414385e+02 -3.622237881115616176e+01 6.862882144734962253e+01 -1.318955872132716589e-01 1.530711352770455314e+01 -1.281697875428212114e+02 1.805694492792003416e+02 -5.021795212198188807e+01 -2.762105625336423032e+01 -1.124197461715336459e+02 1.289480644234514841e+02 9.825113426655258309e+01 -7.942492227329097432e+01 -3.847498971805389800e+01 3.988394853074838409e+01 -1.550790321969845422e+02 -1.437029501181369406e-01 -7.650631851362793157e+01 7.893780683084435701e+00 -1.107238646377119125e+02 -1.623322250367824040e+02 -7.236330024602722233e+01 1.516888168855113008e+02 5.793389559687518897e+01 -9.172808343102225592e+01 9.128811331853852096e+01 3.504996605938475795e+01 9.035880846053242976e+01 -4.309508221816458473e+01 -8.605123228934371582e+01 1.749684424043614115e+02 4.262520884049185099e+01 2.962078519586505365e+01 -7.468120983542777935e+01 -4.327207600652441499e+01 9.779693034460587242e+00 -7.318936426228219716e+00 -1.767149704182191954e+02 -3.537704905696761415e+01 6.586058112668258957e+01 1.141053432196597015e+02 1.591503702050630409e+02 -1.355826398033436675e+01 9.158320386524113133e+01 1.611472649462449169e+02 6.480158380606059154e+01 1.509797735800342480e+02 1.640658661544118502e+01 1.340911379925290419e+02 -8.571264253823369472e+01 5.448807871655399282e+01 2.995606624221585434e+01 7.743204802654673813e+01 -1.083697287061875443e+02 2.020104190812441800e+02 -1.313746824558318735e+02 9.004154991956839638e+01 -1.095564964575955713e+02 4.703482483809668224e+01 1.406373445041367276e+01 9.245212330025994163e+01 -7.508001735003016108e+01 -7.693554028696067348e+01 -1.137884915980091272e+01 9.074404801790873876e+01 -3.012854691212226399e+01 -1.661016667580932094e+01 -1.998797268887567569e+01 4.822514440766823007e+00 9.987336979384508595e+01 -6.366088658174417247e+01 -2.763108599544844335e+00 -1.969516225153366520e+02 1.237913156574991405e+02 -1.267076531494852958e+02 -7.496957917519526404e+01 -2.389199247938070769e+01 -1.095050380260432803e+02 -5.394057124459403241e+01 -5.942009279855956549e+01 -1.995250163301201596e+01 1.382530157889420934e+02 5.484517790713932328e+01 1.018938374737726207e+02 -1.380688274330228467e+02 -1.405920674024297909e+02 -2.906801758723393050e+02 1.036231485352083013e+02 1.057907542728098207e+02 4.288621272595165834e+01 -4.303045842275277266e+01 -3.776277906822808461e+01 -1.863014615417137918e+02 1.482669815676780445e+02 -1.089867973641954251e+02 1.085192663412073983e+02 -1.615529153615222810e+02 -1.451619969415784261e+01 -5.618573793573361996e+01 -1.209948879465283653e+02 -4.677146875823494554e+01 -1.266880719170401370e+01 -9.401635219316780478e+01 -1.050278211848633134e+02 -1.253569742093763395e+01 7.225584286140119161e+01 -1.264794644522707898e+02 -1.590319478309854873e+01 -7.485324786261149654e+01 -1.333719736757199712e+02 6.777802695578130532e+00 9.660922017255573735e+01 1.679904144648591000e+02 -1.936175862008912318e+01 -4.675405082577267990e+01 -1.260209619972706037e+02 -1.660601492622366209e+02 1.053497275064978425e+02 -7.386225635010407586e+01 8.023801268310420198e+01 9.550017468673081211e+00 2.970781417830484727e+01 7.500029289901762297e+01 -8.604656801959332313e+01 8.395667253124773310e+01 1.170799441122227051e+02 1.598944246126357882e+02 -1.184300064162024313e+02 1.055818047446666270e+02 -4.851605510937706356e+01 -9.223196468019540362e+01 2.179580325821605697e+02 5.004097967822916360e+01 8.479158338354382352e+01 2.163152746873021570e+01 -6.418049413154155047e+01 -3.549268153780372614e+01 -2.137139886346033961e+02 1.073072257390643642e+02 8.280597421094229560e+01 -7.690503174825857968e+01 -7.432256572969934894e+01 1.475079772770735360e+02 1.026744899177103179e+02 5.192638629857800225e+01 7.729846203640248348e+01 -8.028617409917707448e+00 1.048426697261047025e+02 -1.051806904435733401e+02 1.893847926942066522e+02 -4.011234382017217825e+01 -1.239330418316060474e+02 -3.826187061662343325e+01 7.289157810181430364e+01 1.496979981987560393e+02 1.313628567608399500e+01 1.766004996283753314e+02 5.304354353711430292e+01 3.415030766448568045e+01 -1.131027489000486810e+02 4.553422284981092361e+01 -1.270453715034030466e+02 4.845306376347108568e+01 3.926657055038116084e+01 -1.253121426227625648e+02 -8.639690034785009232e+01 4.047015861843544826e+01 8.866031719769454256e+00 -2.361170285381894018e+01 4.252128900597021754e+01 -2.174123952732568199e+01 -6.410430221124518368e+01 -2.655681364707870529e+01 -2.282110543645420364e+01 -4.046938602995033563e+01 1.908234266747623309e+01 -8.177912274856221586e+01 1.208607490693070474e+02 -7.552626849623916883e+01 -4.362967881259122827e+00 6.656207053362129500e+01 3.964171896696917496e+00 1.619733058685101312e+01 1.621134143671249106e+01 -1.190172788308551191e+02 -4.491036609325803397e+00 6.609611618300746727e+01 -2.351459300871680398e+02 -8.620550426521378995e+01 -1.145329866616777963e+02 4.448870092786275876e+01 9.776300355817312493e+01 -9.321151882463648519e+01 -1.705702063366771029e+02 -1.880899714106619456e+02 2.029348381567664816e+01 -1.472400694760506497e+02 -6.417091607496802297e+00 1.498788168917234316e+02 -7.222528956579989057e+00 3.770524989597273446e+01 -1.003632664683813687e+02 8.095623925124100140e+01 -1.201506339889363488e+02 -1.560702211828772867e+01 -3.070591069332330392e+01 5.828986760012400481e+01 -8.994902383924813449e+00 1.069478639989096251e+02 -1.234730984869754025e+02 -5.065061801061858660e+01 8.749724222540498886e+01 6.686433080949517205e+01 -8.323101835583312891e+01 -5.495668441909705848e+01 -4.985016287586900319e+01 -2.921996959305402584e+02 1.953769472322709362e+02 7.682872424273863032e+01 -2.382124331425577424e+01 -2.992771307601941899e+01 4.189319158860656955e+01 -8.488551744024348977e+01 1.003737180271212566e+02 6.093760469806685620e+01 8.267629513867831292e+01 -8.474760744070589169e+01 -2.677842982208201050e+01 3.360316677154206388e+01 1.750958884725903530e+01 -4.311963275397868500e+01 1.590136486856083025e+02 -1.741602344874374353e+01 3.562427623882935990e+01 -2.313528358568311774e+02 -8.525341541840913351e+01 -7.364555430669338421e+01 2.316481357305656630e+01 1.098847928926051338e+02 -2.331261114116987301e+02 -1.882047219095133528e+02 2.230581824402991629e+02 -1.063600118294191610e+01 9.667252606614164279e+01 6.311547071513317064e+01 -5.571573820187200710e+01 -1.318122429021599658e+02 -9.574938724615478236e+01 -5.057471210153040175e+01 -3.767228724675923957e+01 -3.939603488751216531e+01 1.627623925348166622e+01 3.736596111337355808e+01 1.678339585296284611e+02 1.239486451736913040e+02 6.967379288955264371e+00 -4.410040889051979995e+00 -1.597756474545237779e+02 1.203826711296564724e+02 1.603026907072171525e+02 -1.040439819760384239e+02 7.418474908786781441e+01 1.788139943920196151e+00 5.522390374867102736e+01 1.262130011835255345e+02 7.137759641746004036e+01 -1.348466150801128549e+02 1.625041001380515837e+01 -2.956767454837139653e+01 1.120876035413078320e+01 -2.332019761852021134e+01 4.564653220596639471e+01 -2.622149453267178387e+02 1.824087327161610403e+02 7.367458583141990758e+00 1.605277728071495176e+02 -1.063938586798185248e+01 1.069550143354740470e+02 7.215937570851690452e+01 -4.232644822950273777e+01 3.012087999769946833e+01 -7.335347416441905466e+01 -8.966992109492333896e+01 -7.266295027209373814e+01 -3.231057987102389717e+01 4.556142005658250582e+01 1.111103560987696994e+02 2.874582629369082198e+01 6.263202452680230436e+01 -1.057409614974554160e+02 -1.383627343305882960e+02 -1.360600233596633579e+01 4.682991055986867934e+01 -4.594142610782817826e+01 9.541141736811802332e+01 5.603445000606729565e+01 -2.791438056356418329e+01 3.023754081715955522e+01 6.195384394597956401e+01 -7.281463390419416726e+01 -1.350236973083015073e+02 1.434852243483202017e+02 7.893635397825850220e+00 5.065131773610482213e+01 -1.508197133510364267e+02 -5.396126180897501712e+01 -4.712257153026573886e-01 -6.641729386827338999e+01 4.319887330878145804e+00 5.689727915077973108e+01 1.885052818065676945e+02 3.956439666424402191e+01 -1.108931396366293498e+01 7.302522280171839952e+01 -4.601654060225424558e+01 -1.102632750813447871e+02 -1.398503387953347215e+02 9.488695842615449294e+00 2.542016327597405478e+01 2.408508443128637921e+01 -5.758990733484656488e+01 1.223633159069393344e+02 -8.187761323980812733e+01 1.299931156888559087e+02 8.844523693200075343e+01 -6.590564079962548760e+01 -8.581655380622459006e+01 8.532967524909133772e+01 2.076483861402697428e+01 -5.320704756546127356e+01 -5.459722855247390072e+01 1.385842996006921339e+02 5.810875020881327657e+01 8.101621000936982853e+01 2.652187145035422233e+01 -4.269646578925391367e+01 1.090456684152265012e+02 -5.536992623015187576e+01 5.403416359771674449e-01 7.772654173625910801e+01 1.010911491670288740e+02 2.593671404051910372e+02 -1.778447034415927135e+02 1.634541445806023319e+02 -6.866657220816826168e+01 -1.546510251395875279e+01 -2.544962371199391171e+01 -2.106894387517104050e+01 -5.608410216919141789e+01 9.446786428331898833e+01 1.871765501801328924e+02 -1.208365189378849465e+02 3.146803244430214619e+01 -1.291402450049353661e+02 7.144661759676318979e+01 -4.531075916118097524e+01 -8.247495505708323549e+01 -5.488977367825689413e+01 4.195673870630260183e+01 1.976803948295106039e+01 -8.340165917058484979e+01 -1.438750850090580116e+02 2.119327022378931602e+01 1.608438147510919691e+02 1.458190874547079297e+01 1.863152172492991951e+02 7.625127762791190200e+00 1.375073803149263370e+02 -3.535219597941690495e+01 9.270010380341891221e+01 -7.303192218387412993e+01 -1.154447118088838238e+02 5.055719543671104077e+01 -5.935258851532825730e+01 -8.033743892440567436e+01 7.462026116689200705e+01 6.591429567007920376e+00 -9.655919553777150099e+01 -1.541805979524297925e+02 1.515082371129566354e+02 -9.137613716298105260e+01 -2.395949279082993044e+00 1.230967568780126840e+02 5.951322237726297715e+01 -1.007099620185257720e+02 1.088986465294613204e+01 2.893786440204679593e+02 5.472961299281590897e+01 -1.619236260178898306e+02 -4.898561611052069509e+01 -6.319230230473478116e+01 9.896711408329215587e+00 1.104969192774228475e+02 -1.063094498156032444e+02 2.215492177328306056e+01 1.341302948315801586e+02 1.930416326997575283e+01 -2.171914412414269009e+02 4.971894692697247820e+01 7.761519866514152000e+01 -1.395695737317975471e+01 3.373747344841295615e+01 1.345002350198623298e-01 2.312956291448627866e+01 2.852706340391771178e+01 1.191174682847962174e+02 1.008095602346047315e+02 1.597670961077099427e+01 1.532893577257758011e+02 -6.585318954363178534e+01 2.537105093343131443e+02 6.688796285808004427e+01 1.457529128318755340e+02 -2.260814731956550716e+01 9.265310612306817006e+01 -5.046698294060836076e+01 -1.506024574753770366e+02 2.695485422900303263e+01 9.784690243078830463e+01 -9.016191953257919067e+01 -1.077792606421003541e+02 -6.847115506248444206e+01 3.765095990322430453e+01 -1.175691277683998948e+02 7.691308845104862257e+01 2.889919925394654854e+01 -1.004619601252221912e+02 1.954987833708097753e+02 -1.210792681908171531e+01 -1.047169410281617132e+02 -1.376503520971405337e+01 -2.103288369029007043e+01 -1.443424904211777573e+02 -4.121346404781254336e+01 6.330273640438751670e+01 1.356312323835475127e+02 2.986399589932922893e+01 2.755698720596118534e+01 4.610465148220986720e+01 -3.681517047530410736e+01 -1.498607557346464318e+02 1.630987059025124708e+01 3.191334268105980598e+01 1.370012964877129491e+02 -1.024119949409577579e+01 -7.838679188309659196e+01 7.536655303291261987e+01 1.031225777591237014e+00 3.289562910210855762e+01 1.434044276403781168e+02 -1.827935646228558824e+02 -9.558895287850803868e+01 1.284100009060866512e+02 -2.158258313327256417e+02 -1.839831021175935746e+02 9.101665648100221517e+01 1.540560592272948668e+02 6.339923695973213569e+01 -4.445064595788490003e+00 1.558461550627880570e+02 -2.195625965271140956e+02 1.071986522609948196e+02 4.239843999344491010e+01 1.271289751015349765e+02 -1.886664819565614835e+02 1.066273235892226694e+02 -2.830421613870085551e+01 -1.337542877139101449e+02 -5.329368598588195560e+00 -9.244700032475812179e+01 -1.633508581454389486e+01 -4.274825775933759786e+00 -1.232394581334454102e+02 -1.233665566759913332e+02 -6.260294496899774686e+01 -1.289820205742971098e+02 2.010804850880878405e+02 -1.610719073000155674e+02 -5.018469653814143072e+01 1.726031321083010539e+02 3.393724621768993188e+01 -2.960965091493609975e+02 -1.271220273353256829e+02 3.554185884736993728e+01 5.466371116295731269e+01 8.617019043586056526e+00 -1.546976043361621294e+02 3.570176938936883460e+01 7.463094387346088432e+00 -7.435564225455547671e+01 2.027813423607118182e+02 2.026809102301861572e+02 4.329190460965753218e+00 -2.086023293301341823e+02 1.260414476732158278e+02 3.078773052781318498e+01 3.744431603732390812e+00 7.666709765041937885e+01 -2.075391914102050066e+02 -1.380930564550245094e+02 1.411022570554084439e+02 1.096795725001368709e+02 5.295794920675368189e+01 1.432906863998290135e+02 -1.783272215781657906e+02 -2.043498699761017434e+01 -1.304865345174012532e+02 4.358959388822432857e+01 -1.038988693275232578e+02 8.707148955406175617e+01 -3.388053128958741667e+01 1.238599409555412123e+01 1.774861835162234627e+02 2.849399651713573789e+01 -2.636579168621940426e+02 -1.263937529395803665e+02 -8.338503169080769339e+01 1.581570582978281436e+02 1.253789680028899056e+01 -5.381948169829168904e+01 3.040412778826358320e+01 6.254585136528077527e+01 -3.960226096734562162e+01 1.075500214869101683e+02 -1.007666978283522639e+02 4.922871228577771774e+01 1.119621502019768684e+02 -3.544253980496099388e+01 -9.815459845931388827e+01 -1.134428634611399502e+02 1.197960797351421292e+02 -4.967030121619306726e+01 1.966136458049491864e+02 5.722255678585990069e+01 1.109937673466763073e+02 1.844527155452956322e+02 8.565247043737544530e+00 -1.243087517869003733e+02 -1.658260164053839389e+02 -1.142314994145734204e+02 4.247949736736244120e+01
-1.331512374189275860e+01 -4.698756757538358642e+00 1.011972073163598793e+02 -2.237687873534034395e+02 1.518550084027786227e+02 6.207305488390144887e+01 1.486478628788959213e+02 -1.261918671201850657e+02 -2.722639441595375853e+00 -2.352646409024458762e+01 -2.144437386804445111e+02 3.199138488485291987e+01 -1.790638231444236794e+01 1.194862805772106356e+02 -1.221808123486263042e+02 6.029158199614211355e+01 1.224316244644315788e+02 -4.488599188044604205e+01 -4.853064264406832962e+01 -2.643760497559044609e+01 6.028061836874264401e+01 6.167121402905527816e+01 3.166765549945969127e+01 -2.271874667974415445e+02 -5.044513888142211755e+01 8.938393137518562526e+01 9.674165705614189648e+00 -1.011018189935695766e+01 -6.500603960679187310e+01 -1.509712250518261634e+01 7.165004939470664169e+01 -1.420589744560655561e+02 -6.047489468964407422e+01 8.789859136797735673e+00 2.027210368058213703e+02 2.071508658708548012e+02 -3.132484143170663415e+01 5.459831698768901020e+01 -2.712137939597688008e-01 -1.364447204882158360e+02 9.377193186622513110e+01 1.047709074784399661e+02 1.060174720908663915e+02 1.142504987809424399e+01 6.047146769408831091e+01 4.701562756238761409e+01 3.798974171254990040e+01 2.864514514040862991e+01 1.077438065602636357e+02 8.765272522769780039e+01 6.409239519255349649e+01 1.592121341233158205e+02 2.419431167943494074e+02 1.910527035230882120e+02 -5.776213347809400034e+01 4.812775032472902126e+01 -6.281090348221695763e+01 5.511799997843466059e+01 -1.877050790629442076e+02 5.519625849896332426e+01 -2.000491483178925307e+02 -1.648128748440139759e+02 1.264285985018211278e+01 -9.022671182383300348e+00 1.656274966693550255e+02 -2.031281811239119861e+02 7.354843370152723026e+01 2.245041446375345231e+02 -7.156645413326429228e+00 -1.902183343804329922e+02 3.477091903077059953e+01 1.926821505003784978e+02 -5.969429438074735117e+01 -2.603505538905282606e+02 -1.002083830928457928e+02 8.629763991614201046e+00 -2.248188578489799454e+02 3.128561551880555314e+01 -1.753671767306024947e+02 -1.813761293811868427e+02 -5.580849070027922920e+01 1.490451774769249766e+02 6.794866394233145002e+01 1.036603072102802869e+01 -8.664301395181315968e+01 -4.165897336516060534e+01 6.234217097428701493e+01 -2.269595981766309194e+02 5.291672096742863118e+01 -7.337195970413890223e+01 -7.639334218226991879e+01 -1.729431476675308943e+02 6.367502311748272348e+01 9.074758712281270334e+01 -1.588202775547185865e+02 1.690346879929271040e+02 -3.904405699766082449e+01 -1.655293751808140001e+01 8.568491008370607176e+01 1.529652499952929645e+02 2.122049899745889334e+01 1.482172015878505817e+02 -1.807177700865954861e+01 -8.878234184842447974e+01 -1.920405255848543291e+01 9.894786395442808669e+01 4.525710695338237599e+01 9.844815503941111956e+01 9.500362198679202663e+01 -8.357923322696211699e+01 -1.710011493048792772e+02 1.238486716861478527e+02 5.460639802410103272e+01 1.626498549644945157e+01 3.077925811004956458e+01 -6.837017452225306613e+01 9.667158202908684927e+01 9.043060047464042839e+01 -1.376178461166905720e+01 -7.171835778189247890e+01 3.097911862191140742e+01 6.315975414750590211e+00 -6.195987908959444468e+01 1.707153435163527888e+02 -3.320907541285563980e+01 1.224673820475906467e+02 -7.061667888807491522e+01 3.866295665092452793e+01 -3.638067565758696986e+01 9.011838987759963970e+01 2.366187706701930793e+01 1.164430731425929793e+02 -1.168720477552331687e+02 7.491367679725355799e+01 1.244485071896945243e+02 -4.506861642266921564e+01 7.643035246916524805e+00 -1.276446283418724370e+01 1.177099688691482413e+02 3.569401215656477611e+00 1.700664395431540470e+02 -1.425874681889808642e+02 1.176659192241257728e+02 -9.212363318321553152e+01 9.657698060683314623e+01 -1.382456336665830463e+02 2.978198315024760845e+01 2.495945120047585775e+01 1.836211451880332746e+00 3.664129214655456934e+01 4.632033783172547459e+01 -1.254707510728108666e+01 1.089834612917190526e+01 1.090974749859744435e+02 1.284641892787675772e+02 -8.749306280952725956e+01 -5.474366456126185199e+01 4.782686138130795683e+01 1.557771045007342758e+00 -1.382922220667804538e+02 -5.562943646453776836e+01 -3.581743384533018570e+01 4.941432837453554328e+01 -6.623072975670034168e+01 2.316843958063723008e+01 1.620355454605503098e+02 -8.031105953655013252e+01 8.164876602324252985e+01 8.500429095147900682e+01 1.134702298554596389e+01 1.248026591998305150e+02 6.359332218415243432e+01 1.699654748586321489e+02 -3.494496668012859431e+01 1.137892522814751288e+02 5.620226088575899581e+01 -1.627281794712288843e+01 2.066209149812337103e+02 -1.405323709201105089e+02 4.949320954155255237e+01 -1.899642744087075528e+02 -8.527303720394679942e+01 4.155883170589483200e+01 -7.316230619917352840e+01 -1.579367023884540515e+02 2.020239708462589192e+02 -8.695621033849886317e+01 -4.814617723459160459e+01 -4.692552931561250062e+01 1.234493684566569272e+02 1.975236888141376426e+02 6.567178134000616296e+01 1.483280039490502986e+02 2.225809372645482256e+02 -1.652048741644750462e+00 1.652523787419712846e+02 7.191045116572115603e+01 1.931382827878789215e+02 -1.275875548030660411e+02 -1.204571210331281605e+01 6.426248045104274276e+00 1.927031047623003133e+02 -9.221946231238911196e+01 -6.133621866243873200e+01 -5.371976664048529670e+01 -1.358886572174214393e+02 4.729955072692585638e+00 -1.024021584665363491e+02 1.563289415953479988e+02 2.391496119993281866e+01 1.218721912293531418e+01 7.335761258020654907e+01 -5.012113071358429650e+00 1.186394375376909096e+02 -1.611446341016652468e+02 4.605951261108578620e+01 -1.733369693164167415e+02 1.191280707418278126e+02 9.740751702218383912e+01 -6.829660993613141784e+01 4.743776650918111670e+01 2.415912947281475454e+02 -3.089393824424110235e+01 4.226573543450521697e+01 -3.314518708164178662e+01 5.877588687901637599e+01 6.522333805551458852e+01 -6.360642800201927294e+00 1.034054286087128105e+02 1.029885124458369887e+02 -1.966728692311290274e+02 -1.554514507213876300e+02 -1.215327954072491536e+02 -9.592835660733380010e+00 -1.519492735786750472e+02 1.172030608234652931e+02 1.119398689220574283e+02 5.981132977171243681e+01 1.131961079083508714e+01 1.599396055238129009e+02 8.515843708139708212e+01 6.845226163220250726e+01 -1.030891970492580896e+02 1.544922269385703828e+02 -3.623323930807141657e+00 1.108662034842737114e+02 8.939050804862562316e+00 3.726244428969253164e+01 -7.677231642580588300e+01 -9.202413569467144328e+01 7.257690240500733125e+01 -3.882657525257139142e+00 1.482787796654340013e+02 -1.275019978882488836e+01 -2.897970408589693569e+00 4.647806097677495529e+01 2.295167993133708606e+01 1.433171330468894666e+02 1.482224931708434035e+01 3.631445917976144955e+01 -1.567518635123884962e+02 6.671549073891974047e+01 1.353972113585450074e+02 -1.790899508676693586e+01 -2.308973390439132629e+02 8.545731485603448618e+01 1.377257938303559399e+02 2.053447496638854020e+01 1.909869064980406108e+02 -4.187339130041806357e+00 4.332494702389347907e+01 -4.399515052865152853e+01 -1.399241971753955625e+02 5.647584652891892176e+01 -4.786776020785453056e+01 -8.172973948816131440e+01 4.153916501781947090e+01 -1.862238261058339219e+02 7.226931963459590236e+01 1.655717355773898021e+02 -1.019479171607749066e+02 1.741510599828388592e+02 -9.832705096762113328e+01 -6.026887663177044274e+00 -1.058300377164168538e+01 7.707820997163436516e+01 -4.685300233634301748e+01 -1.084456686542635708e+02 -8.903367473663806209e+01 1.465601439534254098e+02 5.941115446594484695e+01 -1.323885690584521910e+02 4.465169805283959015e+00 4.364544614584185211e+01 8.294371574171717043e+01 -4.051251106226353471e+01 6.024967121627942390e+01 -6.925902136355028915e+01 -1.630318041944400420e+02 -3.477436989387966548e+01 1.415292325835256975e+02 -1.137912810954954352e+02 -6.446917837635351312e+00 -1.635151398246221675e+02 -4.787314868704182658e+00 -1.463776450190057403e+02 3.300237886055290204e+01 6.033805750414320812e+01 -5.048992415930679556e+01 -8.264917030067292103e+01 5.646441737103841341e+00 7.460200005154031544e+01 -6.795534533124698839e+01 1.350599100116574789e+02 1.057645096796859434e+02 -1.279454403017631563e+02 -1.056855726716103163e+02 1.353650588296256387e+02 7.148506755322674167e+01 1.504641757324899061e+02 1.003911246120091931e+02 8.129888912084501840e+01 -6.034419635131997950e+01 -8.187857664275571778e+01 -7.715662369685000499e+01 2.046837765475777360e+02 3.055044030802643462e+01 -2.491099702366718205e+01 -6.856857987137969701e+01 -5.003352308827704320e+01 -1.312073986516665798e+02 -1.650069694993797853e+01 -1.748092210419285664e+02 1.245839788936374504e+02 4.585399597001536165e+01 -1.148208202955899253e+02 -4.820453794036502160e+01 1.193043623376465376e+02 -9.662000884908334797e+01 1.024353007608063422e+02 -1.180005367925683402e+02 -1.171981480836460676e+01 -9.513423112787430114e+01 8.935812393003824639e+01 -4.231592679098319110e+01 1.029232744126892740e+01 2.920777693381570117e+01 -1.261448058968065737e+02 1.245153894721398835e+01 4.812996274355911908e+01 -2.231660743205459951e+01 -6.845653824463987291e+01 2.016408964702396247e+02 8.607421992949331013e+01 4.693130952525637412e+01 -3.128337575243611468e+01 7.988761980402848906e+01 1.668538980442924355e+02 -9.187771117524313524e+01 2.085117288369600317e+02 -1.324999043094275919e+02 -1.831012655393469970e+02 1.511680715869492531e+02 -2.328847725908018162e+02 -9.922753882619084198e-01 -2.437985100637559697e+02 -1.522232244989128276e+02 7.142439980706751612e+01 -1.449707736744815350e+02 5.811521432234348339e+01 1.093803806707577166e+02 -1.596399722965797423e+02 -3.000061517723394999e+01 7.505126372872415175e+01 1.333094237062391016e+02 -1.852188474253948982e+02 8.705201401479828860e+01 -9.749629950729288907e+01 -9.831057929523472794e+00 -1.382479706272114939e+01 -7.921358297459160269e+01 -8.989550951842902293e+01 1.805203982572671464e+02 -2.157273598513520341e+01 1.324713418976839030e+00 1.296315506319272686e+02 -8.629207509982343538e+01 -3.427509129671372534e+01 -1.071974021013018330e+02 -4.864405565458705638e+01 5.162958547805725829e+00 5.916688438279387441e+01 -1.346548618663611023e+02 2.365481925085779551e+02 -5.378769283018365854e+01 1.224537070016864533e+02 -4.875272171420713363e+01 1.196458964376755603e+02 1.389332634673191365e+02 4.796403113689063957e+01 1.220182511878910674e+02 -4.319862472801469266e+01 1.398965462918320384e+02 -1.563801777625853049e+02 -6.537292310422084540e+01 -6.295956811673121223e+01 2.552459435685720379e+01 -1.622937560119245575e+02 7.255218168229016840e+01 -3.083695831124052944e+01 -8.264599880680256661e+01 8.961730018961090138e+01 -1.511158947269008195e+02 -9.122164156080600605e+01 -5.260659037946216898e+01 3.308880918344979705e+01 1.298452223172915296e+02 1.168943380275251798e+02 6.914565790296583714e+01 -1.611636488029164038e+00 1.748821544898154059e+02 1.225441380826109139e+02 -9.444448811051165649e+01 -7.817129102926581652e+01 5.543076423919527684e+01 9.989776853307061444e+00 9.798652696114690741e+01 1.666741680602404756e+02 7.058429960309540263e+01 2.438505380730138228e+01 -1.021856088044808359e+02 1.717986708867360051e+02 -1.136677374396193017e+02 -1.652479852636514295e+02 6.569945610384812085e+01 1.114413242050039941e+02 1.961942577695883116e+01 -1.387756024823036967e+02 2.972150115575474061e+01 4.240313571453500430e+01 -3.132386994524523627e-01 1.308128987243758843e+02 9.749719347044252515e+01 1.708894152280892698e+01 7.826381724595813694e+01 -1.069095796964018916e+02 -6.298208090892468469e+00 9.820532679293332023e+01 2.964432738808012147e+01 -6.494755851555316895e+01 1.977421654762918308e+02 2.307525067472240323e+02 -1.253298810912699395e+02 -2.755798878302327992e+01 -2.098541430416393041e+02 -7.205241625821896889e+01 1.563313529028554854e+02 3.403695556021118840e+00 -7.084588974464263345e+01 1.634716324486247458e+02 -6.238877710152107881e+01 -1.602544739356236221e+02 1.362496891320519410e+02 -6.707184170051064598e+01 3.437271451017078050e+01 8.615603533749829523e+01 1.374411484993944832e+01 -2.376273369161585549e+02 4.217790539401499217e+01 -6.112230401658353962e+00 8.984234635328981255e+01 -2.349874144648705254e+01 1.008958614966877718e+02 1.691850153040808991e+01 -8.453514264415721868e+01 -2.041855726866175402e+01 -1.747353805285363819e+02 1.146748983127775574e+02 2.519827241485758762e+01 -4.151407993744141578e+01 -5.166838539725907253e+01 -6.269048470033433773e+01 4.098264509139123390e+01 1.602305651570336806e+02 1.323257707175211237e+02 4.295009157451070791e+01 -1.972937699357127599e+02 -3.868159006955951895e+01 4.368449350579474100e+01 1.170101046004837002e+02 8.698277229143631928e+01 1.541277168149136934e+01 -1.855102138606401923e+02 1.313461493259327142e+02 -2.231218545419061172e+02 -2.052239631669775122e+02 -1.844785328664798829e+00 -7.356746622423071358e+01 -2.400818996060772292e+01 8.688453044478511345e+01 5.576386500896832388e+01 -1.108983530809535551e+02 -1.510138846567300845e+02 1.455508193778693737e+01 1.233412855988345740e+02 2.065056780149540927e+01 -5.654955837927095530e+01 -5.146430691561176474e+01 -1.175014123587059345e+01 1.609169764308136337e+02 2.231391684968737366e+01 -1.762737828615719593e+02 1.302115236731714560e+02 -6.780069874445625544e+01 -4.239649118834001307e+00 1.563222343362934907e+02 -5.310297762565937774e+01 -1.987611989268218338e+01 -1.115119778673047222e+02 -6.101458402738474618e+00 -2.422183283640363527e+01 1.337119952383853274e+02 1.219178790760819027e+02 6.860490965507729300e+01 6.639998622774280079e+01 -1.899744777647663696e+01 1.372772114550990068e+02 -1.144527454929166197e+02 -4.329453461690162541e+00 -9.243293436827784149e+01 1.595309505252391773e+02 7.405227601494900114e+01 5.248426838006383832e+01 8.408204068363541950e+00 -5.408141391407408349e+01 3.490438407307929225e+01 6.857832262721218264e+00 3.646116935640869361e+00 2.448506968916228743e+01 6.067836268452619919e+01 1.728181139785554308e+02 -3.940607688936235320e+01 -5.277489370099391408e+01 6.778676633634125892e+01 1.174126272102886190e+02 -1.299981327525255992e+01 9.329598241566002059e+01 1.055774806869027742e+02 2.138955630960219025e+02 -8.784181474150180691e+01 -1.245271195345221287e+02 -2.906127131511365036e+01 6.305848758098370155e+01 -1.029685819216615172e+01 1.090069810936001033e+02 3.777985916540040989e+01 -1.650217934851449115e+02 4.572293688268740652e+01 -9.076716802043951304e+01 -1.372697189687218327e+02 1.364487174855607066e+02 -7.711299552416359404e+01 5.998528518408475918e+01 1.127996677976502440e+02 -1.004462669541736233e+02 2.379969434565143160e+01 -7.316235855910494479e+01 4.081701474940670948e+01 -1.161627794305904047e+02 6.241082866698098996e+01 5.540943616516025116e+01 3.984435255657629682e+00 8.521202019891589430e+01 -1.549973941061669791e+02 7.740209232215509871e+01 -2.962883560938186989e+01 -1.699655780622533428e+02 9.504205050209712624e+01 2.466375248207646464e+01 -1.973618532260044276e+02 2.366623522451705242e+02 -5.327189647643154613e-01 1.058114609738914140e+02 -1.213324983879851970e+02 -1.953794476011760253e+02 -9.388060147265298383e+01 2.486160823136313258e+00 1.437750097649536940e+02 4.040798820285025350e+00 -9.614447616372990524e+01 5.072321064811744407e+01 1.378762315058757792e+02 6.538521467581686863e+01 -5.206500495290230646e+01 -5.949640372669421140e+01 8.502103635895487344e+01 3.094533543025271172e+01 -1.967227810839679876e+02 -2.085997115043208439e+01 1.700641334110653702e+02 9.944025903952696410e+01 -5.766376741390321570e+01 -1.124816706884229234e+02 -4.294196821672074549e+01 -4.837160175444566335e+01 -1.151461198465026285e+02 -1.860608395362513079e+01 -4.594113868354991581e+01 -1.143024108194999826e+02 -1.326711435194611113e+02 -2.708404950164825920e+01 -1.264179963332186958e+02 -1.345803758762783673e+02 -3.856347175362502355e+01 -5.569342488234583044e+01 -1.116631624740852544e+02 1.940523787242491949e+02 1.097973115059562232e+01 -2.933102459639234638e+01 -1.773438056121079853e+01 8.200652232389728624e+01 1.629893186540043004e+01 2.611153998851645142e+01 -2.220349796943763465e+01 -4.818149366912446396e+01 2.181091453273444003e+01 -1.515298225812804844e+02 -1.659610506581322795e+02 -9.428652344333505653e+01 -1.989482704212686883e+02 -9.343406390115060844e+01 8.946057279788783489e+01 6.398675311743238581e+01 -2.717316742203735913e+01 6.335133384204498697e+01 -1.631945196400883731e+02 -4.253802752942559806e+01 -1.210540117283102006e+02 -6.959001593535610652e+01 2.198805868986274845e+02 -2.140048081281984196e+02 2.139863519400039706e+02 2.606745520831487184e+01 -5.888213757853099395e+01 9.618149456333637204e+01 1.293561228816817277e+02 -5.409627842529749842e+01 -2.123706535628329561e+02 -1.554336037544732108e+02 1.066070282588695619e+02 8.732144127657751653e+01 -1.413516633001198102e+02 3.332349574916518264e+01 -4.134223419669543631e+01 -8.068792911919302924e+01 -2.963075704329711257e+01 -5.716335568382289978e+01 -9.012073363057952236e+01 -3.547475620686323339e+01 4.654417031172085828e+00 -3.411168599738760321e+01 -4.205556324004950386e-01 -1.498233352961347720e+01 9.590013237118743916e+01 1.324720837299740595e+02 1.373156388695325525e+01 1.749826366138318079e+01 -6.577832284130035134e+01 -2.043385126208538907e+02 3.529424050827937975e+01 -9.564002583017409620e+01 2.692207814998585391e+01 -8.546536258605707204e+00 1.048956707978834002e+00 7.531316584851515472e+01 1.270537016683644538e+02 -7.344822103543080516e+01 3.961330706191454709e+01 -2.010142718658919989e+02 1.007443244832179552e+01 7.315977425976888604e+00 -1.277500432759600670e+02 -3.516550983237027594e+01 -4.621007000895757955e+01 4.977672646151154900e+00 -1.066002819259641825e+02 2.820729117857706214e+01 -1.018034312568498336e+02 5.852043435811046379e+01 7.072028417990310345e+01 3.844088483951762925e+01 -3.025158932356258745e+01 1.119994765479360694e+02 6.364831587514701994e+01 8.337769188311639823e+01 -6.981843194532714847e+01 2.116879308040054397e+01 1.332899057181540172e+02 -6.092692050755186273e+01 -7.202064947410907081e+00 3.333836578861440358e+01 -1.337811408314294113e+02 1.019252128945212945e+02 9.332030674992566333e+01 -1.053432260954533604e+02 -8.578845460258338562e+01 -5.782592044535823561e+01 -4.742947144200440590e+01 -1.669356622510417196e+02 -1.415617159080966303e+02 -1.379413560746022824e+02 1.100184905945642271e+02 6.222068310534329783e+01 1.660593832103352554e+02 7.487455652417857266e+00 -8.926689041524893753e+01 1.948684163404813674e+01 1.439766445618968582e+01 -6.607369634916673817e+01 7.705027972659823376e+01 1.228370297173057537e+02 1.040626751082813506e+01 1.492053103993669083e+02 2.342375432717863148e+01 1.154191064918891811e+02 1.571030455076400578e+01 -2.160867230337724152e+02 2.270915240840351998e+02 -5.088722302421109589e+01 -1.550702254373858295e+02 -6.985715347132411068e+01 -4.464218302091840940e+01 4.278095258538028389e+01 2.646765906922550116e+01 4.729281279099407698e+01 -7.663728207169197049e+01 1.264873360537550724e+02 -8.913821472357749087e+01 -7.242099383215187203e+00 1.471627691230220023e+02 1.132183573462161092e+02 5.986384586710525468e+01 -1.826963027945830049e+02 2.624151390268084683e+01 1.448449186239320170e+02 2.417082815770280746e+01 1.005905985372208704e+02 1.096695108119886868e+02 -2.177197974263739866e+02 7.920420219666374351e+01 -5.945053424122526309e+01 -2.314214295581880663e+02 9.100900355730240676e+01 2.526048635496967876e+01 -1.248554876688408797e+02 -5.983978326412351123e+01 1.416565274803946579e+02 1.503231141144222534e+02 -7.714662852455462883e+01 -1.299086396729326793e+02 -8.473469845118515309e+01 -1.682660772412574204e+02 1.982277222599546107e+01 3.839171944752364141e+01 -1.712914692149603368e+01 -1.250642872403195582e+01 -9.035858875021837378e+01 -8.916703137329842832e+01 -2.483780072893020829e+01 1.345849020648371948e+02 1.368132199246114453e+02 8.139780392509635476e+01 9.731228154274867848e+01 -7.872954866228641890e+01 -1.806408220416774668e+02 -1.324080220034777433e+01 -2.316005944243339343e+01 -7.089439807364628621e+01 1.499676337573492502e+00 7.295928675540055508e+01 -5.284368891524248113e+01 2.458459233717885795e+01 7.904619614529737248e+01 6.997795979571814939e+01 1.103323406254803558e+02 -1.489389952746070946e+02 3.957746263639882045e+01 8.317163385378759699e+01 9.459962858245397399e+01 5.897827902351405527e+01 -1.030664647147085020e+02 1.367099088297625826e+02 1.272380179370457540e+02 9.566984333188848666e+01 1.013573923121647056e+02 -8.408779741671283148e+01 -1.485137319158882718e+01 -1.289877294656709950e+01 7.693662395877707638e+01 6.485637982405116020e+01 5.586019767357214505e+01 9.742638856605121589e+01 1.162710085731727361e+02 1.236490944627865787e+02 -6.481453658863998157e+01 8.045503659208580416e+01 6.514210503329405810e+01 -1.174590734569432726e+02 1.313821461477352557e+02 -1.002683873113542035e+01 -2.787221469843494859e+01 1.989798017475611971e+02 8.834417380820397625e+01 1.239426501267957548e+02 -1.441759261703421089e+02 -1.576361372000426968e+02 -1.536513100406960746e+02 -1.221076542427744016e+02 -4.426574204783592847e+01 1.098046531927329141e+02 -1.686465979511649209e+02 3.254299450826982110e+01 1.444100113837777144e+02 -5.937298697279511117e+01 -9.142525714965077555e+01 -3.514113294683666311e+01 1.360487436088737638e+02 2.276154675254484516e+02 -6.673160902762251112e+01 1.984501395946927360e+01 -2.775369949351647136e+01 6.862175326489133909e+01 6.039383661426317929e+01 -2.137070594307339491e+02 -8.887177340729564889e+01 1.379175224072130277e+02 1.401716391089116200e+02 9.479852620958284604e+01 -4.994117242727785566e+01 -7.604132939914492795e+01 -4.555982158128662007e+01 -1.770833321263479263e+02 7.140231698360734924e+01 -2.576432331389014152e+01 1.669700726859122994e+02 -2.802229818894720026e+01 -3.157080682143250669e+02 1.454323278530229402e+02 5.051286346447895426e+01 -1.184410650181222309e+02 -2.222417909582688011e+01 3.546124172704368505e+01 -2.085329047666519955e+02 -1.147753828491303238e+02 -1.100564246146148975e+02 -5.669442316162285067e+01 6.309302617907980704e+01 -1.655542875444546951e+02 1.084350117375913811e+02 -5.456485754609207817e+01 2.919050736909142074e+00 -1.340468054167659488e+02 -1.040760789886216742e+02 1.767127405936582250e+02 8.708649589692745963e+01 -4.244673551100350295e+01 3.737122130362460126e+01 -2.820616322795428488e+01 4.343946294880180403e+01 -1.051667741409573864e+02 9.935045155788399995e+01 5.078877139528065499e+01 -1.195589978305886945e+02 1.174035748737954776e+02 -4.942166243906922318e+01 1.004792589218292846e+02 -4.969453607214334312e+01 8.890249128987335325e+01 -1.543092761605997794e+02 1.435338126709699509e+02 2.492196143965614041e+01 1.012434159153294360e+02 1.312044215725879610e+02 -1.475483474579716301e+02 -8.642973178297498293e+01 -1.062922793614739021e+02 6.730659785676029117e+01 -1.724437765200666206e+02 1.524501605120728414e+02 1.433369731355400631e+02 5.333695344190295629e+01 -8.546046256524419960e+01 5.743442776110931902e+01 -1.080150010225174100e+02 -1.103513779942982254e+01 3.523111838027627840e+01 -1.850110084697820128e+02 -8.216769192601326210e+01 -1.363041208560844986e+01 1.029423283586113342e+02 -5.056405690152219989e+01 1.094802038468837395e+02 -6.481502731896971170e+01 -2.123822986298034436e+02 -1.079000266538611754e+02 -3.434457704701247138e+01 -6.065370546960845388e+01 3.033543034179530196e+01 5.176761290198452059e+01 6.403579189375336433e+00 2.549112841763942683e+01 -1.182292737024825016e+02 5.425941361429052279e+01 3.289348841540316215e+01 -7.279076155032281292e+01 9.332178410727651752e+00 5.677931267580373031e+01 -9.622690951259350811e+01 -5.554222075896367983e+01 -2.434344816911480436e+01 9.845560603265776933e+01 -1.727882114160023264e+01 4.229782953846491722e+00 -2.300764909384512862e+02 -9.590002150436467332e+01 9.982092716133254839e+01 -9.006064813856944795e+01 3.162872374209418069e+01 3.135367627991897876e+01 3.829823263071003225e+01 6.669959832520532927e+01 -1.791128648560214742e+02 1.453133938466011728e+02 8.222571370104861899e+01 -7.580465965174807863e+00 -8.157343572194376691e+01 1.129960898077286515e+02 6.268656320352211964e+01 -2.030054573559574465e+02 -5.087336349114747946e+01 -8.246787298975814906e+01 -5.235198006168059237e+01 -6.254819779936966739e+01 -1.000292011318421999e+02 -6.096174818454758793e+01 1.933459631811897452e+02 -1.724638119662394047e+02 6.612975155099468338e+01 2.801286130323271450e+01 -7.591183398194809229e+01 1.048078522639848309e+01 -3.979909723419890355e+01 3.458400312048011571e+00 -9.707598164353802872e+01 -1.995048607489536039e+02 1.857536955626205000e+01 4.233536135127334887e+01 -1.292769913303253482e+01 -9.126091268634187514e+00 -4.017950199785365584e+01 -1.918440524272555763e+02 -3.096350769185796281e+01 -6.602860749241010296e+01 1.411739842856485971e+01 -1.576631413038519014e+01 9.145649613530922295e+01 -6.367322090481447816e+01 -1.047603609431100722e+02 -3.612098790259616976e+01 -9.115188819291208944e+00 4.598920832930276958e+01 -2.237567392635298802e+01 -7.447696978388573541e+01 -1.603468048299404103e+01 2.027984197475842265e+01 4.799526509251553108e+01 -1.152064240087396030e+02 -1.404871849535055617e+02 2.327500243795008146e+02 -2.205632514584754915e+02 -7.676017665237297649e+01 -4.684005208936884657e+01 1.413465520580979558e+02 6.395531229432224052e+01 2.312840753988401161e+02 2.473522278997570538e+02 -6.299317922177074536e+01 1.308641874449338900e+02 -5.653428683513937614e+01 -4.124457948063429313e+01 -1.017367480442086816e+02 -8.070213216628251018e+01 -7.032762853024290450e+01 -8.994465945997500000e+01 -2.463955194879872295e+02 -2.738004977682644494e+02 1.361555860422068349e+02 -2.681171256077663756e+01 5.383873753767710468e+01 1.322692652697594724e+02
