# 
#                 ----------------------------------------------------
#                 Data from a 3D direct N-body simulation. 
# 
#                 rows are i-particle; 
#                 coumns are :mass, tag, x ,y, z, vx, vy, vz, ax, ay, az
# 
#                 NTHU, Computational Physics Lab
# 
#                 ----------------------------------------------------
#                 Time = 0.09999999999999999
1.000000000000000000e+00 2.000000000000000000e+00 3.000000000000000000e+00 4.000000000000000000e+00 5.000000000000000000e+00 6.000000000000000000e+00 7.000000000000000000e+00 8.000000000000000000e+00 9.000000000000000000e+00 1.000000000000000000e+01 1.100000000000000000e+01 1.200000000000000000e+01 1.300000000000000000e+01 1.400000000000000000e+01 1.500000000000000000e+01 1.600000000000000000e+01 1.700000000000000000e+01 1.800000000000000000e+01 1.900000000000000000e+01 2.000000000000000000e+01 2.100000000000000000e+01 2.200000000000000000e+01 2.300000000000000000e+01 2.400000000000000000e+01 2.500000000000000000e+01 2.600000000000000000e+01 2.700000000000000000e+01 2.800000000000000000e+01 2.900000000000000000e+01 3.000000000000000000e+01 3.100000000000000000e+01 3.200000000000000000e+01 3.300000000000000000e+01 3.400000000000000000e+01 3.500000000000000000e+01 3.600000000000000000e+01 3.700000000000000000e+01 3.800000000000000000e+01 3.900000000000000000e+01 4.000000000000000000e+01 4.100000000000000000e+01 4.200000000000000000e+01 4.300000000000000000e+01 4.400000000000000000e+01 4.500000000000000000e+01 4.600000000000000000e+01 4.700000000000000000e+01 4.800000000000000000e+01 4.900000000000000000e+01 5.000000000000000000e+01 5.100000000000000000e+01 5.200000000000000000e+01 5.300000000000000000e+01 5.400000000000000000e+01 5.500000000000000000e+01 5.600000000000000000e+01 5.700000000000000000e+01 5.800000000000000000e+01 5.900000000000000000e+01 6.000000000000000000e+01 6.100000000000000000e+01 6.200000000000000000e+01 6.300000000000000000e+01 6.400000000000000000e+01 6.500000000000000000e+01 6.600000000000000000e+01 6.700000000000000000e+01 6.800000000000000000e+01 6.900000000000000000e+01 7.000000000000000000e+01 7.100000000000000000e+01 7.200000000000000000e+01 7.300000000000000000e+01 7.400000000000000000e+01 7.500000000000000000e+01 7.600000000000000000e+01 7.700000000000000000e+01 7.800000000000000000e+01 7.900000000000000000e+01 8.000000000000000000e+01 8.100000000000000000e+01 8.200000000000000000e+01 8.300000000000000000e+01 8.400000000000000000e+01 8.500000000000000000e+01 8.600000000000000000e+01 8.700000000000000000e+01 8.800000000000000000e+01 8.900000000000000000e+01 9.000000000000000000e+01 9.100000000000000000e+01 9.200000000000000000e+01 9.300000000000000000e+01 9.400000000000000000e+01 9.500000000000000000e+01 9.600000000000000000e+01 9.700000000000000000e+01 9.800000000000000000e+01 9.900000000000000000e+01 1.000000000000000000e+02 1.010000000000000000e+02 1.020000000000000000e+02 1.030000000000000000e+02 1.040000000000000000e+02 1.050000000000000000e+02 1.060000000000000000e+02 1.070000000000000000e+02 1.080000000000000000e+02 1.090000000000000000e+02 1.100000000000000000e+02 1.110000000000000000e+02 1.120000000000000000e+02 1.130000000000000000e+02 1.140000000000000000e+02 1.150000000000000000e+02 1.160000000000000000e+02 1.170000000000000000e+02 1.180000000000000000e+02 1.190000000000000000e+02 1.200000000000000000e+02 1.210000000000000000e+02 1.220000000000000000e+02 1.230000000000000000e+02 1.240000000000000000e+02 1.250000000000000000e+02 1.260000000000000000e+02 1.270000000000000000e+02 1.280000000000000000e+02 1.290000000000000000e+02 1.300000000000000000e+02 1.310000000000000000e+02 1.320000000000000000e+02 1.330000000000000000e+02 1.340000000000000000e+02 1.350000000000000000e+02 1.360000000000000000e+02 1.370000000000000000e+02 1.380000000000000000e+02 1.390000000000000000e+02 1.400000000000000000e+02 1.410000000000000000e+02 1.420000000000000000e+02 1.430000000000000000e+02 1.440000000000000000e+02 1.450000000000000000e+02 1.460000000000000000e+02 1.470000000000000000e+02 1.480000000000000000e+02 1.490000000000000000e+02 1.500000000000000000e+02 1.510000000000000000e+02 1.520000000000000000e+02 1.530000000000000000e+02 1.540000000000000000e+02 1.550000000000000000e+02 1.560000000000000000e+02 1.570000000000000000e+02 1.580000000000000000e+02 1.590000000000000000e+02 1.600000000000000000e+02 1.610000000000000000e+02 1.620000000000000000e+02 1.630000000000000000e+02 1.640000000000000000e+02 1.650000000000000000e+02 1.660000000000000000e+02 1.670000000000000000e+02 1.680000000000000000e+02 1.690000000000000000e+02 1.700000000000000000e+02 1.710000000000000000e+02 1.720000000000000000e+02 1.730000000000000000e+02 1.740000000000000000e+02 1.750000000000000000e+02 1.760000000000000000e+02 1.770000000000000000e+02 1.780000000000000000e+02 1.790000000000000000e+02 1.800000000000000000e+02 1.810000000000000000e+02 1.820000000000000000e+02 1.830000000000000000e+02 1.840000000000000000e+02 1.850000000000000000e+02 1.860000000000000000e+02 1.870000000000000000e+02 1.880000000000000000e+02 1.890000000000000000e+02 1.900000000000000000e+02 1.910000000000000000e+02 1.920000000000000000e+02 1.930000000000000000e+02 1.940000000000000000e+02 1.950000000000000000e+02 1.960000000000000000e+02 1.970000000000000000e+02 1.980000000000000000e+02 1.990000000000000000e+02 2.000000000000000000e+02 2.010000000000000000e+02 2.020000000000000000e+02 2.030000000000000000e+02 2.040000000000000000e+02 2.050000000000000000e+02 2.060000000000000000e+02 2.070000000000000000e+02 2.080000000000000000e+02 2.090000000000000000e+02 2.100000000000000000e+02 2.110000000000000000e+02 2.120000000000000000e+02 2.130000000000000000e+02 2.140000000000000000e+02 2.150000000000000000e+02 2.160000000000000000e+02 2.170000000000000000e+02 2.180000000000000000e+02 2.190000000000000000e+02 2.200000000000000000e+02 2.210000000000000000e+02 2.220000000000000000e+02 2.230000000000000000e+02 2.240000000000000000e+02 2.250000000000000000e+02 2.260000000000000000e+02 2.270000000000000000e+02 2.280000000000000000e+02 2.290000000000000000e+02 2.300000000000000000e+02 2.310000000000000000e+02 2.320000000000000000e+02 2.330000000000000000e+02 2.340000000000000000e+02 2.350000000000000000e+02 2.360000000000000000e+02 2.370000000000000000e+02 2.380000000000000000e+02 2.390000000000000000e+02 2.400000000000000000e+02 2.410000000000000000e+02 2.420000000000000000e+02 2.430000000000000000e+02 2.440000000000000000e+02 2.450000000000000000e+02 2.460000000000000000e+02 2.470000000000000000e+02 2.480000000000000000e+02 2.490000000000000000e+02 2.500000000000000000e+02 2.510000000000000000e+02 2.520000000000000000e+02 2.530000000000000000e+02 2.540000000000000000e+02 2.550000000000000000e+02 2.560000000000000000e+02 2.570000000000000000e+02 2.580000000000000000e+02 2.590000000000000000e+02 2.600000000000000000e+02 2.610000000000000000e+02 2.620000000000000000e+02 2.630000000000000000e+02 2.640000000000000000e+02 2.650000000000000000e+02 2.660000000000000000e+02 2.670000000000000000e+02 2.680000000000000000e+02 2.690000000000000000e+02 2.700000000000000000e+02 2.710000000000000000e+02 2.720000000000000000e+02 2.730000000000000000e+02 2.740000000000000000e+02 2.750000000000000000e+02 2.760000000000000000e+02 2.770000000000000000e+02 2.780000000000000000e+02 2.790000000000000000e+02 2.800000000000000000e+02 2.810000000000000000e+02 2.820000000000000000e+02 2.830000000000000000e+02 2.840000000000000000e+02 2.850000000000000000e+02 2.860000000000000000e+02 2.870000000000000000e+02 2.880000000000000000e+02 2.890000000000000000e+02 2.900000000000000000e+02 2.910000000000000000e+02 2.920000000000000000e+02 2.930000000000000000e+02 2.940000000000000000e+02 2.950000000000000000e+02 2.960000000000000000e+02 2.970000000000000000e+02 2.980000000000000000e+02 2.990000000000000000e+02 3.000000000000000000e+02 3.010000000000000000e+02 3.020000000000000000e+02 3.030000000000000000e+02 3.040000000000000000e+02 3.050000000000000000e+02 3.060000000000000000e+02 3.070000000000000000e+02 3.080000000000000000e+02 3.090000000000000000e+02 3.100000000000000000e+02 3.110000000000000000e+02 3.120000000000000000e+02 3.130000000000000000e+02 3.140000000000000000e+02 3.150000000000000000e+02 3.160000000000000000e+02 3.170000000000000000e+02 3.180000000000000000e+02 3.190000000000000000e+02 3.200000000000000000e+02 3.210000000000000000e+02 3.220000000000000000e+02 3.230000000000000000e+02 3.240000000000000000e+02 3.250000000000000000e+02 3.260000000000000000e+02 3.270000000000000000e+02 3.280000000000000000e+02 3.290000000000000000e+02 3.300000000000000000e+02 3.310000000000000000e+02 3.320000000000000000e+02 3.330000000000000000e+02 3.340000000000000000e+02 3.350000000000000000e+02 3.360000000000000000e+02 3.370000000000000000e+02 3.380000000000000000e+02 3.390000000000000000e+02 3.400000000000000000e+02 3.410000000000000000e+02 3.420000000000000000e+02 3.430000000000000000e+02 3.440000000000000000e+02 3.450000000000000000e+02 3.460000000000000000e+02 3.470000000000000000e+02 3.480000000000000000e+02 3.490000000000000000e+02 3.500000000000000000e+02 3.510000000000000000e+02 3.520000000000000000e+02 3.530000000000000000e+02 3.540000000000000000e+02 3.550000000000000000e+02 3.560000000000000000e+02 3.570000000000000000e+02 3.580000000000000000e+02 3.590000000000000000e+02 3.600000000000000000e+02 3.610000000000000000e+02 3.620000000000000000e+02 3.630000000000000000e+02 3.640000000000000000e+02 3.650000000000000000e+02 3.660000000000000000e+02 3.670000000000000000e+02 3.680000000000000000e+02 3.690000000000000000e+02 3.700000000000000000e+02 3.710000000000000000e+02 3.720000000000000000e+02 3.730000000000000000e+02 3.740000000000000000e+02 3.750000000000000000e+02 3.760000000000000000e+02 3.770000000000000000e+02 3.780000000000000000e+02 3.790000000000000000e+02 3.800000000000000000e+02 3.810000000000000000e+02 3.820000000000000000e+02 3.830000000000000000e+02 3.840000000000000000e+02 3.850000000000000000e+02 3.860000000000000000e+02 3.870000000000000000e+02 3.880000000000000000e+02 3.890000000000000000e+02 3.900000000000000000e+02 3.910000000000000000e+02 3.920000000000000000e+02 3.930000000000000000e+02 3.940000000000000000e+02 3.950000000000000000e+02 3.960000000000000000e+02 3.970000000000000000e+02 3.980000000000000000e+02 3.990000000000000000e+02 4.000000000000000000e+02 4.010000000000000000e+02 4.020000000000000000e+02 4.030000000000000000e+02 4.040000000000000000e+02 4.050000000000000000e+02 4.060000000000000000e+02 4.070000000000000000e+02 4.080000000000000000e+02 4.090000000000000000e+02 4.100000000000000000e+02 4.110000000000000000e+02 4.120000000000000000e+02 4.130000000000000000e+02 4.140000000000000000e+02 4.150000000000000000e+02 4.160000000000000000e+02 4.170000000000000000e+02 4.180000000000000000e+02 4.190000000000000000e+02 4.200000000000000000e+02 4.210000000000000000e+02 4.220000000000000000e+02 4.230000000000000000e+02 4.240000000000000000e+02 4.250000000000000000e+02 4.260000000000000000e+02 4.270000000000000000e+02 4.280000000000000000e+02 4.290000000000000000e+02 4.300000000000000000e+02 4.310000000000000000e+02 4.320000000000000000e+02 4.330000000000000000e+02 4.340000000000000000e+02 4.350000000000000000e+02 4.360000000000000000e+02 4.370000000000000000e+02 4.380000000000000000e+02 4.390000000000000000e+02 4.400000000000000000e+02 4.410000000000000000e+02 4.420000000000000000e+02 4.430000000000000000e+02 4.440000000000000000e+02 4.450000000000000000e+02 4.460000000000000000e+02 4.470000000000000000e+02 4.480000000000000000e+02 4.490000000000000000e+02 4.500000000000000000e+02 4.510000000000000000e+02 4.520000000000000000e+02 4.530000000000000000e+02 4.540000000000000000e+02 4.550000000000000000e+02 4.560000000000000000e+02 4.570000000000000000e+02 4.580000000000000000e+02 4.590000000000000000e+02 4.600000000000000000e+02 4.610000000000000000e+02 4.620000000000000000e+02 4.630000000000000000e+02 4.640000000000000000e+02 4.650000000000000000e+02 4.660000000000000000e+02 4.670000000000000000e+02 4.680000000000000000e+02 4.690000000000000000e+02 4.700000000000000000e+02 4.710000000000000000e+02 4.720000000000000000e+02 4.730000000000000000e+02 4.740000000000000000e+02 4.750000000000000000e+02 4.760000000000000000e+02 4.770000000000000000e+02 4.780000000000000000e+02 4.790000000000000000e+02 4.800000000000000000e+02 4.810000000000000000e+02 4.820000000000000000e+02 4.830000000000000000e+02 4.840000000000000000e+02 4.850000000000000000e+02 4.860000000000000000e+02 4.870000000000000000e+02 4.880000000000000000e+02 4.890000000000000000e+02 4.900000000000000000e+02 4.910000000000000000e+02 4.920000000000000000e+02 4.930000000000000000e+02 4.940000000000000000e+02 4.950000000000000000e+02 4.960000000000000000e+02 4.970000000000000000e+02 4.980000000000000000e+02 4.990000000000000000e+02 5.000000000000000000e+02 5.010000000000000000e+02 5.020000000000000000e+02 5.030000000000000000e+02 5.040000000000000000e+02 5.050000000000000000e+02 5.060000000000000000e+02 5.070000000000000000e+02 5.080000000000000000e+02 5.090000000000000000e+02 5.100000000000000000e+02 5.110000000000000000e+02 5.120000000000000000e+02 5.130000000000000000e+02 5.140000000000000000e+02 5.150000000000000000e+02 5.160000000000000000e+02 5.170000000000000000e+02 5.180000000000000000e+02 5.190000000000000000e+02 5.200000000000000000e+02 5.210000000000000000e+02 5.220000000000000000e+02 5.230000000000000000e+02 5.240000000000000000e+02 5.250000000000000000e+02 5.260000000000000000e+02 5.270000000000000000e+02 5.280000000000000000e+02 5.290000000000000000e+02 5.300000000000000000e+02 5.310000000000000000e+02 5.320000000000000000e+02 5.330000000000000000e+02 5.340000000000000000e+02 5.350000000000000000e+02 5.360000000000000000e+02 5.370000000000000000e+02 5.380000000000000000e+02 5.390000000000000000e+02 5.400000000000000000e+02 5.410000000000000000e+02 5.420000000000000000e+02 5.430000000000000000e+02 5.440000000000000000e+02 5.450000000000000000e+02 5.460000000000000000e+02 5.470000000000000000e+02 5.480000000000000000e+02 5.490000000000000000e+02 5.500000000000000000e+02 5.510000000000000000e+02 5.520000000000000000e+02 5.530000000000000000e+02 5.540000000000000000e+02 5.550000000000000000e+02 5.560000000000000000e+02 5.570000000000000000e+02 5.580000000000000000e+02 5.590000000000000000e+02 5.600000000000000000e+02 5.610000000000000000e+02 5.620000000000000000e+02 5.630000000000000000e+02 5.640000000000000000e+02 5.650000000000000000e+02 5.660000000000000000e+02 5.670000000000000000e+02 5.680000000000000000e+02 5.690000000000000000e+02 5.700000000000000000e+02 5.710000000000000000e+02 5.720000000000000000e+02 5.730000000000000000e+02 5.740000000000000000e+02 5.750000000000000000e+02 5.760000000000000000e+02 5.770000000000000000e+02 5.780000000000000000e+02 5.790000000000000000e+02 5.800000000000000000e+02 5.810000000000000000e+02 5.820000000000000000e+02 5.830000000000000000e+02 5.840000000000000000e+02 5.850000000000000000e+02 5.860000000000000000e+02 5.870000000000000000e+02 5.880000000000000000e+02 5.890000000000000000e+02 5.900000000000000000e+02 5.910000000000000000e+02 5.920000000000000000e+02 5.930000000000000000e+02 5.940000000000000000e+02 5.950000000000000000e+02 5.960000000000000000e+02 5.970000000000000000e+02 5.980000000000000000e+02 5.990000000000000000e+02 6.000000000000000000e+02 6.010000000000000000e+02 6.020000000000000000e+02 6.030000000000000000e+02 6.040000000000000000e+02 6.050000000000000000e+02 6.060000000000000000e+02 6.070000000000000000e+02 6.080000000000000000e+02 6.090000000000000000e+02 6.100000000000000000e+02 6.110000000000000000e+02 6.120000000000000000e+02 6.130000000000000000e+02 6.140000000000000000e+02 6.150000000000000000e+02 6.160000000000000000e+02 6.170000000000000000e+02 6.180000000000000000e+02 6.190000000000000000e+02 6.200000000000000000e+02 6.210000000000000000e+02 6.220000000000000000e+02 6.230000000000000000e+02 6.240000000000000000e+02 6.250000000000000000e+02 6.260000000000000000e+02 6.270000000000000000e+02 6.280000000000000000e+02 6.290000000000000000e+02 6.300000000000000000e+02 6.310000000000000000e+02 6.320000000000000000e+02 6.330000000000000000e+02 6.340000000000000000e+02 6.350000000000000000e+02 6.360000000000000000e+02 6.370000000000000000e+02 6.380000000000000000e+02 6.390000000000000000e+02 6.400000000000000000e+02 6.410000000000000000e+02 6.420000000000000000e+02 6.430000000000000000e+02 6.440000000000000000e+02 6.450000000000000000e+02 6.460000000000000000e+02 6.470000000000000000e+02 6.480000000000000000e+02 6.490000000000000000e+02 6.500000000000000000e+02 6.510000000000000000e+02 6.520000000000000000e+02 6.530000000000000000e+02 6.540000000000000000e+02 6.550000000000000000e+02 6.560000000000000000e+02 6.570000000000000000e+02 6.580000000000000000e+02 6.590000000000000000e+02 6.600000000000000000e+02 6.610000000000000000e+02 6.620000000000000000e+02 6.630000000000000000e+02 6.640000000000000000e+02 6.650000000000000000e+02 6.660000000000000000e+02 6.670000000000000000e+02 6.680000000000000000e+02 6.690000000000000000e+02 6.700000000000000000e+02 6.710000000000000000e+02 6.720000000000000000e+02 6.730000000000000000e+02 6.740000000000000000e+02 6.750000000000000000e+02 6.760000000000000000e+02 6.770000000000000000e+02 6.780000000000000000e+02 6.790000000000000000e+02 6.800000000000000000e+02 6.810000000000000000e+02 6.820000000000000000e+02 6.830000000000000000e+02 6.840000000000000000e+02 6.850000000000000000e+02 6.860000000000000000e+02 6.870000000000000000e+02 6.880000000000000000e+02 6.890000000000000000e+02 6.900000000000000000e+02 6.910000000000000000e+02 6.920000000000000000e+02 6.930000000000000000e+02 6.940000000000000000e+02 6.950000000000000000e+02 6.960000000000000000e+02 6.970000000000000000e+02 6.980000000000000000e+02 6.990000000000000000e+02 7.000000000000000000e+02 7.010000000000000000e+02 7.020000000000000000e+02 7.030000000000000000e+02 7.040000000000000000e+02 7.050000000000000000e+02 7.060000000000000000e+02 7.070000000000000000e+02 7.080000000000000000e+02 7.090000000000000000e+02 7.100000000000000000e+02 7.110000000000000000e+02 7.120000000000000000e+02 7.130000000000000000e+02 7.140000000000000000e+02 7.150000000000000000e+02 7.160000000000000000e+02 7.170000000000000000e+02 7.180000000000000000e+02 7.190000000000000000e+02 7.200000000000000000e+02 7.210000000000000000e+02 7.220000000000000000e+02 7.230000000000000000e+02 7.240000000000000000e+02 7.250000000000000000e+02 7.260000000000000000e+02 7.270000000000000000e+02 7.280000000000000000e+02 7.290000000000000000e+02 7.300000000000000000e+02 7.310000000000000000e+02 7.320000000000000000e+02 7.330000000000000000e+02 7.340000000000000000e+02 7.350000000000000000e+02 7.360000000000000000e+02 7.370000000000000000e+02 7.380000000000000000e+02 7.390000000000000000e+02 7.400000000000000000e+02 7.410000000000000000e+02 7.420000000000000000e+02 7.430000000000000000e+02 7.440000000000000000e+02 7.450000000000000000e+02 7.460000000000000000e+02 7.470000000000000000e+02 7.480000000000000000e+02 7.490000000000000000e+02 7.500000000000000000e+02 7.510000000000000000e+02 7.520000000000000000e+02 7.530000000000000000e+02 7.540000000000000000e+02 7.550000000000000000e+02 7.560000000000000000e+02 7.570000000000000000e+02 7.580000000000000000e+02 7.590000000000000000e+02 7.600000000000000000e+02 7.610000000000000000e+02 7.620000000000000000e+02 7.630000000000000000e+02 7.640000000000000000e+02 7.650000000000000000e+02 7.660000000000000000e+02 7.670000000000000000e+02 7.680000000000000000e+02 7.690000000000000000e+02 7.700000000000000000e+02 7.710000000000000000e+02 7.720000000000000000e+02 7.730000000000000000e+02 7.740000000000000000e+02 7.750000000000000000e+02 7.760000000000000000e+02 7.770000000000000000e+02 7.780000000000000000e+02 7.790000000000000000e+02 7.800000000000000000e+02 7.810000000000000000e+02 7.820000000000000000e+02 7.830000000000000000e+02 7.840000000000000000e+02 7.850000000000000000e+02 7.860000000000000000e+02 7.870000000000000000e+02 7.880000000000000000e+02 7.890000000000000000e+02 7.900000000000000000e+02 7.910000000000000000e+02 7.920000000000000000e+02 7.930000000000000000e+02 7.940000000000000000e+02 7.950000000000000000e+02 7.960000000000000000e+02 7.970000000000000000e+02 7.980000000000000000e+02 7.990000000000000000e+02 8.000000000000000000e+02 8.010000000000000000e+02 8.020000000000000000e+02 8.030000000000000000e+02 8.040000000000000000e+02 8.050000000000000000e+02 8.060000000000000000e+02 8.070000000000000000e+02 8.080000000000000000e+02 8.090000000000000000e+02 8.100000000000000000e+02 8.110000000000000000e+02 8.120000000000000000e+02 8.130000000000000000e+02 8.140000000000000000e+02 8.150000000000000000e+02 8.160000000000000000e+02 8.170000000000000000e+02 8.180000000000000000e+02 8.190000000000000000e+02 8.200000000000000000e+02 8.210000000000000000e+02 8.220000000000000000e+02 8.230000000000000000e+02 8.240000000000000000e+02 8.250000000000000000e+02 8.260000000000000000e+02 8.270000000000000000e+02 8.280000000000000000e+02 8.290000000000000000e+02 8.300000000000000000e+02 8.310000000000000000e+02 8.320000000000000000e+02 8.330000000000000000e+02 8.340000000000000000e+02 8.350000000000000000e+02 8.360000000000000000e+02 8.370000000000000000e+02 8.380000000000000000e+02 8.390000000000000000e+02 8.400000000000000000e+02 8.410000000000000000e+02 8.420000000000000000e+02 8.430000000000000000e+02 8.440000000000000000e+02 8.450000000000000000e+02 8.460000000000000000e+02 8.470000000000000000e+02 8.480000000000000000e+02 8.490000000000000000e+02 8.500000000000000000e+02 8.510000000000000000e+02 8.520000000000000000e+02 8.530000000000000000e+02 8.540000000000000000e+02 8.550000000000000000e+02 8.560000000000000000e+02 8.570000000000000000e+02 8.580000000000000000e+02 8.590000000000000000e+02 8.600000000000000000e+02 8.610000000000000000e+02 8.620000000000000000e+02 8.630000000000000000e+02 8.640000000000000000e+02 8.650000000000000000e+02 8.660000000000000000e+02 8.670000000000000000e+02 8.680000000000000000e+02 8.690000000000000000e+02 8.700000000000000000e+02 8.710000000000000000e+02 8.720000000000000000e+02 8.730000000000000000e+02 8.740000000000000000e+02 8.750000000000000000e+02 8.760000000000000000e+02 8.770000000000000000e+02 8.780000000000000000e+02 8.790000000000000000e+02 8.800000000000000000e+02 8.810000000000000000e+02 8.820000000000000000e+02 8.830000000000000000e+02 8.840000000000000000e+02 8.850000000000000000e+02 8.860000000000000000e+02 8.870000000000000000e+02 8.880000000000000000e+02 8.890000000000000000e+02 8.900000000000000000e+02 8.910000000000000000e+02 8.920000000000000000e+02 8.930000000000000000e+02 8.940000000000000000e+02 8.950000000000000000e+02 8.960000000000000000e+02 8.970000000000000000e+02 8.980000000000000000e+02 8.990000000000000000e+02 9.000000000000000000e+02 9.010000000000000000e+02 9.020000000000000000e+02 9.030000000000000000e+02 9.040000000000000000e+02 9.050000000000000000e+02 9.060000000000000000e+02 9.070000000000000000e+02 9.080000000000000000e+02 9.090000000000000000e+02 9.100000000000000000e+02 9.110000000000000000e+02 9.120000000000000000e+02 9.130000000000000000e+02 9.140000000000000000e+02 9.150000000000000000e+02 9.160000000000000000e+02 9.170000000000000000e+02 9.180000000000000000e+02 9.190000000000000000e+02 9.200000000000000000e+02 9.210000000000000000e+02 9.220000000000000000e+02 9.230000000000000000e+02 9.240000000000000000e+02 9.250000000000000000e+02 9.260000000000000000e+02 9.270000000000000000e+02 9.280000000000000000e+02 9.290000000000000000e+02 9.300000000000000000e+02 9.310000000000000000e+02 9.320000000000000000e+02 9.330000000000000000e+02 9.340000000000000000e+02 9.350000000000000000e+02 9.360000000000000000e+02 9.370000000000000000e+02 9.380000000000000000e+02 9.390000000000000000e+02 9.400000000000000000e+02 9.410000000000000000e+02 9.420000000000000000e+02 9.430000000000000000e+02 9.440000000000000000e+02 9.450000000000000000e+02 9.460000000000000000e+02 9.470000000000000000e+02 9.480000000000000000e+02 9.490000000000000000e+02 9.500000000000000000e+02 9.510000000000000000e+02 9.520000000000000000e+02 9.530000000000000000e+02 9.540000000000000000e+02 9.550000000000000000e+02 9.560000000000000000e+02 9.570000000000000000e+02 9.580000000000000000e+02 9.590000000000000000e+02 9.600000000000000000e+02 9.610000000000000000e+02 9.620000000000000000e+02 9.630000000000000000e+02 9.640000000000000000e+02 9.650000000000000000e+02 9.660000000000000000e+02 9.670000000000000000e+02 9.680000000000000000e+02 9.690000000000000000e+02 9.700000000000000000e+02 9.710000000000000000e+02 9.720000000000000000e+02 9.730000000000000000e+02 9.740000000000000000e+02 9.750000000000000000e+02 9.760000000000000000e+02 9.770000000000000000e+02 9.780000000000000000e+02 9.790000000000000000e+02 9.800000000000000000e+02 9.810000000000000000e+02 9.820000000000000000e+02 9.830000000000000000e+02 9.840000000000000000e+02 9.850000000000000000e+02 9.860000000000000000e+02 9.870000000000000000e+02 9.880000000000000000e+02 9.890000000000000000e+02 9.900000000000000000e+02 9.910000000000000000e+02 9.920000000000000000e+02 9.930000000000000000e+02 9.940000000000000000e+02 9.950000000000000000e+02 9.960000000000000000e+02 9.970000000000000000e+02 9.980000000000000000e+02 9.990000000000000000e+02 1.000000000000000000e+03
1.000000000000000021e-02 1.000000000000000021e-02 1.000000000000000021e-02 1.000000000000000021e-02 1.000000000000000021e-02 1.000000000000000021e-02 1.000000000000000021e-02 1.000000000000000021e-02 1.000000000000000021e-02 1.000000000000000021e-02 1.000000000000000021e-02 1.000000000000000021e-02 1.000000000000000021e-02 1.000000000000000021e-02 1.000000000000000021e-02 1.000000000000000021e-02 1.000000000000000021e-02 1.000000000000000021e-02 1.000000000000000021e-02 1.000000000000000021e-02 1.000000000000000021e-02 1.000000000000000021e-02 1.000000000000000021e-02 1.000000000000000021e-02 1.000000000000000021e-02 1.000000000000000021e-02 1.000000000000000021e-02 1.000000000000000021e-02 1.000000000000000021e-02 1.000000000000000021e-02 1.000000000000000021e-02 1.000000000000000021e-02 1.000000000000000021e-02 1.000000000000000021e-02 1.000000000000000021e-02 1.000000000000000021e-02 1.000000000000000021e-02 1.000000000000000021e-02 1.000000000000000021e-02 1.000000000000000021e-02 1.000000000000000021e-02 1.000000000000000021e-02 1.000000000000000021e-02 1.000000000000000021e-02 1.000000000000000021e-02 1.000000000000000021e-02 1.000000000000000021e-02 1.000000000000000021e-02 1.000000000000000021e-02 1.000000000000000021e-02 1.000000000000000021e-02 1.000000000000000021e-02 1.000000000000000021e-02 1.000000000000000021e-02 1.000000000000000021e-02 1.000000000000000021e-02 1.000000000000000021e-02 1.000000000000000021e-02 1.000000000000000021e-02 1.000000000000000021e-02 1.000000000000000021e-02 1.000000000000000021e-02 1.000000000000000021e-02 1.000000000000000021e-02 1.000000000000000021e-02 1.000000000000000021e-02 1.000000000000000021e-02 1.000000000000000021e-02 1.000000000000000021e-02 1.000000000000000021e-02 1.000000000000000021e-02 1.000000000000000021e-02 1.000000000000000021e-02 1.000000000000000021e-02 1.000000000000000021e-02 1.000000000000000021e-02 1.000000000000000021e-02 1.000000000000000021e-02 1.000000000000000021e-02 1.000000000000000021e-02 1.000000000000000021e-02 1.000000000000000021e-02 1.000000000000000021e-02 1.000000000000000021e-02 1.000000000000000021e-02 1.000000000000000021e-02 1.000000000000000021e-02 1.000000000000000021e-02 1.000000000000000021e-02 1.000000000000000021e-02 1.000000000000000021e-02 1.000000000000000021e-02 1.000000000000000021e-02 1.000000000000000021e-02 1.000000000000000021e-02 1.000000000000000021e-02 1.000000000000000021e-02 1.000000000000000021e-02 1.000000000000000021e-02 1.000000000000000021e-02 1.000000000000000021e-02 1.000000000000000021e-02 1.000000000000000021e-02 1.000000000000000021e-02 1.000000000000000021e-02 1.000000000000000021e-02 1.000000000000000021e-02 1.000000000000000021e-02 1.000000000000000021e-02 1.000000000000000021e-02 1.000000000000000021e-02 1.000000000000000021e-02 1.000000000000000021e-02 1.000000000000000021e-02 1.000000000000000021e-02 1.000000000000000021e-02 1.000000000000000021e-02 1.000000000000000021e-02 1.000000000000000021e-02 1.000000000000000021e-02 1.000000000000000021e-02 1.000000000000000021e-02 1.000000000000000021e-02 1.000000000000000021e-02 1.000000000000000021e-02 1.000000000000000021e-02 1.000000000000000021e-02 1.000000000000000021e-02 1.000000000000000021e-02 1.000000000000000021e-02 1.000000000000000021e-02 1.000000000000000021e-02 1.000000000000000021e-02 1.000000000000000021e-02 1.000000000000000021e-02 1.000000000000000021e-02 1.000000000000000021e-02 1.000000000000000021e-02 1.000000000000000021e-02 1.000000000000000021e-02 1.000000000000000021e-02 1.000000000000000021e-02 1.000000000000000021e-02 1.000000000000000021e-02 1.000000000000000021e-02 1.000000000000000021e-02 1.000000000000000021e-02 1.000000000000000021e-02 1.000000000000000021e-02 1.000000000000000021e-02 1.000000000000000021e-02 1.000000000000000021e-02 1.000000000000000021e-02 1.000000000000000021e-02 1.000000000000000021e-02 1.000000000000000021e-02 1.000000000000000021e-02 1.000000000000000021e-02 1.000000000000000021e-02 1.000000000000000021e-02 1.000000000000000021e-02 1.000000000000000021e-02 1.000000000000000021e-02 1.000000000000000021e-02 1.000000000000000021e-02 1.000000000000000021e-02 1.000000000000000021e-02 1.000000000000000021e-02 1.000000000000000021e-02 1.000000000000000021e-02 1.000000000000000021e-02 1.000000000000000021e-02 1.000000000000000021e-02 1.000000000000000021e-02 1.000000000000000021e-02 1.000000000000000021e-02 1.000000000000000021e-02 1.000000000000000021e-02 1.000000000000000021e-02 1.000000000000000021e-02 1.000000000000000021e-02 1.000000000000000021e-02 1.000000000000000021e-02 1.000000000000000021e-02 1.000000000000000021e-02 1.000000000000000021e-02 1.000000000000000021e-02 1.000000000000000021e-02 1.000000000000000021e-02 1.000000000000000021e-02 1.000000000000000021e-02 1.000000000000000021e-02 1.000000000000000021e-02 1.000000000000000021e-02 1.000000000000000021e-02 1.000000000000000021e-02 1.000000000000000021e-02 1.000000000000000021e-02 1.000000000000000021e-02 1.000000000000000021e-02 1.000000000000000021e-02 1.000000000000000021e-02 1.000000000000000021e-02 1.000000000000000021e-02 1.000000000000000021e-02 1.000000000000000021e-02 1.000000000000000021e-02 1.000000000000000021e-02 1.000000000000000021e-02 1.000000000000000021e-02 1.000000000000000021e-02 1.000000000000000021e-02 1.000000000000000021e-02 1.000000000000000021e-02 1.000000000000000021e-02 1.000000000000000021e-02 1.000000000000000021e-02 1.000000000000000021e-02 1.000000000000000021e-02 1.000000000000000021e-02 1.000000000000000021e-02 1.000000000000000021e-02 1.000000000000000021e-02 1.000000000000000021e-02 1.000000000000000021e-02 1.000000000000000021e-02 1.000000000000000021e-02 1.000000000000000021e-02 1.000000000000000021e-02 1.000000000000000021e-02 1.000000000000000021e-02 1.000000000000000021e-02 1.000000000000000021e-02 1.000000000000000021e-02 1.000000000000000021e-02 1.000000000000000021e-02 1.000000000000000021e-02 1.000000000000000021e-02 1.000000000000000021e-02 1.000000000000000021e-02 1.000000000000000021e-02 1.000000000000000021e-02 1.000000000000000021e-02 1.000000000000000021e-02 1.000000000000000021e-02 1.000000000000000021e-02 1.000000000000000021e-02 1.000000000000000021e-02 1.000000000000000021e-02 1.000000000000000021e-02 1.000000000000000021e-02 1.000000000000000021e-02 1.000000000000000021e-02 1.000000000000000021e-02 1.000000000000000021e-02 1.000000000000000021e-02 1.000000000000000021e-02 1.000000000000000021e-02 1.000000000000000021e-02 1.000000000000000021e-02 1.000000000000000021e-02 1.000000000000000021e-02 1.000000000000000021e-02 1.000000000000000021e-02 1.000000000000000021e-02 1.000000000000000021e-02 1.000000000000000021e-02 1.000000000000000021e-02 1.000000000000000021e-02 1.000000000000000021e-02 1.000000000000000021e-02 1.000000000000000021e-02 1.000000000000000021e-02 1.000000000000000021e-02 1.000000000000000021e-02 1.000000000000000021e-02 1.000000000000000021e-02 1.000000000000000021e-02 1.000000000000000021e-02 1.000000000000000021e-02 1.000000000000000021e-02 1.000000000000000021e-02 1.000000000000000021e-02 1.000000000000000021e-02 1.000000000000000021e-02 1.000000000000000021e-02 1.000000000000000021e-02 1.000000000000000021e-02 1.000000000000000021e-02 1.000000000000000021e-02 1.000000000000000021e-02 1.000000000000000021e-02 1.000000000000000021e-02 1.000000000000000021e-02 1.000000000000000021e-02 1.000000000000000021e-02 1.000000000000000021e-02 1.000000000000000021e-02 1.000000000000000021e-02 1.000000000000000021e-02 1.000000000000000021e-02 1.000000000000000021e-02 1.000000000000000021e-02 1.000000000000000021e-02 1.000000000000000021e-02 1.000000000000000021e-02 1.000000000000000021e-02 1.000000000000000021e-02 1.000000000000000021e-02 1.000000000000000021e-02 1.000000000000000021e-02 1.000000000000000021e-02 1.000000000000000021e-02 1.000000000000000021e-02 1.000000000000000021e-02 1.000000000000000021e-02 1.000000000000000021e-02 1.000000000000000021e-02 1.000000000000000021e-02 1.000000000000000021e-02 1.000000000000000021e-02 1.000000000000000021e-02 1.000000000000000021e-02 1.000000000000000021e-02 1.000000000000000021e-02 1.000000000000000021e-02 1.000000000000000021e-02 1.000000000000000021e-02 1.000000000000000021e-02 1.000000000000000021e-02 1.000000000000000021e-02 1.000000000000000021e-02 1.000000000000000021e-02 1.000000000000000021e-02 1.000000000000000021e-02 1.000000000000000021e-02 1.000000000000000021e-02 1.000000000000000021e-02 1.000000000000000021e-02 1.000000000000000021e-02 1.000000000000000021e-02 1.000000000000000021e-02 1.000000000000000021e-02 1.000000000000000021e-02 1.000000000000000021e-02 1.000000000000000021e-02 1.000000000000000021e-02 1.000000000000000021e-02 1.000000000000000021e-02 1.000000000000000021e-02 1.000000000000000021e-02 1.000000000000000021e-02 1.000000000000000021e-02 1.000000000000000021e-02 1.000000000000000021e-02 1.000000000000000021e-02 1.000000000000000021e-02 1.000000000000000021e-02 1.000000000000000021e-02 1.000000000000000021e-02 1.000000000000000021e-02 1.000000000000000021e-02 1.000000000000000021e-02 1.000000000000000021e-02 1.000000000000000021e-02 1.000000000000000021e-02 1.000000000000000021e-02 1.000000000000000021e-02 1.000000000000000021e-02 1.000000000000000021e-02 1.000000000000000021e-02 1.000000000000000021e-02 1.000000000000000021e-02 1.000000000000000021e-02 1.000000000000000021e-02 1.000000000000000021e-02 1.000000000000000021e-02 1.000000000000000021e-02 1.000000000000000021e-02 1.000000000000000021e-02 1.000000000000000021e-02 1.000000000000000021e-02 1.000000000000000021e-02 1.000000000000000021e-02 1.000000000000000021e-02 1.000000000000000021e-02 1.000000000000000021e-02 1.000000000000000021e-02 1.000000000000000021e-02 1.000000000000000021e-02 1.000000000000000021e-02 1.000000000000000021e-02 1.000000000000000021e-02 1.000000000000000021e-02 1.000000000000000021e-02 1.000000000000000021e-02 1.000000000000000021e-02 1.000000000000000021e-02 1.000000000000000021e-02 1.000000000000000021e-02 1.000000000000000021e-02 1.000000000000000021e-02 1.000000000000000021e-02 1.000000000000000021e-02 1.000000000000000021e-02 1.000000000000000021e-02 1.000000000000000021e-02 1.000000000000000021e-02 1.000000000000000021e-02 1.000000000000000021e-02 1.000000000000000021e-02 1.000000000000000021e-02 1.000000000000000021e-02 1.000000000000000021e-02 1.000000000000000021e-02 1.000000000000000021e-02 1.000000000000000021e-02 1.000000000000000021e-02 1.000000000000000021e-02 1.000000000000000021e-02 1.000000000000000021e-02 1.000000000000000021e-02 1.000000000000000021e-02 1.000000000000000021e-02 1.000000000000000021e-02 1.000000000000000021e-02 1.000000000000000021e-02 1.000000000000000021e-02 1.000000000000000021e-02 1.000000000000000021e-02 1.000000000000000021e-02 1.000000000000000021e-02 1.000000000000000021e-02 1.000000000000000021e-02 1.000000000000000021e-02 1.000000000000000021e-02 1.000000000000000021e-02 1.000000000000000021e-02 1.000000000000000021e-02 1.000000000000000021e-02 1.000000000000000021e-02 1.000000000000000021e-02 1.000000000000000021e-02 1.000000000000000021e-02 1.000000000000000021e-02 1.000000000000000021e-02 1.000000000000000021e-02 1.000000000000000021e-02 1.000000000000000021e-02 1.000000000000000021e-02 1.000000000000000021e-02 1.000000000000000021e-02 1.000000000000000021e-02 1.000000000000000021e-02 1.000000000000000021e-02 1.000000000000000021e-02 1.000000000000000021e-02 1.000000000000000021e-02 1.000000000000000021e-02 1.000000000000000021e-02 1.000000000000000021e-02 1.000000000000000021e-02 1.000000000000000021e-02 1.000000000000000021e-02 1.000000000000000021e-02 1.000000000000000021e-02 1.000000000000000021e-02 1.000000000000000021e-02 1.000000000000000021e-02 1.000000000000000021e-02 1.000000000000000021e-02 1.000000000000000021e-02 1.000000000000000021e-02 1.000000000000000021e-02 1.000000000000000021e-02 1.000000000000000021e-02 1.000000000000000021e-02 1.000000000000000021e-02 1.000000000000000021e-02 1.000000000000000021e-02 1.000000000000000021e-02 1.000000000000000021e-02 1.000000000000000021e-02 1.000000000000000021e-02 1.000000000000000021e-02 1.000000000000000021e-02 1.000000000000000021e-02 1.000000000000000021e-02 1.000000000000000021e-02 1.000000000000000021e-02 1.000000000000000021e-02 1.000000000000000021e-02 1.000000000000000021e-02 1.000000000000000021e-02 1.000000000000000021e-02 1.000000000000000021e-02 1.000000000000000021e-02 1.000000000000000021e-02 1.000000000000000021e-02 1.000000000000000021e-02 1.000000000000000021e-02 1.000000000000000021e-02 1.000000000000000021e-02 1.000000000000000021e-02 1.000000000000000021e-02 1.000000000000000021e-02 1.000000000000000021e-02 1.000000000000000021e-02 1.000000000000000021e-02 1.000000000000000021e-02 1.000000000000000021e-02 1.000000000000000021e-02 1.000000000000000021e-02 1.000000000000000021e-02 1.000000000000000021e-02 1.000000000000000021e-02 1.000000000000000021e-02 1.000000000000000021e-02 1.000000000000000021e-02 1.000000000000000021e-02 1.000000000000000021e-02 1.000000000000000021e-02 1.000000000000000021e-02 1.000000000000000021e-02 1.000000000000000021e-02 1.000000000000000021e-02 1.000000000000000021e-02 1.000000000000000021e-02 1.000000000000000021e-02 1.000000000000000021e-02 1.000000000000000021e-02 1.000000000000000021e-02 1.000000000000000021e-02 1.000000000000000021e-02 1.000000000000000021e-02 1.000000000000000021e-02 1.000000000000000021e-02 1.000000000000000021e-02 1.000000000000000021e-02 1.000000000000000021e-02 1.000000000000000021e-02 1.000000000000000021e-02 1.000000000000000021e-02 1.000000000000000021e-02 1.000000000000000021e-02 1.000000000000000021e-02 1.000000000000000021e-02 1.000000000000000021e-02 1.000000000000000021e-02 1.000000000000000021e-02 1.000000000000000021e-02 1.000000000000000021e-02 1.000000000000000021e-02 1.000000000000000021e-02 1.000000000000000021e-02 1.000000000000000021e-02 1.000000000000000021e-02 1.000000000000000021e-02 1.000000000000000021e-02 1.000000000000000021e-02 1.000000000000000021e-02 1.000000000000000021e-02 1.000000000000000021e-02 1.000000000000000021e-02 1.000000000000000021e-02 1.000000000000000021e-02 1.000000000000000021e-02 1.000000000000000021e-02 1.000000000000000021e-02 1.000000000000000021e-02 1.000000000000000021e-02 1.000000000000000021e-02 1.000000000000000021e-02 1.000000000000000021e-02 1.000000000000000021e-02 1.000000000000000021e-02 1.000000000000000021e-02 1.000000000000000021e-02 1.000000000000000021e-02 1.000000000000000021e-02 1.000000000000000021e-02 1.000000000000000021e-02 1.000000000000000021e-02 1.000000000000000021e-02 1.000000000000000021e-02 1.000000000000000021e-02 1.000000000000000021e-02 1.000000000000000021e-02 1.000000000000000021e-02 1.000000000000000021e-02 1.000000000000000021e-02 1.000000000000000021e-02 1.000000000000000021e-02 1.000000000000000021e-02 1.000000000000000021e-02 1.000000000000000021e-02 1.000000000000000021e-02 1.000000000000000021e-02 1.000000000000000021e-02 1.000000000000000021e-02 1.000000000000000021e-02 1.000000000000000021e-02 1.000000000000000021e-02 1.000000000000000021e-02 1.000000000000000021e-02 1.000000000000000021e-02 1.000000000000000021e-02 1.000000000000000021e-02 1.000000000000000021e-02 1.000000000000000021e-02 1.000000000000000021e-02 1.000000000000000021e-02 1.000000000000000021e-02 1.000000000000000021e-02 1.000000000000000021e-02 1.000000000000000021e-02 1.000000000000000021e-02 1.000000000000000021e-02 1.000000000000000021e-02 1.000000000000000021e-02 1.000000000000000021e-02 1.000000000000000021e-02 1.000000000000000021e-02 1.000000000000000021e-02 1.000000000000000021e-02 1.000000000000000021e-02 1.000000000000000021e-02 1.000000000000000021e-02 1.000000000000000021e-02 1.000000000000000021e-02 1.000000000000000021e-02 1.000000000000000021e-02 1.000000000000000021e-02 1.000000000000000021e-02 1.000000000000000021e-02 1.000000000000000021e-02 1.000000000000000021e-02 1.000000000000000021e-02 1.000000000000000021e-02 1.000000000000000021e-02 1.000000000000000021e-02 1.000000000000000021e-02 1.000000000000000021e-02 1.000000000000000021e-02 1.000000000000000021e-02 1.000000000000000021e-02 1.000000000000000021e-02 1.000000000000000021e-02 1.000000000000000021e-02 1.000000000000000021e-02 1.000000000000000021e-02 1.000000000000000021e-02 1.000000000000000021e-02 1.000000000000000021e-02 1.000000000000000021e-02 1.000000000000000021e-02 1.000000000000000021e-02 1.000000000000000021e-02 1.000000000000000021e-02 1.000000000000000021e-02 1.000000000000000021e-02 1.000000000000000021e-02 1.000000000000000021e-02 1.000000000000000021e-02 1.000000000000000021e-02 1.000000000000000021e-02 1.000000000000000021e-02 1.000000000000000021e-02 1.000000000000000021e-02 1.000000000000000021e-02 1.000000000000000021e-02 1.000000000000000021e-02 1.000000000000000021e-02 1.000000000000000021e-02 1.000000000000000021e-02 1.000000000000000021e-02 1.000000000000000021e-02 1.000000000000000021e-02 1.000000000000000021e-02 1.000000000000000021e-02 1.000000000000000021e-02 1.000000000000000021e-02 1.000000000000000021e-02 1.000000000000000021e-02 1.000000000000000021e-02 1.000000000000000021e-02 1.000000000000000021e-02 1.000000000000000021e-02 1.000000000000000021e-02 1.000000000000000021e-02 1.000000000000000021e-02 1.000000000000000021e-02 1.000000000000000021e-02 1.000000000000000021e-02 1.000000000000000021e-02 1.000000000000000021e-02 1.000000000000000021e-02 1.000000000000000021e-02 1.000000000000000021e-02 1.000000000000000021e-02 1.000000000000000021e-02 1.000000000000000021e-02 1.000000000000000021e-02 1.000000000000000021e-02 1.000000000000000021e-02 1.000000000000000021e-02 1.000000000000000021e-02 1.000000000000000021e-02 1.000000000000000021e-02 1.000000000000000021e-02 1.000000000000000021e-02 1.000000000000000021e-02 1.000000000000000021e-02 1.000000000000000021e-02 1.000000000000000021e-02 1.000000000000000021e-02 1.000000000000000021e-02 1.000000000000000021e-02 1.000000000000000021e-02 1.000000000000000021e-02 1.000000000000000021e-02 1.000000000000000021e-02 1.000000000000000021e-02 1.000000000000000021e-02 1.000000000000000021e-02 1.000000000000000021e-02 1.000000000000000021e-02 1.000000000000000021e-02 1.000000000000000021e-02 1.000000000000000021e-02 1.000000000000000021e-02 1.000000000000000021e-02 1.000000000000000021e-02 1.000000000000000021e-02 1.000000000000000021e-02 1.000000000000000021e-02 1.000000000000000021e-02 1.000000000000000021e-02 1.000000000000000021e-02 1.000000000000000021e-02 1.000000000000000021e-02 1.000000000000000021e-02 1.000000000000000021e-02 1.000000000000000021e-02 1.000000000000000021e-02 1.000000000000000021e-02 1.000000000000000021e-02 1.000000000000000021e-02 1.000000000000000021e-02 1.000000000000000021e-02 1.000000000000000021e-02 1.000000000000000021e-02 1.000000000000000021e-02 1.000000000000000021e-02 1.000000000000000021e-02 1.000000000000000021e-02 1.000000000000000021e-02 1.000000000000000021e-02 1.000000000000000021e-02 1.000000000000000021e-02 1.000000000000000021e-02 1.000000000000000021e-02 1.000000000000000021e-02 1.000000000000000021e-02 1.000000000000000021e-02 1.000000000000000021e-02 1.000000000000000021e-02 1.000000000000000021e-02 1.000000000000000021e-02 1.000000000000000021e-02 1.000000000000000021e-02 1.000000000000000021e-02 1.000000000000000021e-02 1.000000000000000021e-02 1.000000000000000021e-02 1.000000000000000021e-02 1.000000000000000021e-02 1.000000000000000021e-02 1.000000000000000021e-02 1.000000000000000021e-02 1.000000000000000021e-02 1.000000000000000021e-02 1.000000000000000021e-02 1.000000000000000021e-02 1.000000000000000021e-02 1.000000000000000021e-02 1.000000000000000021e-02 1.000000000000000021e-02 1.000000000000000021e-02 1.000000000000000021e-02 1.000000000000000021e-02 1.000000000000000021e-02 1.000000000000000021e-02 1.000000000000000021e-02 1.000000000000000021e-02 1.000000000000000021e-02 1.000000000000000021e-02 1.000000000000000021e-02 1.000000000000000021e-02 1.000000000000000021e-02 1.000000000000000021e-02 1.000000000000000021e-02 1.000000000000000021e-02 1.000000000000000021e-02 1.000000000000000021e-02 1.000000000000000021e-02 1.000000000000000021e-02 1.000000000000000021e-02 1.000000000000000021e-02 1.000000000000000021e-02 1.000000000000000021e-02 1.000000000000000021e-02 1.000000000000000021e-02 1.000000000000000021e-02 1.000000000000000021e-02 1.000000000000000021e-02 1.000000000000000021e-02 1.000000000000000021e-02 1.000000000000000021e-02 1.000000000000000021e-02 1.000000000000000021e-02 1.000000000000000021e-02 1.000000000000000021e-02 1.000000000000000021e-02 1.000000000000000021e-02 1.000000000000000021e-02 1.000000000000000021e-02 1.000000000000000021e-02 1.000000000000000021e-02 1.000000000000000021e-02 1.000000000000000021e-02 1.000000000000000021e-02 1.000000000000000021e-02 1.000000000000000021e-02 1.000000000000000021e-02 1.000000000000000021e-02 1.000000000000000021e-02 1.000000000000000021e-02 1.000000000000000021e-02 1.000000000000000021e-02 1.000000000000000021e-02 1.000000000000000021e-02 1.000000000000000021e-02 1.000000000000000021e-02 1.000000000000000021e-02 1.000000000000000021e-02 1.000000000000000021e-02 1.000000000000000021e-02 1.000000000000000021e-02 1.000000000000000021e-02 1.000000000000000021e-02 1.000000000000000021e-02 1.000000000000000021e-02 1.000000000000000021e-02 1.000000000000000021e-02 1.000000000000000021e-02 1.000000000000000021e-02 1.000000000000000021e-02 1.000000000000000021e-02 1.000000000000000021e-02 1.000000000000000021e-02 1.000000000000000021e-02 1.000000000000000021e-02 1.000000000000000021e-02 1.000000000000000021e-02 1.000000000000000021e-02 1.000000000000000021e-02 1.000000000000000021e-02 1.000000000000000021e-02 1.000000000000000021e-02 1.000000000000000021e-02 1.000000000000000021e-02 1.000000000000000021e-02 1.000000000000000021e-02 1.000000000000000021e-02 1.000000000000000021e-02 1.000000000000000021e-02 1.000000000000000021e-02 1.000000000000000021e-02 1.000000000000000021e-02 1.000000000000000021e-02 1.000000000000000021e-02 1.000000000000000021e-02 1.000000000000000021e-02 1.000000000000000021e-02 1.000000000000000021e-02 1.000000000000000021e-02 1.000000000000000021e-02 1.000000000000000021e-02 1.000000000000000021e-02 1.000000000000000021e-02 1.000000000000000021e-02 1.000000000000000021e-02 1.000000000000000021e-02 1.000000000000000021e-02 1.000000000000000021e-02 1.000000000000000021e-02 1.000000000000000021e-02 1.000000000000000021e-02 1.000000000000000021e-02 1.000000000000000021e-02 1.000000000000000021e-02 1.000000000000000021e-02 1.000000000000000021e-02 1.000000000000000021e-02 1.000000000000000021e-02 1.000000000000000021e-02 1.000000000000000021e-02 1.000000000000000021e-02 1.000000000000000021e-02 1.000000000000000021e-02 1.000000000000000021e-02 1.000000000000000021e-02 1.000000000000000021e-02 1.000000000000000021e-02 1.000000000000000021e-02 1.000000000000000021e-02 1.000000000000000021e-02 1.000000000000000021e-02 1.000000000000000021e-02 1.000000000000000021e-02 1.000000000000000021e-02 1.000000000000000021e-02 1.000000000000000021e-02 1.000000000000000021e-02 1.000000000000000021e-02 1.000000000000000021e-02 1.000000000000000021e-02 1.000000000000000021e-02 1.000000000000000021e-02 1.000000000000000021e-02 1.000000000000000021e-02 1.000000000000000021e-02 1.000000000000000021e-02 1.000000000000000021e-02 1.000000000000000021e-02 1.000000000000000021e-02 1.000000000000000021e-02 1.000000000000000021e-02 1.000000000000000021e-02 1.000000000000000021e-02 1.000000000000000021e-02 1.000000000000000021e-02 1.000000000000000021e-02 1.000000000000000021e-02 1.000000000000000021e-02 1.000000000000000021e-02 1.000000000000000021e-02 1.000000000000000021e-02 1.000000000000000021e-02 1.000000000000000021e-02 1.000000000000000021e-02 1.000000000000000021e-02 1.000000000000000021e-02 1.000000000000000021e-02 1.000000000000000021e-02 1.000000000000000021e-02 1.000000000000000021e-02 1.000000000000000021e-02 1.000000000000000021e-02 1.000000000000000021e-02 1.000000000000000021e-02 1.000000000000000021e-02 1.000000000000000021e-02 1.000000000000000021e-02 1.000000000000000021e-02 1.000000000000000021e-02 1.000000000000000021e-02 1.000000000000000021e-02 1.000000000000000021e-02 1.000000000000000021e-02 1.000000000000000021e-02 1.000000000000000021e-02 1.000000000000000021e-02 1.000000000000000021e-02 1.000000000000000021e-02 1.000000000000000021e-02 1.000000000000000021e-02 1.000000000000000021e-02 1.000000000000000021e-02 1.000000000000000021e-02 1.000000000000000021e-02 1.000000000000000021e-02 1.000000000000000021e-02 1.000000000000000021e-02 1.000000000000000021e-02 1.000000000000000021e-02 1.000000000000000021e-02 1.000000000000000021e-02 1.000000000000000021e-02 1.000000000000000021e-02 1.000000000000000021e-02 1.000000000000000021e-02 1.000000000000000021e-02 1.000000000000000021e-02 1.000000000000000021e-02 1.000000000000000021e-02 1.000000000000000021e-02 1.000000000000000021e-02 1.000000000000000021e-02
-1.038933654781211260e+02 1.581621673538109860e+02 3.657156217620803318e+01 -8.205978628595966384e+00 -8.186545064024534213e+01 -1.247066740481601599e+01 -1.938179577728101037e+02 6.820536360926163777e-01 -7.888653336689675655e+01 -1.330714439594215825e+01 -1.851668379893102667e+01 6.137757418094798467e+00 -1.662847483068226273e+00 1.563515474243331198e+02 7.887243491785793026e+01 -3.621962425991199552e+01 -4.930036917297382359e+01 7.382073639130140918e+01 3.060702796575449725e+01 -2.367206922009936321e+01 -7.344443929102830282e+01 -6.873281533152739087e+01 -1.283558281343977470e+01 2.696322607817219108e+01 -1.816248602099728373e+02 -9.196427463529977331e+01 -2.432562912835620494e+01 1.878595676381103772e+02 6.594381082499658930e+01 7.157786860332761592e+01 7.484817135258064980e+01 1.094415556033040859e+00 -7.402749725319127094e+01 1.934640770170348389e+02 -2.283103130072273927e+02 5.494257628662837334e+01 -1.118625616285765574e+02 -3.234615477589371579e+01 3.769771153672408115e+00 1.181058238084674912e+02 -1.145090770457091764e+02 -1.266349857835468917e+01 7.204168660044133787e+01 1.618352876153443276e+02 6.644694067445567498e+01 -6.367223895570376158e+01 3.831252909057289457e+01 -2.648987501650440990e+01 -6.157237680761538456e+01 1.459299340845546737e+02 -6.561603047057067783e+01 -4.852151685525603853e+01 -1.299884346440055651e+02 5.502362970526344377e+00 -4.706001568480216690e+01 3.606808122663466776e+01 -8.271215864332498313e+01 -4.663313398326385339e+01 -9.452524038027071640e+01 -1.449226402717222015e+02 1.805447898291341602e+01 4.237883961185798398e+01 -1.147887374507097036e+02 1.196744708387920930e+01 -7.384054847971648883e+01 4.579892406145647499e+01 1.554373739881895062e+02 -1.345153310340575104e+02 -4.033413519477235099e+01 6.762409639846247877e+00 2.753507205077112552e+00 3.953161876827594767e+01 7.828718273462648369e+01 6.565880287003760252e-01 -8.278466041881584303e+00 -6.523787454001163155e+01 7.292135408505312455e+01 -3.044527535409038421e+01 2.454400663591837883e+01 9.699178687824294798e+01 8.218113962493804081e+01 -3.989400141967141877e+01 5.378703414353194745e+01 1.374259470493634012e+02 1.083551778290192118e+02 -3.690593274238035182e+00 1.623488554559791055e+02 -1.039882885761555826e+02 3.847050605822244229e+00 -3.909829776194908391e+01 1.927743732910076346e+02 -1.978584592388759233e+01 2.726580726300742885e+00 -7.158127114519565737e+01 -6.683757219316078135e+00 -5.945423382646396959e+01 6.321396911359962445e+01 -8.816712598588597416e+01 6.405819451776319795e+01 -4.456237477036751926e+01 -4.635328254300304707e+01 -8.546747086047724906e+01 4.942619823397663481e+01 -5.093120317593482582e+01 -1.392006313624589211e+02 -7.404162216032605670e+01 -9.749946641399823477e+01 -1.465644065019023685e+02 1.266891150464180100e+02 -2.552755108992903033e+01 2.989052827157400927e+01 8.358650295219993609e+01 -9.694360732405704084e+01 5.305772544327958684e+01 -4.037197927325775026e+01 -6.479066112476083106e+01 -8.408588202527261046e+01 1.893470852895487155e+02 -5.288327288876638477e+01 -4.619950711438763591e+01 -4.391407460731019796e+01 7.493353882920736453e+01 -3.863255602248400322e+01 1.285698890487779806e+02 -4.661084340967080664e+01 5.144950808849856827e+01 4.236516372330564550e+00 -7.551700336815983405e+01 6.407201217033171758e+01 2.586217098911232029e+02 -8.588416971146307333e+01 4.422709763586989595e+01 -7.116323522367470389e+01 4.219367453815023339e+01 1.223502759841356919e+02 -4.801246522748545686e+01 1.366506708225029776e+01 -2.515608338568071289e+01 -9.510799409304490837e+01 -1.625295183438043622e+01 4.056267159725818416e+00 -7.268916366284020825e+00 -1.391589216300558718e+01 1.101915888689665053e+02 1.216805049455307568e+02 1.739844938356230273e+02 -2.840075804230272638e+02 3.562637728088062516e+01 -1.474698339770362487e+01 -5.815112912306732795e+01 1.683017844886997807e+02 7.098049148200708203e+01 -2.488334216404441968e+00 -1.081639556411218734e+02 -1.012019450712208979e+01 9.342688751013352544e+01 -1.253638684584529557e+02 -1.573503582678467012e+02 1.002503332100258682e+01 3.957248961612287985e+01 -5.700147727854906776e+01 3.925297562199708779e+01 -9.995550667520475940e+01 -1.412334201784171910e+02 1.965768284168154523e+01 4.535289098798174479e+01 4.529704118647237543e+00 -7.785493767555291811e+01 -8.738470631716981529e+01 -7.865700671720448156e+01 -8.178400769779649693e+01 1.186943901409142299e+01 5.305734443036397607e+01 1.088802575884573827e+02 7.419061624021112777e+01 8.368114002395148532e+01 1.005195993196428788e+02 -6.989150521228928881e+01 -7.711963475045730831e+01 6.594507639772118068e+01 6.421018192426208770e+01 5.539838956042572704e+01 -8.763711912708963325e+00 -8.521030142206667790e+01 5.054675887974067194e+01 -1.677575459271786542e+02 6.292993174905961951e+01 -4.164461773078082274e+01 -9.028904524591855818e+01 6.952607621466410137e+01 -1.611856888235269025e+01 -7.221501177021163187e+01 -5.380006083309082499e+01 -8.628142682206695113e+00 2.276353952621235237e+02 7.226230188601392967e+01 5.146606651787011089e+01 -9.741902950077860623e+01 1.391894132183621480e+02 1.034800537396509013e+00 -8.481761103915164313e+01 1.463861334282685220e+02 -1.447737664764467524e+02 1.482855931803331018e+01 -3.051851546960978112e+01 -2.088314452821236102e+02 -1.266041081558020522e+02 -8.283234361816204228e+01 -2.801749018961044158e+01 -1.131919762714715603e+02 5.472441605709011014e+01 6.176053111113294847e+01 -2.625636936016457312e+01 -9.484653847336795707e+01 1.074257207735964244e+02 1.121982767617191143e+02 4.389138947615162323e+01 1.667780052794170587e+01 2.484648216110950898e+02 4.146149887940174494e+01 -1.136803169575158137e+02 -4.289013553124584632e+01 -1.604478641602444782e+02 3.030449165312145254e+01 1.456911265491631013e+02 -1.408935468833405764e+02 1.252648312124980663e+02 -8.650553360417811177e+01 -1.804448581489372927e+01 -8.273406351450192098e-01 5.032202565534559824e+01 -1.097807843881796508e+01 -2.175048569167917378e+01 -1.780753337291380234e+01 -1.207059654935173114e+02 4.411687133068534905e+01 -2.884190232279788546e+01 -1.223647969189448759e+01 -1.021369176240097154e+01 2.150813062233986273e+02 1.659256973396328192e+02 2.214335484688016322e+02 1.254599152552418815e+02 -8.241447353726756830e+01 7.150162391492609970e+01 2.016651732543278541e+01 4.516869464845462545e+01 -3.769920355085552899e+01 2.431364795453311558e+02 -2.222460797425479484e+01 -1.301938992997509388e+02 -1.420821495660699618e+01 -4.366733806949061147e+01 -7.364914509045628677e+01 4.108374291581503002e+01 -1.115050724760904544e+01 1.732180068833949349e+02 8.784912870632530257e+01 3.891184893921285237e+01 9.325619137149980986e+01 9.023572224148645660e+01 -2.188637453078078465e+01 1.329728948524296754e+02 2.531462077017356904e+01 8.538591808077043765e+01 4.545981377032840953e+01 6.583554717068499151e+00 -1.102354739753571096e+02 -1.104128477823573888e+02 -8.580209995539733825e+01 -1.481548438383885546e+01 8.260862476794022768e+01 -2.913890954084910589e+01 9.419830976617105023e+01 4.177140580146554072e+01 -6.928222804943267477e+01 -2.850148240979092051e+01 -5.580111811779800490e+01 1.674543064989958907e+01 -4.406209206860744132e+01 -1.067426931404141897e+02 1.157314444252490802e+02 1.156229789730779345e+02 -7.527542863723483890e+01 5.087388511876519637e+00 -4.320659352199490399e+01 -3.096928508139048475e+01 -1.080413933828487316e+01 -2.979110110245436616e+01 4.244313843729354119e+01 -1.339827141975526956e+02 -5.038372522796723274e+01 -1.446129104781290096e+02 1.658290453401280899e+02 -1.916599725290975798e+01 5.604901358357710706e+01 1.131191398382516766e+01 1.374454431858648604e+02 4.241415416649771686e+01 3.393850528659918098e+01 1.469575684132192066e+02 -4.687450181846519826e+01 -9.294462084134383417e+01 2.595259026921179668e+01 -1.503299243170589250e+02 -5.081900366599110441e+01 9.738083238129451047e+01 -1.211772146101566534e+02 -3.456883527790288468e+01 8.679501690974453254e+01 -8.974519116860588497e+01 -8.500362143445823904e+01 -7.853580318185579756e+01 -6.057956582341917340e+01 2.368361421944345011e+02 1.883969759440482221e+02 9.782820658491445442e+01 -9.711332030834365980e+01 7.108441033979981682e+01 -6.298730009094828119e+01 -3.002059104060027295e+01 1.580328967957055575e+01 -3.073594680508563926e+01 -8.900207441734622194e+01 -2.747492736670873015e+00 1.396258117325614023e+01 1.033474700635078278e+02 -1.220020294109205139e+02 3.992692095466026103e+01 6.054425324473225345e+01 3.270823011636475997e+01 -8.599642502975345337e+01 -1.409691764436850860e+02 1.831695316065508905e+02 -1.687110516116868908e+01 2.388406037925839343e+01 1.485532745566812025e+02 2.527077707083642011e+01 2.627191758537586708e+01 -4.224605908798652365e+01 8.400477430590206041e+01 -1.291788808893552982e+02 -2.916635249152077591e+01 -5.818956534518827439e+00 -5.055205196090898312e+01 6.080928882094465138e+00 2.007661693485416521e+01 -3.389366455037795589e+01 1.294116769388450727e+01 2.023830254157380182e+02 -2.596082337628195447e+01 -2.655534088552240135e+01 -9.624010891444667948e+01 -1.529925164837561802e+00 -7.640452979526595811e+01 6.002741268286888143e+00 1.061063959573547777e+02 -4.921939552817813279e+01 5.708419309212620973e+00 -5.136753495736697772e+01 3.115587897090646319e+00 8.248086932704863727e+01 -1.095994219161300265e+02 -9.165380722260172774e+01 -9.708278060021834222e+01 6.745261942921497678e+01 8.187873019382602990e+01 -8.717626875619889404e+01 5.930203618609824190e+01 2.446701956559297031e+01 3.659576096849599480e+01 -1.676749138782399484e+01 8.643707758731571289e+01 7.534247933554964050e+01 -7.303384168109292318e+01 1.109654771204948354e+01 7.645714362387640506e+01 6.886343714745474642e+01 -1.885847753539286131e+01 2.358248624438330765e+01 -1.254013602194029318e+02 4.592961727201971911e+01 -3.101422302617574545e+01 -3.094762074843010424e+01 1.637667735006343435e+02 4.481531118099236721e+01 1.136399333392908204e+02 1.806162414930896603e+02 -1.301648016788778932e+02 1.410211715763553286e+02 -6.006620293029151014e+01 -1.278118753480169261e+02 7.782821774915264257e+01 -1.267223539810997721e+02 -2.716415769454061646e+01 5.330486996107082120e+01 7.568382354024548064e+00 -1.590992969879839052e+02 7.973265296249331868e+01 2.389012644273704922e+01 6.531551527209039421e+01 3.436576256953463826e+01 8.940371348920283623e+00 -6.345705836228536612e+01 1.093713804987144727e+02 5.153574473400769307e+01 -5.872410133800857324e+01 -9.573575116216500192e+01 3.674843108480236964e+01 2.439077109051234871e+01 7.794107558532257940e+01 1.738603668864895440e+02 -2.325160920551395449e+01 -1.041793014855294643e+02 -8.000347881821505780e+01 -4.851553071666171491e+01 -4.185245467038045319e+01 -1.387044056343970624e+02 -2.132656300954201001e+01 1.225053943473765372e+02 7.044539561301570529e+01 -1.156899221091725138e+02 -1.418474836054269019e+02 -6.433792147526750682e+01 -7.208753955794922774e+01 1.388870550617025685e+02 -1.611840171513673283e+02 8.188924336284189565e+01 -4.354205255775555727e+00 -4.070940765568137465e+01 1.254169043003011730e+01 8.612828896992419914e+01 4.679883340277879711e+01 1.306570293162347980e+02 -1.504631207475597137e+02 -7.654599441133508719e+01 2.403164688771202862e+01 3.962744035662019826e+01 1.948116665445545266e+02 1.375368802882005923e+02 6.199916104692740504e+01 6.816157151386090618e+01 -3.204694857237753780e+01 1.434596128940230813e+02 -1.696231582753609359e+02 -5.999283252023771240e+01 -5.073792272261004399e+01 -4.895734107225062814e+01 -9.757105042796598582e+01 -1.419130134934490606e+01 -6.486004754417390927e+01 6.724042049230949658e+01 -8.620366127988305038e+00 -5.482562250324279063e+01 -5.873224982718498666e+01 1.703088756296085080e+02 5.586037103436204632e+01 -1.302198488475204563e+01 1.974563481893778487e+02 -1.024493627982360806e+02 -3.337676480284834923e+01 6.330209370731467544e+01 -1.383201942581881727e-01 1.419634985804710503e+01 -1.183302775053897307e+02 1.665324271492418688e+02 -4.621110912834049600e+01 -2.537072720997952402e+01 -1.036442683638105677e+02 1.189045666632021039e+02 9.049574491732020931e+01 -7.319823039414534094e+01 -3.560823522815873332e+01 3.683191652818511841e+01 -1.429541961722386532e+02 -2.321593796049701008e-01 -7.054838028480314449e+01 7.233486015197291508e+00 -1.020364614957784966e+02 -1.496812902419941338e+02 -6.674778001852553189e+01 1.399146616487860229e+02 5.333529907047768859e+01 -8.464011375316943031e+01 8.412168567926472917e+01 3.225113917525414564e+01 8.343049682778004694e+01 -3.975073451857243612e+01 -7.929925434456657740e+01 1.613925369772306908e+02 3.924450338439959296e+01 2.729410801634085360e+01 -6.881746440083198024e+01 -3.991253956574540496e+01 8.930993221823291250e+00 -6.780654624888482473e+00 -1.630017134070846225e+02 -3.266361149433029709e+01 6.070976018450812006e+01 1.051563472734975448e+02 1.468429438315395998e+02 -1.254337014374755022e+01 8.447477785857117283e+01 1.486904735597931619e+02 5.973281714155950795e+01 1.390491117862677015e+02 1.513893560952175399e+01 1.236965412708560734e+02 -7.906038150997302694e+01 5.019034088044836039e+01 2.755032858370060822e+01 7.138117823930137718e+01 -9.995967695515352602e+01 1.864021599484404419e+02 -1.209758640493403732e+02 8.310111822946723237e+01 -1.009052763715753116e+02 4.343516684750391477e+01 1.299016396051239397e+01 8.520828637086844992e+01 -6.917064894453805834e+01 -7.093310781725487857e+01 -1.042884526103191511e+01 8.366446724335709462e+01 -2.779129705045165366e+01 -1.528484137655397213e+01 -1.842339793736377729e+01 4.441393709504217746e+00 9.203706327901569750e+01 -5.861933359314145520e+01 -2.524503383031097226e+00 -1.816028189540023732e+02 1.142950558753108226e+02 -1.168561811558152357e+02 -6.909855699206812574e+01 -2.198645721491360305e+01 -1.010174998810177698e+02 -4.970704803254295712e+01 -5.483172476811839857e+01 -1.844781306884298644e+01 1.273978375636136633e+02 5.056947279575419429e+01 9.390290962391590313e+01 -1.273002382132116281e+02 -1.295952300613024022e+02 -2.682639221384768007e+02 9.562243472053579296e+01 9.743792238297648112e+01 3.962843313767548636e+01 -3.977663344633785414e+01 -3.471646553216533704e+01 -1.718311046262317632e+02 1.365881558001489111e+02 -1.004451725367421488e+02 1.000447974192825171e+02 -1.488541185593038279e+02 -1.340589080375924524e+01 -5.179635922720019892e+01 -1.115630020941631955e+02 -4.313387307922345570e+01 -1.178389674336383841e+01 -8.671109742146119004e+01 -9.674403562233968046e+01 -1.157005459210583531e+01 6.656956638932511794e+01 -1.165419960206752279e+02 -1.461853667610206564e+01 -6.898115238659926263e+01 -1.229234523511610746e+02 6.100204736205260936e+00 8.888989501900931600e+01 1.549106714648283116e+02 -1.781460512043606315e+01 -4.307724074528674407e+01 -1.162375589481349465e+02 -1.532052414250371726e+02 9.719895208905612094e+01 -6.807915510037631179e+01 7.391490075032490381e+01 8.792423980106956805e+00 2.731519943940130446e+01 6.913149581263751031e+01 -7.941142289757313222e+01 7.745676627393731906e+01 1.079839018573711087e+02 1.476065151540152556e+02 -1.090865869504784342e+02 9.740456154635188568e+01 -4.479201325332023487e+01 -8.507613677278807529e+01 2.011027947317111000e+02 4.606422171284522449e+01 7.821041952951732412e+01 1.980581350469906354e+01 -5.937468815220945118e+01 -3.272951393052713343e+01 -1.971450257736085518e+02 9.899422439407405250e+01 7.632617329637506032e+01 -7.092234458729900837e+01 -6.846507615510792277e+01 1.360277495262889147e+02 9.469381064889532240e+01 4.790565083154521631e+01 7.125014148754918608e+01 -7.308182388236179605e+00 9.667704458338910456e+01 -9.709997382366765351e+01 1.745467188293994809e+02 -3.699447022860503864e+01 -1.143345859709564394e+02 -3.537287637408925178e+01 6.721271175934863606e+01 1.380272117376778169e+02 1.197388360720740685e+01 1.628616326673315200e+02 4.887317194041963120e+01 3.153533288619735586e+01 -1.042700844672211247e+02 4.192455558815498762e+01 -1.170557050323239849e+02 4.473187505606009751e+01 3.608510664908644827e+01 -1.156328062649111388e+02 -7.967886032847199829e+01 3.736977980948648081e+01 8.173748490321022686e+00 -2.171778650175534153e+01 3.927368827198555579e+01 -2.005687802101732231e+01 -5.910552317559253055e+01 -2.466270251001828839e+01 -2.096889922541861040e+01 -3.729671950540695491e+01 1.756477276685960121e+01 -7.548636644569029386e+01 1.114237251753306026e+02 -6.953665961251265060e+01 -3.866509178770489719e+00 6.157291760284191895e+01 3.607030580157540189e+00 1.497757624275207000e+01 1.497567846343329023e+01 -1.096936746968866601e+02 -4.117308328166155995e+00 6.092712151163849654e+01 -2.167899270282305224e+02 -7.955984132854595714e+01 -1.055358071225080892e+02 4.103928067046818740e+01 9.011759580663664337e+01 -8.597966662668471827e+01 -1.572546945333243400e+02 -1.735144155297730038e+02 1.867381932659645827e+01 -1.357072217910113068e+02 -5.934880446075358584e+00 1.381911720926596274e+02 -6.584892624719740795e+00 3.472000235705723270e+01 -9.241783248615530511e+01 7.464487908993862675e+01 -1.107317472725627141e+02 -1.444003590039030094e+01 -2.823996457930066128e+01 5.378229067892041115e+01 -8.208022143568596718e+00 9.857775033972956180e+01 -1.139062331401201504e+02 -4.670978545078126842e+01 8.090081892649415352e+01 6.166218744197189494e+01 -7.667330626128584470e+01 -5.072015437677801941e+01 -4.603031798147831921e+01 -2.695527308821534689e+02 1.802040185248844466e+02 7.076746126866380848e+01 -2.190239356920878322e+01 -2.761547033758365188e+01 3.863134266023008223e+01 -7.815567819158434304e+01 9.247527325865203807e+01 5.625860726587261951e+01 7.604189094544709349e+01 -7.813026066094661815e+01 -2.455146059235171307e+01 3.090872217354572982e+01 1.614059607495437731e+01 -3.982594108959301593e+01 1.467447892095565578e+02 -1.603190080057628109e+01 3.290664152844066592e+01 -2.134569594939882791e+02 -7.855488415856244444e+01 -6.786398697983567274e+01 2.138294005209861481e+01 1.013189462987392915e+02 -2.151716953313783733e+02 -1.735965501622627585e+02 2.056367888130294830e+02 -9.799119294022117899e+00 8.909325178027660286e+01 5.805586943644643583e+01 -5.132287371771035112e+01 -1.215508172196610559e+02 -8.829719328642649145e+01 -4.661061764789901218e+01 -3.468624710679524981e+01 -3.634288599602108150e+01 1.493249945286367364e+01 3.458758632536534350e+01 1.548820732878672857e+02 1.144161823869358727e+02 6.543456034739644878e+00 -4.113636356833058727e+00 -1.472499030223283683e+02 1.110285482810505613e+02 1.477874252055927968e+02 -9.604757295981251275e+01 6.839604901183001573e+01 1.508403672090994130e+00 5.102177156275271841e+01 1.162829558690259262e+02 6.582962590002817649e+01 -1.244203173455095595e+02 1.492720087013928243e+01 -2.727476220920055283e+01 1.034834497757927529e+01 -2.137759653877344945e+01 4.205774198938780017e+01 -2.420458057342886775e+02 1.681480162701889185e+02 6.697069402749778355e+00 1.480001075751526969e+02 -9.732557229618779004e+00 9.855967371437976965e+01 6.652859367928687107e+01 -3.895357224094441762e+01 2.787219724990985625e+01 -6.771865490109739483e+01 -8.275464442498918061e+01 -6.693915084294393125e+01 -2.981181601965588257e+01 4.197933102631344582e+01 1.024139030196804754e+02 2.644274436887152291e+01 5.789025449754003461e+01 -9.753262086888685189e+01 -1.275822608860971883e+02 -1.254459455740995111e+01 4.313148295269983379e+01 -4.221695556444668540e+01 8.808974788495012831e+01 5.173021984366984327e+01 -2.571439518414797831e+01 2.786382551786501693e+01 5.717912584245754459e+01 -6.709604725746048359e+01 -1.244962146682573092e+02 1.322437546468872824e+02 7.271545168857319830e+00 4.669010753064340946e+01 -1.391168225233855651e+02 -4.976782220073087615e+01 -3.796079996184726912e-01 -6.141174815795436359e+01 3.960039893420773005e+00 5.250688522684436066e+01 1.738774557437876922e+02 3.650365653241629360e+01 -1.021526716277987923e+01 6.745781402395856219e+01 -4.240550459988337906e+01 -1.016890131764109100e+02 -1.289423065559236079e+02 8.727696832846893571e+00 2.344144119733369891e+01 2.229075095665850981e+01 -5.312388505588588572e+01 1.128216053570070585e+02 -7.548446789033451410e+01 1.198774795562457030e+02 8.155122434224978178e+01 -6.077458874816253598e+01 -7.928916898328685647e+01 7.874058526343308984e+01 1.903662827785099765e+01 -4.914573532860671179e+01 -5.033518984002378716e+01 1.279806408649720453e+02 5.366860601907607986e+01 7.481825530047551354e+01 2.446873478608136665e+01 -3.931832207080179131e+01 1.004944804120443678e+02 -5.109279804965245120e+01 5.626228086491350533e-01 7.163637080084777153e+01 9.329010652731976450e+01 2.394146325283344936e+02 -1.641890636789830751e+02 1.507566948398815327e+02 -6.325074877671448093e+01 -1.428539132484321605e+01 -2.361342369220306381e+01 -1.943205974525741198e+01 -5.162184970299567510e+01 8.727273065683394293e+01 1.725847361622869585e+02 -1.114042917768548904e+02 2.902730669916483208e+01 -1.191134190145252063e+02 6.590706315493649470e+01 -4.173091116912268461e+01 -7.616311694585051839e+01 -5.068836641530591436e+01 3.874954471404726775e+01 1.818675252590887581e+01 -7.685921408529637233e+01 -1.326546184500843708e+02 1.952647914567194576e+01 1.483328396416733028e+02 1.345102320765095882e+01 1.718212008341168655e+02 7.013327164571760086e+00 1.268395093427218256e+02 -3.257988540840513991e+01 8.557625751997069585e+01 -6.733772087118747152e+01 -1.064571831226181473e+02 4.662534822236715826e+01 -5.469671042188848276e+01 -7.412222675388692039e+01 6.871716237805995320e+01 6.138827859261615671e+00 -8.898236784789368414e+01 -1.422516908331094214e+02 1.397763907776345036e+02 -8.426614484968843044e+01 -2.267389741958507177e+00 1.135605842260995502e+02 5.483090784403833595e+01 -9.291650239717206716e+01 1.010889407695019315e+01 2.668932544033723957e+02 5.041826484225136085e+01 -1.492816100557637640e+02 -4.520662070793500931e+01 -5.820168448653558357e+01 9.092580907376538235e+00 1.019108149301597024e+02 -9.810035185753362441e+01 2.048948149439669209e+01 1.236573231751728770e+02 1.779230860835692951e+01 -2.003386743682986264e+02 4.574531215594981148e+01 7.159690128307120460e+01 -1.291100435381050637e+01 3.108266640386339930e+01 1.965041744008619862e-01 2.145196061732779214e+01 2.631007433151624397e+01 1.099225248946524829e+02 9.305962080808103565e+01 1.490085361490442573e+01 1.413864618397246886e+02 -6.074561857228489004e+01 2.340544774544263760e+02 6.173639106710092506e+01 1.345406800405912691e+02 -2.083508843979621261e+01 8.551007980442207668e+01 -4.635755124651605996e+01 -1.389420249704936339e+02 2.480581263640399925e+01 9.008544542384326803e+01 -8.308118001820261611e+01 -9.943389111581630857e+01 -6.316877977596963945e+01 3.478646909074195293e+01 -1.083609633859606731e+02 7.088706267921914161e+01 2.658921520423696094e+01 -9.266734332965185672e+01 1.802679325108435080e+02 -1.116275833431429376e+01 -9.664780403219931770e+01 -1.276581216672022023e+01 -1.940293450243850160e+01 -1.331097368005608246e+02 -3.797759789794371699e+01 5.841201032595544973e+01 1.251539212815469853e+02 2.759962279756486581e+01 2.536775453257712698e+01 4.252100178862259838e+01 -3.387275970164424166e+01 -1.382851419678876823e+02 1.512803347691060907e+01 2.935329465336477028e+01 1.264224068616542240e+02 -9.344981115229581192e+00 -7.226455437321200748e+01 6.949519924629153422e+01 9.066481653176543531e-01 3.010493476761550724e+01 1.321359527652917336e+02 -1.684608553884528419e+02 -8.818491080354237965e+01 1.184492983071525032e+02 -1.990508691016527791e+02 -1.696839474153555045e+02 8.402631976264949287e+01 1.420878617490901092e+02 5.855266173933826224e+01 -4.155678189752945784e+00 1.436403588181506450e+02 -2.026014504299236023e+02 9.886966571919009539e+01 3.909688244464641116e+01 1.172437648475834209e+02 -1.740070587738855750e+02 9.819104580064258414e+01 -2.599792582913991978e+01 -1.233444324381519550e+02 -4.906832050164964265e+00 -8.522904483870966885e+01 -1.488961292844699180e+01 -4.065450721370004850e+00 -1.136711069091012121e+02 -1.137835884611719450e+02 -5.771740789842398556e+01 -1.189174183717503297e+02 1.854201798399518850e+02 -1.487385672809218704e+02 -4.631368962700039305e+01 1.592054176871714901e+02 3.131419780893229543e+01 -2.731191200217176061e+02 -1.173481626938122560e+02 3.273595161962320788e+01 5.045245604033351583e+01 7.827525726414534368e+00 -1.426038272256735695e+02 3.292429678406180926e+01 6.959366167509655199e+00 -6.858504427510773382e+01 1.870873498367644459e+02 1.868815159796986620e+02 4.027523334537235655e+00 -1.924472254899083055e+02 1.162253011323788456e+02 2.835185634069296157e+01 3.568415688241860284e+00 7.062193747061763816e+01 -1.914672608973319825e+02 -1.273271881811974140e+02 1.300852621501591955e+02 1.011869764687098154e+02 4.878452521743491843e+01 1.320609750105226396e+02 -1.644798107208880538e+02 -1.891138258702669361e+01 -1.202868311722928496e+02 4.035567389673050087e+01 -9.585155452621155803e+01 8.036276619054852688e+01 -3.133769325384727722e+01 1.143057669032648427e+01 1.637342830383076659e+02 2.638940660375775593e+01 -2.431935704348766478e+02 -1.166493903882912235e+02 -7.688595958833879251e+01 1.458878511597443719e+02 1.157545422467358165e+01 -4.978711919502426753e+01 2.792356873983321108e+01 5.762330846007328944e+01 -3.645753050993003797e+01 9.919538723591081464e+01 -9.296674000273998217e+01 4.540868250411706697e+01 1.032837584005141878e+02 -3.284143662301349309e+01 -9.054109052821384296e+01 -1.047304116907182419e+02 1.105056643177376543e+02 -4.586515807525560717e+01 1.813541142576598020e+02 5.278344688473362822e+01 1.023549203808551198e+02 1.703274456305110789e+02 7.889081509453044205e+00 -1.147329507945349434e+02 -1.528748907751709112e+02 -1.053143316484528782e+02 3.925558307536380198e+01
-1.222083986248040688e+01 -4.395517364048094677e+00 9.329205698148292925e+01 -2.064408826029045372e+02 1.400734706193935040e+02 5.718588405278882902e+01 1.371274290775378688e+02 -1.164212291281185543e+02 -2.476036659356938952e+00 -2.166753244734367456e+01 -1.978219310986673634e+02 2.944680045002856161e+01 -1.650033057387512869e+01 1.102422214913445373e+02 -1.127939541382814639e+02 5.562107978927593877e+01 1.128665816878700383e+02 -4.142699263649514307e+01 -4.461611010300265434e+01 -2.425100183908894991e+01 5.565698730829688401e+01 5.678330483731901523e+01 2.924977770814708578e+01 -2.094836581332906178e+02 -4.640080393933458680e+01 8.255308909094807746e+01 8.943291166112853574e+00 -9.379759992643187161e+00 -5.992450961282305144e+01 -1.400704239105717086e+01 6.607970187364323067e+01 -1.310053887960733050e+02 -5.586931264071779424e+01 8.058361565086437750e+00 1.870993261284629341e+02 1.910850091126410746e+02 -2.902801113507506869e+01 5.034850885888121041e+01 -2.187049253494901535e-01 -1.257915269768473792e+02 8.644591069521686677e+01 9.657238289435279910e+01 9.774907223216085583e+01 1.050118746447162899e+01 5.572884314913346770e+01 4.334041813595182902e+01 3.501413747421864997e+01 2.648858487820943708e+01 9.933584739328927071e+01 8.079408620379689410e+01 5.904705541307568240e+01 1.468560732036586387e+02 2.233737274472725289e+02 1.762153066354654811e+02 -5.328749873974518181e+01 4.438517899675151313e+01 -5.786273061666331330e+01 5.076532342961586153e+01 -1.731962299570325001e+02 5.089455377285621296e+01 -1.844130059993164821e+02 -1.520022396776692233e+02 1.167896848661095532e+01 -8.373128514312837112e+00 1.526912578433249905e+02 -1.874145163029906200e+02 6.779981333153138223e+01 2.071183625116134408e+02 -6.717889327760512508e+00 -1.755955034681574887e+02 3.195775946809438395e+01 1.776166410351975742e+02 -5.507152027320640286e+01 -2.402650030962495578e+02 -9.241964243095513609e+01 8.094357668743677792e+00 -2.073365296563891604e+02 2.898287782885959274e+01 -1.617262808218419252e+02 -1.672072884497095799e+02 -5.160671350896923570e+01 1.373531287110862706e+02 6.255411955172735361e+01 9.585923607209821284e+00 -7.999798541369403893e+01 -3.840380478682486398e+01 5.745013165677040945e+01 -2.094176195915719632e+02 4.878494365604825589e+01 -6.752325283926276711e+01 -7.052639693102578633e+01 -1.594858663661258333e+02 5.861256552458779367e+01 8.357454493019359631e+01 -1.464147906187781700e+02 1.559325596597987271e+02 -3.595572952235842479e+01 -1.527223607341792544e+01 7.916636914165255234e+01 1.411228971924190034e+02 1.968102799045440321e+01 1.367136683670138950e+02 -1.674406286349155337e+01 -8.186983569884468181e+01 -1.768493404637467137e+01 9.120850271225191364e+01 4.175335536599108366e+01 9.082872936064579505e+01 8.760839038117148903e+01 -7.719133716227963760e+01 -1.577620129080132187e+02 1.142406325857267717e+02 5.034950037658028066e+01 1.514302363407610841e+01 2.837870994451445128e+01 -6.307226996619807835e+01 8.916071523985687008e+01 8.347911154802783074e+01 -1.280022764567465821e+01 -6.619459535293421482e+01 2.845149208515209693e+01 5.848960706652038155e+00 -5.705868673869985486e+01 1.575577914421640173e+02 -3.033183359982178828e+01 1.129561660318991869e+02 -6.509464106038304010e+01 3.566719756016716047e+01 -3.346801471597220967e+01 8.317191286067624389e+01 2.179480504382815198e+01 1.074154426845988866e+02 -1.078652830848039343e+02 6.910000731699129517e+01 1.147269433689746023e+02 -4.151352665074502113e+01 7.169826105338442446e+00 -1.197780537648624843e+01 1.086428748603893553e+02 3.490613842621201446e+00 1.567135310632860126e+02 -1.314951281793655653e+02 1.084341000090537079e+02 -8.481918215923278126e+01 8.915315896648689886e+01 -1.274895648898700387e+02 2.743693311756218378e+01 2.304474847081721833e+01 1.621570283537617785e+00 3.378849826554450431e+01 4.288968406787375898e+01 -1.147489320822170455e+01 1.022451875924253883e+01 1.006046558865493381e+02 1.184018458681980235e+02 -8.074901548858061062e+01 -5.037750923436011874e+01 4.401645668143362400e+01 1.387985120586360255e+00 -1.275754519726654053e+02 -5.139355519124354288e+01 -3.292587410316442487e+01 4.550540365207798743e+01 -6.098234737975402453e+01 2.131950988768257460e+01 1.494189040992057471e+02 -7.400309616461436235e+01 7.537715391531735065e+01 7.831366110670197145e+01 1.055984107564369623e+01 1.150992102237788970e+02 5.863222353821381461e+01 1.567124279120013455e+02 -3.235168162085782484e+01 1.048706796010979616e+02 5.186508270664143794e+01 -1.497388361386766142e+01 1.905616308367961835e+02 -1.295513175859376531e+02 4.567804786498705738e+01 -1.752328919153835898e+02 -7.862717882233572197e+01 3.837951519705190151e+01 -6.751026828276989988e+01 -1.456155969257269760e+02 1.863948041133740787e+02 -8.021472466232209797e+01 -4.442568012782478348e+01 -4.327850194087193358e+01 1.138917322987805107e+02 1.821919666724212448e+02 6.056689353991529146e+01 1.368259617830723585e+02 2.053750477025176053e+02 -1.466639538218409200e+00 1.523682826933165870e+02 6.632228416461089182e+01 1.781637214433135910e+02 -1.177593686551809071e+02 -1.103839425771412763e+01 5.970265337750438661e+00 1.777168492048760413e+02 -8.497192866388968469e+01 -5.669633207098945604e+01 -4.951525879230446492e+01 -1.254914582666226295e+02 4.381585588080997518e+00 -9.443332638112636346e+01 1.443499844754611274e+02 2.200692700929552714e+01 1.119781889240392836e+01 6.765901193230550348e+01 -4.569881762283013238e+00 1.095493349114394590e+02 -1.487208084664993919e+02 4.253824705626683311e+01 -1.597687649081788663e+02 1.098897083148350902e+02 9.001499151254466824e+01 -6.293257221704529059e+01 4.383839811035519318e+01 2.228715419814489564e+02 -2.854194431278853727e+01 3.896769105486276885e+01 -3.059288642363314636e+01 5.423630936554021531e+01 6.011012681214042885e+01 -5.897125098953811317e+00 9.531528801986986821e+01 9.487154082080444084e+01 -1.813986363176881866e+02 -1.433757597490968294e+02 -1.121703895043651045e+02 -8.792408562249278248e+00 -1.400908338920364997e+02 1.081179156072477525e+02 1.031927961794402648e+02 5.524097148370294263e+01 1.045058379958131312e+01 1.474945160857339204e+02 7.854274053915339948e+01 6.317701956039118727e+01 -9.499266186744959839e+01 1.426761410417077798e+02 -3.402288688914943737e+00 1.023324412633578362e+02 8.259017494963188710e+00 3.436441284055124612e+01 -7.075652684259985392e+01 -8.483767300637754261e+01 6.695309192445661495e+01 -3.648156390485007172e+00 1.366338700934236101e+02 -1.171978035180471167e+01 -2.644243386063259926e+00 4.287043156669801647e+01 2.113063595752254642e+01 1.321836459070330250e+02 1.379400809312399367e+01 3.352487641667998020e+01 -1.445144047588679257e+02 6.146191102551527763e+01 1.248312933686946167e+02 -1.634896921785163570e+01 -2.129107162482184776e+02 7.879232402031007609e+01 1.270652121676971689e+02 1.906356807047803770e+01 1.762515940535269579e+02 -4.084121515118765977e+00 3.990807954647827671e+01 -4.066026771221425662e+01 -1.289663201985526371e+02 5.216447491805719494e+01 -4.417999145306811926e+01 -7.524848436068600677e+01 3.833959920620803530e+01 -1.716997147868818843e+02 6.650607704988381386e+01 1.528468360788612017e+02 -9.401136797630412900e+01 1.607260436920797702e+02 -9.056389540235143443e+01 -5.513490915521040314e+00 -9.816842996467240567e+00 7.117900329512386293e+01 -4.330966715940017764e+01 -9.995122243136300710e+01 -8.223001091355294534e+01 1.352253732272483546e+02 5.481806669811282262e+01 -1.222962189752867346e+02 4.072138354214195566e+00 4.020079598490547568e+01 7.647746386900657001e+01 -3.735448747420362992e+01 5.548911745724546307e+01 -6.388121941069020693e+01 -1.502623379050364463e+02 -3.205059274420046478e+01 1.304843196577517404e+02 -1.050327401496866457e+02 -5.877737062309791760e+00 -1.506693082766021803e+02 -4.550937309149857057e+00 -1.350066696447615300e+02 3.053049478573170816e+01 5.579679426274030618e+01 -4.655035871237588907e+01 -7.616079984622916754e+01 5.229537704157999123e+00 6.881947965572442172e+01 -6.266626284042543205e+01 1.244844865940362695e+02 9.764628860064667037e+01 -1.179769297278617444e+02 -9.748113975339821025e+01 1.248142329259794678e+02 6.584318875403383231e+01 1.387695612065619741e+02 9.218475147648278778e+01 7.488552049314968428e+01 -5.566691510478997884e+01 -7.542132836349799163e+01 -7.108436521769974092e+01 1.886789561180592898e+02 2.830133026221207260e+01 -2.300404463194510640e+01 -6.311383732176097539e+01 -4.595315668247577179e+01 -1.210140649881964805e+02 -1.514018046808450180e+01 -1.612303401298887877e+02 1.148521715390657931e+02 4.219736273938654136e+01 -1.058096111514873172e+02 -4.448704760982844419e+01 1.099743021116902781e+02 -8.896183445688535585e+01 9.447573403813899517e+01 -1.088533221613802908e+02 -1.083190276696615939e+01 -8.772401601632951440e+01 8.246548546224479992e+01 -3.899863638717916103e+01 9.361118384740978016e+00 2.698471739404606495e+01 -1.162781674123434641e+02 1.147223704337820038e+01 4.446116791745605923e+01 -2.046136844929285914e+01 -6.311671604722354090e+01 1.860966038432859762e+02 7.939662643255032037e+01 4.320867413933380874e+01 -2.882542748010337164e+01 7.359549282432084283e+01 1.538805670349268269e+02 -8.461071984615179531e+01 1.923307668177246796e+02 -1.221971187867303570e+02 -1.687869062815949519e+02 1.392549102938076828e+02 -2.147903140809191882e+02 -8.214877989977218409e-01 -2.248382870125810769e+02 -1.402873539971666901e+02 6.590104402482977264e+01 -1.336000764012528066e+02 5.355761659162324406e+01 1.010002641910544128e+02 -1.471091727877338258e+02 -2.757257731546465962e+01 6.924376641844420988e+01 1.228935457592277345e+02 -1.708845806866301018e+02 8.035452410850595584e+01 -8.994393871867839607e+01 -9.012224134645521190e+00 -1.267672641604256611e+01 -7.300788755797873364e+01 -8.284204124688967852e+01 1.664862502003517193e+02 -1.996974618330249740e+01 1.261466928650236241e+00 1.195916414451569807e+02 -7.970273051042660484e+01 -3.162149136507271763e+01 -9.895619116110991342e+01 -4.483018887605993541e+01 4.692991945765618844e+00 5.450741333661225241e+01 -1.241851732932865673e+02 2.181781961859935564e+02 -4.955848091497525587e+01 1.128057861454758353e+02 -4.494574054708778021e+01 1.102513741416903486e+02 1.282581823094739946e+02 4.410072870681879920e+01 1.124217982789462411e+02 -3.983306079448802706e+01 1.289939788052965355e+02 -1.443026879781782270e+02 -6.029361984487390203e+01 -5.805331171808797563e+01 2.363250501190442421e+01 -1.496266409818139493e+02 6.687280530269948997e+01 -2.844785338066465741e+01 -7.620829532223319802e+01 8.257922308137766265e+01 -1.393637795421565215e+02 -8.416268315195475225e+01 -4.861851579652478961e+01 3.048960291791392407e+01 1.196976886454072115e+02 1.077017033082922950e+02 6.367747451422950178e+01 -1.384586089357987548e+00 1.613840483984664047e+02 1.130096591214034305e+02 -8.720396525132457555e+01 -7.198785987488167848e+01 5.058065288512018043e+01 9.125902264550219911e+00 9.036733631167929559e+01 1.538823886346678478e+02 6.513426760913435487e+01 2.261305362351754411e+01 -9.432008895758664835e+01 1.583815381789642913e+02 -1.048078069683725744e+02 -1.523990369220125274e+02 6.062666857217815419e+01 1.028428848038897883e+02 1.814723642418079308e+01 -1.280211421637039564e+02 2.735812959620585261e+01 3.906461307797951577e+01 -3.888874347198802428e-01 1.207059140188153492e+02 9.030124209775623001e+01 1.577897350120273501e+01 7.219021820085610841e+01 -9.844836762724925450e+01 -5.931710728271863076e+00 9.063049011933536292e+01 2.736837506345216298e+01 -5.989346747443168795e+01 1.824829684741888798e+02 2.128892603105822730e+02 -1.154831361482151522e+02 -2.547920413972604692e+01 -1.934587287737681152e+02 -6.645630192708749462e+01 1.440650114583575316e+02 3.047924628265020530e+00 -6.534959960357960540e+01 1.506842660137863561e+02 -5.746906535802031613e+01 -1.478300056833163012e+02 1.256807925111515090e+02 -6.177625661740991347e+01 3.183258502513188404e+01 7.939187703038771815e+01 1.270748124078974506e+01 -2.192130822479355174e+02 3.897870197380843393e+01 -5.730946278146475947e+00 8.294414817638305237e+01 -2.168449706531185583e+01 9.292013321931113978e+01 1.567373025768555372e+01 -7.780304625079688208e+01 -1.885634795510240735e+01 -1.612124831559351321e+02 1.057318152964874400e+02 2.327225621487989926e+01 -3.825536927171814483e+01 -4.761971862227753149e+01 -5.792700353245894718e+01 3.786171023728017815e+01 1.478068552106412596e+02 1.220246807140075589e+02 3.955005473507824831e+01 -1.819812335873865550e+02 -3.568236706606509046e+01 4.031952284396695063e+01 1.078629115268976193e+02 8.012651298720631132e+01 1.417119173062215332e+01 -1.710317277876005448e+02 1.210188199092490464e+02 -2.057281458072939415e+02 -1.892549963571999001e+02 -1.654076040181172269e+00 -6.782144323225789151e+01 -2.223846947438764587e+01 8.009059769113835614e+01 5.141307315052024052e+01 -1.022049829805387446e+02 -1.393122758946423403e+02 1.338790657884703172e+01 1.137277140378995597e+02 1.895696268516774907e+01 -5.214313429043844650e+01 -4.755147380436915938e+01 -1.067648119507570215e+01 1.483867714830520299e+02 2.054705306885392346e+01 -1.627085798460384183e+02 1.202423761033180512e+02 -6.262599411975745056e+01 -3.903884331993408896e+00 1.441721533491912055e+02 -4.890471893821995764e+01 -1.836210338657167895e+01 -1.028479309552469800e+02 -5.604625658789549547e+00 -2.230833225305058320e+01 1.232243718761865807e+02 1.123627218460738675e+02 6.326940003807000323e+01 6.132338664673765294e+01 -1.750440399781097156e+01 1.264669199417570127e+02 -1.056069464758492842e+02 -3.969540893399318371e+00 -8.523787444977018879e+01 1.469814854809476117e+02 6.825479043444266836e+01 4.832661749337290047e+01 7.686996220995055751e+00 -4.993757278848326564e+01 3.217981591395259500e+01 6.258162515682063720e+00 3.498330914710069628e+00 2.253278689290598180e+01 5.594922996918341340e+01 1.593755910016725466e+02 -3.642506098365608835e+01 -4.862382123617399543e+01 6.253101179119011732e+01 1.082482309993890937e+02 -1.200527222532269533e+01 8.611390074072122047e+01 9.752544391227068843e+01 1.973611635753581766e+02 -8.098657658739037402e+01 -1.147840815187333021e+02 -2.682500576536974179e+01 5.822203164680519905e+01 -9.501203567014449902e+00 1.005193670220768780e+02 3.488326480717983458e+01 -1.521791928135793626e+02 4.215061180632064719e+01 -8.370756259942729116e+01 -1.265813291169397985e+02 1.258519361317636651e+02 -7.119177277526020475e+01 5.541681114734660696e+01 1.039294581503021959e+02 -9.253603124231038635e+01 2.202241969194566096e+01 -6.745500939886844094e+01 3.771232011990739608e+01 -1.072828125304791058e+02 5.764302871702029307e+01 5.115710039179683122e+01 3.552824648095970872e+00 7.850158434102070260e+01 -1.428368752078162629e+02 7.136165556875228333e+01 -2.748045048042875393e+01 -1.567733599161028621e+02 8.775114564720956878e+01 2.282178165701650130e+01 -1.819217966729914053e+02 2.183887178809248724e+02 -5.098078441550755180e-01 9.756701005747255806e+01 -1.118930115579772036e+02 -1.801906433704545805e+02 -8.659623154687611191e+01 2.353731143321757813e+00 1.325279998376397828e+02 3.623118403032257184e+00 -8.870153138872767329e+01 4.665387365998669367e+01 1.271583140224997095e+02 6.025071104756640494e+01 -4.795904628166589134e+01 -5.489350599713493750e+01 7.840491126777635600e+01 2.845910298843179831e+01 -1.815380321240145918e+02 -1.923129418795287293e+01 1.568177080824530663e+02 9.161994677237233020e+01 -5.323064094295383342e+01 -1.037411674721190451e+02 -3.958016669479212624e+01 -4.461603909122086264e+01 -1.061896694327568156e+02 -1.704859779490656635e+01 -4.235877027309221177e+01 -1.054326930815849863e+02 -1.224708563162242143e+02 -2.505422513185148148e+01 -1.166416054727676794e+02 -1.242614752319737903e+02 -3.556852360058216078e+01 -5.130499138594963426e+01 -1.030685429446434540e+02 1.789108454379537818e+02 1.010022370847045359e+01 -2.702297483398362843e+01 -1.632204891257422830e+01 7.561001620670759849e+01 1.505484653383878779e+01 2.407145875699688631e+01 -2.035385967001315421e+01 -4.455542126905068301e+01 2.008298484343710655e+01 -1.397499516935029646e+02 -1.529668022860109602e+02 -8.679211146736749072e+01 -1.834133843811648035e+02 -8.609695943345168700e+01 8.236738253181093228e+01 5.900846865046223400e+01 -2.501700949601515944e+01 5.839483013780469634e+01 -1.505214053310411373e+02 -3.936696409995571599e+01 -1.116447675511430617e+02 -6.413739577340581377e+01 2.028455435493168579e+02 -1.972865478590663031e+02 1.972569474487911805e+02 2.394903966316012500e+01 -5.420844963568524832e+01 8.855068056359799300e+01 1.192369738523050700e+02 -4.985768811179475790e+01 -1.958754265259724434e+02 -1.432786641866226205e+02 9.831864677452738022e+01 8.048823204157402245e+01 -1.302554113190095393e+02 3.065789407757102580e+01 -3.817418284964484343e+01 -7.438844746925663287e+01 -2.732434803750839336e+01 -5.265739821474572580e+01 -8.302491305656631937e+01 -3.276789605352308854e+01 4.405145195021032301e+00 -3.132940642014445132e+01 -3.226564578117175341e-01 -1.370721690017701810e+01 8.830538624101387768e+01 1.222066273443788020e+02 1.263395828104756902e+01 1.616587075572302723e+01 -6.073080413767267061e+01 -1.884853059154943935e+02 3.252229677646883488e+01 -8.811787571121548979e+01 2.485236950213617746e+01 -7.738483757868773516e+00 1.067528522093669441e+00 6.967451644998520521e+01 1.171644601394184662e+02 -6.777528382655914641e+01 3.652055914183578977e+01 -1.854760455296802206e+02 9.332049402781651182e+00 6.586154000032205857e+00 -1.178148947352084548e+02 -3.237765833969641704e+01 -4.260583500616660046e+01 4.567310783375955197e+00 -9.825164318863183155e+01 2.599072880340435532e+01 -9.383085966336830097e+01 5.379996624696780572e+01 6.526410072114653360e+01 3.548570860938339422e+01 -2.788205231400503692e+01 1.033310691069122669e+02 5.875478184515615254e+01 7.690516844727929424e+01 -6.442146288384334696e+01 1.941241607632051114e+01 1.228729962201712738e+02 -5.623849384031691301e+01 -6.654869566172826545e+00 3.072651511256317391e+01 -1.234308725074205881e+02 9.395300776108281582e+01 8.606309447889518083e+01 -9.725490347060302554e+01 -7.910261455663695074e+01 -5.337188953720167461e+01 -4.391899370721194629e+01 -1.538434476178898365e+02 -1.305012027803633146e+02 -1.272672345762211137e+02 1.014790387211393607e+02 5.747402889952588367e+01 1.532204065761827394e+02 6.933358068031018284e+00 -8.220987957517787947e+01 1.803909426201335009e+01 1.326772652208605763e+01 -6.107544572330949251e+01 7.107781417988759642e+01 1.133012802645910284e+02 9.520921705902358312e+00 1.375008369272941877e+02 2.155446963736692823e+01 1.064262091058795079e+02 1.442653605645034887e+01 -1.993299249027238034e+02 2.094710627308087396e+02 -4.693489100443395756e+01 -1.429031218848717231e+02 -6.443138648971510918e+01 -4.102495733083605245e+01 3.958662819841098468e+01 2.445022088293538332e+01 4.371012371100793104e+01 -7.064514415632544342e+01 1.167441892959450058e+02 -8.226803142527705859e+01 -6.689337811225286146e+00 1.356810131133897244e+02 1.043594859294695141e+02 5.530945822074122020e+01 -1.685511798669390657e+02 2.420512975359742924e+01 1.335426770337819278e+02 2.226913074843648488e+01 9.277977843862959162e+01 1.011190015132289943e+02 -2.009752675503478088e+02 7.304757544768305877e+01 -5.482409394286253246e+01 -2.134914262194041896e+02 8.394376267484966547e+01 2.326505084917177513e+01 -1.151160628078901169e+02 -5.515914759827860792e+01 1.305141249052749117e+02 1.386750404674549770e+02 -7.124060077567742155e+01 -1.198205855920411977e+02 -7.811242954988603060e+01 -1.551255124175528124e+02 1.830647062302531580e+01 3.547423090058752848e+01 -1.591439663328299758e+01 -1.155500672869970913e+01 -8.343418724068355630e+01 -8.212367363078190863e+01 -2.294831849653547096e+01 1.241440383273155561e+02 1.260445100245749046e+02 7.501383805353222556e+01 8.978094925256041847e+01 -7.243857132554775546e+01 -1.666771755140784705e+02 -1.212456906826966829e+01 -2.124061119107570050e+01 -6.543204916599272281e+01 1.352465427706118106e+00 6.721346124040748293e+01 -4.868072644524669101e+01 2.279835408289111953e+01 7.288740670482873441e+01 6.452810877280292345e+01 1.017651946285864426e+02 -1.372478581337256003e+02 3.646601210405506066e+01 7.667019854627878317e+01 8.720056275310713545e+01 5.431412666392813549e+01 -9.499671105846928754e+01 1.259881709615300025e+02 1.173420531336780073e+02 8.822265513849124829e+01 9.344617004692776163e+01 -7.747734704439965014e+01 -1.366027227923948217e+01 -1.193959758596862919e+01 7.087084822013396490e+01 5.979851911503754991e+01 5.159913294298968367e+01 8.975709393071520026e+01 1.072480601842781738e+02 1.141429416014516534e+02 -5.959937674718111111e+01 7.420073486009648889e+01 6.001005767734806540e+01 -1.082870210213262681e+02 1.211216198070928129e+02 -9.210213423470197114e+00 -2.571928313393925336e+01 1.835400864459367369e+02 8.154065289912180958e+01 1.143568757843240604e+02 -1.330140658943539620e+02 -1.454256889788799469e+02 -1.415653745091678104e+02 -1.125717330747520890e+02 -4.082675833714468894e+01 1.011636453209353732e+02 -1.555949144663951529e+02 2.995938278447584580e+01 1.331804440050670735e+02 -5.479491187010631847e+01 -8.430217930192765152e+01 -3.246143368223631853e+01 1.254196191157303986e+02 2.098985382262755763e+02 -6.167374538624059710e+01 1.832689727644776667e+01 -2.555638438302525017e+01 6.331690120019511880e+01 5.565694198987640817e+01 -1.971551086258787109e+02 -8.200452239712713265e+01 1.272717333818208374e+02 1.292980351348868737e+02 8.744976315198626082e+01 -4.614747728319365905e+01 -7.010488017929483817e+01 -4.195821670493722877e+01 -1.634743715621461604e+02 6.581236393357792736e+01 -2.371825668080477811e+01 1.540088062693353947e+02 -2.588932744339792080e+01 -2.913739732481308238e+02 1.341328197953041297e+02 4.643390578868174146e+01 -1.092080923239629584e+02 -2.058189937709976292e+01 3.268162968735554585e+01 -1.924008068934350604e+02 -1.058214874105586887e+02 -1.016269160603244899e+02 -5.219897764260001338e+01 5.814135415168284737e+01 -1.527755502732680384e+02 9.992810989203654515e+01 -5.034273504104948671e+01 2.730638084589259051e+00 -1.236404997659809339e+02 -9.614997184996475710e+01 1.629624632814827976e+02 8.033271411912758708e+01 -3.914285151796458706e+01 3.440134336629530054e+01 -2.598427047886617203e+01 4.022015449946222532e+01 -9.700324150327918460e+01 9.180145815435723478e+01 4.679735812674049811e+01 -1.102360832440976708e+02 1.082539320899042110e+02 -4.550887309278207482e+01 9.263357546168542456e+01 -4.579658408596669972e+01 8.193348568951293487e+01 -1.422515490886077032e+02 1.324149743819430967e+02 2.295654361022901568e+01 9.340758063926347177e+01 1.210155837104504002e+02 -1.360824773887964625e+02 -7.971648680933704156e+01 -9.802917185386830567e+01 6.203573919639713097e+01 -1.590262142567790136e+02 1.407149536755172221e+02 1.320754840854260408e+02 4.915499865525094947e+01 -7.880472463843939579e+01 5.298499212897473853e+01 -9.968329263463083123e+01 -1.011303439061403964e+01 3.244225259318486820e+01 -1.705828379516092923e+02 -7.569797941966264432e+01 -1.256519741666344991e+01 9.485402521272750676e+01 -4.664519211151999656e+01 1.010405306328782586e+02 -5.971433705088772825e+01 -1.957418015686581612e+02 -9.946452572367546452e+01 -3.156017037093963040e+01 -5.588606719127706413e+01 2.793129090337874132e+01 4.782640561950604052e+01 5.869583672785837258e+00 2.367998444763772881e+01 -1.091383175367090388e+02 5.014061011310010230e+01 3.035072387616984102e+01 -6.704495996730611296e+01 8.657493787876388680e+00 5.250233699966989320e+01 -8.871375271657628048e+01 -5.127433051080816284e+01 -2.252169928508715913e+01 9.074301830568482785e+01 -1.594263725467319404e+01 3.906988852673220602e+00 -2.123631953027757504e+02 -8.840603688308597441e+01 9.210345164827946007e+01 -8.291879206623680432e+01 2.916042515259903922e+01 2.889864079574812195e+01 3.524137681058374483e+01 6.150755306262664845e+01 -1.651993441449413638e+02 1.340682326369862665e+02 7.600473771178887716e+01 -7.046794446505181497e+00 -7.523201546026734832e+01 1.041030255815937693e+02 5.782828880025784457e+01 -1.873312886723184931e+02 -4.689369859917500349e+01 -7.612382058631673942e+01 -4.820191997651258475e+01 -5.761387822396257974e+01 -9.214990668561461007e+01 -5.619709051821101298e+01 1.784251323580097619e+02 -1.589782939291417563e+02 6.095347443041127633e+01 2.584813750498963358e+01 -7.005158443396334178e+01 9.702421406624219813e+00 -3.675892994872944541e+01 3.216348913555314493e+00 -8.959087942285971451e+01 -1.840788365242023872e+02 1.713927392503443770e+01 3.900683281333808594e+01 -1.191524386416795167e+01 -8.284234895136510346e+00 -3.705600052984629400e+01 -1.768872698045524317e+02 -2.851753341671954800e+01 -6.087704257969814847e+01 1.294922448749088417e+01 -1.455808928390111134e+01 8.445868313982180098e+01 -5.874163421305926391e+01 -9.659315971852007010e+01 -3.320796780927827996e+01 -8.326566286025801844e+00 4.226779022674925557e+01 -2.058281425886186256e+01 -6.887936408103998076e+01 -1.481029333370736722e+01 1.865129844999865938e+01 4.426645838578399861e+01 -1.061939329883300189e+02 -1.295493372124092275e+02 2.147044900896507329e+02 -2.034778936618177170e+02 -7.073689087856355684e+01 -4.314547570717397207e+01 1.303369528175088590e+02 5.897318554901438148e+01 2.134760349837759463e+02 2.281853933511471269e+02 -5.816663511877197834e+01 1.206372272011916493e+02 -5.232395498012562030e+01 -3.807096350905479198e+01 -9.376439136131938312e+01 -7.442482051165409018e+01 -6.479681600845131584e+01 -8.302983035185631877e+01 -2.272935745892853845e+02 -2.524673529709872923e+02 1.255376537421039131e+02 -2.476160623037783637e+01 4.967266781182799917e+01 1.221124597786225934e+02
