# 
#                 ----------------------------------------------------
#                 Data from a 3D direct N-body simulation. 
# 
#                 rows are i-particle; 
#                 coumns are :mass, tag, x ,y, z, vx, vy, vz, ax, ay, az
# 
#                 NTHU, Computational Physics Lab
# 
#                 ----------------------------------------------------
#                 Time = 9.299999999999846
1.000000000000000000e+00 2.000000000000000000e+00 3.000000000000000000e+00 4.000000000000000000e+00 5.000000000000000000e+00 6.000000000000000000e+00 7.000000000000000000e+00 8.000000000000000000e+00 9.000000000000000000e+00 1.000000000000000000e+01 1.100000000000000000e+01 1.200000000000000000e+01 1.300000000000000000e+01 1.400000000000000000e+01 1.500000000000000000e+01 1.600000000000000000e+01 1.700000000000000000e+01 1.800000000000000000e+01 1.900000000000000000e+01 2.000000000000000000e+01 2.100000000000000000e+01 2.200000000000000000e+01 2.300000000000000000e+01 2.400000000000000000e+01 2.500000000000000000e+01 2.600000000000000000e+01 2.700000000000000000e+01 2.800000000000000000e+01 2.900000000000000000e+01 3.000000000000000000e+01 3.100000000000000000e+01 3.200000000000000000e+01 3.300000000000000000e+01 3.400000000000000000e+01 3.500000000000000000e+01 3.600000000000000000e+01 3.700000000000000000e+01 3.800000000000000000e+01 3.900000000000000000e+01 4.000000000000000000e+01 4.100000000000000000e+01 4.200000000000000000e+01 4.300000000000000000e+01 4.400000000000000000e+01 4.500000000000000000e+01 4.600000000000000000e+01 4.700000000000000000e+01 4.800000000000000000e+01 4.900000000000000000e+01 5.000000000000000000e+01 5.100000000000000000e+01 5.200000000000000000e+01 5.300000000000000000e+01 5.400000000000000000e+01 5.500000000000000000e+01 5.600000000000000000e+01 5.700000000000000000e+01 5.800000000000000000e+01 5.900000000000000000e+01 6.000000000000000000e+01 6.100000000000000000e+01 6.200000000000000000e+01 6.300000000000000000e+01 6.400000000000000000e+01 6.500000000000000000e+01 6.600000000000000000e+01 6.700000000000000000e+01 6.800000000000000000e+01 6.900000000000000000e+01 7.000000000000000000e+01 7.100000000000000000e+01 7.200000000000000000e+01 7.300000000000000000e+01 7.400000000000000000e+01 7.500000000000000000e+01 7.600000000000000000e+01 7.700000000000000000e+01 7.800000000000000000e+01 7.900000000000000000e+01 8.000000000000000000e+01 8.100000000000000000e+01 8.200000000000000000e+01 8.300000000000000000e+01 8.400000000000000000e+01 8.500000000000000000e+01 8.600000000000000000e+01 8.700000000000000000e+01 8.800000000000000000e+01 8.900000000000000000e+01 9.000000000000000000e+01 9.100000000000000000e+01 9.200000000000000000e+01 9.300000000000000000e+01 9.400000000000000000e+01 9.500000000000000000e+01 9.600000000000000000e+01 9.700000000000000000e+01 9.800000000000000000e+01 9.900000000000000000e+01 1.000000000000000000e+02 1.010000000000000000e+02 1.020000000000000000e+02 1.030000000000000000e+02 1.040000000000000000e+02 1.050000000000000000e+02 1.060000000000000000e+02 1.070000000000000000e+02 1.080000000000000000e+02 1.090000000000000000e+02 1.100000000000000000e+02 1.110000000000000000e+02 1.120000000000000000e+02 1.130000000000000000e+02 1.140000000000000000e+02 1.150000000000000000e+02 1.160000000000000000e+02 1.170000000000000000e+02 1.180000000000000000e+02 1.190000000000000000e+02 1.200000000000000000e+02 1.210000000000000000e+02 1.220000000000000000e+02 1.230000000000000000e+02 1.240000000000000000e+02 1.250000000000000000e+02 1.260000000000000000e+02 1.270000000000000000e+02 1.280000000000000000e+02 1.290000000000000000e+02 1.300000000000000000e+02 1.310000000000000000e+02 1.320000000000000000e+02 1.330000000000000000e+02 1.340000000000000000e+02 1.350000000000000000e+02 1.360000000000000000e+02 1.370000000000000000e+02 1.380000000000000000e+02 1.390000000000000000e+02 1.400000000000000000e+02 1.410000000000000000e+02 1.420000000000000000e+02 1.430000000000000000e+02 1.440000000000000000e+02 1.450000000000000000e+02 1.460000000000000000e+02 1.470000000000000000e+02 1.480000000000000000e+02 1.490000000000000000e+02 1.500000000000000000e+02 1.510000000000000000e+02 1.520000000000000000e+02 1.530000000000000000e+02 1.540000000000000000e+02 1.550000000000000000e+02 1.560000000000000000e+02 1.570000000000000000e+02 1.580000000000000000e+02 1.590000000000000000e+02 1.600000000000000000e+02 1.610000000000000000e+02 1.620000000000000000e+02 1.630000000000000000e+02 1.640000000000000000e+02 1.650000000000000000e+02 1.660000000000000000e+02 1.670000000000000000e+02 1.680000000000000000e+02 1.690000000000000000e+02 1.700000000000000000e+02 1.710000000000000000e+02 1.720000000000000000e+02 1.730000000000000000e+02 1.740000000000000000e+02 1.750000000000000000e+02 1.760000000000000000e+02 1.770000000000000000e+02 1.780000000000000000e+02 1.790000000000000000e+02 1.800000000000000000e+02 1.810000000000000000e+02 1.820000000000000000e+02 1.830000000000000000e+02 1.840000000000000000e+02 1.850000000000000000e+02 1.860000000000000000e+02 1.870000000000000000e+02 1.880000000000000000e+02 1.890000000000000000e+02 1.900000000000000000e+02 1.910000000000000000e+02 1.920000000000000000e+02 1.930000000000000000e+02 1.940000000000000000e+02 1.950000000000000000e+02 1.960000000000000000e+02 1.970000000000000000e+02 1.980000000000000000e+02 1.990000000000000000e+02 2.000000000000000000e+02 2.010000000000000000e+02 2.020000000000000000e+02 2.030000000000000000e+02 2.040000000000000000e+02 2.050000000000000000e+02 2.060000000000000000e+02 2.070000000000000000e+02 2.080000000000000000e+02 2.090000000000000000e+02 2.100000000000000000e+02 2.110000000000000000e+02 2.120000000000000000e+02 2.130000000000000000e+02 2.140000000000000000e+02 2.150000000000000000e+02 2.160000000000000000e+02 2.170000000000000000e+02 2.180000000000000000e+02 2.190000000000000000e+02 2.200000000000000000e+02 2.210000000000000000e+02 2.220000000000000000e+02 2.230000000000000000e+02 2.240000000000000000e+02 2.250000000000000000e+02 2.260000000000000000e+02 2.270000000000000000e+02 2.280000000000000000e+02 2.290000000000000000e+02 2.300000000000000000e+02 2.310000000000000000e+02 2.320000000000000000e+02 2.330000000000000000e+02 2.340000000000000000e+02 2.350000000000000000e+02 2.360000000000000000e+02 2.370000000000000000e+02 2.380000000000000000e+02 2.390000000000000000e+02 2.400000000000000000e+02 2.410000000000000000e+02 2.420000000000000000e+02 2.430000000000000000e+02 2.440000000000000000e+02 2.450000000000000000e+02 2.460000000000000000e+02 2.470000000000000000e+02 2.480000000000000000e+02 2.490000000000000000e+02 2.500000000000000000e+02 2.510000000000000000e+02 2.520000000000000000e+02 2.530000000000000000e+02 2.540000000000000000e+02 2.550000000000000000e+02 2.560000000000000000e+02 2.570000000000000000e+02 2.580000000000000000e+02 2.590000000000000000e+02 2.600000000000000000e+02 2.610000000000000000e+02 2.620000000000000000e+02 2.630000000000000000e+02 2.640000000000000000e+02 2.650000000000000000e+02 2.660000000000000000e+02 2.670000000000000000e+02 2.680000000000000000e+02 2.690000000000000000e+02 2.700000000000000000e+02 2.710000000000000000e+02 2.720000000000000000e+02 2.730000000000000000e+02 2.740000000000000000e+02 2.750000000000000000e+02 2.760000000000000000e+02 2.770000000000000000e+02 2.780000000000000000e+02 2.790000000000000000e+02 2.800000000000000000e+02 2.810000000000000000e+02 2.820000000000000000e+02 2.830000000000000000e+02 2.840000000000000000e+02 2.850000000000000000e+02 2.860000000000000000e+02 2.870000000000000000e+02 2.880000000000000000e+02 2.890000000000000000e+02 2.900000000000000000e+02 2.910000000000000000e+02 2.920000000000000000e+02 2.930000000000000000e+02 2.940000000000000000e+02 2.950000000000000000e+02 2.960000000000000000e+02 2.970000000000000000e+02 2.980000000000000000e+02 2.990000000000000000e+02 3.000000000000000000e+02 3.010000000000000000e+02 3.020000000000000000e+02 3.030000000000000000e+02 3.040000000000000000e+02 3.050000000000000000e+02 3.060000000000000000e+02 3.070000000000000000e+02 3.080000000000000000e+02 3.090000000000000000e+02 3.100000000000000000e+02 3.110000000000000000e+02 3.120000000000000000e+02 3.130000000000000000e+02 3.140000000000000000e+02 3.150000000000000000e+02 3.160000000000000000e+02 3.170000000000000000e+02 3.180000000000000000e+02 3.190000000000000000e+02 3.200000000000000000e+02 3.210000000000000000e+02 3.220000000000000000e+02 3.230000000000000000e+02 3.240000000000000000e+02 3.250000000000000000e+02 3.260000000000000000e+02 3.270000000000000000e+02 3.280000000000000000e+02 3.290000000000000000e+02 3.300000000000000000e+02 3.310000000000000000e+02 3.320000000000000000e+02 3.330000000000000000e+02 3.340000000000000000e+02 3.350000000000000000e+02 3.360000000000000000e+02 3.370000000000000000e+02 3.380000000000000000e+02 3.390000000000000000e+02 3.400000000000000000e+02 3.410000000000000000e+02 3.420000000000000000e+02 3.430000000000000000e+02 3.440000000000000000e+02 3.450000000000000000e+02 3.460000000000000000e+02 3.470000000000000000e+02 3.480000000000000000e+02 3.490000000000000000e+02 3.500000000000000000e+02 3.510000000000000000e+02 3.520000000000000000e+02 3.530000000000000000e+02 3.540000000000000000e+02 3.550000000000000000e+02 3.560000000000000000e+02 3.570000000000000000e+02 3.580000000000000000e+02 3.590000000000000000e+02 3.600000000000000000e+02 3.610000000000000000e+02 3.620000000000000000e+02 3.630000000000000000e+02 3.640000000000000000e+02 3.650000000000000000e+02 3.660000000000000000e+02 3.670000000000000000e+02 3.680000000000000000e+02 3.690000000000000000e+02 3.700000000000000000e+02 3.710000000000000000e+02 3.720000000000000000e+02 3.730000000000000000e+02 3.740000000000000000e+02 3.750000000000000000e+02 3.760000000000000000e+02 3.770000000000000000e+02 3.780000000000000000e+02 3.790000000000000000e+02 3.800000000000000000e+02 3.810000000000000000e+02 3.820000000000000000e+02 3.830000000000000000e+02 3.840000000000000000e+02 3.850000000000000000e+02 3.860000000000000000e+02 3.870000000000000000e+02 3.880000000000000000e+02 3.890000000000000000e+02 3.900000000000000000e+02 3.910000000000000000e+02 3.920000000000000000e+02 3.930000000000000000e+02 3.940000000000000000e+02 3.950000000000000000e+02 3.960000000000000000e+02 3.970000000000000000e+02 3.980000000000000000e+02 3.990000000000000000e+02 4.000000000000000000e+02 4.010000000000000000e+02 4.020000000000000000e+02 4.030000000000000000e+02 4.040000000000000000e+02 4.050000000000000000e+02 4.060000000000000000e+02 4.070000000000000000e+02 4.080000000000000000e+02 4.090000000000000000e+02 4.100000000000000000e+02 4.110000000000000000e+02 4.120000000000000000e+02 4.130000000000000000e+02 4.140000000000000000e+02 4.150000000000000000e+02 4.160000000000000000e+02 4.170000000000000000e+02 4.180000000000000000e+02 4.190000000000000000e+02 4.200000000000000000e+02 4.210000000000000000e+02 4.220000000000000000e+02 4.230000000000000000e+02 4.240000000000000000e+02 4.250000000000000000e+02 4.260000000000000000e+02 4.270000000000000000e+02 4.280000000000000000e+02 4.290000000000000000e+02 4.300000000000000000e+02 4.310000000000000000e+02 4.320000000000000000e+02 4.330000000000000000e+02 4.340000000000000000e+02 4.350000000000000000e+02 4.360000000000000000e+02 4.370000000000000000e+02 4.380000000000000000e+02 4.390000000000000000e+02 4.400000000000000000e+02 4.410000000000000000e+02 4.420000000000000000e+02 4.430000000000000000e+02 4.440000000000000000e+02 4.450000000000000000e+02 4.460000000000000000e+02 4.470000000000000000e+02 4.480000000000000000e+02 4.490000000000000000e+02 4.500000000000000000e+02 4.510000000000000000e+02 4.520000000000000000e+02 4.530000000000000000e+02 4.540000000000000000e+02 4.550000000000000000e+02 4.560000000000000000e+02 4.570000000000000000e+02 4.580000000000000000e+02 4.590000000000000000e+02 4.600000000000000000e+02 4.610000000000000000e+02 4.620000000000000000e+02 4.630000000000000000e+02 4.640000000000000000e+02 4.650000000000000000e+02 4.660000000000000000e+02 4.670000000000000000e+02 4.680000000000000000e+02 4.690000000000000000e+02 4.700000000000000000e+02 4.710000000000000000e+02 4.720000000000000000e+02 4.730000000000000000e+02 4.740000000000000000e+02 4.750000000000000000e+02 4.760000000000000000e+02 4.770000000000000000e+02 4.780000000000000000e+02 4.790000000000000000e+02 4.800000000000000000e+02 4.810000000000000000e+02 4.820000000000000000e+02 4.830000000000000000e+02 4.840000000000000000e+02 4.850000000000000000e+02 4.860000000000000000e+02 4.870000000000000000e+02 4.880000000000000000e+02 4.890000000000000000e+02 4.900000000000000000e+02 4.910000000000000000e+02 4.920000000000000000e+02 4.930000000000000000e+02 4.940000000000000000e+02 4.950000000000000000e+02 4.960000000000000000e+02 4.970000000000000000e+02 4.980000000000000000e+02 4.990000000000000000e+02 5.000000000000000000e+02 5.010000000000000000e+02 5.020000000000000000e+02 5.030000000000000000e+02 5.040000000000000000e+02 5.050000000000000000e+02 5.060000000000000000e+02 5.070000000000000000e+02 5.080000000000000000e+02 5.090000000000000000e+02 5.100000000000000000e+02 5.110000000000000000e+02 5.120000000000000000e+02 5.130000000000000000e+02 5.140000000000000000e+02 5.150000000000000000e+02 5.160000000000000000e+02 5.170000000000000000e+02 5.180000000000000000e+02 5.190000000000000000e+02 5.200000000000000000e+02 5.210000000000000000e+02 5.220000000000000000e+02 5.230000000000000000e+02 5.240000000000000000e+02 5.250000000000000000e+02 5.260000000000000000e+02 5.270000000000000000e+02 5.280000000000000000e+02 5.290000000000000000e+02 5.300000000000000000e+02 5.310000000000000000e+02 5.320000000000000000e+02 5.330000000000000000e+02 5.340000000000000000e+02 5.350000000000000000e+02 5.360000000000000000e+02 5.370000000000000000e+02 5.380000000000000000e+02 5.390000000000000000e+02 5.400000000000000000e+02 5.410000000000000000e+02 5.420000000000000000e+02 5.430000000000000000e+02 5.440000000000000000e+02 5.450000000000000000e+02 5.460000000000000000e+02 5.470000000000000000e+02 5.480000000000000000e+02 5.490000000000000000e+02 5.500000000000000000e+02 5.510000000000000000e+02 5.520000000000000000e+02 5.530000000000000000e+02 5.540000000000000000e+02 5.550000000000000000e+02 5.560000000000000000e+02 5.570000000000000000e+02 5.580000000000000000e+02 5.590000000000000000e+02 5.600000000000000000e+02 5.610000000000000000e+02 5.620000000000000000e+02 5.630000000000000000e+02 5.640000000000000000e+02 5.650000000000000000e+02 5.660000000000000000e+02 5.670000000000000000e+02 5.680000000000000000e+02 5.690000000000000000e+02 5.700000000000000000e+02 5.710000000000000000e+02 5.720000000000000000e+02 5.730000000000000000e+02 5.740000000000000000e+02 5.750000000000000000e+02 5.760000000000000000e+02 5.770000000000000000e+02 5.780000000000000000e+02 5.790000000000000000e+02 5.800000000000000000e+02 5.810000000000000000e+02 5.820000000000000000e+02 5.830000000000000000e+02 5.840000000000000000e+02 5.850000000000000000e+02 5.860000000000000000e+02 5.870000000000000000e+02 5.880000000000000000e+02 5.890000000000000000e+02 5.900000000000000000e+02 5.910000000000000000e+02 5.920000000000000000e+02 5.930000000000000000e+02 5.940000000000000000e+02 5.950000000000000000e+02 5.960000000000000000e+02 5.970000000000000000e+02 5.980000000000000000e+02 5.990000000000000000e+02 6.000000000000000000e+02 6.010000000000000000e+02 6.020000000000000000e+02 6.030000000000000000e+02 6.040000000000000000e+02 6.050000000000000000e+02 6.060000000000000000e+02 6.070000000000000000e+02 6.080000000000000000e+02 6.090000000000000000e+02 6.100000000000000000e+02 6.110000000000000000e+02 6.120000000000000000e+02 6.130000000000000000e+02 6.140000000000000000e+02 6.150000000000000000e+02 6.160000000000000000e+02 6.170000000000000000e+02 6.180000000000000000e+02 6.190000000000000000e+02 6.200000000000000000e+02 6.210000000000000000e+02 6.220000000000000000e+02 6.230000000000000000e+02 6.240000000000000000e+02 6.250000000000000000e+02 6.260000000000000000e+02 6.270000000000000000e+02 6.280000000000000000e+02 6.290000000000000000e+02 6.300000000000000000e+02 6.310000000000000000e+02 6.320000000000000000e+02 6.330000000000000000e+02 6.340000000000000000e+02 6.350000000000000000e+02 6.360000000000000000e+02 6.370000000000000000e+02 6.380000000000000000e+02 6.390000000000000000e+02 6.400000000000000000e+02 6.410000000000000000e+02 6.420000000000000000e+02 6.430000000000000000e+02 6.440000000000000000e+02 6.450000000000000000e+02 6.460000000000000000e+02 6.470000000000000000e+02 6.480000000000000000e+02 6.490000000000000000e+02 6.500000000000000000e+02 6.510000000000000000e+02 6.520000000000000000e+02 6.530000000000000000e+02 6.540000000000000000e+02 6.550000000000000000e+02 6.560000000000000000e+02 6.570000000000000000e+02 6.580000000000000000e+02 6.590000000000000000e+02 6.600000000000000000e+02 6.610000000000000000e+02 6.620000000000000000e+02 6.630000000000000000e+02 6.640000000000000000e+02 6.650000000000000000e+02 6.660000000000000000e+02 6.670000000000000000e+02 6.680000000000000000e+02 6.690000000000000000e+02 6.700000000000000000e+02 6.710000000000000000e+02 6.720000000000000000e+02 6.730000000000000000e+02 6.740000000000000000e+02 6.750000000000000000e+02 6.760000000000000000e+02 6.770000000000000000e+02 6.780000000000000000e+02 6.790000000000000000e+02 6.800000000000000000e+02 6.810000000000000000e+02 6.820000000000000000e+02 6.830000000000000000e+02 6.840000000000000000e+02 6.850000000000000000e+02 6.860000000000000000e+02 6.870000000000000000e+02 6.880000000000000000e+02 6.890000000000000000e+02 6.900000000000000000e+02 6.910000000000000000e+02 6.920000000000000000e+02 6.930000000000000000e+02 6.940000000000000000e+02 6.950000000000000000e+02 6.960000000000000000e+02 6.970000000000000000e+02 6.980000000000000000e+02 6.990000000000000000e+02 7.000000000000000000e+02 7.010000000000000000e+02 7.020000000000000000e+02 7.030000000000000000e+02 7.040000000000000000e+02 7.050000000000000000e+02 7.060000000000000000e+02 7.070000000000000000e+02 7.080000000000000000e+02 7.090000000000000000e+02 7.100000000000000000e+02 7.110000000000000000e+02 7.120000000000000000e+02 7.130000000000000000e+02 7.140000000000000000e+02 7.150000000000000000e+02 7.160000000000000000e+02 7.170000000000000000e+02 7.180000000000000000e+02 7.190000000000000000e+02 7.200000000000000000e+02 7.210000000000000000e+02 7.220000000000000000e+02 7.230000000000000000e+02 7.240000000000000000e+02 7.250000000000000000e+02 7.260000000000000000e+02 7.270000000000000000e+02 7.280000000000000000e+02 7.290000000000000000e+02 7.300000000000000000e+02 7.310000000000000000e+02 7.320000000000000000e+02 7.330000000000000000e+02 7.340000000000000000e+02 7.350000000000000000e+02 7.360000000000000000e+02 7.370000000000000000e+02 7.380000000000000000e+02 7.390000000000000000e+02 7.400000000000000000e+02 7.410000000000000000e+02 7.420000000000000000e+02 7.430000000000000000e+02 7.440000000000000000e+02 7.450000000000000000e+02 7.460000000000000000e+02 7.470000000000000000e+02 7.480000000000000000e+02 7.490000000000000000e+02 7.500000000000000000e+02 7.510000000000000000e+02 7.520000000000000000e+02 7.530000000000000000e+02 7.540000000000000000e+02 7.550000000000000000e+02 7.560000000000000000e+02 7.570000000000000000e+02 7.580000000000000000e+02 7.590000000000000000e+02 7.600000000000000000e+02 7.610000000000000000e+02 7.620000000000000000e+02 7.630000000000000000e+02 7.640000000000000000e+02 7.650000000000000000e+02 7.660000000000000000e+02 7.670000000000000000e+02 7.680000000000000000e+02 7.690000000000000000e+02 7.700000000000000000e+02 7.710000000000000000e+02 7.720000000000000000e+02 7.730000000000000000e+02 7.740000000000000000e+02 7.750000000000000000e+02 7.760000000000000000e+02 7.770000000000000000e+02 7.780000000000000000e+02 7.790000000000000000e+02 7.800000000000000000e+02 7.810000000000000000e+02 7.820000000000000000e+02 7.830000000000000000e+02 7.840000000000000000e+02 7.850000000000000000e+02 7.860000000000000000e+02 7.870000000000000000e+02 7.880000000000000000e+02 7.890000000000000000e+02 7.900000000000000000e+02 7.910000000000000000e+02 7.920000000000000000e+02 7.930000000000000000e+02 7.940000000000000000e+02 7.950000000000000000e+02 7.960000000000000000e+02 7.970000000000000000e+02 7.980000000000000000e+02 7.990000000000000000e+02 8.000000000000000000e+02 8.010000000000000000e+02 8.020000000000000000e+02 8.030000000000000000e+02 8.040000000000000000e+02 8.050000000000000000e+02 8.060000000000000000e+02 8.070000000000000000e+02 8.080000000000000000e+02 8.090000000000000000e+02 8.100000000000000000e+02 8.110000000000000000e+02 8.120000000000000000e+02 8.130000000000000000e+02 8.140000000000000000e+02 8.150000000000000000e+02 8.160000000000000000e+02 8.170000000000000000e+02 8.180000000000000000e+02 8.190000000000000000e+02 8.200000000000000000e+02 8.210000000000000000e+02 8.220000000000000000e+02 8.230000000000000000e+02 8.240000000000000000e+02 8.250000000000000000e+02 8.260000000000000000e+02 8.270000000000000000e+02 8.280000000000000000e+02 8.290000000000000000e+02 8.300000000000000000e+02 8.310000000000000000e+02 8.320000000000000000e+02 8.330000000000000000e+02 8.340000000000000000e+02 8.350000000000000000e+02 8.360000000000000000e+02 8.370000000000000000e+02 8.380000000000000000e+02 8.390000000000000000e+02 8.400000000000000000e+02 8.410000000000000000e+02 8.420000000000000000e+02 8.430000000000000000e+02 8.440000000000000000e+02 8.450000000000000000e+02 8.460000000000000000e+02 8.470000000000000000e+02 8.480000000000000000e+02 8.490000000000000000e+02 8.500000000000000000e+02 8.510000000000000000e+02 8.520000000000000000e+02 8.530000000000000000e+02 8.540000000000000000e+02 8.550000000000000000e+02 8.560000000000000000e+02 8.570000000000000000e+02 8.580000000000000000e+02 8.590000000000000000e+02 8.600000000000000000e+02 8.610000000000000000e+02 8.620000000000000000e+02 8.630000000000000000e+02 8.640000000000000000e+02 8.650000000000000000e+02 8.660000000000000000e+02 8.670000000000000000e+02 8.680000000000000000e+02 8.690000000000000000e+02 8.700000000000000000e+02 8.710000000000000000e+02 8.720000000000000000e+02 8.730000000000000000e+02 8.740000000000000000e+02 8.750000000000000000e+02 8.760000000000000000e+02 8.770000000000000000e+02 8.780000000000000000e+02 8.790000000000000000e+02 8.800000000000000000e+02 8.810000000000000000e+02 8.820000000000000000e+02 8.830000000000000000e+02 8.840000000000000000e+02 8.850000000000000000e+02 8.860000000000000000e+02 8.870000000000000000e+02 8.880000000000000000e+02 8.890000000000000000e+02 8.900000000000000000e+02 8.910000000000000000e+02 8.920000000000000000e+02 8.930000000000000000e+02 8.940000000000000000e+02 8.950000000000000000e+02 8.960000000000000000e+02 8.970000000000000000e+02 8.980000000000000000e+02 8.990000000000000000e+02 9.000000000000000000e+02 9.010000000000000000e+02 9.020000000000000000e+02 9.030000000000000000e+02 9.040000000000000000e+02 9.050000000000000000e+02 9.060000000000000000e+02 9.070000000000000000e+02 9.080000000000000000e+02 9.090000000000000000e+02 9.100000000000000000e+02 9.110000000000000000e+02 9.120000000000000000e+02 9.130000000000000000e+02 9.140000000000000000e+02 9.150000000000000000e+02 9.160000000000000000e+02 9.170000000000000000e+02 9.180000000000000000e+02 9.190000000000000000e+02 9.200000000000000000e+02 9.210000000000000000e+02 9.220000000000000000e+02 9.230000000000000000e+02 9.240000000000000000e+02 9.250000000000000000e+02 9.260000000000000000e+02 9.270000000000000000e+02 9.280000000000000000e+02 9.290000000000000000e+02 9.300000000000000000e+02 9.310000000000000000e+02 9.320000000000000000e+02 9.330000000000000000e+02 9.340000000000000000e+02 9.350000000000000000e+02 9.360000000000000000e+02 9.370000000000000000e+02 9.380000000000000000e+02 9.390000000000000000e+02 9.400000000000000000e+02 9.410000000000000000e+02 9.420000000000000000e+02 9.430000000000000000e+02 9.440000000000000000e+02 9.450000000000000000e+02 9.460000000000000000e+02 9.470000000000000000e+02 9.480000000000000000e+02 9.490000000000000000e+02 9.500000000000000000e+02 9.510000000000000000e+02 9.520000000000000000e+02 9.530000000000000000e+02 9.540000000000000000e+02 9.550000000000000000e+02 9.560000000000000000e+02 9.570000000000000000e+02 9.580000000000000000e+02 9.590000000000000000e+02 9.600000000000000000e+02 9.610000000000000000e+02 9.620000000000000000e+02 9.630000000000000000e+02 9.640000000000000000e+02 9.650000000000000000e+02 9.660000000000000000e+02 9.670000000000000000e+02 9.680000000000000000e+02 9.690000000000000000e+02 9.700000000000000000e+02 9.710000000000000000e+02 9.720000000000000000e+02 9.730000000000000000e+02 9.740000000000000000e+02 9.750000000000000000e+02 9.760000000000000000e+02 9.770000000000000000e+02 9.780000000000000000e+02 9.790000000000000000e+02 9.800000000000000000e+02 9.810000000000000000e+02 9.820000000000000000e+02 9.830000000000000000e+02 9.840000000000000000e+02 9.850000000000000000e+02 9.860000000000000000e+02 9.870000000000000000e+02 9.880000000000000000e+02 9.890000000000000000e+02 9.900000000000000000e+02 9.910000000000000000e+02 9.920000000000000000e+02 9.930000000000000000e+02 9.940000000000000000e+02 9.950000000000000000e+02 9.960000000000000000e+02 9.970000000000000000e+02 9.980000000000000000e+02 9.990000000000000000e+02 1.000000000000000000e+03
1.000000000000000021e-02 1.000000000000000021e-02 1.000000000000000021e-02 1.000000000000000021e-02 1.000000000000000021e-02 1.000000000000000021e-02 1.000000000000000021e-02 1.000000000000000021e-02 1.000000000000000021e-02 1.000000000000000021e-02 1.000000000000000021e-02 1.000000000000000021e-02 1.000000000000000021e-02 1.000000000000000021e-02 1.000000000000000021e-02 1.000000000000000021e-02 1.000000000000000021e-02 1.000000000000000021e-02 1.000000000000000021e-02 1.000000000000000021e-02 1.000000000000000021e-02 1.000000000000000021e-02 1.000000000000000021e-02 1.000000000000000021e-02 1.000000000000000021e-02 1.000000000000000021e-02 1.000000000000000021e-02 1.000000000000000021e-02 1.000000000000000021e-02 1.000000000000000021e-02 1.000000000000000021e-02 1.000000000000000021e-02 1.000000000000000021e-02 1.000000000000000021e-02 1.000000000000000021e-02 1.000000000000000021e-02 1.000000000000000021e-02 1.000000000000000021e-02 1.000000000000000021e-02 1.000000000000000021e-02 1.000000000000000021e-02 1.000000000000000021e-02 1.000000000000000021e-02 1.000000000000000021e-02 1.000000000000000021e-02 1.000000000000000021e-02 1.000000000000000021e-02 1.000000000000000021e-02 1.000000000000000021e-02 1.000000000000000021e-02 1.000000000000000021e-02 1.000000000000000021e-02 1.000000000000000021e-02 1.000000000000000021e-02 1.000000000000000021e-02 1.000000000000000021e-02 1.000000000000000021e-02 1.000000000000000021e-02 1.000000000000000021e-02 1.000000000000000021e-02 1.000000000000000021e-02 1.000000000000000021e-02 1.000000000000000021e-02 1.000000000000000021e-02 1.000000000000000021e-02 1.000000000000000021e-02 1.000000000000000021e-02 1.000000000000000021e-02 1.000000000000000021e-02 1.000000000000000021e-02 1.000000000000000021e-02 1.000000000000000021e-02 1.000000000000000021e-02 1.000000000000000021e-02 1.000000000000000021e-02 1.000000000000000021e-02 1.000000000000000021e-02 1.000000000000000021e-02 1.000000000000000021e-02 1.000000000000000021e-02 1.000000000000000021e-02 1.000000000000000021e-02 1.000000000000000021e-02 1.000000000000000021e-02 1.000000000000000021e-02 1.000000000000000021e-02 1.000000000000000021e-02 1.000000000000000021e-02 1.000000000000000021e-02 1.000000000000000021e-02 1.000000000000000021e-02 1.000000000000000021e-02 1.000000000000000021e-02 1.000000000000000021e-02 1.000000000000000021e-02 1.000000000000000021e-02 1.000000000000000021e-02 1.000000000000000021e-02 1.000000000000000021e-02 1.000000000000000021e-02 1.000000000000000021e-02 1.000000000000000021e-02 1.000000000000000021e-02 1.000000000000000021e-02 1.000000000000000021e-02 1.000000000000000021e-02 1.000000000000000021e-02 1.000000000000000021e-02 1.000000000000000021e-02 1.000000000000000021e-02 1.000000000000000021e-02 1.000000000000000021e-02 1.000000000000000021e-02 1.000000000000000021e-02 1.000000000000000021e-02 1.000000000000000021e-02 1.000000000000000021e-02 1.000000000000000021e-02 1.000000000000000021e-02 1.000000000000000021e-02 1.000000000000000021e-02 1.000000000000000021e-02 1.000000000000000021e-02 1.000000000000000021e-02 1.000000000000000021e-02 1.000000000000000021e-02 1.000000000000000021e-02 1.000000000000000021e-02 1.000000000000000021e-02 1.000000000000000021e-02 1.000000000000000021e-02 1.000000000000000021e-02 1.000000000000000021e-02 1.000000000000000021e-02 1.000000000000000021e-02 1.000000000000000021e-02 1.000000000000000021e-02 1.000000000000000021e-02 1.000000000000000021e-02 1.000000000000000021e-02 1.000000000000000021e-02 1.000000000000000021e-02 1.000000000000000021e-02 1.000000000000000021e-02 1.000000000000000021e-02 1.000000000000000021e-02 1.000000000000000021e-02 1.000000000000000021e-02 1.000000000000000021e-02 1.000000000000000021e-02 1.000000000000000021e-02 1.000000000000000021e-02 1.000000000000000021e-02 1.000000000000000021e-02 1.000000000000000021e-02 1.000000000000000021e-02 1.000000000000000021e-02 1.000000000000000021e-02 1.000000000000000021e-02 1.000000000000000021e-02 1.000000000000000021e-02 1.000000000000000021e-02 1.000000000000000021e-02 1.000000000000000021e-02 1.000000000000000021e-02 1.000000000000000021e-02 1.000000000000000021e-02 1.000000000000000021e-02 1.000000000000000021e-02 1.000000000000000021e-02 1.000000000000000021e-02 1.000000000000000021e-02 1.000000000000000021e-02 1.000000000000000021e-02 1.000000000000000021e-02 1.000000000000000021e-02 1.000000000000000021e-02 1.000000000000000021e-02 1.000000000000000021e-02 1.000000000000000021e-02 1.000000000000000021e-02 1.000000000000000021e-02 1.000000000000000021e-02 1.000000000000000021e-02 1.000000000000000021e-02 1.000000000000000021e-02 1.000000000000000021e-02 1.000000000000000021e-02 1.000000000000000021e-02 1.000000000000000021e-02 1.000000000000000021e-02 1.000000000000000021e-02 1.000000000000000021e-02 1.000000000000000021e-02 1.000000000000000021e-02 1.000000000000000021e-02 1.000000000000000021e-02 1.000000000000000021e-02 1.000000000000000021e-02 1.000000000000000021e-02 1.000000000000000021e-02 1.000000000000000021e-02 1.000000000000000021e-02 1.000000000000000021e-02 1.000000000000000021e-02 1.000000000000000021e-02 1.000000000000000021e-02 1.000000000000000021e-02 1.000000000000000021e-02 1.000000000000000021e-02 1.000000000000000021e-02 1.000000000000000021e-02 1.000000000000000021e-02 1.000000000000000021e-02 1.000000000000000021e-02 1.000000000000000021e-02 1.000000000000000021e-02 1.000000000000000021e-02 1.000000000000000021e-02 1.000000000000000021e-02 1.000000000000000021e-02 1.000000000000000021e-02 1.000000000000000021e-02 1.000000000000000021e-02 1.000000000000000021e-02 1.000000000000000021e-02 1.000000000000000021e-02 1.000000000000000021e-02 1.000000000000000021e-02 1.000000000000000021e-02 1.000000000000000021e-02 1.000000000000000021e-02 1.000000000000000021e-02 1.000000000000000021e-02 1.000000000000000021e-02 1.000000000000000021e-02 1.000000000000000021e-02 1.000000000000000021e-02 1.000000000000000021e-02 1.000000000000000021e-02 1.000000000000000021e-02 1.000000000000000021e-02 1.000000000000000021e-02 1.000000000000000021e-02 1.000000000000000021e-02 1.000000000000000021e-02 1.000000000000000021e-02 1.000000000000000021e-02 1.000000000000000021e-02 1.000000000000000021e-02 1.000000000000000021e-02 1.000000000000000021e-02 1.000000000000000021e-02 1.000000000000000021e-02 1.000000000000000021e-02 1.000000000000000021e-02 1.000000000000000021e-02 1.000000000000000021e-02 1.000000000000000021e-02 1.000000000000000021e-02 1.000000000000000021e-02 1.000000000000000021e-02 1.000000000000000021e-02 1.000000000000000021e-02 1.000000000000000021e-02 1.000000000000000021e-02 1.000000000000000021e-02 1.000000000000000021e-02 1.000000000000000021e-02 1.000000000000000021e-02 1.000000000000000021e-02 1.000000000000000021e-02 1.000000000000000021e-02 1.000000000000000021e-02 1.000000000000000021e-02 1.000000000000000021e-02 1.000000000000000021e-02 1.000000000000000021e-02 1.000000000000000021e-02 1.000000000000000021e-02 1.000000000000000021e-02 1.000000000000000021e-02 1.000000000000000021e-02 1.000000000000000021e-02 1.000000000000000021e-02 1.000000000000000021e-02 1.000000000000000021e-02 1.000000000000000021e-02 1.000000000000000021e-02 1.000000000000000021e-02 1.000000000000000021e-02 1.000000000000000021e-02 1.000000000000000021e-02 1.000000000000000021e-02 1.000000000000000021e-02 1.000000000000000021e-02 1.000000000000000021e-02 1.000000000000000021e-02 1.000000000000000021e-02 1.000000000000000021e-02 1.000000000000000021e-02 1.000000000000000021e-02 1.000000000000000021e-02 1.000000000000000021e-02 1.000000000000000021e-02 1.000000000000000021e-02 1.000000000000000021e-02 1.000000000000000021e-02 1.000000000000000021e-02 1.000000000000000021e-02 1.000000000000000021e-02 1.000000000000000021e-02 1.000000000000000021e-02 1.000000000000000021e-02 1.000000000000000021e-02 1.000000000000000021e-02 1.000000000000000021e-02 1.000000000000000021e-02 1.000000000000000021e-02 1.000000000000000021e-02 1.000000000000000021e-02 1.000000000000000021e-02 1.000000000000000021e-02 1.000000000000000021e-02 1.000000000000000021e-02 1.000000000000000021e-02 1.000000000000000021e-02 1.000000000000000021e-02 1.000000000000000021e-02 1.000000000000000021e-02 1.000000000000000021e-02 1.000000000000000021e-02 1.000000000000000021e-02 1.000000000000000021e-02 1.000000000000000021e-02 1.000000000000000021e-02 1.000000000000000021e-02 1.000000000000000021e-02 1.000000000000000021e-02 1.000000000000000021e-02 1.000000000000000021e-02 1.000000000000000021e-02 1.000000000000000021e-02 1.000000000000000021e-02 1.000000000000000021e-02 1.000000000000000021e-02 1.000000000000000021e-02 1.000000000000000021e-02 1.000000000000000021e-02 1.000000000000000021e-02 1.000000000000000021e-02 1.000000000000000021e-02 1.000000000000000021e-02 1.000000000000000021e-02 1.000000000000000021e-02 1.000000000000000021e-02 1.000000000000000021e-02 1.000000000000000021e-02 1.000000000000000021e-02 1.000000000000000021e-02 1.000000000000000021e-02 1.000000000000000021e-02 1.000000000000000021e-02 1.000000000000000021e-02 1.000000000000000021e-02 1.000000000000000021e-02 1.000000000000000021e-02 1.000000000000000021e-02 1.000000000000000021e-02 1.000000000000000021e-02 1.000000000000000021e-02 1.000000000000000021e-02 1.000000000000000021e-02 1.000000000000000021e-02 1.000000000000000021e-02 1.000000000000000021e-02 1.000000000000000021e-02 1.000000000000000021e-02 1.000000000000000021e-02 1.000000000000000021e-02 1.000000000000000021e-02 1.000000000000000021e-02 1.000000000000000021e-02 1.000000000000000021e-02 1.000000000000000021e-02 1.000000000000000021e-02 1.000000000000000021e-02 1.000000000000000021e-02 1.000000000000000021e-02 1.000000000000000021e-02 1.000000000000000021e-02 1.000000000000000021e-02 1.000000000000000021e-02 1.000000000000000021e-02 1.000000000000000021e-02 1.000000000000000021e-02 1.000000000000000021e-02 1.000000000000000021e-02 1.000000000000000021e-02 1.000000000000000021e-02 1.000000000000000021e-02 1.000000000000000021e-02 1.000000000000000021e-02 1.000000000000000021e-02 1.000000000000000021e-02 1.000000000000000021e-02 1.000000000000000021e-02 1.000000000000000021e-02 1.000000000000000021e-02 1.000000000000000021e-02 1.000000000000000021e-02 1.000000000000000021e-02 1.000000000000000021e-02 1.000000000000000021e-02 1.000000000000000021e-02 1.000000000000000021e-02 1.000000000000000021e-02 1.000000000000000021e-02 1.000000000000000021e-02 1.000000000000000021e-02 1.000000000000000021e-02 1.000000000000000021e-02 1.000000000000000021e-02 1.000000000000000021e-02 1.000000000000000021e-02 1.000000000000000021e-02 1.000000000000000021e-02 1.000000000000000021e-02 1.000000000000000021e-02 1.000000000000000021e-02 1.000000000000000021e-02 1.000000000000000021e-02 1.000000000000000021e-02 1.000000000000000021e-02 1.000000000000000021e-02 1.000000000000000021e-02 1.000000000000000021e-02 1.000000000000000021e-02 1.000000000000000021e-02 1.000000000000000021e-02 1.000000000000000021e-02 1.000000000000000021e-02 1.000000000000000021e-02 1.000000000000000021e-02 1.000000000000000021e-02 1.000000000000000021e-02 1.000000000000000021e-02 1.000000000000000021e-02 1.000000000000000021e-02 1.000000000000000021e-02 1.000000000000000021e-02 1.000000000000000021e-02 1.000000000000000021e-02 1.000000000000000021e-02 1.000000000000000021e-02 1.000000000000000021e-02 1.000000000000000021e-02 1.000000000000000021e-02 1.000000000000000021e-02 1.000000000000000021e-02 1.000000000000000021e-02 1.000000000000000021e-02 1.000000000000000021e-02 1.000000000000000021e-02 1.000000000000000021e-02 1.000000000000000021e-02 1.000000000000000021e-02 1.000000000000000021e-02 1.000000000000000021e-02 1.000000000000000021e-02 1.000000000000000021e-02 1.000000000000000021e-02 1.000000000000000021e-02 1.000000000000000021e-02 1.000000000000000021e-02 1.000000000000000021e-02 1.000000000000000021e-02 1.000000000000000021e-02 1.000000000000000021e-02 1.000000000000000021e-02 1.000000000000000021e-02 1.000000000000000021e-02 1.000000000000000021e-02 1.000000000000000021e-02 1.000000000000000021e-02 1.000000000000000021e-02 1.000000000000000021e-02 1.000000000000000021e-02 1.000000000000000021e-02 1.000000000000000021e-02 1.000000000000000021e-02 1.000000000000000021e-02 1.000000000000000021e-02 1.000000000000000021e-02 1.000000000000000021e-02 1.000000000000000021e-02 1.000000000000000021e-02 1.000000000000000021e-02 1.000000000000000021e-02 1.000000000000000021e-02 1.000000000000000021e-02 1.000000000000000021e-02 1.000000000000000021e-02 1.000000000000000021e-02 1.000000000000000021e-02 1.000000000000000021e-02 1.000000000000000021e-02 1.000000000000000021e-02 1.000000000000000021e-02 1.000000000000000021e-02 1.000000000000000021e-02 1.000000000000000021e-02 1.000000000000000021e-02 1.000000000000000021e-02 1.000000000000000021e-02 1.000000000000000021e-02 1.000000000000000021e-02 1.000000000000000021e-02 1.000000000000000021e-02 1.000000000000000021e-02 1.000000000000000021e-02 1.000000000000000021e-02 1.000000000000000021e-02 1.000000000000000021e-02 1.000000000000000021e-02 1.000000000000000021e-02 1.000000000000000021e-02 1.000000000000000021e-02 1.000000000000000021e-02 1.000000000000000021e-02 1.000000000000000021e-02 1.000000000000000021e-02 1.000000000000000021e-02 1.000000000000000021e-02 1.000000000000000021e-02 1.000000000000000021e-02 1.000000000000000021e-02 1.000000000000000021e-02 1.000000000000000021e-02 1.000000000000000021e-02 1.000000000000000021e-02 1.000000000000000021e-02 1.000000000000000021e-02 1.000000000000000021e-02 1.000000000000000021e-02 1.000000000000000021e-02 1.000000000000000021e-02 1.000000000000000021e-02 1.000000000000000021e-02 1.000000000000000021e-02 1.000000000000000021e-02 1.000000000000000021e-02 1.000000000000000021e-02 1.000000000000000021e-02 1.000000000000000021e-02 1.000000000000000021e-02 1.000000000000000021e-02 1.000000000000000021e-02 1.000000000000000021e-02 1.000000000000000021e-02 1.000000000000000021e-02 1.000000000000000021e-02 1.000000000000000021e-02 1.000000000000000021e-02 1.000000000000000021e-02 1.000000000000000021e-02 1.000000000000000021e-02 1.000000000000000021e-02 1.000000000000000021e-02 1.000000000000000021e-02 1.000000000000000021e-02 1.000000000000000021e-02 1.000000000000000021e-02 1.000000000000000021e-02 1.000000000000000021e-02 1.000000000000000021e-02 1.000000000000000021e-02 1.000000000000000021e-02 1.000000000000000021e-02 1.000000000000000021e-02 1.000000000000000021e-02 1.000000000000000021e-02 1.000000000000000021e-02 1.000000000000000021e-02 1.000000000000000021e-02 1.000000000000000021e-02 1.000000000000000021e-02 1.000000000000000021e-02 1.000000000000000021e-02 1.000000000000000021e-02 1.000000000000000021e-02 1.000000000000000021e-02 1.000000000000000021e-02 1.000000000000000021e-02 1.000000000000000021e-02 1.000000000000000021e-02 1.000000000000000021e-02 1.000000000000000021e-02 1.000000000000000021e-02 1.000000000000000021e-02 1.000000000000000021e-02 1.000000000000000021e-02 1.000000000000000021e-02 1.000000000000000021e-02 1.000000000000000021e-02 1.000000000000000021e-02 1.000000000000000021e-02 1.000000000000000021e-02 1.000000000000000021e-02 1.000000000000000021e-02 1.000000000000000021e-02 1.000000000000000021e-02 1.000000000000000021e-02 1.000000000000000021e-02 1.000000000000000021e-02 1.000000000000000021e-02 1.000000000000000021e-02 1.000000000000000021e-02 1.000000000000000021e-02 1.000000000000000021e-02 1.000000000000000021e-02 1.000000000000000021e-02 1.000000000000000021e-02 1.000000000000000021e-02 1.000000000000000021e-02 1.000000000000000021e-02 1.000000000000000021e-02 1.000000000000000021e-02 1.000000000000000021e-02 1.000000000000000021e-02 1.000000000000000021e-02 1.000000000000000021e-02 1.000000000000000021e-02 1.000000000000000021e-02 1.000000000000000021e-02 1.000000000000000021e-02 1.000000000000000021e-02 1.000000000000000021e-02 1.000000000000000021e-02 1.000000000000000021e-02 1.000000000000000021e-02 1.000000000000000021e-02 1.000000000000000021e-02 1.000000000000000021e-02 1.000000000000000021e-02 1.000000000000000021e-02 1.000000000000000021e-02 1.000000000000000021e-02 1.000000000000000021e-02 1.000000000000000021e-02 1.000000000000000021e-02 1.000000000000000021e-02 1.000000000000000021e-02 1.000000000000000021e-02 1.000000000000000021e-02 1.000000000000000021e-02 1.000000000000000021e-02 1.000000000000000021e-02 1.000000000000000021e-02 1.000000000000000021e-02 1.000000000000000021e-02 1.000000000000000021e-02 1.000000000000000021e-02 1.000000000000000021e-02 1.000000000000000021e-02 1.000000000000000021e-02 1.000000000000000021e-02 1.000000000000000021e-02 1.000000000000000021e-02 1.000000000000000021e-02 1.000000000000000021e-02 1.000000000000000021e-02 1.000000000000000021e-02 1.000000000000000021e-02 1.000000000000000021e-02 1.000000000000000021e-02 1.000000000000000021e-02 1.000000000000000021e-02 1.000000000000000021e-02 1.000000000000000021e-02 1.000000000000000021e-02 1.000000000000000021e-02 1.000000000000000021e-02 1.000000000000000021e-02 1.000000000000000021e-02 1.000000000000000021e-02 1.000000000000000021e-02 1.000000000000000021e-02 1.000000000000000021e-02 1.000000000000000021e-02 1.000000000000000021e-02 1.000000000000000021e-02 1.000000000000000021e-02 1.000000000000000021e-02 1.000000000000000021e-02 1.000000000000000021e-02 1.000000000000000021e-02 1.000000000000000021e-02 1.000000000000000021e-02 1.000000000000000021e-02 1.000000000000000021e-02 1.000000000000000021e-02 1.000000000000000021e-02 1.000000000000000021e-02 1.000000000000000021e-02 1.000000000000000021e-02 1.000000000000000021e-02 1.000000000000000021e-02 1.000000000000000021e-02 1.000000000000000021e-02 1.000000000000000021e-02 1.000000000000000021e-02 1.000000000000000021e-02 1.000000000000000021e-02 1.000000000000000021e-02 1.000000000000000021e-02 1.000000000000000021e-02 1.000000000000000021e-02 1.000000000000000021e-02 1.000000000000000021e-02 1.000000000000000021e-02 1.000000000000000021e-02 1.000000000000000021e-02 1.000000000000000021e-02 1.000000000000000021e-02 1.000000000000000021e-02 1.000000000000000021e-02 1.000000000000000021e-02 1.000000000000000021e-02 1.000000000000000021e-02 1.000000000000000021e-02 1.000000000000000021e-02 1.000000000000000021e-02 1.000000000000000021e-02 1.000000000000000021e-02 1.000000000000000021e-02 1.000000000000000021e-02 1.000000000000000021e-02 1.000000000000000021e-02 1.000000000000000021e-02 1.000000000000000021e-02 1.000000000000000021e-02 1.000000000000000021e-02 1.000000000000000021e-02 1.000000000000000021e-02 1.000000000000000021e-02 1.000000000000000021e-02 1.000000000000000021e-02 1.000000000000000021e-02 1.000000000000000021e-02 1.000000000000000021e-02 1.000000000000000021e-02 1.000000000000000021e-02 1.000000000000000021e-02 1.000000000000000021e-02 1.000000000000000021e-02 1.000000000000000021e-02 1.000000000000000021e-02 1.000000000000000021e-02 1.000000000000000021e-02 1.000000000000000021e-02 1.000000000000000021e-02 1.000000000000000021e-02 1.000000000000000021e-02 1.000000000000000021e-02 1.000000000000000021e-02 1.000000000000000021e-02 1.000000000000000021e-02 1.000000000000000021e-02 1.000000000000000021e-02 1.000000000000000021e-02 1.000000000000000021e-02 1.000000000000000021e-02 1.000000000000000021e-02 1.000000000000000021e-02 1.000000000000000021e-02 1.000000000000000021e-02 1.000000000000000021e-02 1.000000000000000021e-02 1.000000000000000021e-02 1.000000000000000021e-02 1.000000000000000021e-02 1.000000000000000021e-02 1.000000000000000021e-02 1.000000000000000021e-02 1.000000000000000021e-02 1.000000000000000021e-02 1.000000000000000021e-02 1.000000000000000021e-02 1.000000000000000021e-02 1.000000000000000021e-02 1.000000000000000021e-02 1.000000000000000021e-02 1.000000000000000021e-02 1.000000000000000021e-02 1.000000000000000021e-02 1.000000000000000021e-02 1.000000000000000021e-02 1.000000000000000021e-02 1.000000000000000021e-02 1.000000000000000021e-02 1.000000000000000021e-02 1.000000000000000021e-02 1.000000000000000021e-02 1.000000000000000021e-02 1.000000000000000021e-02 1.000000000000000021e-02 1.000000000000000021e-02 1.000000000000000021e-02 1.000000000000000021e-02 1.000000000000000021e-02 1.000000000000000021e-02 1.000000000000000021e-02 1.000000000000000021e-02 1.000000000000000021e-02 1.000000000000000021e-02 1.000000000000000021e-02 1.000000000000000021e-02 1.000000000000000021e-02 1.000000000000000021e-02 1.000000000000000021e-02 1.000000000000000021e-02 1.000000000000000021e-02 1.000000000000000021e-02 1.000000000000000021e-02 1.000000000000000021e-02 1.000000000000000021e-02 1.000000000000000021e-02 1.000000000000000021e-02 1.000000000000000021e-02 1.000000000000000021e-02 1.000000000000000021e-02 1.000000000000000021e-02 1.000000000000000021e-02 1.000000000000000021e-02 1.000000000000000021e-02 1.000000000000000021e-02 1.000000000000000021e-02 1.000000000000000021e-02 1.000000000000000021e-02 1.000000000000000021e-02 1.000000000000000021e-02 1.000000000000000021e-02 1.000000000000000021e-02 1.000000000000000021e-02 1.000000000000000021e-02 1.000000000000000021e-02 1.000000000000000021e-02 1.000000000000000021e-02 1.000000000000000021e-02 1.000000000000000021e-02 1.000000000000000021e-02 1.000000000000000021e-02 1.000000000000000021e-02 1.000000000000000021e-02 1.000000000000000021e-02 1.000000000000000021e-02 1.000000000000000021e-02 1.000000000000000021e-02 1.000000000000000021e-02 1.000000000000000021e-02 1.000000000000000021e-02 1.000000000000000021e-02 1.000000000000000021e-02 1.000000000000000021e-02 1.000000000000000021e-02 1.000000000000000021e-02 1.000000000000000021e-02 1.000000000000000021e-02 1.000000000000000021e-02 1.000000000000000021e-02 1.000000000000000021e-02 1.000000000000000021e-02 1.000000000000000021e-02 1.000000000000000021e-02 1.000000000000000021e-02 1.000000000000000021e-02 1.000000000000000021e-02 1.000000000000000021e-02 1.000000000000000021e-02 1.000000000000000021e-02 1.000000000000000021e-02 1.000000000000000021e-02 1.000000000000000021e-02 1.000000000000000021e-02 1.000000000000000021e-02 1.000000000000000021e-02 1.000000000000000021e-02 1.000000000000000021e-02 1.000000000000000021e-02 1.000000000000000021e-02 1.000000000000000021e-02 1.000000000000000021e-02 1.000000000000000021e-02 1.000000000000000021e-02 1.000000000000000021e-02 1.000000000000000021e-02 1.000000000000000021e-02 1.000000000000000021e-02 1.000000000000000021e-02 1.000000000000000021e-02 1.000000000000000021e-02 1.000000000000000021e-02 1.000000000000000021e-02 1.000000000000000021e-02 1.000000000000000021e-02 1.000000000000000021e-02 1.000000000000000021e-02 1.000000000000000021e-02 1.000000000000000021e-02 1.000000000000000021e-02 1.000000000000000021e-02 1.000000000000000021e-02 1.000000000000000021e-02 1.000000000000000021e-02 1.000000000000000021e-02 1.000000000000000021e-02 1.000000000000000021e-02 1.000000000000000021e-02 1.000000000000000021e-02 1.000000000000000021e-02 1.000000000000000021e-02 1.000000000000000021e-02 1.000000000000000021e-02 1.000000000000000021e-02 1.000000000000000021e-02 1.000000000000000021e-02 1.000000000000000021e-02 1.000000000000000021e-02 1.000000000000000021e-02 1.000000000000000021e-02 1.000000000000000021e-02 1.000000000000000021e-02 1.000000000000000021e-02 1.000000000000000021e-02 1.000000000000000021e-02 1.000000000000000021e-02 1.000000000000000021e-02 1.000000000000000021e-02 1.000000000000000021e-02 1.000000000000000021e-02 1.000000000000000021e-02 1.000000000000000021e-02 1.000000000000000021e-02 1.000000000000000021e-02 1.000000000000000021e-02 1.000000000000000021e-02 1.000000000000000021e-02 1.000000000000000021e-02 1.000000000000000021e-02 1.000000000000000021e-02 1.000000000000000021e-02 1.000000000000000021e-02 1.000000000000000021e-02 1.000000000000000021e-02 1.000000000000000021e-02 1.000000000000000021e-02 1.000000000000000021e-02 1.000000000000000021e-02 1.000000000000000021e-02 1.000000000000000021e-02 1.000000000000000021e-02 1.000000000000000021e-02 1.000000000000000021e-02 1.000000000000000021e-02 1.000000000000000021e-02 1.000000000000000021e-02 1.000000000000000021e-02 1.000000000000000021e-02 1.000000000000000021e-02 1.000000000000000021e-02 1.000000000000000021e-02 1.000000000000000021e-02 1.000000000000000021e-02 1.000000000000000021e-02 1.000000000000000021e-02 1.000000000000000021e-02 1.000000000000000021e-02 1.000000000000000021e-02 1.000000000000000021e-02 1.000000000000000021e-02 1.000000000000000021e-02 1.000000000000000021e-02 1.000000000000000021e-02 1.000000000000000021e-02 1.000000000000000021e-02 1.000000000000000021e-02 1.000000000000000021e-02 1.000000000000000021e-02 1.000000000000000021e-02 1.000000000000000021e-02 1.000000000000000021e-02 1.000000000000000021e-02 1.000000000000000021e-02 1.000000000000000021e-02 1.000000000000000021e-02 1.000000000000000021e-02 1.000000000000000021e-02 1.000000000000000021e-02 1.000000000000000021e-02
-1.160539403306634085e+02 1.762635346217127221e+02 4.094864948046829767e+01 -9.211429641651818656e+00 -9.138509021696755497e+01 -1.392774421386302919e+01 -2.161253269727068016e+02 6.918817500731346826e-01 -8.813013974619590840e+01 -1.447663987378086681e+01 -2.060145781983800717e+01 6.742315984920763228e+00 -1.850552023590473993e+00 1.744715006572853611e+02 8.797783751970085575e+01 -4.027903813941777855e+01 -5.483671940671749923e+01 8.237185673308080425e+01 3.411781942529319878e+01 -2.636345161786774938e+01 -8.200960185972084560e+01 -7.677599437249789105e+01 -1.437261178653500515e+01 3.008544824585434441e+01 -2.026972221290265281e+02 -1.026929659224971516e+02 -2.712007707480913155e+01 2.096914291140261355e+02 7.358321546774747901e+01 7.973353600154383969e+01 8.348099065604529301e+01 1.237542800203171645e+00 -8.228576640238776463e+01 2.156181697212283837e+02 -2.545222317815412225e+02 6.110588545533261851e+01 -1.249981306981822939e+02 -3.604960718362837468e+01 4.188587180731690118e+00 1.317550098714565650e+02 -1.278204268339475647e+02 -1.422600652051246684e+01 8.047556958685673578e+01 1.804943647310435892e+02 7.423375747407891367e+01 -7.119908680626204500e+01 4.292972019954070362e+01 -2.949239434620402633e+01 -6.869933971915996551e+01 1.628456385849847834e+02 -7.346980699431748008e+01 -5.422093258028765206e+01 -1.448065922489253694e+02 5.902586073501472796e+00 -5.257925823438664281e+01 4.019281040981758224e+01 -9.226257629150290995e+01 -5.207486043564758660e+01 -1.054556574173095527e+02 -1.616360117993268943e+02 2.027906901676757911e+01 4.711233912960351233e+01 -1.280312471077099303e+02 1.338166499618045435e+01 -8.250544235734832910e+01 5.107598536031386516e+01 1.732206821373974890e+02 -1.500088127484903850e+02 -4.506553212579169099e+01 7.452118789912002050e+00 3.033699435609451989e+00 4.406338531121739521e+01 8.734394722166754832e+01 1.005594454332110477e+00 -9.111009952695992453e+00 -7.285475859842672719e+01 8.141478361120701379e+01 -3.413749979339504392e+01 2.732910952485424971e+01 1.081642776607026519e+02 9.179490109013909205e+01 -4.444713645006457625e+01 6.017512921575817586e+01 1.533534205430264308e+02 1.208519996421405409e+02 -4.218205088161291805e+00 1.812212456329197607e+02 -1.159704879823095212e+02 4.406619363467828343e+00 -4.361859214398650408e+01 2.151550026398092257e+02 -2.207378313731839370e+01 2.974806581004249217e+00 -7.986122601838404478e+01 -7.405441822464449153e+00 -6.644194050595970680e+01 7.046962040177604081e+01 -9.832969105233240725e+01 7.125063252000775549e+01 -4.963603224562390892e+01 -5.177887565322640029e+01 -9.532701851094972767e+01 5.525920332893296916e+01 -5.695486884965636420e+01 -1.553336799641932942e+02 -8.268306219915854172e+01 -1.088281839512107183e+02 -1.635472802964906407e+02 1.414214780837571936e+02 -2.865795878932411256e+01 3.330034388494659936e+01 9.327117149228810433e+01 -1.082930377277978664e+02 5.928452974456283187e+01 -4.506834094626539411e+01 -7.203466283479966137e+01 -9.364866398980480255e+01 2.115168225072699215e+02 -5.902986142120732893e+01 -5.144812524355301520e+01 -4.916204570745136238e+01 8.364291440062498850e+01 -4.305604215465372420e+01 1.435680742754467758e+02 -5.181799620961177055e+01 5.726134933799212234e+01 4.723792882307534136e+00 -8.446361197502557161e+01 7.162545570571356279e+01 2.885215610701454239e+02 -9.567713877470640682e+01 4.942939536314803206e+01 -7.926069413785960194e+01 4.704974914334550817e+01 1.364607490997290711e+02 -5.339976884612519825e+01 1.514896231070214228e+01 -2.798652628912475393e+01 -1.060274630153879514e+02 -1.793358373902327685e+01 4.415537348283154806e+00 -8.148334666622215394e+00 -1.557293410568668790e+01 1.230604798504448780e+02 1.355792410420207830e+02 1.939754297609136415e+02 -3.165923046904231342e+02 3.977231995258830466e+01 -1.636812629385958928e+01 -6.489797172400335512e+01 1.876638847767700042e+02 7.937607349185294936e+01 -2.648900155835347547e+00 -1.207262921720956541e+02 -1.137498317226360989e+01 1.041839248297137175e+02 -1.399481581141619699e+02 -1.755829906651321721e+02 1.117594766622153912e+01 4.420100364869617238e+01 -6.351839227924175901e+01 4.376909675606903960e+01 -1.115261220821443118e+02 -1.576265928821300690e+02 2.201631536648771359e+01 5.060802293761584991e+01 4.984586072563030434e+00 -8.702998952686768064e+01 -9.752814126132061290e+01 -8.791590645938697435e+01 -9.123485921691512601e+01 1.313227666212856626e+01 5.926690221125514313e+01 1.214479519124751477e+02 8.284234547651165315e+01 9.332568770518167867e+01 1.120273013609383952e+02 -7.802997188087552161e+01 -8.609650707346918352e+01 7.358018648952072738e+01 7.136864717319944873e+01 6.182178419162583083e+01 -9.813801170153837461e+00 -9.509233299245293836e+01 5.636045274891328916e+01 -1.868318421028611738e+02 7.012929064845738480e+01 -4.656795076003439249e+01 -1.007954486807302317e+02 7.755039717344980943e+01 -1.788201744560140227e+01 -8.067642733028007740e+01 -6.012620932004832497e+01 -9.545917816697258473e+00 2.538338993578802274e+02 8.031095410750219799e+01 5.737681145015574202e+01 -1.087884935618063054e+02 1.552071106907069691e+02 1.069983803243552911e+00 -9.469034795418329509e+01 1.631800206633650987e+02 -1.615156278194562844e+02 1.652752662191903354e+01 -3.414319097466845676e+01 -2.328624461856130381e+02 -1.414390777495297584e+02 -9.247510517708188615e+01 -3.096381201484071966e+01 -1.264139778439210460e+02 6.113439844158389747e+01 6.886283472011434981e+01 -2.919262609542068887e+01 -1.056458002081035659e+02 1.198727634146157328e+02 1.253414442627038170e+02 4.899301381115874676e+01 1.847744307431414157e+01 2.770436010650691401e+02 4.632137184464108515e+01 -1.265608149667706783e+02 -4.774523612276163220e+01 -1.791151826612632192e+02 3.380080836445715420e+01 1.626673472745050049e+02 -1.574865421462095298e+02 1.397599247142279921e+02 -9.651339178042040601e+01 -2.002838425504804931e+01 -7.528854505814500664e-01 5.607601606971368824e+01 -1.233737526997871115e+01 -2.416003320374332830e+01 -2.014073774421764540e+01 -1.344043498558656040e+02 4.929976971996327961e+01 -3.224901957482239823e+01 -1.382637616314911710e+01 -1.136622628417667435e+01 2.398852223711325564e+02 1.849010768383749621e+02 2.469829582344299013e+02 1.399389108330625504e+02 -9.192053479277554118e+01 7.987493206866035678e+01 2.239525384981921619e+01 5.059372449776794411e+01 -4.223894231953935474e+01 2.712682469126123692e+02 -2.472534855661246667e+01 -1.452106584782128209e+02 -1.589842851087855458e+01 -4.865917546166878083e+01 -8.223984414953662281e+01 4.585143013908213305e+01 -1.244362353408691568e+01 1.932519700329546026e+02 9.823090616765291827e+01 4.344734979736141156e+01 1.041946424999771494e+02 1.003070041046243119e+02 -2.442834952928382108e+01 1.483763669873832214e+02 2.811211308510678464e+01 9.515358763312325152e+01 5.060837476428831394e+01 7.378936978198682439e+00 -1.230404850249629902e+02 -1.230640477283159555e+02 -9.564091397631922575e+01 -1.655915567094491436e+01 9.211008406526536874e+01 -3.261187770808091813e+01 1.051010547216437487e+02 4.654226248849894176e+01 -7.729000342764393849e+01 -3.186751708398137950e+01 -6.228476334794162028e+01 1.866067083819728367e+01 -4.927269531857680818e+01 -1.190806817019241777e+02 1.291888863841501802e+02 1.289435220631914660e+02 -8.387964945581542509e+01 5.835696381075623052e+00 -4.814042041405984662e+01 -3.470008843871028859e+01 -1.205520877150225445e+01 -3.316117002370137357e+01 4.720187832425104801e+01 -1.492976827031855294e+02 -5.612429415306326774e+01 -1.614136528506841728e+02 1.850044369450391741e+02 -2.153798914157660960e+01 6.265168504553229667e+01 1.269113927985062951e+01 1.533847020901379210e+02 4.745261357119856171e+01 3.798154494013409277e+01 1.638725272907146291e+02 -5.230980044366782522e+01 -1.035788924284792927e+02 2.879643444233944294e+01 -1.677225485229827768e+02 -5.666689944444713944e+01 1.085372481092251036e+02 -1.356375388308886158e+02 -3.859561704059549214e+01 9.688264827528192313e+01 -1.003004361440940500e+02 -9.500181149128879099e+01 -8.770742573397076569e+01 -6.776127200369825232e+01 2.641533359824019271e+02 2.102262990315012132e+02 1.092860814572239576e+02 -1.084011457343775078e+02 7.941411785816202951e+01 -7.007667601153723069e+01 -3.300155452491370056e+01 1.759069976081328690e+01 -3.406837047685148434e+01 -9.938686854626726586e+01 -2.827669175195023143e+00 1.571159949266207789e+01 1.152087194444179090e+02 -1.360823851816084300e+02 4.429821534914782433e+01 6.749583971223773915e+01 3.660810941751948633e+01 -9.590477763750205042e+01 -1.571330887729113499e+02 2.044952644300398674e+02 -1.885998904977365598e+01 2.665241540705771683e+01 1.655196006904085380e+02 2.821185360026862554e+01 2.935151282548825691e+01 -4.707332209653458222e+01 9.364831975625142491e+01 -1.441468508695283504e+02 -3.257511687523967225e+01 -6.481578197335153391e+00 -5.647207852481102464e+01 6.464730762911462314e+00 2.254951290357603000e+01 -3.781479168317402895e+01 1.443955385069575215e+01 2.257719017388755560e+02 -2.892168832104881204e+01 -2.951481330412182658e+01 -1.073758106147453617e+02 -1.759310942276719469e+00 -8.530321254622687377e+01 6.786621985871517992e+00 1.183345053660167139e+02 -5.495188682043178829e+01 6.394776417323924100e+00 -5.737633597608677860e+01 3.533194580093338200e+00 9.209693543633359525e+01 -1.223314086400110909e+02 -1.021876408219903709e+02 -1.082539047617665062e+02 7.540469700410611154e+01 9.138780000656019809e+01 -9.749195825500972035e+01 6.605970257845191895e+01 2.723275169700354681e+01 4.083943594550031264e+01 -1.875467155582426315e+01 9.639906532385455762e+01 8.419018532543481115e+01 -8.159463130302542311e+01 1.255494643080307959e+01 8.541209429800343855e+01 7.692574438784649260e+01 -2.096332564823165612e+01 2.638814302292997738e+01 -1.399377409615264582e+02 5.118478924046779355e+01 -3.457435561957375114e+01 -3.443000977745330005e+01 1.827849915117059538e+02 5.008667408628706141e+01 1.268938745082456876e+02 2.015022026061475344e+02 -1.453372791089297209e+02 1.572949516855106822e+02 -6.684936535060394647e+01 -1.425988775185202257e+02 8.688428039480011478e+01 -1.415268112390200486e+02 -3.028370330409224209e+01 5.956060038602945639e+01 8.563805368211436786e+00 -1.773554196680308337e+02 8.884968883212576429e+01 2.659178362242536053e+01 7.292951695058769701e+01 3.825575049025150776e+01 1.000743098920084684e+01 -7.083396945727031380e+01 1.221677703338037588e+02 5.749324653162823040e+01 -6.556938996580196033e+01 -1.068345666396703280e+02 4.113638542229595174e+01 2.703987265598255973e+01 8.692126071449762037e+01 1.938355401808445038e+02 -2.601738841452385742e+01 -1.162172236229167623e+02 -8.947011808803171107e+01 -5.416055496212480591e+01 -4.687921310012353615e+01 -1.548533647086453016e+02 -2.372025886559870500e+01 1.366054717231026245e+02 7.867527214291109772e+01 -1.291291981078719004e+02 -1.580293829134872681e+02 -7.188912563984686699e+01 -8.063117963188878434e+01 1.547793025244837395e+02 -1.798404891012541782e+02 9.126752596192648070e+01 -4.863112551420935681e+00 -4.537654055851484003e+01 1.405593676828278404e+01 9.623044064287586252e+01 5.236922786056969414e+01 1.458163596319220403e+02 -1.678789845909544169e+02 -8.542859568376832158e+01 2.669675406628729064e+01 4.425104566739358347e+01 2.175201142503455856e+02 1.534310809129347888e+02 6.909955412811329722e+01 7.607030872185124792e+01 -3.621568245790349749e+01 1.602077291842342390e+02 -1.891313904548735820e+02 -6.685102398864390238e+01 -5.664188982486034973e+01 -5.464048406106873301e+01 -1.089915881452233322e+02 -1.579327672995414034e+01 -7.242453674589580714e+01 7.511268783021979800e+01 -9.683879133724621724e+00 -6.133676619159349741e+01 -6.579516107770307087e+01 1.900845704988709031e+02 6.218176921840636595e+01 -1.442176443569286803e+01 2.203159464811425607e+02 -1.142338533924289834e+02 -3.728445115811989297e+01 7.061668680152831712e+01 -1.296629020088500284e-01 1.572160030930421115e+01 -1.318420503193620732e+02 1.858079255097066778e+02 -5.171339780933747221e+01 -2.846080301601607232e+01 -1.156947098160264602e+02 1.326970183909499212e+02 1.011455495306595509e+02 -8.174860755306097815e+01 -3.954492121111954361e+01 4.102274991000499682e+01 -1.596039321946344103e+02 -1.103694980696294931e-01 -7.872970784257012156e+01 8.140171802348886487e+00 -1.139655936467281947e+02 -1.670534698722576366e+02 -7.445775740565281353e+01 1.560827178890496896e+02 5.965047032816036676e+01 -9.437334089097679168e+01 9.396238534738267845e+01 3.609472632373230283e+01 9.294430393532610424e+01 -4.434338983197781658e+01 -8.857122653562304038e+01 1.800346082343328078e+02 4.388677844846341003e+01 3.048908768136213610e+01 -7.686945689777311941e+01 -4.452580074158864676e+01 1.009646859197698276e+01 -7.519889901129006127e+00 -1.818326040800558303e+02 -3.638987955702095434e+01 6.778296288113762103e+01 1.174450649829289830e+02 1.637433294323827226e+02 -1.393702557614821735e+01 9.423602145722679779e+01 1.657962469818960756e+02 6.669320744174737570e+01 1.554320336701193241e+02 1.687963667632840270e+01 1.379702231508422585e+02 -8.819529122119658382e+01 5.609235851709223653e+01 3.085378888533156783e+01 7.968987393132654518e+01 -1.115081334281765351e+02 2.078348013559855474e+02 -1.352556447044467234e+02 9.263158116896092054e+01 -1.127851517910321917e+02 4.837855088054732278e+01 1.446439016529426169e+01 9.515548140607411653e+01 -7.728555412319407480e+01 -7.917541225872238897e+01 -1.173345427088767146e+01 9.338612092509416129e+01 -3.100085335830025457e+01 -1.710475294549260283e+01 -2.057174024131779433e+01 4.964540491322917859e+00 1.027979557827723056e+02 -6.554242374365652779e+01 -2.852200387324213438e+00 -2.026795348095367615e+02 1.273353027920395704e+02 -1.303840084000228785e+02 -7.716257165192108403e+01 -2.460324126514870002e+01 -1.126725158893883503e+02 -5.552059240307073651e+01 -6.113259265153812549e+01 -2.051409910737234910e+01 1.423040929484016033e+02 5.644089022268838107e+01 1.048759666909172665e+02 -1.420876750149073757e+02 -1.446960245004976571e+02 -2.990447006126161682e+02 1.066087248331175630e+02 1.089072891424378327e+02 4.410190174829922682e+01 -4.424487800500011048e+01 -3.889967808460440324e+01 -1.917012812678487990e+02 1.526253420083039885e+02 -1.121745844010317654e+02 1.116827286123485123e+02 -1.662921865484983073e+02 -1.493053756605519489e+01 -5.782385075203349345e+01 -1.245145534641707030e+02 -4.812898653492273127e+01 -1.299916633798365240e+01 -9.674276046633225690e+01 -1.081191702293076844e+02 -1.289602699384232665e+01 7.437797986422293661e+01 -1.301881573018555684e+02 -1.638265201301324936e+01 -7.704490996874896780e+01 -1.372712026874471007e+02 7.030805504604173528e+00 9.948984640120463041e+01 1.728716652586277291e+02 -1.993911834173849584e+01 -4.812619278287073854e+01 -1.296720277029932049e+02 -1.708573926902066660e+02 1.083914250234672920e+02 -7.602056746690392686e+01 8.259786037075137699e+01 9.832858370911234047e+00 3.060059012565819359e+01 7.719077358310599379e+01 -8.852272608277738186e+01 8.638246424613925001e+01 1.204743721795632041e+02 1.644800747859729881e+02 -1.219173607450891410e+02 1.086334520032664130e+02 -4.990592412426448732e+01 -9.490258272357128533e+01 2.242475575149240967e+02 5.152487027116638529e+01 8.724781858690215586e+01 2.231295156420555514e+01 -6.597390438543332891e+01 -3.652383996694707236e+01 -2.198969538986426926e+02 1.104092934583686656e+02 8.522435382654845171e+01 -7.913768267739584417e+01 -7.650872753460312481e+01 1.517919925166371797e+02 1.056528599751032829e+02 5.342710928775861845e+01 7.955574696592204020e+01 -8.297528358191893716e+00 1.078903683695408517e+02 -1.081965191160751800e+02 1.949219225018449322e+02 -4.127599900988568038e+01 -1.275148164107809805e+02 -3.933995129297428406e+01 7.501089630942378506e+01 1.540532951527474950e+02 1.356993493225148484e+01 1.817273616644218919e+02 5.459984947677444467e+01 3.512620127135186010e+01 -1.163989858945501084e+02 4.688149721357231670e+01 -1.307732846035615069e+02 4.984177862182134078e+01 4.045424007418090895e+01 -1.289242635596224034e+02 -8.890360808164288642e+01 4.162780005296657038e+01 9.124416969333955407e+00 -2.431848097370927775e+01 4.373347121335054055e+01 -2.237004840512831905e+01 -6.596977944337027111e+01 -2.726325814903433553e+01 -2.351240093672117837e+01 -4.165361147114251850e+01 1.964885127286622435e+01 -8.412750535387333173e+01 1.243826836780228149e+02 -7.776158310975880283e+01 -4.548216718061617314e+00 6.842385695050413119e+01 4.097384358695849826e+00 1.665244667810791057e+01 1.667235110502339168e+01 -1.224967674139638092e+02 -4.630526149642841816e+00 6.802483752606758571e+01 -2.419956875888703962e+02 -8.868553713043500863e+01 -1.178905740880364164e+02 4.577540803795255187e+01 1.006165834713220164e+02 -9.591052941065387927e+01 -1.755390473272983343e+02 -1.935292018289576106e+02 2.089800006667281451e+01 -1.515440159965733926e+02 -6.596965626845554098e+00 1.542403860806259388e+02 -7.460547022413056339e+00 3.882085887519448875e+01 -1.033288044573775295e+02 8.331167758269106116e+01 -1.236654149325512435e+02 -1.604251310518259999e+01 -3.162620520272757929e+01 5.997220076177116255e+01 -9.288562712302779190e+00 1.100715577735898165e+02 -1.270431385371188497e+02 -5.212128585692610727e+01 8.995891476194682923e+01 6.880581751215487429e+01 -8.567839973677016019e+01 -5.653768181510326229e+01 -5.127583028773907614e+01 -3.006503344132952975e+02 2.010390167826324159e+02 7.909142813653163273e+01 -2.453712596668521329e+01 -3.079054208474199683e+01 4.310908967619106846e+01 -8.739696450038681519e+01 1.033211924735275460e+02 6.268369481643985353e+01 8.515214351705327545e+01 -8.721726687701007563e+01 -2.761082770652915386e+01 3.460868716745582674e+01 1.802042594567894440e+01 -4.434886638924515978e+01 1.635922567358383333e+02 -1.793274524905587697e+01 3.663850545778943513e+01 -2.380309088167217055e+02 -8.775346335413041743e+01 -7.580334925301438886e+01 2.382968275381048784e+01 1.130814293935245587e+02 -2.398260044979264762e+02 -1.936558721746413596e+02 2.295591506770702495e+02 -1.094840923030186985e+01 9.950108526305416490e+01 6.500394408778836919e+01 -5.735538959308379958e+01 -1.356419117590064616e+02 -9.853065390573023308e+01 -5.205423250027833149e+01 -3.878655947649063762e+01 -4.053534418114365678e+01 1.677775610524651739e+01 3.840311857021271891e+01 1.726672773686041467e+02 1.275057637397820685e+02 7.124909006234072528e+00 -4.520784769107053513e+00 -1.644502370893327452e+02 1.238735990596341452e+02 1.649733594278448550e+02 -1.070280197321384037e+02 7.634489299091792702e+01 1.892948268772720377e+00 5.679213650122608925e+01 1.299188555107641321e+02 7.344776986273068076e+01 -1.387377471308712984e+02 1.674416143753560249e+01 -3.042327483594280579e+01 1.152853113201261337e+01 -2.404538553385203770e+01 4.698599676440531425e+01 -2.697409964700364071e+02 1.877305417858591738e+02 7.617352508960800961e+00 1.652029179934098124e+02 -1.097788544600538607e+01 1.100880853468383833e+02 7.426071509170223806e+01 -4.358537194656754110e+01 3.096011059347729244e+01 -7.545556327652496975e+01 -9.225075359941602926e+01 -7.479895621950630868e+01 -3.324193362232447413e+01 4.689784633360497423e+01 1.143553503210977027e+02 2.960547461533456115e+01 6.440153176869375784e+01 -1.088039450107568200e+02 -1.423856464169233789e+02 -1.400232773642388651e+01 4.821004538217721347e+01 -4.733129452880146459e+01 9.814363268074757229e+01 5.764076873676108903e+01 -2.873537753288982088e+01 3.112336429222679968e+01 6.373550956469235729e+01 -7.494871114484659813e+01 -1.389522969958789815e+02 1.476799745954634773e+02 8.125795122715729235e+00 5.212982282026521830e+01 -1.551870126716077891e+02 -5.552630370556727257e+01 -5.055382884271850674e-01 -6.828506491943309697e+01 4.454300938725168635e+00 5.853557536129109451e+01 1.939637953044082508e+02 4.070671874764006049e+01 -1.141549749402708791e+01 7.510279565436177052e+01 -4.736412114110795102e+01 -1.134628525720295329e+02 -1.439210693997520707e+02 9.772561152539372742e+00 2.615852269295606547e+01 2.475456265203009920e+01 -5.925659641755218843e+01 1.259241232960850709e+02 -8.426356817478185235e+01 1.337681286648069658e+02 9.101800438246743852e+01 -6.782121978553144004e+01 -8.825234936945381037e+01 8.778805144324992682e+01 2.140965001866697293e+01 -5.472255514665175014e+01 -5.618771347891663481e+01 1.425413580287417119e+02 5.976616598310600637e+01 8.332899274648791277e+01 2.728800262689422951e+01 -4.395731634411235689e+01 1.122369006680236936e+02 -5.696614551504653434e+01 5.318460542106876465e-01 7.999938723290250664e+01 1.040024210592041669e+02 2.668125459662705907e+02 -1.829404646494600115e+02 1.681924986675252569e+02 -7.068775172943821872e+01 -1.590549800132158431e+01 -2.613485352612807944e+01 -2.167995824626594370e+01 -5.774933720472565568e+01 9.715277554310644348e+01 1.926216875528861294e+02 -1.243563943432259720e+02 3.237878111358332944e+01 -1.328818906832254640e+02 7.351412904231825962e+01 -4.664685985303739102e+01 -8.483035492614942541e+01 -5.645737967170104810e+01 4.315365449911242735e+01 2.035798902191816850e+01 -8.584324208099184261e+01 -1.480622403762338593e+02 2.181547618561729607e+01 1.655124154667253435e+02 1.500363488727170669e+01 1.917237661086032858e+02 7.853557933481008391e+00 1.414883762753926533e+02 -3.638673070786209962e+01 9.535878791192166659e+01 -7.515687946467278380e+01 -1.187985787017641428e+02 5.202453317836658897e+01 -6.108992817716028867e+01 -8.265674703685527902e+01 7.682329387877310012e+01 6.760336535821541482e+00 -9.938656399868447977e+01 -1.586322123062326739e+02 1.558862649294795517e+02 -9.402949363687737616e+01 -2.444068694486478233e+00 1.266554034332181544e+02 6.126054902627734577e+01 -1.036183912671383780e+02 1.118137412841979028e+01 2.977690478997334935e+02 5.633837707421507446e+01 -1.666410966259350346e+02 -5.039605785929332171e+01 -6.505467146004245649e+01 1.019701452507066008e+01 1.137011270799546026e+02 -1.093727494106910001e+02 2.277649825953331231e+01 1.380385098901068091e+02 1.986865571067802350e+01 -2.234802453306316181e+02 5.120172884539081792e+01 7.986111160428019673e+01 -1.434718027611899238e+01 3.472828710274618658e+01 1.114534954133584582e-01 2.375533607939361147e+01 2.935434355035484444e+01 1.225489308650515312e+02 1.037017782485478818e+02 1.637825261305741975e+01 1.577312896667405084e+02 -6.775910063131425431e+01 2.610450902782537810e+02 6.881016839972122057e+01 1.499322674604995598e+02 -2.326979437928006789e+01 9.531884447356426904e+01 -5.200056105977500209e+01 -1.549536776662525881e+02 2.775691199427462408e+01 1.007432614253003038e+02 -9.280423201769490049e+01 -1.108932974739282855e+02 -7.044996092794403353e+01 3.871980578052097144e+01 -1.210057684876433370e+02 7.916187436155391310e+01 2.976143708646091568e+01 -1.033706983681467193e+02 2.011823761319527932e+02 -1.246060266360021274e+01 -1.077279876433124741e+02 -1.413801018802601739e+01 -2.164131014109643303e+01 -1.485339783702724787e+02 -4.242094477494246263e+01 6.512779073357965842e+01 1.395411138790971108e+02 3.070914153836452698e+01 2.837392511486959279e+01 4.744191211151397169e+01 -3.791342892046228030e+01 -1.541806310908816897e+02 1.675208899736790258e+01 3.286858626695758545e+01 1.409489563815088502e+02 -1.057560473218075181e+01 -8.067137222428621612e+01 7.755788393390693614e+01 1.077756844669002234e+00 3.393697805128758915e+01 1.476141004312832195e+02 -1.881420919337012663e+02 -9.835208099263348913e+01 1.321270174547143768e+02 -2.220855577629304491e+02 -1.893189242591553523e+02 9.362519969566241684e+01 1.585221880059946784e+02 6.520777232144007485e+01 -4.553114447975354473e+00 1.604010591737679192e+02 -2.258919262536479664e+02 1.103069071731787574e+02 4.363054016873078211e+01 1.308180048999300027e+02 -1.941366411351494605e+02 1.097755417263609843e+02 -2.916490289158670279e+01 -1.376392515051842338e+02 -5.487333213688399880e+00 -9.514074125466794385e+01 -1.687451156394147489e+01 -4.352990674949507977e+00 -1.268100148494218899e+02 -1.269426382703636307e+02 -6.442617102363082893e+01 -1.327377851319248521e+02 2.069241530446738579e+02 -1.656741674924492145e+02 -5.162935203664037687e+01 1.776025430265500233e+02 3.491610122153671369e+01 -3.046704366418081804e+02 -1.307693527339735908e+02 3.658914674563733627e+01 5.623528765533863805e+01 8.911818355014576198e+00 -1.592104467321590278e+02 3.673823903198514529e+01 7.651087914929424194e+00 -7.650914334748927104e+01 2.086377301991321360e+02 2.085766493722784958e+02 4.441729659757116977e+00 -2.146309177256666203e+02 1.297044759124918869e+02 3.169679562748919466e+01 3.810130661794583595e+00 7.892300251175969095e+01 -2.135364783527934094e+02 -1.421105678290699643e+02 1.452135248949191180e+02 1.128486100356981581e+02 5.451544860066555742e+01 1.474811871288042369e+02 -1.834945990196303001e+02 -2.100362151819674494e+01 -1.342927787198161695e+02 4.479603764488953033e+01 -1.069018595400521434e+02 8.957502947115901293e+01 -3.482931869808793124e+01 1.274259877230419136e+01 1.826179329116615975e+02 2.927934239408925876e+01 -2.712939645630598875e+02 -1.300300251759053083e+02 -8.581034805088604855e+01 1.627355131038351601e+02 1.289705368879409164e+01 -5.532417921480804779e+01 3.132979076361407422e+01 6.438278604571382857e+01 -4.077587139879545930e+01 1.106677418350213742e+02 -1.036775075791657912e+02 5.065416519597137324e+01 1.152005147645557201e+02 -3.641293676164961113e+01 -1.009957146526888749e+02 -1.166941508904936740e+02 1.232628940494204386e+02 -5.109029416435689086e+01 2.023079434970583463e+02 5.887922925255323037e+01 1.142175707597414771e+02 1.897234842092330780e+02 8.817554955316524001e+00 -1.278817956385010177e+02 -1.706589069875942073e+02 -1.175591292373156307e+02 4.368235833275979729e+01
-1.372353817881430160e+01 -4.811916793719736241e+00 1.041472193198195839e+02 -2.302347483405675916e+02 1.562515063524002699e+02 6.389691836740976072e+01 1.529467154838190197e+02 -1.298379558382895027e+02 -2.814696151847325023e+00 -2.422012301110846977e+01 -2.206463150469380992e+02 3.294100999509045380e+01 -1.843116983265255726e+01 1.229357731035660919e+02 -1.256837122309597561e+02 6.203459831182310324e+01 1.260009815442804637e+02 -4.617688335444511694e+01 -4.999156324540553697e+01 -2.725371894419979313e+01 6.200598084863391790e+01 6.349538711084164788e+01 3.257000664069427387e+01 -2.337937106858520053e+02 -5.195434407272963995e+01 9.193308015245580123e+01 9.946913766049261696e+00 -1.038277014528908460e+01 -6.690229820484540824e+01 -1.550365195240227933e+01 7.372873991859717080e+01 -1.461837229648464245e+02 -6.219344370715389658e+01 9.062808691604933742e+00 2.085501971874459741e+02 2.131459466054671452e+02 -3.218193984721183654e+01 5.618423933947375559e+01 -2.909254261928434504e-01 -1.404200270418481296e+02 9.650576622582730124e+01 1.078302588249863447e+02 1.091029297206505078e+02 1.176978900335823752e+01 6.224123054712094216e+01 4.838700612754321639e+01 3.910042412598729555e+01 2.945003555710376730e+01 1.108813961942764195e+02 9.021203785267805131e+01 6.597534136056928844e+01 1.638228449085557941e+02 2.488721782646840381e+02 1.965894247028763289e+02 -5.943197605604350997e+01 4.952433853195773139e+01 -6.465740947155883589e+01 5.674227212601781645e+01 -1.931192115533884532e+02 5.680147943388644194e+01 -2.058840211652609185e+02 -1.695934864386176457e+02 1.300256786776028939e+01 -9.265050838465905159e+00 1.704548788302301716e+02 -2.089920256593451882e+02 7.569357130611798823e+01 2.309916911052752653e+02 -7.320544798913885209e+00 -1.956746521654283129e+02 3.582089912773970752e+01 1.983041653980603769e+02 -6.141927861838329505e+01 -2.678452909329130307e+02 -1.031150682976503390e+02 8.829582930307330102e+00 -2.313424391714347337e+02 3.214504606311401602e+01 -1.804575595039827647e+02 -1.866633619291415016e+02 -5.737642278745227031e+01 1.534084105650571246e+02 6.996185250247204124e+01 1.065710773527530186e+01 -8.912262157926710415e+01 -4.287369424841214283e+01 6.416768585686781989e+01 -2.335054904574578529e+02 5.445813472603147432e+01 -7.555480636726731802e+01 -7.858263411364177387e+01 -1.779650528585633253e+02 6.556461803927497556e+01 9.342453333008688787e+01 -1.634496177827172403e+02 1.739241604843029734e+02 -4.019649534098476806e+01 -1.703086867110286207e+01 8.811732220142344829e+01 1.573844241661522005e+02 2.179476056695365571e+01 1.525099121300075353e+02 -1.856729815505591930e+01 -9.136184430467979212e+01 -1.977098757831455700e+01 1.018358992237343159e+02 4.656469956662780163e+01 1.012914131611813531e+02 9.776318348155719207e+01 -8.596289829177018760e+01 -1.759415186786167453e+02 1.274341484906109372e+02 5.619453309291748155e+01 1.668375037740121769e+01 3.167505924656099481e+01 -7.034732311454085618e+01 9.947445302917051890e+01 9.302460321039563951e+01 -1.412070930778900468e+01 -7.377979962596765517e+01 3.192248286390041656e+01 6.490222834046011080e+00 -6.378879960150008088e+01 1.756252309042555169e+02 -3.428262713827603392e+01 1.260167015575251241e+02 -7.267726724877974220e+01 3.978070391878043210e+01 -3.746784533400086303e+01 9.271045142453557730e+01 2.435865912128831212e+01 1.198123411594837933e+02 -1.202333277840871233e+02 7.708306987209887495e+01 1.280762940834215726e+02 -4.639538436876727445e+01 7.819482646989812658e+00 -1.305778208989959133e+01 1.210935396801583295e+02 3.597508754321155244e+00 1.750493730015995766e+02 -1.467269317580529844e+02 1.211110483670277347e+02 -9.484938737593800795e+01 9.934731803092481073e+01 -1.422593715244318844e+02 3.065702454255488618e+01 2.567373701240710560e+01 1.917566229362044128e+00 3.770586564990729528e+01 4.759946978465283252e+01 -1.294727117443732034e+01 1.114943185347149956e+01 1.122667583582373965e+02 1.322193475332189792e+02 -9.000965791538226313e+01 -5.637306708752203832e+01 4.924880877292053327e+01 1.621091152226614485e+00 -1.422916368704699721e+02 -5.721017773500604875e+01 -3.689655801846979699e+01 5.087314471153849382e+01 -6.818927894486677133e+01 2.385835801638823739e+01 1.667437582886786345e+02 -8.266500458578892108e+01 8.398916292546304874e+01 8.750117810993226897e+01 1.164083096779076598e+01 1.284237581246360094e+02 6.544437517708385599e+01 1.749110231615754287e+02 -3.591264272281848235e+01 1.171174829491563401e+02 5.782076238459159612e+01 -1.675762778424400778e+01 2.126136685196153451e+02 -1.446301900076740026e+02 5.091684002728195679e+01 -1.954614276310026924e+02 -8.775313375707295904e+01 4.274509324295214441e+01 -7.527154672867675345e+01 -1.625343903988868419e+02 2.078560445558134120e+02 -8.947191982959529355e+01 -4.953495185405597567e+01 -4.828659315859540158e+01 1.270160605111422853e+02 2.032450267961094141e+02 6.757677024702357471e+01 1.526205013532577084e+02 2.290016814719727734e+02 -1.721262266230371152e+00 1.700602773373564958e+02 7.399572969251654797e+01 1.987262397270816905e+02 -1.312550967859748710e+02 -1.242152643682130631e+01 6.596392469924650115e+00 1.982953816586498021e+02 -9.492413047068775711e+01 -6.306760540013242888e+01 -5.528860324530971582e+01 -1.397684131012389344e+02 4.860046918848135888e+00 -1.053759923198618651e+02 1.607991939158070522e+02 2.462691971838851046e+01 1.255655955606114560e+01 7.548415343670635025e+01 -5.177440751683355380e+00 1.220316197492085166e+02 -1.657806930802516661e+02 4.737348692443183040e+01 -1.784000671298244924e+02 1.225755817861289785e+02 1.001660016620646729e+02 -7.029838861771870029e+01 4.878090510328716789e+01 2.485767479535313669e+02 -3.177163066100629862e+01 4.349646645980001836e+01 -3.409739845380551770e+01 6.047000464130189101e+01 6.713148601636997626e+01 -6.533578344068566857e+00 1.064248000914046770e+02 1.060178422553803870e+02 -2.023726261271033877e+02 -1.599577825126817174e+02 -1.250266406812917808e+02 -9.891378741629107907e+00 -1.563744568206299448e+02 1.205933430101242578e+02 1.152040537349599845e+02 6.151694103839787431e+01 1.164381593600663045e+01 1.645835398498490747e+02 8.762690737511607608e+01 7.042074118342165434e+01 -1.061105789154219252e+02 1.589016862882344299e+02 -3.705994298395462128e+00 1.140508653776051204e+02 9.192631733730221910e+00 3.834419952561010803e+01 -7.901710407768472066e+01 -9.470610793919243520e+01 7.467550808707778742e+01 -3.970216794944442906e+00 1.526244768558254634e+02 -1.313477942771691609e+01 -2.992694087335644237e+00 4.782503087071523140e+01 2.363121499584834595e+01 1.474720485708464821e+02 1.520582414856714415e+01 3.735525548286149444e+01 -1.613186914405338541e+02 6.867596004536592602e+01 1.393401157003473259e+02 -1.849238999478029299e+01 -2.376091805072270802e+02 8.794484843046406297e+01 1.417043913988855479e+02 2.108338075304321535e+01 1.964855652138689663e+02 -4.225813080300042657e+00 4.459988710876207563e+01 -4.523965843386041996e+01 -1.440132979650917378e+02 5.808475798331442519e+01 -4.924411229070768314e+01 -8.414869583896467020e+01 4.273308314402910923e+01 -1.916435040025854448e+02 7.442047818967559181e+01 1.703205570986771420e+02 -1.049097445725840032e+02 1.791608560578609399e+02 -1.012244894692713757e+02 -6.218729991654024403e+00 -1.086888932607935487e+01 7.927959636467943483e+01 -4.817535530480142825e+01 -1.116159181412236734e+02 -9.157263028087795931e+01 1.507901709395228238e+02 6.112528758210319069e+01 -1.361544965724287977e+02 4.611770700762152231e+00 4.493190933129022113e+01 8.535676685206304626e+01 -4.169080407280603850e+01 6.202623423480356024e+01 -7.126586563077563596e+01 -1.677971392694503550e+02 -3.579095292694571384e+01 1.456507421736050674e+02 -1.170600866344484245e+02 -6.658931538242577552e+00 -1.683089729817398847e+02 -4.875513045977897697e+00 -1.506210918899390379e+02 3.392483780535251725e+01 6.203300355141556111e+01 -5.196027786474180488e+01 -8.507069857577251071e+01 5.802058358906430513e+00 7.676020711572535049e+01 -6.992934000136935424e+01 1.390064546488993358e+02 1.087938723309366793e+02 -1.316652665957106194e+02 -1.087474479912708460e+02 1.393022745782537584e+02 7.359073965687795749e+01 1.548282838794813188e+02 1.034544891324482165e+02 8.369251307226309677e+01 -6.209004246169489249e+01 -8.428835448063706792e+01 -7.942297129694517821e+01 2.106563397496732932e+02 3.138971467662632264e+01 -2.562258065729521661e+01 -7.060425324641742861e+01 -5.155644256367101974e+01 -1.350111854367241335e+02 -1.700853555706741105e+01 -1.798761830851941568e+02 1.282154886316901923e+02 4.721895156896556500e+01 -1.181836261015359071e+02 -4.959194409195375641e+01 1.227862452504996327e+02 -9.947795880775416322e+01 1.054058073107729570e+02 -1.214140765632961489e+02 -1.205127980176384206e+01 -9.790028100394572164e+01 9.193026860657802501e+01 -4.355417695497029484e+01 1.063977861971906336e+01 3.003694444705127964e+01 -1.298267743363446129e+02 1.281698925638638720e+01 4.949897991998527402e+01 -2.300922100046134844e+01 -7.044972745280811921e+01 2.074415572151246465e+02 8.856649686142594646e+01 4.832046749257745688e+01 -3.220081670483877900e+01 8.223566816557428183e+01 1.716949515433354350e+02 -9.458972040181470220e+01 2.145501226288566272e+02 -1.363449340912671630e+02 -1.884428975675575373e+02 1.556138546267968081e+02 -2.396369211961641099e+02 -1.056539948974744680e+00 -2.508735111532566293e+02 -1.566775442084715166e+02 7.348578857540131537e+01 -1.492138948196847252e+02 5.981608796666751715e+01 1.125075529718022977e+02 -1.643162368212270508e+02 -3.090680160853937153e+01 7.721849949088836240e+01 1.371964484261781649e+02 -1.905680112041399639e+02 8.955120030900658890e+01 -1.003148203315849400e+02 -1.013636798058935717e+01 -1.425249411737181404e+01 -8.152939208900303925e+01 -9.252801859355399472e+01 1.857576757264214393e+02 -2.217100681398053297e+01 1.348232237445458059e+00 1.333781832110197740e+02 -8.875085768530802000e+01 -3.526527217576734330e+01 -1.102729836024652172e+02 -5.006743970745881001e+01 5.338411449600410918e+00 6.090578634314085349e+01 -1.385619086558294839e+02 2.434030396136924423e+02 -5.536589156120543009e+01 1.260542815599309279e+02 -5.017355749406284104e+01 1.231515724721483451e+02 1.429169009770930927e+02 4.940597523234134769e+01 1.255995575333039227e+02 -4.445476838354418447e+01 1.439652450966262052e+02 -1.608873173494037303e+02 -6.726846761112551576e+01 -6.479052736406497104e+01 2.623075116489312819e+01 -1.670207979014269597e+02 7.467174526483326247e+01 -3.172824257573649120e+01 -8.504854599957340611e+01 9.224366343592416229e+01 -1.555013152905966933e+02 -9.385598129111748733e+01 -5.409496539622870159e+01 3.405883949510044317e+01 1.336322800831156314e+02 1.203247642259105845e+02 7.118639430527828438e+01 -1.697215170280130581e+00 1.799195467490053773e+02 1.261022742209577103e+02 -9.714646102369377445e+01 -8.047900476470003639e+01 5.724083760140122479e+01 1.031205182395195230e+01 1.008298989138643975e+02 1.714476325526976836e+02 7.261820936021875639e+01 2.504660789480870164e+01 -1.051209889341447195e+02 1.768058510806764048e+02 -1.169740090849765437e+02 -1.700428233844294823e+02 6.759254219239932127e+01 1.146500615166931425e+02 2.016892858537697464e+01 -1.427890984787744060e+02 3.060344075564698585e+01 4.364896889111486900e+01 -2.850153770886726945e-01 1.345847265591210657e+02 1.001820034418973790e+02 1.757775035721891754e+01 8.053030110586990986e+01 -1.100672372028067372e+02 -6.434959532938258953e+00 1.010323179193330390e+02 3.049318098850010372e+01 -6.683360068042372859e+01 2.034364505497198650e+02 2.374183126350233408e+02 -1.290045374091801591e+02 -2.833382117489391305e+01 -2.159724750096633556e+02 -7.414070724817855762e+01 1.609095305971301286e+02 3.536556760319391923e+00 -7.289697481806535961e+01 1.682436505664751678e+02 -6.422491774935765818e+01 -1.648912460032243530e+02 1.401937220651041685e+02 -6.904795794887165528e+01 3.532049569690509827e+01 8.868052997902370294e+01 1.413135153945070854e+01 -2.444989264937919700e+02 4.337174473539203490e+01 -6.253639864195427833e+00 9.241667726907390090e+01 -2.417574341492482048e+01 1.038724778684958494e+02 1.738302458660169947e+01 -8.704734041473589912e+01 -2.100150820045583089e+01 -1.797818129109621452e+02 1.180125845670349918e+02 2.591764677946964213e+01 -4.273022834224235567e+01 -5.317772903085570846e+01 -6.446814226749363286e+01 4.214746118416329068e+01 1.648668866537895781e+02 1.361700736732596511e+02 4.421918288072802028e+01 -2.030079712391388966e+02 -3.980090889227315643e+01 4.494027028028991566e+01 1.204234431096589617e+02 8.954143652930956421e+01 1.587622354724702411e+01 -1.909131874837154328e+02 1.352003286717800563e+02 -2.296127530610128531e+02 -2.111832458121248237e+02 -1.916049104391903679e+00 -7.571211563951905532e+01 -2.466867108983263179e+01 8.941994418710220316e+01 5.738766834292605523e+01 -1.141427426391676221e+02 -1.553806495167849562e+02 1.499051937865439044e+01 1.269290161114443976e+02 2.128265122581127500e+01 -5.819437622042676139e+01 -5.292446485251140587e+01 -1.215117184929350636e+01 1.655929039090444803e+02 2.297314772280027739e+01 -1.813355428666714602e+02 1.339317315807089130e+02 -6.973170432308276645e+01 -4.365128383920861666e+00 1.608564902741993308e+02 -5.466979006125137630e+01 -2.044125710946777374e+01 -1.147454433315193683e+02 -6.286806375581337925e+00 -2.493602587810406845e+01 1.376259619877328930e+02 1.254841003806918422e+02 7.059583401140193359e+01 6.829474436452842667e+01 -1.955477912778670913e+01 1.413114358005513509e+02 -1.177539527266527699e+02 -4.463799717028692271e+00 -9.511803415536108730e+01 1.642144168028187039e+02 7.621568601746972149e+01 5.403577838213696083e+01 8.677411166225148520e+00 -5.562937557627203944e+01 3.592121668260065803e+01 7.081394665484295636e+00 3.701129007171862995e+00 2.521363656960216204e+01 6.244310208935787188e+01 1.778345992303160585e+02 -4.051868965576095150e+01 -5.432407980105892165e+01 6.974817416961626293e+01 1.208325949373905814e+02 -1.337093910560256660e+01 9.597553343243318125e+01 1.085816221860527975e+02 2.200656922491786247e+02 -9.040008261123669797e+01 -1.281633024959549800e+02 -2.989577103999746654e+01 6.486337113741542737e+01 -1.059392287153184142e+01 1.121754377332739665e+02 3.886046938030458620e+01 -1.698143678008216853e+02 4.705611527104184688e+01 -9.340188779097816507e+01 -1.412583465248698644e+02 1.404033165361265674e+02 -7.932265433657087783e+01 6.169012816454705472e+01 1.161101161925303273e+02 -1.033985291045829484e+02 2.446278747089574068e+01 -7.529263505227075370e+01 4.197578213717850559e+01 -1.194766014603485900e+02 6.419012049271667308e+01 5.699652164675860888e+01 4.145394835494501606e+00 8.771651550904185513e+01 -1.595355879922184670e+02 7.965589035881498603e+01 -3.043062150082193540e+01 -1.748885516261780140e+02 9.776300784929715348e+01 2.535126091206121401e+01 -2.031235611123907177e+02 2.434812793742319172e+02 -5.410900374996624462e-01 1.088881177691008020e+02 -1.248549847726179962e+02 -2.010474391758837100e+02 -9.659905876165778693e+01 2.535656237094186860e+00 1.479722954604013978e+02 4.196313669184771555e+00 -9.892210234393024848e+01 5.224160419831491708e+01 1.418758447039075747e+02 6.730125224993490463e+01 -5.359725794200362259e+01 -6.121429006816247664e+01 8.749052424819937812e+01 3.187309813519399526e+01 -2.023891616025319706e+02 -2.146783749192517732e+01 1.750074095243111572e+02 1.023587139758020186e+02 -5.931795350460379979e+01 -1.157436079652524086e+02 -4.419659456297947742e+01 -4.977317613809272956e+01 -1.184884545249886827e+02 -1.918748120714001359e+01 -4.727798760444558468e+01 -1.176123883944974864e+02 -1.364772299442093129e+02 -2.784160871183723174e+01 -1.300662960929562644e+02 -1.384312382205217489e+02 -3.968105304833918012e+01 -5.733113538937750064e+01 -1.148703450451381372e+02 1.997029971199575300e+02 1.130771932174964256e+01 -3.019257088469874262e+01 -1.826160487987868564e+01 8.439362022096621274e+01 1.676393404212141292e+01 2.687295291861845214e+01 -2.289367088792293004e+01 -4.953489608564135693e+01 2.245611707775296750e+01 -1.559259459213424464e+02 -1.708104164072231015e+02 -9.708314777504757842e+01 -2.047457738540857122e+02 -9.617236043126054312e+01 9.210747327599831635e+01 6.584476323053075930e+01 -2.797812917597376980e+01 6.520114635718398688e+01 -1.679234289501255262e+02 -4.372127846797680917e+01 -1.245654891111326066e+02 -7.162512736507630962e+01 2.262375348329302369e+02 -2.202436006625856066e+02 2.202293951001593086e+02 2.685831724129361220e+01 -6.062642776759781071e+01 9.902928584666946676e+01 1.331326656796234431e+02 -5.567804247061073397e+01 -2.185261628126185087e+02 -1.599694823830438395e+02 1.097001551860732604e+02 8.987175777791244968e+01 -1.454925377732404286e+02 3.431823859801557575e+01 -4.252454724461387059e+01 -8.303902727246817506e+01 -3.049167890821822979e+01 -5.884494283964993855e+01 -9.276876667648606656e+01 -3.648483563811240771e+01 4.748106318207050869e+00 -3.515002553597857826e+01 -4.570225651234652853e-01 -1.545804591315212662e+01 9.873426972749588515e+01 1.363030841441227778e+02 1.414116427971353573e+01 1.799549289525652540e+01 -6.766202619817337904e+01 -2.102543018611337118e+02 3.632876128820701922e+01 -9.844731164722102790e+01 2.769447911673119123e+01 -8.848139673015884554e+00 1.041844324902036822e+00 7.741733104986916203e+01 1.307438164831347365e+02 -7.556516755452625489e+01 4.076752935479645856e+01 -2.068124121683658814e+02 1.035152898641261565e+01 7.586922370757484657e+00 -1.314574686624512481e+02 -3.620570128425336520e+01 -4.755523244412258776e+01 5.130738156019222451e+00 -1.097159497298990090e+02 2.903405353177544512e+01 -1.047789296824560097e+02 6.028206543651585747e+01 7.275645555513311535e+01 3.954424945670383806e+01 -3.113596929066210706e+01 1.152343906172507531e+02 6.547433459820570079e+01 8.579315688799022155e+01 -7.183240033471541608e+01 2.182420842602106958e+01 1.371770745995745528e+02 -6.267633131128906143e+01 -7.406310761965633205e+00 3.431306575961152561e+01 -1.376435045147377991e+02 1.049002470325729632e+02 9.602894867062174455e+01 -1.083613071154287724e+02 -8.828333694862354264e+01 -5.948828810601926875e+01 -4.873955290663217710e+01 -1.718213083370419838e+02 -1.456896440872064886e+02 -1.419248169527295431e+02 1.132049641525331083e+02 6.399194549533824983e+01 1.708503530422830181e+02 7.694546336484274107e+00 -9.190067079750348000e+01 2.002725021691011165e+01 1.481936907683884286e+01 -6.793898962396121988e+01 7.927917156470370230e+01 1.263955503394314235e+02 1.073649083376678348e+01 1.535732807043111450e+02 2.412128335785379107e+01 1.187749414957974352e+02 1.618936248233183761e+01 -2.223397961720493470e+02 2.336668496037652289e+02 -5.236234498033353901e+01 -1.596108706250687703e+02 -7.188203559404929877e+01 -4.599197405073703493e+01 4.397294539727588614e+01 2.722071705348750115e+01 4.862926804744126486e+01 -7.887334476116951976e+01 1.301233849825091511e+02 -9.170223884378239632e+01 -7.448395777908372928e+00 1.514475800491174198e+02 1.165242677271864409e+02 6.156350094903557135e+01 -1.879747496011320322e+02 2.700196503595435615e+01 1.490628577414477149e+02 2.488056769607943863e+01 1.035056199786259725e+02 1.128603177030352782e+02 -2.239682278429630173e+02 8.150160225815876913e+01 -6.117716222986604180e+01 -2.381122393437852338e+02 9.364566610047218376e+01 2.600518050028253825e+01 -1.284903069980290695e+02 -6.158649832933454604e+01 1.458148288789731737e+02 1.546697007347636657e+02 -7.935080519578258418e+01 -1.336731970765774520e+02 -8.720590598717292607e+01 -1.731699189387450701e+02 2.038863953391623340e+01 3.948044940314939311e+01 -1.758255950547511759e+01 -1.286155044348490861e+01 -9.294258076895241061e+01 -9.179563282493774068e+01 -2.554272471971089686e+01 1.384809928515549871e+02 1.408316657286767963e+02 8.378020407220678578e+01 1.001228899575361027e+02 -8.107721136765614744e+01 -1.858514838585937525e+02 -1.365728385483613039e+01 -2.387632814000832226e+01 -7.293310380747479371e+01 1.554401649173922095e+00 7.510360975918855786e+01 -5.439732365197847486e+01 2.525105534564202259e+01 8.134440903535771383e+01 7.201170736340341705e+01 1.135297091846843642e+02 -1.533021837597192416e+02 4.073856674660544996e+01 8.559741226008115689e+01 9.736096886457090704e+01 6.071876017143186033e+01 -1.060779003949991903e+02 1.407110591851852064e+02 1.309312085789937896e+02 9.844893200269170563e+01 1.043097186675816062e+02 -8.655472143373830818e+01 -1.529576831090762212e+01 -1.325666275627612123e+01 7.920030231276884081e+01 6.674387272153187212e+01 5.745024495512195983e+01 1.002882129587074189e+02 1.196381265972320023e+02 1.271965727957728944e+02 -6.676086973143141279e+01 8.278907280650437883e+01 6.705693487583427270e+01 -1.208822519753232569e+02 1.352112363358039886e+02 -1.033162238548952772e+01 -2.867562669520454932e+01 2.047412980961136384e+02 9.088334196454979974e+01 1.275196325924937923e+02 -1.483413264137953718e+02 -1.621927101923626822e+02 -1.581614854330984201e+02 -1.256662440200406792e+02 -4.554864578406957065e+01 1.130292856586229107e+02 -1.735169605003817708e+02 3.350713203586418132e+01 1.486004977241370000e+02 -6.108156676342268554e+01 -9.408330428286106439e+01 -3.614099212569173858e+01 1.400152585080280403e+02 2.342266430889440869e+02 -6.861897147985477829e+01 2.041159756256544000e+01 -2.857372906969835924e+01 7.060139054440382722e+01 6.216143618438574237e+01 -2.198835504692083589e+02 -9.143439031149156904e+01 1.418903509443438224e+02 1.442293726417938160e+02 9.754089492569931963e+01 -5.135688911911029919e+01 -7.825661911915992164e+01 -4.690389953456016769e+01 -1.821616098863835305e+02 7.348827674123027975e+01 -2.652786275095866841e+01 1.718067616040754331e+02 -2.881819655790096846e+01 -3.247882443064912081e+02 1.496488439288161203e+02 5.203512934836236781e+01 -1.218865360434145373e+02 -2.283752449644772753e+01 3.649864189110145674e+01 -2.145527738684070869e+02 -1.181167058543830706e+02 -1.132020649222460804e+02 -5.837218086254722493e+01 6.494087314201195227e+01 -1.703228173220452959e+02 1.116097315131240606e+02 -5.614047532707810717e+01 2.989258230404594485e+00 -1.379301351246600404e+02 -1.070341795034065484e+02 1.818440754800105026e+02 8.960680137001536139e+01 -4.367985171141060619e+01 3.847933996372579912e+01 -2.903528787041221904e+01 4.464084258168574593e+01 -1.082129820157141609e+02 1.021669124132886566e+02 5.228008007194448226e+01 -1.230379094381082297e+02 1.208178329140707490e+02 -5.088178299429242912e+01 1.034072036277384825e+02 -5.114980053169043117e+01 9.150303286826508042e+01 -1.588087648781661301e+02 1.476831107798980725e+02 2.565542474286901253e+01 1.041675240267917673e+02 1.350069036136156058e+02 -1.518270789351924464e+02 -8.893489526301917181e+01 -1.093757758962121756e+02 6.927355443647905986e+01 -1.774508304581832761e+02 1.568290460290893407e+02 1.475396001223991505e+02 5.489798942488396705e+01 -8.794421975917796885e+01 5.909495467824123693e+01 -1.111243690902858958e+02 -1.137920732481287978e+01 3.627178746213780158e+01 -1.903949550522418406e+02 -8.458221511670740256e+01 -1.402805202691417108e+01 1.059607017740863455e+02 -5.202643075729933031e+01 1.126297161601526255e+02 -6.671842286931344290e+01 -2.185918369177806824e+02 -1.110478080869284412e+02 -3.538364138420990201e+01 -6.243278167596153594e+01 3.123293836658662315e+01 5.323632860782276310e+01 6.602835960733912657e+00 2.616694454857010044e+01 -1.216218853588734561e+02 5.579631574257815885e+01 3.384232289559394502e+01 -7.493513958748238224e+01 9.584032609472469488e+00 5.837551430685271470e+01 -9.903038646782111698e+01 -5.713483271007365261e+01 -2.502332555068543130e+01 1.013337152950336844e+02 -1.777742566054988771e+01 4.350238145545190172e+00 -2.366861688135720101e+02 -9.869669214244530053e+01 1.027010755531868824e+02 -9.272561838177243487e+01 3.254990345268200258e+01 3.226990358291403282e+01 3.943895273145022173e+01 6.863716233433517289e+01 -1.843047796690748896e+02 1.495098551963660611e+02 8.454733554903343418e+01 -7.779604858745814866e+00 -8.393975986415057378e+01 1.163145747958021445e+02 6.449958860101372693e+01 -2.088543286367320775e+02 -5.235846379036438236e+01 -8.483515287311702480e+01 -5.390086121645411055e+01 -6.438959066724702041e+01 -1.029695500808605573e+02 -6.273961237827154491e+01 1.989137230171918418e+02 -1.774961108440027715e+02 6.806140141282355671e+01 2.882061724831511640e+01 -7.809869817232113576e+01 1.077121652487856984e+01 -4.093354547606089966e+01 3.548747675984610161e+00 -9.986926416980290355e+01 -2.052613826633066481e+02 1.911107985390587771e+01 4.357741190777166906e+01 -1.330542684548710675e+01 -9.440224413434515682e+00 -4.134501154980407733e+01 -1.974253437968709761e+02 -3.187632009699488833e+01 -6.795104497209496230e+01 1.455330107591463218e+01 -1.621710270656422992e+01 9.406795579653059747e+01 -6.551338542074431359e+01 -1.078080299350723408e+02 -3.720806015710294901e+01 -9.409484807270498408e+00 4.737804537242953984e+01 -2.304475697211664453e+01 -7.656569010673335640e+01 -1.649154700660923112e+01 2.088755840990943113e+01 4.938675539569715056e+01 -1.185695336701953693e+02 -1.445688921230998005e+02 2.394837573575660485e+02 -2.269388626642590054e+02 -7.900785697038240585e+01 -4.821879216995458250e+01 1.454550279316248975e+02 6.581448424456819168e+01 2.379292281158353148e+02 2.545043556355837211e+02 -6.479423518448722064e+01 1.346805426932931766e+02 -5.810550661726983890e+01 -4.242891361137024830e+01 -1.047118568469742286e+02 -8.304456838117029349e+01 -7.239154859699975475e+01 -9.252487424099967939e+01 -2.535232739676972074e+02 -2.817610091793436595e+02 1.401174193485923922e+02 -2.757674601408034221e+01 5.539340680400810157e+01 1.360595382184364155e+02
