# 
#                 ----------------------------------------------------
#                 Data from a 3D direct N-body simulation. 
# 
#                 rows are i-particle; 
#                 coumns are :mass, tag, x ,y, z, vx, vy, vz, ax, ay, az
# 
#                 NTHU, Computational Physics Lab
# 
#                 ----------------------------------------------------
#                 Time = 9.899999999999833
1.000000000000000000e+00 2.000000000000000000e+00 3.000000000000000000e+00 4.000000000000000000e+00 5.000000000000000000e+00 6.000000000000000000e+00 7.000000000000000000e+00 8.000000000000000000e+00 9.000000000000000000e+00 1.000000000000000000e+01 1.100000000000000000e+01 1.200000000000000000e+01 1.300000000000000000e+01 1.400000000000000000e+01 1.500000000000000000e+01 1.600000000000000000e+01 1.700000000000000000e+01 1.800000000000000000e+01 1.900000000000000000e+01 2.000000000000000000e+01 2.100000000000000000e+01 2.200000000000000000e+01 2.300000000000000000e+01 2.400000000000000000e+01 2.500000000000000000e+01 2.600000000000000000e+01 2.700000000000000000e+01 2.800000000000000000e+01 2.900000000000000000e+01 3.000000000000000000e+01 3.100000000000000000e+01 3.200000000000000000e+01 3.300000000000000000e+01 3.400000000000000000e+01 3.500000000000000000e+01 3.600000000000000000e+01 3.700000000000000000e+01 3.800000000000000000e+01 3.900000000000000000e+01 4.000000000000000000e+01 4.100000000000000000e+01 4.200000000000000000e+01 4.300000000000000000e+01 4.400000000000000000e+01 4.500000000000000000e+01 4.600000000000000000e+01 4.700000000000000000e+01 4.800000000000000000e+01 4.900000000000000000e+01 5.000000000000000000e+01 5.100000000000000000e+01 5.200000000000000000e+01 5.300000000000000000e+01 5.400000000000000000e+01 5.500000000000000000e+01 5.600000000000000000e+01 5.700000000000000000e+01 5.800000000000000000e+01 5.900000000000000000e+01 6.000000000000000000e+01 6.100000000000000000e+01 6.200000000000000000e+01 6.300000000000000000e+01 6.400000000000000000e+01 6.500000000000000000e+01 6.600000000000000000e+01 6.700000000000000000e+01 6.800000000000000000e+01 6.900000000000000000e+01 7.000000000000000000e+01 7.100000000000000000e+01 7.200000000000000000e+01 7.300000000000000000e+01 7.400000000000000000e+01 7.500000000000000000e+01 7.600000000000000000e+01 7.700000000000000000e+01 7.800000000000000000e+01 7.900000000000000000e+01 8.000000000000000000e+01 8.100000000000000000e+01 8.200000000000000000e+01 8.300000000000000000e+01 8.400000000000000000e+01 8.500000000000000000e+01 8.600000000000000000e+01 8.700000000000000000e+01 8.800000000000000000e+01 8.900000000000000000e+01 9.000000000000000000e+01 9.100000000000000000e+01 9.200000000000000000e+01 9.300000000000000000e+01 9.400000000000000000e+01 9.500000000000000000e+01 9.600000000000000000e+01 9.700000000000000000e+01 9.800000000000000000e+01 9.900000000000000000e+01 1.000000000000000000e+02 1.010000000000000000e+02 1.020000000000000000e+02 1.030000000000000000e+02 1.040000000000000000e+02 1.050000000000000000e+02 1.060000000000000000e+02 1.070000000000000000e+02 1.080000000000000000e+02 1.090000000000000000e+02 1.100000000000000000e+02 1.110000000000000000e+02 1.120000000000000000e+02 1.130000000000000000e+02 1.140000000000000000e+02 1.150000000000000000e+02 1.160000000000000000e+02 1.170000000000000000e+02 1.180000000000000000e+02 1.190000000000000000e+02 1.200000000000000000e+02 1.210000000000000000e+02 1.220000000000000000e+02 1.230000000000000000e+02 1.240000000000000000e+02 1.250000000000000000e+02 1.260000000000000000e+02 1.270000000000000000e+02 1.280000000000000000e+02 1.290000000000000000e+02 1.300000000000000000e+02 1.310000000000000000e+02 1.320000000000000000e+02 1.330000000000000000e+02 1.340000000000000000e+02 1.350000000000000000e+02 1.360000000000000000e+02 1.370000000000000000e+02 1.380000000000000000e+02 1.390000000000000000e+02 1.400000000000000000e+02 1.410000000000000000e+02 1.420000000000000000e+02 1.430000000000000000e+02 1.440000000000000000e+02 1.450000000000000000e+02 1.460000000000000000e+02 1.470000000000000000e+02 1.480000000000000000e+02 1.490000000000000000e+02 1.500000000000000000e+02 1.510000000000000000e+02 1.520000000000000000e+02 1.530000000000000000e+02 1.540000000000000000e+02 1.550000000000000000e+02 1.560000000000000000e+02 1.570000000000000000e+02 1.580000000000000000e+02 1.590000000000000000e+02 1.600000000000000000e+02 1.610000000000000000e+02 1.620000000000000000e+02 1.630000000000000000e+02 1.640000000000000000e+02 1.650000000000000000e+02 1.660000000000000000e+02 1.670000000000000000e+02 1.680000000000000000e+02 1.690000000000000000e+02 1.700000000000000000e+02 1.710000000000000000e+02 1.720000000000000000e+02 1.730000000000000000e+02 1.740000000000000000e+02 1.750000000000000000e+02 1.760000000000000000e+02 1.770000000000000000e+02 1.780000000000000000e+02 1.790000000000000000e+02 1.800000000000000000e+02 1.810000000000000000e+02 1.820000000000000000e+02 1.830000000000000000e+02 1.840000000000000000e+02 1.850000000000000000e+02 1.860000000000000000e+02 1.870000000000000000e+02 1.880000000000000000e+02 1.890000000000000000e+02 1.900000000000000000e+02 1.910000000000000000e+02 1.920000000000000000e+02 1.930000000000000000e+02 1.940000000000000000e+02 1.950000000000000000e+02 1.960000000000000000e+02 1.970000000000000000e+02 1.980000000000000000e+02 1.990000000000000000e+02 2.000000000000000000e+02 2.010000000000000000e+02 2.020000000000000000e+02 2.030000000000000000e+02 2.040000000000000000e+02 2.050000000000000000e+02 2.060000000000000000e+02 2.070000000000000000e+02 2.080000000000000000e+02 2.090000000000000000e+02 2.100000000000000000e+02 2.110000000000000000e+02 2.120000000000000000e+02 2.130000000000000000e+02 2.140000000000000000e+02 2.150000000000000000e+02 2.160000000000000000e+02 2.170000000000000000e+02 2.180000000000000000e+02 2.190000000000000000e+02 2.200000000000000000e+02 2.210000000000000000e+02 2.220000000000000000e+02 2.230000000000000000e+02 2.240000000000000000e+02 2.250000000000000000e+02 2.260000000000000000e+02 2.270000000000000000e+02 2.280000000000000000e+02 2.290000000000000000e+02 2.300000000000000000e+02 2.310000000000000000e+02 2.320000000000000000e+02 2.330000000000000000e+02 2.340000000000000000e+02 2.350000000000000000e+02 2.360000000000000000e+02 2.370000000000000000e+02 2.380000000000000000e+02 2.390000000000000000e+02 2.400000000000000000e+02 2.410000000000000000e+02 2.420000000000000000e+02 2.430000000000000000e+02 2.440000000000000000e+02 2.450000000000000000e+02 2.460000000000000000e+02 2.470000000000000000e+02 2.480000000000000000e+02 2.490000000000000000e+02 2.500000000000000000e+02 2.510000000000000000e+02 2.520000000000000000e+02 2.530000000000000000e+02 2.540000000000000000e+02 2.550000000000000000e+02 2.560000000000000000e+02 2.570000000000000000e+02 2.580000000000000000e+02 2.590000000000000000e+02 2.600000000000000000e+02 2.610000000000000000e+02 2.620000000000000000e+02 2.630000000000000000e+02 2.640000000000000000e+02 2.650000000000000000e+02 2.660000000000000000e+02 2.670000000000000000e+02 2.680000000000000000e+02 2.690000000000000000e+02 2.700000000000000000e+02 2.710000000000000000e+02 2.720000000000000000e+02 2.730000000000000000e+02 2.740000000000000000e+02 2.750000000000000000e+02 2.760000000000000000e+02 2.770000000000000000e+02 2.780000000000000000e+02 2.790000000000000000e+02 2.800000000000000000e+02 2.810000000000000000e+02 2.820000000000000000e+02 2.830000000000000000e+02 2.840000000000000000e+02 2.850000000000000000e+02 2.860000000000000000e+02 2.870000000000000000e+02 2.880000000000000000e+02 2.890000000000000000e+02 2.900000000000000000e+02 2.910000000000000000e+02 2.920000000000000000e+02 2.930000000000000000e+02 2.940000000000000000e+02 2.950000000000000000e+02 2.960000000000000000e+02 2.970000000000000000e+02 2.980000000000000000e+02 2.990000000000000000e+02 3.000000000000000000e+02 3.010000000000000000e+02 3.020000000000000000e+02 3.030000000000000000e+02 3.040000000000000000e+02 3.050000000000000000e+02 3.060000000000000000e+02 3.070000000000000000e+02 3.080000000000000000e+02 3.090000000000000000e+02 3.100000000000000000e+02 3.110000000000000000e+02 3.120000000000000000e+02 3.130000000000000000e+02 3.140000000000000000e+02 3.150000000000000000e+02 3.160000000000000000e+02 3.170000000000000000e+02 3.180000000000000000e+02 3.190000000000000000e+02 3.200000000000000000e+02 3.210000000000000000e+02 3.220000000000000000e+02 3.230000000000000000e+02 3.240000000000000000e+02 3.250000000000000000e+02 3.260000000000000000e+02 3.270000000000000000e+02 3.280000000000000000e+02 3.290000000000000000e+02 3.300000000000000000e+02 3.310000000000000000e+02 3.320000000000000000e+02 3.330000000000000000e+02 3.340000000000000000e+02 3.350000000000000000e+02 3.360000000000000000e+02 3.370000000000000000e+02 3.380000000000000000e+02 3.390000000000000000e+02 3.400000000000000000e+02 3.410000000000000000e+02 3.420000000000000000e+02 3.430000000000000000e+02 3.440000000000000000e+02 3.450000000000000000e+02 3.460000000000000000e+02 3.470000000000000000e+02 3.480000000000000000e+02 3.490000000000000000e+02 3.500000000000000000e+02 3.510000000000000000e+02 3.520000000000000000e+02 3.530000000000000000e+02 3.540000000000000000e+02 3.550000000000000000e+02 3.560000000000000000e+02 3.570000000000000000e+02 3.580000000000000000e+02 3.590000000000000000e+02 3.600000000000000000e+02 3.610000000000000000e+02 3.620000000000000000e+02 3.630000000000000000e+02 3.640000000000000000e+02 3.650000000000000000e+02 3.660000000000000000e+02 3.670000000000000000e+02 3.680000000000000000e+02 3.690000000000000000e+02 3.700000000000000000e+02 3.710000000000000000e+02 3.720000000000000000e+02 3.730000000000000000e+02 3.740000000000000000e+02 3.750000000000000000e+02 3.760000000000000000e+02 3.770000000000000000e+02 3.780000000000000000e+02 3.790000000000000000e+02 3.800000000000000000e+02 3.810000000000000000e+02 3.820000000000000000e+02 3.830000000000000000e+02 3.840000000000000000e+02 3.850000000000000000e+02 3.860000000000000000e+02 3.870000000000000000e+02 3.880000000000000000e+02 3.890000000000000000e+02 3.900000000000000000e+02 3.910000000000000000e+02 3.920000000000000000e+02 3.930000000000000000e+02 3.940000000000000000e+02 3.950000000000000000e+02 3.960000000000000000e+02 3.970000000000000000e+02 3.980000000000000000e+02 3.990000000000000000e+02 4.000000000000000000e+02 4.010000000000000000e+02 4.020000000000000000e+02 4.030000000000000000e+02 4.040000000000000000e+02 4.050000000000000000e+02 4.060000000000000000e+02 4.070000000000000000e+02 4.080000000000000000e+02 4.090000000000000000e+02 4.100000000000000000e+02 4.110000000000000000e+02 4.120000000000000000e+02 4.130000000000000000e+02 4.140000000000000000e+02 4.150000000000000000e+02 4.160000000000000000e+02 4.170000000000000000e+02 4.180000000000000000e+02 4.190000000000000000e+02 4.200000000000000000e+02 4.210000000000000000e+02 4.220000000000000000e+02 4.230000000000000000e+02 4.240000000000000000e+02 4.250000000000000000e+02 4.260000000000000000e+02 4.270000000000000000e+02 4.280000000000000000e+02 4.290000000000000000e+02 4.300000000000000000e+02 4.310000000000000000e+02 4.320000000000000000e+02 4.330000000000000000e+02 4.340000000000000000e+02 4.350000000000000000e+02 4.360000000000000000e+02 4.370000000000000000e+02 4.380000000000000000e+02 4.390000000000000000e+02 4.400000000000000000e+02 4.410000000000000000e+02 4.420000000000000000e+02 4.430000000000000000e+02 4.440000000000000000e+02 4.450000000000000000e+02 4.460000000000000000e+02 4.470000000000000000e+02 4.480000000000000000e+02 4.490000000000000000e+02 4.500000000000000000e+02 4.510000000000000000e+02 4.520000000000000000e+02 4.530000000000000000e+02 4.540000000000000000e+02 4.550000000000000000e+02 4.560000000000000000e+02 4.570000000000000000e+02 4.580000000000000000e+02 4.590000000000000000e+02 4.600000000000000000e+02 4.610000000000000000e+02 4.620000000000000000e+02 4.630000000000000000e+02 4.640000000000000000e+02 4.650000000000000000e+02 4.660000000000000000e+02 4.670000000000000000e+02 4.680000000000000000e+02 4.690000000000000000e+02 4.700000000000000000e+02 4.710000000000000000e+02 4.720000000000000000e+02 4.730000000000000000e+02 4.740000000000000000e+02 4.750000000000000000e+02 4.760000000000000000e+02 4.770000000000000000e+02 4.780000000000000000e+02 4.790000000000000000e+02 4.800000000000000000e+02 4.810000000000000000e+02 4.820000000000000000e+02 4.830000000000000000e+02 4.840000000000000000e+02 4.850000000000000000e+02 4.860000000000000000e+02 4.870000000000000000e+02 4.880000000000000000e+02 4.890000000000000000e+02 4.900000000000000000e+02 4.910000000000000000e+02 4.920000000000000000e+02 4.930000000000000000e+02 4.940000000000000000e+02 4.950000000000000000e+02 4.960000000000000000e+02 4.970000000000000000e+02 4.980000000000000000e+02 4.990000000000000000e+02 5.000000000000000000e+02 5.010000000000000000e+02 5.020000000000000000e+02 5.030000000000000000e+02 5.040000000000000000e+02 5.050000000000000000e+02 5.060000000000000000e+02 5.070000000000000000e+02 5.080000000000000000e+02 5.090000000000000000e+02 5.100000000000000000e+02 5.110000000000000000e+02 5.120000000000000000e+02 5.130000000000000000e+02 5.140000000000000000e+02 5.150000000000000000e+02 5.160000000000000000e+02 5.170000000000000000e+02 5.180000000000000000e+02 5.190000000000000000e+02 5.200000000000000000e+02 5.210000000000000000e+02 5.220000000000000000e+02 5.230000000000000000e+02 5.240000000000000000e+02 5.250000000000000000e+02 5.260000000000000000e+02 5.270000000000000000e+02 5.280000000000000000e+02 5.290000000000000000e+02 5.300000000000000000e+02 5.310000000000000000e+02 5.320000000000000000e+02 5.330000000000000000e+02 5.340000000000000000e+02 5.350000000000000000e+02 5.360000000000000000e+02 5.370000000000000000e+02 5.380000000000000000e+02 5.390000000000000000e+02 5.400000000000000000e+02 5.410000000000000000e+02 5.420000000000000000e+02 5.430000000000000000e+02 5.440000000000000000e+02 5.450000000000000000e+02 5.460000000000000000e+02 5.470000000000000000e+02 5.480000000000000000e+02 5.490000000000000000e+02 5.500000000000000000e+02 5.510000000000000000e+02 5.520000000000000000e+02 5.530000000000000000e+02 5.540000000000000000e+02 5.550000000000000000e+02 5.560000000000000000e+02 5.570000000000000000e+02 5.580000000000000000e+02 5.590000000000000000e+02 5.600000000000000000e+02 5.610000000000000000e+02 5.620000000000000000e+02 5.630000000000000000e+02 5.640000000000000000e+02 5.650000000000000000e+02 5.660000000000000000e+02 5.670000000000000000e+02 5.680000000000000000e+02 5.690000000000000000e+02 5.700000000000000000e+02 5.710000000000000000e+02 5.720000000000000000e+02 5.730000000000000000e+02 5.740000000000000000e+02 5.750000000000000000e+02 5.760000000000000000e+02 5.770000000000000000e+02 5.780000000000000000e+02 5.790000000000000000e+02 5.800000000000000000e+02 5.810000000000000000e+02 5.820000000000000000e+02 5.830000000000000000e+02 5.840000000000000000e+02 5.850000000000000000e+02 5.860000000000000000e+02 5.870000000000000000e+02 5.880000000000000000e+02 5.890000000000000000e+02 5.900000000000000000e+02 5.910000000000000000e+02 5.920000000000000000e+02 5.930000000000000000e+02 5.940000000000000000e+02 5.950000000000000000e+02 5.960000000000000000e+02 5.970000000000000000e+02 5.980000000000000000e+02 5.990000000000000000e+02 6.000000000000000000e+02 6.010000000000000000e+02 6.020000000000000000e+02 6.030000000000000000e+02 6.040000000000000000e+02 6.050000000000000000e+02 6.060000000000000000e+02 6.070000000000000000e+02 6.080000000000000000e+02 6.090000000000000000e+02 6.100000000000000000e+02 6.110000000000000000e+02 6.120000000000000000e+02 6.130000000000000000e+02 6.140000000000000000e+02 6.150000000000000000e+02 6.160000000000000000e+02 6.170000000000000000e+02 6.180000000000000000e+02 6.190000000000000000e+02 6.200000000000000000e+02 6.210000000000000000e+02 6.220000000000000000e+02 6.230000000000000000e+02 6.240000000000000000e+02 6.250000000000000000e+02 6.260000000000000000e+02 6.270000000000000000e+02 6.280000000000000000e+02 6.290000000000000000e+02 6.300000000000000000e+02 6.310000000000000000e+02 6.320000000000000000e+02 6.330000000000000000e+02 6.340000000000000000e+02 6.350000000000000000e+02 6.360000000000000000e+02 6.370000000000000000e+02 6.380000000000000000e+02 6.390000000000000000e+02 6.400000000000000000e+02 6.410000000000000000e+02 6.420000000000000000e+02 6.430000000000000000e+02 6.440000000000000000e+02 6.450000000000000000e+02 6.460000000000000000e+02 6.470000000000000000e+02 6.480000000000000000e+02 6.490000000000000000e+02 6.500000000000000000e+02 6.510000000000000000e+02 6.520000000000000000e+02 6.530000000000000000e+02 6.540000000000000000e+02 6.550000000000000000e+02 6.560000000000000000e+02 6.570000000000000000e+02 6.580000000000000000e+02 6.590000000000000000e+02 6.600000000000000000e+02 6.610000000000000000e+02 6.620000000000000000e+02 6.630000000000000000e+02 6.640000000000000000e+02 6.650000000000000000e+02 6.660000000000000000e+02 6.670000000000000000e+02 6.680000000000000000e+02 6.690000000000000000e+02 6.700000000000000000e+02 6.710000000000000000e+02 6.720000000000000000e+02 6.730000000000000000e+02 6.740000000000000000e+02 6.750000000000000000e+02 6.760000000000000000e+02 6.770000000000000000e+02 6.780000000000000000e+02 6.790000000000000000e+02 6.800000000000000000e+02 6.810000000000000000e+02 6.820000000000000000e+02 6.830000000000000000e+02 6.840000000000000000e+02 6.850000000000000000e+02 6.860000000000000000e+02 6.870000000000000000e+02 6.880000000000000000e+02 6.890000000000000000e+02 6.900000000000000000e+02 6.910000000000000000e+02 6.920000000000000000e+02 6.930000000000000000e+02 6.940000000000000000e+02 6.950000000000000000e+02 6.960000000000000000e+02 6.970000000000000000e+02 6.980000000000000000e+02 6.990000000000000000e+02 7.000000000000000000e+02 7.010000000000000000e+02 7.020000000000000000e+02 7.030000000000000000e+02 7.040000000000000000e+02 7.050000000000000000e+02 7.060000000000000000e+02 7.070000000000000000e+02 7.080000000000000000e+02 7.090000000000000000e+02 7.100000000000000000e+02 7.110000000000000000e+02 7.120000000000000000e+02 7.130000000000000000e+02 7.140000000000000000e+02 7.150000000000000000e+02 7.160000000000000000e+02 7.170000000000000000e+02 7.180000000000000000e+02 7.190000000000000000e+02 7.200000000000000000e+02 7.210000000000000000e+02 7.220000000000000000e+02 7.230000000000000000e+02 7.240000000000000000e+02 7.250000000000000000e+02 7.260000000000000000e+02 7.270000000000000000e+02 7.280000000000000000e+02 7.290000000000000000e+02 7.300000000000000000e+02 7.310000000000000000e+02 7.320000000000000000e+02 7.330000000000000000e+02 7.340000000000000000e+02 7.350000000000000000e+02 7.360000000000000000e+02 7.370000000000000000e+02 7.380000000000000000e+02 7.390000000000000000e+02 7.400000000000000000e+02 7.410000000000000000e+02 7.420000000000000000e+02 7.430000000000000000e+02 7.440000000000000000e+02 7.450000000000000000e+02 7.460000000000000000e+02 7.470000000000000000e+02 7.480000000000000000e+02 7.490000000000000000e+02 7.500000000000000000e+02 7.510000000000000000e+02 7.520000000000000000e+02 7.530000000000000000e+02 7.540000000000000000e+02 7.550000000000000000e+02 7.560000000000000000e+02 7.570000000000000000e+02 7.580000000000000000e+02 7.590000000000000000e+02 7.600000000000000000e+02 7.610000000000000000e+02 7.620000000000000000e+02 7.630000000000000000e+02 7.640000000000000000e+02 7.650000000000000000e+02 7.660000000000000000e+02 7.670000000000000000e+02 7.680000000000000000e+02 7.690000000000000000e+02 7.700000000000000000e+02 7.710000000000000000e+02 7.720000000000000000e+02 7.730000000000000000e+02 7.740000000000000000e+02 7.750000000000000000e+02 7.760000000000000000e+02 7.770000000000000000e+02 7.780000000000000000e+02 7.790000000000000000e+02 7.800000000000000000e+02 7.810000000000000000e+02 7.820000000000000000e+02 7.830000000000000000e+02 7.840000000000000000e+02 7.850000000000000000e+02 7.860000000000000000e+02 7.870000000000000000e+02 7.880000000000000000e+02 7.890000000000000000e+02 7.900000000000000000e+02 7.910000000000000000e+02 7.920000000000000000e+02 7.930000000000000000e+02 7.940000000000000000e+02 7.950000000000000000e+02 7.960000000000000000e+02 7.970000000000000000e+02 7.980000000000000000e+02 7.990000000000000000e+02 8.000000000000000000e+02 8.010000000000000000e+02 8.020000000000000000e+02 8.030000000000000000e+02 8.040000000000000000e+02 8.050000000000000000e+02 8.060000000000000000e+02 8.070000000000000000e+02 8.080000000000000000e+02 8.090000000000000000e+02 8.100000000000000000e+02 8.110000000000000000e+02 8.120000000000000000e+02 8.130000000000000000e+02 8.140000000000000000e+02 8.150000000000000000e+02 8.160000000000000000e+02 8.170000000000000000e+02 8.180000000000000000e+02 8.190000000000000000e+02 8.200000000000000000e+02 8.210000000000000000e+02 8.220000000000000000e+02 8.230000000000000000e+02 8.240000000000000000e+02 8.250000000000000000e+02 8.260000000000000000e+02 8.270000000000000000e+02 8.280000000000000000e+02 8.290000000000000000e+02 8.300000000000000000e+02 8.310000000000000000e+02 8.320000000000000000e+02 8.330000000000000000e+02 8.340000000000000000e+02 8.350000000000000000e+02 8.360000000000000000e+02 8.370000000000000000e+02 8.380000000000000000e+02 8.390000000000000000e+02 8.400000000000000000e+02 8.410000000000000000e+02 8.420000000000000000e+02 8.430000000000000000e+02 8.440000000000000000e+02 8.450000000000000000e+02 8.460000000000000000e+02 8.470000000000000000e+02 8.480000000000000000e+02 8.490000000000000000e+02 8.500000000000000000e+02 8.510000000000000000e+02 8.520000000000000000e+02 8.530000000000000000e+02 8.540000000000000000e+02 8.550000000000000000e+02 8.560000000000000000e+02 8.570000000000000000e+02 8.580000000000000000e+02 8.590000000000000000e+02 8.600000000000000000e+02 8.610000000000000000e+02 8.620000000000000000e+02 8.630000000000000000e+02 8.640000000000000000e+02 8.650000000000000000e+02 8.660000000000000000e+02 8.670000000000000000e+02 8.680000000000000000e+02 8.690000000000000000e+02 8.700000000000000000e+02 8.710000000000000000e+02 8.720000000000000000e+02 8.730000000000000000e+02 8.740000000000000000e+02 8.750000000000000000e+02 8.760000000000000000e+02 8.770000000000000000e+02 8.780000000000000000e+02 8.790000000000000000e+02 8.800000000000000000e+02 8.810000000000000000e+02 8.820000000000000000e+02 8.830000000000000000e+02 8.840000000000000000e+02 8.850000000000000000e+02 8.860000000000000000e+02 8.870000000000000000e+02 8.880000000000000000e+02 8.890000000000000000e+02 8.900000000000000000e+02 8.910000000000000000e+02 8.920000000000000000e+02 8.930000000000000000e+02 8.940000000000000000e+02 8.950000000000000000e+02 8.960000000000000000e+02 8.970000000000000000e+02 8.980000000000000000e+02 8.990000000000000000e+02 9.000000000000000000e+02 9.010000000000000000e+02 9.020000000000000000e+02 9.030000000000000000e+02 9.040000000000000000e+02 9.050000000000000000e+02 9.060000000000000000e+02 9.070000000000000000e+02 9.080000000000000000e+02 9.090000000000000000e+02 9.100000000000000000e+02 9.110000000000000000e+02 9.120000000000000000e+02 9.130000000000000000e+02 9.140000000000000000e+02 9.150000000000000000e+02 9.160000000000000000e+02 9.170000000000000000e+02 9.180000000000000000e+02 9.190000000000000000e+02 9.200000000000000000e+02 9.210000000000000000e+02 9.220000000000000000e+02 9.230000000000000000e+02 9.240000000000000000e+02 9.250000000000000000e+02 9.260000000000000000e+02 9.270000000000000000e+02 9.280000000000000000e+02 9.290000000000000000e+02 9.300000000000000000e+02 9.310000000000000000e+02 9.320000000000000000e+02 9.330000000000000000e+02 9.340000000000000000e+02 9.350000000000000000e+02 9.360000000000000000e+02 9.370000000000000000e+02 9.380000000000000000e+02 9.390000000000000000e+02 9.400000000000000000e+02 9.410000000000000000e+02 9.420000000000000000e+02 9.430000000000000000e+02 9.440000000000000000e+02 9.450000000000000000e+02 9.460000000000000000e+02 9.470000000000000000e+02 9.480000000000000000e+02 9.490000000000000000e+02 9.500000000000000000e+02 9.510000000000000000e+02 9.520000000000000000e+02 9.530000000000000000e+02 9.540000000000000000e+02 9.550000000000000000e+02 9.560000000000000000e+02 9.570000000000000000e+02 9.580000000000000000e+02 9.590000000000000000e+02 9.600000000000000000e+02 9.610000000000000000e+02 9.620000000000000000e+02 9.630000000000000000e+02 9.640000000000000000e+02 9.650000000000000000e+02 9.660000000000000000e+02 9.670000000000000000e+02 9.680000000000000000e+02 9.690000000000000000e+02 9.700000000000000000e+02 9.710000000000000000e+02 9.720000000000000000e+02 9.730000000000000000e+02 9.740000000000000000e+02 9.750000000000000000e+02 9.760000000000000000e+02 9.770000000000000000e+02 9.780000000000000000e+02 9.790000000000000000e+02 9.800000000000000000e+02 9.810000000000000000e+02 9.820000000000000000e+02 9.830000000000000000e+02 9.840000000000000000e+02 9.850000000000000000e+02 9.860000000000000000e+02 9.870000000000000000e+02 9.880000000000000000e+02 9.890000000000000000e+02 9.900000000000000000e+02 9.910000000000000000e+02 9.920000000000000000e+02 9.930000000000000000e+02 9.940000000000000000e+02 9.950000000000000000e+02 9.960000000000000000e+02 9.970000000000000000e+02 9.980000000000000000e+02 9.990000000000000000e+02 1.000000000000000000e+03
1.000000000000000021e-02 1.000000000000000021e-02 1.000000000000000021e-02 1.000000000000000021e-02 1.000000000000000021e-02 1.000000000000000021e-02 1.000000000000000021e-02 1.000000000000000021e-02 1.000000000000000021e-02 1.000000000000000021e-02 1.000000000000000021e-02 1.000000000000000021e-02 1.000000000000000021e-02 1.000000000000000021e-02 1.000000000000000021e-02 1.000000000000000021e-02 1.000000000000000021e-02 1.000000000000000021e-02 1.000000000000000021e-02 1.000000000000000021e-02 1.000000000000000021e-02 1.000000000000000021e-02 1.000000000000000021e-02 1.000000000000000021e-02 1.000000000000000021e-02 1.000000000000000021e-02 1.000000000000000021e-02 1.000000000000000021e-02 1.000000000000000021e-02 1.000000000000000021e-02 1.000000000000000021e-02 1.000000000000000021e-02 1.000000000000000021e-02 1.000000000000000021e-02 1.000000000000000021e-02 1.000000000000000021e-02 1.000000000000000021e-02 1.000000000000000021e-02 1.000000000000000021e-02 1.000000000000000021e-02 1.000000000000000021e-02 1.000000000000000021e-02 1.000000000000000021e-02 1.000000000000000021e-02 1.000000000000000021e-02 1.000000000000000021e-02 1.000000000000000021e-02 1.000000000000000021e-02 1.000000000000000021e-02 1.000000000000000021e-02 1.000000000000000021e-02 1.000000000000000021e-02 1.000000000000000021e-02 1.000000000000000021e-02 1.000000000000000021e-02 1.000000000000000021e-02 1.000000000000000021e-02 1.000000000000000021e-02 1.000000000000000021e-02 1.000000000000000021e-02 1.000000000000000021e-02 1.000000000000000021e-02 1.000000000000000021e-02 1.000000000000000021e-02 1.000000000000000021e-02 1.000000000000000021e-02 1.000000000000000021e-02 1.000000000000000021e-02 1.000000000000000021e-02 1.000000000000000021e-02 1.000000000000000021e-02 1.000000000000000021e-02 1.000000000000000021e-02 1.000000000000000021e-02 1.000000000000000021e-02 1.000000000000000021e-02 1.000000000000000021e-02 1.000000000000000021e-02 1.000000000000000021e-02 1.000000000000000021e-02 1.000000000000000021e-02 1.000000000000000021e-02 1.000000000000000021e-02 1.000000000000000021e-02 1.000000000000000021e-02 1.000000000000000021e-02 1.000000000000000021e-02 1.000000000000000021e-02 1.000000000000000021e-02 1.000000000000000021e-02 1.000000000000000021e-02 1.000000000000000021e-02 1.000000000000000021e-02 1.000000000000000021e-02 1.000000000000000021e-02 1.000000000000000021e-02 1.000000000000000021e-02 1.000000000000000021e-02 1.000000000000000021e-02 1.000000000000000021e-02 1.000000000000000021e-02 1.000000000000000021e-02 1.000000000000000021e-02 1.000000000000000021e-02 1.000000000000000021e-02 1.000000000000000021e-02 1.000000000000000021e-02 1.000000000000000021e-02 1.000000000000000021e-02 1.000000000000000021e-02 1.000000000000000021e-02 1.000000000000000021e-02 1.000000000000000021e-02 1.000000000000000021e-02 1.000000000000000021e-02 1.000000000000000021e-02 1.000000000000000021e-02 1.000000000000000021e-02 1.000000000000000021e-02 1.000000000000000021e-02 1.000000000000000021e-02 1.000000000000000021e-02 1.000000000000000021e-02 1.000000000000000021e-02 1.000000000000000021e-02 1.000000000000000021e-02 1.000000000000000021e-02 1.000000000000000021e-02 1.000000000000000021e-02 1.000000000000000021e-02 1.000000000000000021e-02 1.000000000000000021e-02 1.000000000000000021e-02 1.000000000000000021e-02 1.000000000000000021e-02 1.000000000000000021e-02 1.000000000000000021e-02 1.000000000000000021e-02 1.000000000000000021e-02 1.000000000000000021e-02 1.000000000000000021e-02 1.000000000000000021e-02 1.000000000000000021e-02 1.000000000000000021e-02 1.000000000000000021e-02 1.000000000000000021e-02 1.000000000000000021e-02 1.000000000000000021e-02 1.000000000000000021e-02 1.000000000000000021e-02 1.000000000000000021e-02 1.000000000000000021e-02 1.000000000000000021e-02 1.000000000000000021e-02 1.000000000000000021e-02 1.000000000000000021e-02 1.000000000000000021e-02 1.000000000000000021e-02 1.000000000000000021e-02 1.000000000000000021e-02 1.000000000000000021e-02 1.000000000000000021e-02 1.000000000000000021e-02 1.000000000000000021e-02 1.000000000000000021e-02 1.000000000000000021e-02 1.000000000000000021e-02 1.000000000000000021e-02 1.000000000000000021e-02 1.000000000000000021e-02 1.000000000000000021e-02 1.000000000000000021e-02 1.000000000000000021e-02 1.000000000000000021e-02 1.000000000000000021e-02 1.000000000000000021e-02 1.000000000000000021e-02 1.000000000000000021e-02 1.000000000000000021e-02 1.000000000000000021e-02 1.000000000000000021e-02 1.000000000000000021e-02 1.000000000000000021e-02 1.000000000000000021e-02 1.000000000000000021e-02 1.000000000000000021e-02 1.000000000000000021e-02 1.000000000000000021e-02 1.000000000000000021e-02 1.000000000000000021e-02 1.000000000000000021e-02 1.000000000000000021e-02 1.000000000000000021e-02 1.000000000000000021e-02 1.000000000000000021e-02 1.000000000000000021e-02 1.000000000000000021e-02 1.000000000000000021e-02 1.000000000000000021e-02 1.000000000000000021e-02 1.000000000000000021e-02 1.000000000000000021e-02 1.000000000000000021e-02 1.000000000000000021e-02 1.000000000000000021e-02 1.000000000000000021e-02 1.000000000000000021e-02 1.000000000000000021e-02 1.000000000000000021e-02 1.000000000000000021e-02 1.000000000000000021e-02 1.000000000000000021e-02 1.000000000000000021e-02 1.000000000000000021e-02 1.000000000000000021e-02 1.000000000000000021e-02 1.000000000000000021e-02 1.000000000000000021e-02 1.000000000000000021e-02 1.000000000000000021e-02 1.000000000000000021e-02 1.000000000000000021e-02 1.000000000000000021e-02 1.000000000000000021e-02 1.000000000000000021e-02 1.000000000000000021e-02 1.000000000000000021e-02 1.000000000000000021e-02 1.000000000000000021e-02 1.000000000000000021e-02 1.000000000000000021e-02 1.000000000000000021e-02 1.000000000000000021e-02 1.000000000000000021e-02 1.000000000000000021e-02 1.000000000000000021e-02 1.000000000000000021e-02 1.000000000000000021e-02 1.000000000000000021e-02 1.000000000000000021e-02 1.000000000000000021e-02 1.000000000000000021e-02 1.000000000000000021e-02 1.000000000000000021e-02 1.000000000000000021e-02 1.000000000000000021e-02 1.000000000000000021e-02 1.000000000000000021e-02 1.000000000000000021e-02 1.000000000000000021e-02 1.000000000000000021e-02 1.000000000000000021e-02 1.000000000000000021e-02 1.000000000000000021e-02 1.000000000000000021e-02 1.000000000000000021e-02 1.000000000000000021e-02 1.000000000000000021e-02 1.000000000000000021e-02 1.000000000000000021e-02 1.000000000000000021e-02 1.000000000000000021e-02 1.000000000000000021e-02 1.000000000000000021e-02 1.000000000000000021e-02 1.000000000000000021e-02 1.000000000000000021e-02 1.000000000000000021e-02 1.000000000000000021e-02 1.000000000000000021e-02 1.000000000000000021e-02 1.000000000000000021e-02 1.000000000000000021e-02 1.000000000000000021e-02 1.000000000000000021e-02 1.000000000000000021e-02 1.000000000000000021e-02 1.000000000000000021e-02 1.000000000000000021e-02 1.000000000000000021e-02 1.000000000000000021e-02 1.000000000000000021e-02 1.000000000000000021e-02 1.000000000000000021e-02 1.000000000000000021e-02 1.000000000000000021e-02 1.000000000000000021e-02 1.000000000000000021e-02 1.000000000000000021e-02 1.000000000000000021e-02 1.000000000000000021e-02 1.000000000000000021e-02 1.000000000000000021e-02 1.000000000000000021e-02 1.000000000000000021e-02 1.000000000000000021e-02 1.000000000000000021e-02 1.000000000000000021e-02 1.000000000000000021e-02 1.000000000000000021e-02 1.000000000000000021e-02 1.000000000000000021e-02 1.000000000000000021e-02 1.000000000000000021e-02 1.000000000000000021e-02 1.000000000000000021e-02 1.000000000000000021e-02 1.000000000000000021e-02 1.000000000000000021e-02 1.000000000000000021e-02 1.000000000000000021e-02 1.000000000000000021e-02 1.000000000000000021e-02 1.000000000000000021e-02 1.000000000000000021e-02 1.000000000000000021e-02 1.000000000000000021e-02 1.000000000000000021e-02 1.000000000000000021e-02 1.000000000000000021e-02 1.000000000000000021e-02 1.000000000000000021e-02 1.000000000000000021e-02 1.000000000000000021e-02 1.000000000000000021e-02 1.000000000000000021e-02 1.000000000000000021e-02 1.000000000000000021e-02 1.000000000000000021e-02 1.000000000000000021e-02 1.000000000000000021e-02 1.000000000000000021e-02 1.000000000000000021e-02 1.000000000000000021e-02 1.000000000000000021e-02 1.000000000000000021e-02 1.000000000000000021e-02 1.000000000000000021e-02 1.000000000000000021e-02 1.000000000000000021e-02 1.000000000000000021e-02 1.000000000000000021e-02 1.000000000000000021e-02 1.000000000000000021e-02 1.000000000000000021e-02 1.000000000000000021e-02 1.000000000000000021e-02 1.000000000000000021e-02 1.000000000000000021e-02 1.000000000000000021e-02 1.000000000000000021e-02 1.000000000000000021e-02 1.000000000000000021e-02 1.000000000000000021e-02 1.000000000000000021e-02 1.000000000000000021e-02 1.000000000000000021e-02 1.000000000000000021e-02 1.000000000000000021e-02 1.000000000000000021e-02 1.000000000000000021e-02 1.000000000000000021e-02 1.000000000000000021e-02 1.000000000000000021e-02 1.000000000000000021e-02 1.000000000000000021e-02 1.000000000000000021e-02 1.000000000000000021e-02 1.000000000000000021e-02 1.000000000000000021e-02 1.000000000000000021e-02 1.000000000000000021e-02 1.000000000000000021e-02 1.000000000000000021e-02 1.000000000000000021e-02 1.000000000000000021e-02 1.000000000000000021e-02 1.000000000000000021e-02 1.000000000000000021e-02 1.000000000000000021e-02 1.000000000000000021e-02 1.000000000000000021e-02 1.000000000000000021e-02 1.000000000000000021e-02 1.000000000000000021e-02 1.000000000000000021e-02 1.000000000000000021e-02 1.000000000000000021e-02 1.000000000000000021e-02 1.000000000000000021e-02 1.000000000000000021e-02 1.000000000000000021e-02 1.000000000000000021e-02 1.000000000000000021e-02 1.000000000000000021e-02 1.000000000000000021e-02 1.000000000000000021e-02 1.000000000000000021e-02 1.000000000000000021e-02 1.000000000000000021e-02 1.000000000000000021e-02 1.000000000000000021e-02 1.000000000000000021e-02 1.000000000000000021e-02 1.000000000000000021e-02 1.000000000000000021e-02 1.000000000000000021e-02 1.000000000000000021e-02 1.000000000000000021e-02 1.000000000000000021e-02 1.000000000000000021e-02 1.000000000000000021e-02 1.000000000000000021e-02 1.000000000000000021e-02 1.000000000000000021e-02 1.000000000000000021e-02 1.000000000000000021e-02 1.000000000000000021e-02 1.000000000000000021e-02 1.000000000000000021e-02 1.000000000000000021e-02 1.000000000000000021e-02 1.000000000000000021e-02 1.000000000000000021e-02 1.000000000000000021e-02 1.000000000000000021e-02 1.000000000000000021e-02 1.000000000000000021e-02 1.000000000000000021e-02 1.000000000000000021e-02 1.000000000000000021e-02 1.000000000000000021e-02 1.000000000000000021e-02 1.000000000000000021e-02 1.000000000000000021e-02 1.000000000000000021e-02 1.000000000000000021e-02 1.000000000000000021e-02 1.000000000000000021e-02 1.000000000000000021e-02 1.000000000000000021e-02 1.000000000000000021e-02 1.000000000000000021e-02 1.000000000000000021e-02 1.000000000000000021e-02 1.000000000000000021e-02 1.000000000000000021e-02 1.000000000000000021e-02 1.000000000000000021e-02 1.000000000000000021e-02 1.000000000000000021e-02 1.000000000000000021e-02 1.000000000000000021e-02 1.000000000000000021e-02 1.000000000000000021e-02 1.000000000000000021e-02 1.000000000000000021e-02 1.000000000000000021e-02 1.000000000000000021e-02 1.000000000000000021e-02 1.000000000000000021e-02 1.000000000000000021e-02 1.000000000000000021e-02 1.000000000000000021e-02 1.000000000000000021e-02 1.000000000000000021e-02 1.000000000000000021e-02 1.000000000000000021e-02 1.000000000000000021e-02 1.000000000000000021e-02 1.000000000000000021e-02 1.000000000000000021e-02 1.000000000000000021e-02 1.000000000000000021e-02 1.000000000000000021e-02 1.000000000000000021e-02 1.000000000000000021e-02 1.000000000000000021e-02 1.000000000000000021e-02 1.000000000000000021e-02 1.000000000000000021e-02 1.000000000000000021e-02 1.000000000000000021e-02 1.000000000000000021e-02 1.000000000000000021e-02 1.000000000000000021e-02 1.000000000000000021e-02 1.000000000000000021e-02 1.000000000000000021e-02 1.000000000000000021e-02 1.000000000000000021e-02 1.000000000000000021e-02 1.000000000000000021e-02 1.000000000000000021e-02 1.000000000000000021e-02 1.000000000000000021e-02 1.000000000000000021e-02 1.000000000000000021e-02 1.000000000000000021e-02 1.000000000000000021e-02 1.000000000000000021e-02 1.000000000000000021e-02 1.000000000000000021e-02 1.000000000000000021e-02 1.000000000000000021e-02 1.000000000000000021e-02 1.000000000000000021e-02 1.000000000000000021e-02 1.000000000000000021e-02 1.000000000000000021e-02 1.000000000000000021e-02 1.000000000000000021e-02 1.000000000000000021e-02 1.000000000000000021e-02 1.000000000000000021e-02 1.000000000000000021e-02 1.000000000000000021e-02 1.000000000000000021e-02 1.000000000000000021e-02 1.000000000000000021e-02 1.000000000000000021e-02 1.000000000000000021e-02 1.000000000000000021e-02 1.000000000000000021e-02 1.000000000000000021e-02 1.000000000000000021e-02 1.000000000000000021e-02 1.000000000000000021e-02 1.000000000000000021e-02 1.000000000000000021e-02 1.000000000000000021e-02 1.000000000000000021e-02 1.000000000000000021e-02 1.000000000000000021e-02 1.000000000000000021e-02 1.000000000000000021e-02 1.000000000000000021e-02 1.000000000000000021e-02 1.000000000000000021e-02 1.000000000000000021e-02 1.000000000000000021e-02 1.000000000000000021e-02 1.000000000000000021e-02 1.000000000000000021e-02 1.000000000000000021e-02 1.000000000000000021e-02 1.000000000000000021e-02 1.000000000000000021e-02 1.000000000000000021e-02 1.000000000000000021e-02 1.000000000000000021e-02 1.000000000000000021e-02 1.000000000000000021e-02 1.000000000000000021e-02 1.000000000000000021e-02 1.000000000000000021e-02 1.000000000000000021e-02 1.000000000000000021e-02 1.000000000000000021e-02 1.000000000000000021e-02 1.000000000000000021e-02 1.000000000000000021e-02 1.000000000000000021e-02 1.000000000000000021e-02 1.000000000000000021e-02 1.000000000000000021e-02 1.000000000000000021e-02 1.000000000000000021e-02 1.000000000000000021e-02 1.000000000000000021e-02 1.000000000000000021e-02 1.000000000000000021e-02 1.000000000000000021e-02 1.000000000000000021e-02 1.000000000000000021e-02 1.000000000000000021e-02 1.000000000000000021e-02 1.000000000000000021e-02 1.000000000000000021e-02 1.000000000000000021e-02 1.000000000000000021e-02 1.000000000000000021e-02 1.000000000000000021e-02 1.000000000000000021e-02 1.000000000000000021e-02 1.000000000000000021e-02 1.000000000000000021e-02 1.000000000000000021e-02 1.000000000000000021e-02 1.000000000000000021e-02 1.000000000000000021e-02 1.000000000000000021e-02 1.000000000000000021e-02 1.000000000000000021e-02 1.000000000000000021e-02 1.000000000000000021e-02 1.000000000000000021e-02 1.000000000000000021e-02 1.000000000000000021e-02 1.000000000000000021e-02 1.000000000000000021e-02 1.000000000000000021e-02 1.000000000000000021e-02 1.000000000000000021e-02 1.000000000000000021e-02 1.000000000000000021e-02 1.000000000000000021e-02 1.000000000000000021e-02 1.000000000000000021e-02 1.000000000000000021e-02 1.000000000000000021e-02 1.000000000000000021e-02 1.000000000000000021e-02 1.000000000000000021e-02 1.000000000000000021e-02 1.000000000000000021e-02 1.000000000000000021e-02 1.000000000000000021e-02 1.000000000000000021e-02 1.000000000000000021e-02 1.000000000000000021e-02 1.000000000000000021e-02 1.000000000000000021e-02 1.000000000000000021e-02 1.000000000000000021e-02 1.000000000000000021e-02 1.000000000000000021e-02 1.000000000000000021e-02 1.000000000000000021e-02 1.000000000000000021e-02 1.000000000000000021e-02 1.000000000000000021e-02 1.000000000000000021e-02 1.000000000000000021e-02 1.000000000000000021e-02 1.000000000000000021e-02 1.000000000000000021e-02 1.000000000000000021e-02 1.000000000000000021e-02 1.000000000000000021e-02 1.000000000000000021e-02 1.000000000000000021e-02 1.000000000000000021e-02 1.000000000000000021e-02 1.000000000000000021e-02 1.000000000000000021e-02 1.000000000000000021e-02 1.000000000000000021e-02 1.000000000000000021e-02 1.000000000000000021e-02 1.000000000000000021e-02 1.000000000000000021e-02 1.000000000000000021e-02 1.000000000000000021e-02 1.000000000000000021e-02 1.000000000000000021e-02 1.000000000000000021e-02 1.000000000000000021e-02 1.000000000000000021e-02 1.000000000000000021e-02 1.000000000000000021e-02 1.000000000000000021e-02 1.000000000000000021e-02 1.000000000000000021e-02 1.000000000000000021e-02 1.000000000000000021e-02 1.000000000000000021e-02 1.000000000000000021e-02 1.000000000000000021e-02 1.000000000000000021e-02 1.000000000000000021e-02 1.000000000000000021e-02 1.000000000000000021e-02 1.000000000000000021e-02 1.000000000000000021e-02 1.000000000000000021e-02 1.000000000000000021e-02 1.000000000000000021e-02 1.000000000000000021e-02 1.000000000000000021e-02 1.000000000000000021e-02 1.000000000000000021e-02 1.000000000000000021e-02 1.000000000000000021e-02 1.000000000000000021e-02 1.000000000000000021e-02 1.000000000000000021e-02 1.000000000000000021e-02 1.000000000000000021e-02 1.000000000000000021e-02 1.000000000000000021e-02 1.000000000000000021e-02 1.000000000000000021e-02 1.000000000000000021e-02 1.000000000000000021e-02 1.000000000000000021e-02 1.000000000000000021e-02 1.000000000000000021e-02 1.000000000000000021e-02 1.000000000000000021e-02 1.000000000000000021e-02 1.000000000000000021e-02 1.000000000000000021e-02 1.000000000000000021e-02 1.000000000000000021e-02 1.000000000000000021e-02 1.000000000000000021e-02 1.000000000000000021e-02 1.000000000000000021e-02 1.000000000000000021e-02 1.000000000000000021e-02 1.000000000000000021e-02 1.000000000000000021e-02 1.000000000000000021e-02 1.000000000000000021e-02 1.000000000000000021e-02 1.000000000000000021e-02 1.000000000000000021e-02 1.000000000000000021e-02 1.000000000000000021e-02 1.000000000000000021e-02 1.000000000000000021e-02 1.000000000000000021e-02 1.000000000000000021e-02 1.000000000000000021e-02 1.000000000000000021e-02 1.000000000000000021e-02 1.000000000000000021e-02 1.000000000000000021e-02 1.000000000000000021e-02 1.000000000000000021e-02 1.000000000000000021e-02 1.000000000000000021e-02 1.000000000000000021e-02 1.000000000000000021e-02 1.000000000000000021e-02 1.000000000000000021e-02 1.000000000000000021e-02 1.000000000000000021e-02 1.000000000000000021e-02 1.000000000000000021e-02 1.000000000000000021e-02 1.000000000000000021e-02 1.000000000000000021e-02 1.000000000000000021e-02 1.000000000000000021e-02 1.000000000000000021e-02 1.000000000000000021e-02 1.000000000000000021e-02 1.000000000000000021e-02 1.000000000000000021e-02 1.000000000000000021e-02 1.000000000000000021e-02 1.000000000000000021e-02 1.000000000000000021e-02 1.000000000000000021e-02 1.000000000000000021e-02 1.000000000000000021e-02 1.000000000000000021e-02 1.000000000000000021e-02 1.000000000000000021e-02 1.000000000000000021e-02 1.000000000000000021e-02 1.000000000000000021e-02 1.000000000000000021e-02 1.000000000000000021e-02 1.000000000000000021e-02 1.000000000000000021e-02 1.000000000000000021e-02 1.000000000000000021e-02 1.000000000000000021e-02 1.000000000000000021e-02 1.000000000000000021e-02 1.000000000000000021e-02 1.000000000000000021e-02 1.000000000000000021e-02 1.000000000000000021e-02 1.000000000000000021e-02 1.000000000000000021e-02 1.000000000000000021e-02 1.000000000000000021e-02 1.000000000000000021e-02 1.000000000000000021e-02 1.000000000000000021e-02 1.000000000000000021e-02 1.000000000000000021e-02 1.000000000000000021e-02 1.000000000000000021e-02 1.000000000000000021e-02 1.000000000000000021e-02 1.000000000000000021e-02 1.000000000000000021e-02 1.000000000000000021e-02 1.000000000000000021e-02 1.000000000000000021e-02 1.000000000000000021e-02 1.000000000000000021e-02 1.000000000000000021e-02 1.000000000000000021e-02 1.000000000000000021e-02 1.000000000000000021e-02 1.000000000000000021e-02 1.000000000000000021e-02 1.000000000000000021e-02 1.000000000000000021e-02 1.000000000000000021e-02 1.000000000000000021e-02 1.000000000000000021e-02 1.000000000000000021e-02 1.000000000000000021e-02 1.000000000000000021e-02 1.000000000000000021e-02 1.000000000000000021e-02 1.000000000000000021e-02 1.000000000000000021e-02 1.000000000000000021e-02 1.000000000000000021e-02 1.000000000000000021e-02 1.000000000000000021e-02 1.000000000000000021e-02 1.000000000000000021e-02 1.000000000000000021e-02 1.000000000000000021e-02 1.000000000000000021e-02 1.000000000000000021e-02 1.000000000000000021e-02 1.000000000000000021e-02 1.000000000000000021e-02 1.000000000000000021e-02 1.000000000000000021e-02 1.000000000000000021e-02 1.000000000000000021e-02 1.000000000000000021e-02 1.000000000000000021e-02 1.000000000000000021e-02 1.000000000000000021e-02 1.000000000000000021e-02 1.000000000000000021e-02 1.000000000000000021e-02 1.000000000000000021e-02 1.000000000000000021e-02 1.000000000000000021e-02 1.000000000000000021e-02 1.000000000000000021e-02 1.000000000000000021e-02 1.000000000000000021e-02 1.000000000000000021e-02 1.000000000000000021e-02 1.000000000000000021e-02 1.000000000000000021e-02 1.000000000000000021e-02 1.000000000000000021e-02 1.000000000000000021e-02 1.000000000000000021e-02 1.000000000000000021e-02 1.000000000000000021e-02 1.000000000000000021e-02 1.000000000000000021e-02 1.000000000000000021e-02 1.000000000000000021e-02 1.000000000000000021e-02 1.000000000000000021e-02 1.000000000000000021e-02 1.000000000000000021e-02 1.000000000000000021e-02 1.000000000000000021e-02 1.000000000000000021e-02 1.000000000000000021e-02 1.000000000000000021e-02 1.000000000000000021e-02 1.000000000000000021e-02 1.000000000000000021e-02 1.000000000000000021e-02 1.000000000000000021e-02 1.000000000000000021e-02 1.000000000000000021e-02 1.000000000000000021e-02 1.000000000000000021e-02 1.000000000000000021e-02 1.000000000000000021e-02 1.000000000000000021e-02 1.000000000000000021e-02 1.000000000000000021e-02 1.000000000000000021e-02 1.000000000000000021e-02 1.000000000000000021e-02 1.000000000000000021e-02 1.000000000000000021e-02 1.000000000000000021e-02 1.000000000000000021e-02 1.000000000000000021e-02 1.000000000000000021e-02 1.000000000000000021e-02 1.000000000000000021e-02 1.000000000000000021e-02 1.000000000000000021e-02 1.000000000000000021e-02 1.000000000000000021e-02 1.000000000000000021e-02 1.000000000000000021e-02 1.000000000000000021e-02 1.000000000000000021e-02 1.000000000000000021e-02 1.000000000000000021e-02 1.000000000000000021e-02 1.000000000000000021e-02 1.000000000000000021e-02 1.000000000000000021e-02 1.000000000000000021e-02 1.000000000000000021e-02 1.000000000000000021e-02 1.000000000000000021e-02 1.000000000000000021e-02 1.000000000000000021e-02 1.000000000000000021e-02 1.000000000000000021e-02 1.000000000000000021e-02 1.000000000000000021e-02 1.000000000000000021e-02 1.000000000000000021e-02 1.000000000000000021e-02 1.000000000000000021e-02 1.000000000000000021e-02 1.000000000000000021e-02 1.000000000000000021e-02 1.000000000000000021e-02 1.000000000000000021e-02 1.000000000000000021e-02 1.000000000000000021e-02 1.000000000000000021e-02 1.000000000000000021e-02 1.000000000000000021e-02 1.000000000000000021e-02 1.000000000000000021e-02 1.000000000000000021e-02 1.000000000000000021e-02 1.000000000000000021e-02 1.000000000000000021e-02 1.000000000000000021e-02 1.000000000000000021e-02 1.000000000000000021e-02 1.000000000000000021e-02 1.000000000000000021e-02 1.000000000000000021e-02 1.000000000000000021e-02 1.000000000000000021e-02 1.000000000000000021e-02 1.000000000000000021e-02 1.000000000000000021e-02 1.000000000000000021e-02 1.000000000000000021e-02 1.000000000000000021e-02 1.000000000000000021e-02 1.000000000000000021e-02 1.000000000000000021e-02 1.000000000000000021e-02 1.000000000000000021e-02 1.000000000000000021e-02 1.000000000000000021e-02 1.000000000000000021e-02 1.000000000000000021e-02 1.000000000000000021e-02 1.000000000000000021e-02 1.000000000000000021e-02 1.000000000000000021e-02 1.000000000000000021e-02 1.000000000000000021e-02 1.000000000000000021e-02 1.000000000000000021e-02 1.000000000000000021e-02 1.000000000000000021e-02 1.000000000000000021e-02 1.000000000000000021e-02 1.000000000000000021e-02 1.000000000000000021e-02 1.000000000000000021e-02 1.000000000000000021e-02 1.000000000000000021e-02 1.000000000000000021e-02 1.000000000000000021e-02 1.000000000000000021e-02 1.000000000000000021e-02 1.000000000000000021e-02 1.000000000000000021e-02 1.000000000000000021e-02 1.000000000000000021e-02 1.000000000000000021e-02 1.000000000000000021e-02 1.000000000000000021e-02 1.000000000000000021e-02 1.000000000000000021e-02 1.000000000000000021e-02 1.000000000000000021e-02 1.000000000000000021e-02 1.000000000000000021e-02 1.000000000000000021e-02 1.000000000000000021e-02 1.000000000000000021e-02 1.000000000000000021e-02 1.000000000000000021e-02
-1.168471212684602136e+02 1.774441561700385250e+02 4.123415297146605951e+01 -9.277011722365514856e+00 -9.200600923827610700e+01 -1.402278197981127583e+01 -2.175802315435557261e+02 6.925348965571127557e-01 -8.873304280687364098e+01 -1.455292054539559565e+01 -2.073743237127665395e+01 6.781745615375141867e+00 -1.862766632495890695e+00 1.756533275481392593e+02 8.857173396982463487e+01 -4.054384185537156782e+01 -5.519781331121801315e+01 8.292962474582432719e+01 3.434683175173430669e+01 -2.653898520103960479e+01 -8.256826844625939543e+01 -7.730059630643812341e+01 -1.447283461954047645e+01 3.028907807892899484e+01 -2.040716091787393793e+02 -1.033927869444424061e+02 -2.730235736420578974e+01 2.111153422204970980e+02 7.408149487165263736e+01 8.026545577310787394e+01 8.404410850973347635e+01 1.246884026813797508e+00 -8.282445774752413570e+01 2.170630878144381199e+02 -2.562317566420173307e+02 6.150786129519814693e+01 -1.258549031554906890e+02 -3.629114724732693276e+01 4.215912632871408050e+00 1.326452464817456018e+02 -1.286886397207622394e+02 -1.432790423167118909e+01 8.102569156938793071e+01 1.817113437397568134e+02 7.474164147416335879e+01 -7.168998368006788269e+01 4.323095377609666201e+01 -2.968825902446073073e+01 -6.916419890608678145e+01 1.639489026982551536e+02 -7.398204053482223230e+01 -5.459260253776015048e+01 -1.457730204222503971e+02 5.928694607773687508e+00 -5.293928395443723645e+01 4.046183915270921005e+01 -9.288548733734980090e+01 -5.242975319239767629e+01 -1.061685718963813088e+02 -1.627261844842003029e+02 2.042414150703967124e+01 4.742108608933574487e+01 -1.288950079684632328e+02 1.347390792966590034e+01 -8.307059824629175182e+01 5.142017583493156963e+01 1.743805518618881365e+02 -1.510193148727997539e+02 -4.537423119778185310e+01 7.497141519030741108e+00 3.052006684722534668e+00 4.435896300243985024e+01 8.793466356953291552e+01 1.028352668797588354e+00 -9.165308189302079356e+00 -7.335152018343323732e+01 8.196873046774418015e+01 -3.437843324896191888e+01 2.751074344936349902e+01 1.088929726536184717e+02 9.242191731128323795e+01 -4.474412473263836176e+01 6.059176883302102112e+01 1.543922661676994892e+02 1.216670563078737786e+02 -4.252604070502933098e+00 1.824521627786589590e+02 -1.167519814365240052e+02 4.443144241189542321e+00 -4.391347143123213925e+01 2.166147094828235140e+02 -2.222300738055562874e+01 2.991000549862651070e+00 -8.040123534209460843e+01 -7.452511383346323903e+00 -6.689774317081366917e+01 7.094289778216131026e+01 -9.899256355994521073e+01 7.171972650126240012e+01 -4.996694256635959874e+01 -5.213278110150683631e+01 -9.597011223124826529e+01 5.563968246969487552e+01 -5.734779250938920825e+01 -1.563859419936517838e+02 -8.324666861410925378e+01 -1.095671290080794620e+02 -1.646549350391398150e+02 1.423823476610527905e+02 -2.886218451934421836e+01 3.352271379375608973e+01 9.390290758199662946e+01 -1.090333722919848469e+02 5.969069386576770597e+01 -4.537464878105858190e+01 -7.250714872775007791e+01 -9.427238120668857846e+01 2.129627831900372996e+02 -5.943077848945091546e+01 -5.179040081498932580e+01 -4.950434091814693716e+01 8.421097678581355694e+01 -4.334456250273150602e+01 1.445462802329341230e+02 -5.215767486318948443e+01 5.764043152445101725e+01 4.755572102205131380e+00 -8.504717066038269024e+01 7.211806453827192342e+01 2.904716291849198342e+02 -9.631590768958447768e+01 4.976876880142541637e+01 -7.978887081434331208e+01 4.736650029686806818e+01 1.373810716220447716e+02 -5.375117228117650825e+01 1.524577372024458022e+01 -2.817110599263731530e+01 -1.067396527166134774e+02 -1.804286393665307031e+01 4.438981118705259910e+00 -8.205690247798870018e+00 -1.568101848489924244e+01 1.238998598739023009e+02 1.364857724606075919e+02 1.952792752181298397e+02 -3.187174724960696608e+02 4.004270895272193087e+01 -1.647412740011263210e+01 -6.533808345605569912e+01 1.889264939434152097e+02 7.992371164813870621e+01 -2.659443016825178141e+00 -1.215456761209955232e+02 -1.145680047328882623e+01 1.048855497904573042e+02 -1.408994244750282121e+02 -1.767721518871883291e+02 1.125103896122157110e+01 4.450298571049230389e+01 -6.394345845774701331e+01 4.406366619304984056e+01 -1.122807854457606425e+02 -1.586958457902105977e+02 2.217017655962026979e+01 5.095081148163814078e+01 5.014280338099632139e+00 -8.762842742906913429e+01 -9.818978269135108405e+01 -8.851991425856242302e+01 -9.185129402246191432e+01 1.321464965861523666e+01 5.967190586985038436e+01 1.222676725764482626e+02 8.340665601560198184e+01 9.395479503313045200e+01 1.127779194768786084e+02 -7.856077692555624026e+01 -8.668202293000769032e+01 7.407823514121555775e+01 7.183553831418525704e+01 6.224078782142934330e+01 -9.882210867027765744e+00 -9.573689212268942583e+01 5.673965337724074232e+01 -1.880758773608945944e+02 7.059886360390702009e+01 -4.688903572259199848e+01 -1.014807608673092290e+02 7.807374684820364052e+01 -1.799705424879045523e+01 -8.122836652347325526e+01 -6.053884187784392878e+01 -9.605786129703460574e+00 2.555426055562450642e+02 8.083590180095293931e+01 5.776238602289846824e+01 -1.095300634953712802e+02 1.562518328115332338e+02 1.072311606875993695e+00 -9.533424854471674337e+01 1.642753613633707914e+02 -1.626076264727639398e+02 1.663831958011027368e+01 -3.437965599570230069e+01 -2.344297675810230714e+02 -1.424067510579505154e+02 -9.310409603912985688e+01 -3.115597706007272549e+01 -1.272763662244974654e+02 6.155262059854919698e+01 6.932609890948225484e+01 -2.938395392567733211e+01 -1.063501489622010183e+02 1.206846117257342428e+02 1.261987049386808764e+02 4.932576183165522110e+01 1.859475593927089676e+01 2.789074761731576473e+02 4.663841523822658530e+01 -1.274009573857950244e+02 -4.806188331517753909e+01 -1.803327726548778571e+02 3.402889679746733975e+01 1.637746414237254271e+02 -1.585688314988520915e+02 1.407053809141872875e+02 -9.716620330834390984e+01 -2.015779537801691035e+01 -7.479709109325065608e-01 5.645131712237331101e+01 -1.242608515500608668e+01 -2.431717731416918227e+01 -2.029299075536615149e+01 -1.352978009490441877e+02 4.963787071621204205e+01 -3.247123962459910018e+01 -1.393008746243811302e+01 -1.144126422025882484e+01 2.415029537540045226e+02 1.861386560255506026e+02 2.486493354870042651e+02 1.408833246756327924e+02 -9.254057291561885279e+01 8.042114162694188906e+01 2.254060314020605915e+01 5.094756737656608436e+01 -4.253507074871119897e+01 2.731030229596209438e+02 -2.488844876349513058e+01 -1.461901768962688095e+02 -1.600866638619766391e+01 -4.898474404323149400e+01 -8.280027965898810294e+01 4.616244925088803797e+01 -1.252793298072305639e+01 1.945587026823883434e+02 9.890807161602442932e+01 4.374326717025265765e+01 1.049081135229179580e+02 1.009638883952007262e+02 -2.459414178955065111e+01 1.493810911137609025e+02 2.829461602767065997e+01 9.579064877370529985e+01 5.094422511338503767e+01 7.430881277293766018e+00 -1.238757990820536605e+02 -1.238892118684790802e+02 -9.628260099926005466e+01 -1.667297261330169889e+01 9.272984408747724672e+01 -3.283842976477797748e+01 1.058122367806388411e+02 4.685345095005342131e+01 -7.781237779763307572e+01 -3.208708067935967279e+01 -6.270762646854297628e+01 1.878568403190195824e+01 -4.961255824105403889e+01 -1.198854303919431317e+02 1.300666425468440934e+02 1.298123609197917290e+02 -8.444088718497980040e+01 5.884531296596918537e+00 -4.846229933259578360e+01 -3.494342608070138567e+01 -1.213683609946297182e+01 -3.338094234953929629e+01 4.751227583252413211e+01 -1.502966918554062090e+02 -5.649869314905932782e+01 -1.625094975334101264e+02 1.862554014725877778e+02 -2.169271413665998338e+01 6.308249011177100130e+01 1.278113019849818777e+01 1.544243520310028543e+02 4.778130627799314567e+01 3.824533226027045885e+01 1.649757297728621097e+02 -5.266429547610377426e+01 -1.042726384719684063e+02 2.898189426526487367e+01 -1.688569271047151972e+02 -5.704832377937447063e+01 1.092649795208940162e+02 -1.365807814875666679e+02 -3.885829888425633527e+01 9.754062189579887843e+01 -1.009889585288453446e+02 -9.565398470078559967e+01 -8.830571868511212585e+01 -6.822974816831764144e+01 2.659349986498222620e+02 2.116500530322364853e+02 1.100334160344882406e+02 -1.091373649853152870e+02 7.995748856066748544e+01 -7.053905866712815964e+01 -3.319584929401352724e+01 1.770734051815840004e+01 -3.428574017380348238e+01 -1.000642103101009468e+02 -2.832863771439496414e+00 1.582569335261254828e+01 1.159824093210990554e+02 -1.370007417285539475e+02 4.458330334689295427e+01 6.794932222898684415e+01 3.686243097614508457e+01 -9.655106290808049607e+01 -1.581873187607242528e+02 2.058861939315353027e+02 -1.898968070394389329e+01 2.683301364422116464e+01 1.666261749638017591e+02 2.840379045195764363e+01 2.955238780566786616e+01 -4.738823336149312127e+01 9.427736559596704069e+01 -1.451232066560378371e+02 -3.279743222827058702e+01 -6.524792866908085465e+00 -5.685827584723593731e+01 6.489746769079127731e+00 2.271082312177819773e+01 -3.807051591128607981e+01 1.453729853590190224e+01 2.272973613848260470e+02 -2.911479811889540059e+01 -2.970782316081483643e+01 -1.081020869733305290e+02 -1.774249882822890312e+00 -8.588362377002674464e+01 6.837822114013777153e+00 1.191321392426250299e+02 -5.532575782078047411e+01 6.439571050828290844e+00 -5.776823384541005169e+01 3.560458576680965770e+00 9.272415570909207361e+01 -1.231619064717953478e+02 -1.028746881502456603e+02 -1.089825000551023919e+02 7.592334161134205317e+01 9.200804664632411800e+01 -9.816486758488791509e+01 6.650045324453284934e+01 2.741318992837709700e+01 4.111617692207289565e+01 -1.888428015836116458e+01 9.704891388080463344e+01 8.476732538084931434e+01 -8.215306245906282356e+01 1.265006258940167783e+01 8.599619072283410048e+01 7.745168213757361286e+01 -2.110056841668025385e+01 2.657103833457725983e+01 -1.408859128902341240e+02 5.152757647939400698e+01 -3.480657423486339042e+01 -3.465717076302504296e+01 1.840254431109995608e+02 5.043055420574824410e+01 1.277584499298668845e+02 2.028644607091270586e+02 -1.463269123197429167e+02 1.583565288978893477e+02 -6.729187416927702259e+01 -1.435633628712868131e+02 8.747499088687618496e+01 -1.424923724072032485e+02 -3.048709284869047664e+01 5.996858802645355269e+01 8.628768576947191349e+00 -1.785461508239840214e+02 8.944443084970862401e+01 2.676800834813139218e+01 7.342616381227895772e+01 3.850951003638722625e+01 1.007699586596736907e+01 -7.131517678318581943e+01 1.230024558826576708e+02 5.788190787188318609e+01 -6.601591073714897107e+01 -1.075585146316672223e+02 4.142262723843271743e+01 2.721266994271925554e+01 8.750704895581336018e+01 1.951383876448877572e+02 -2.619772690510900759e+01 -1.170024469519905068e+02 -9.008763877928362263e+01 -5.452878571421302922e+01 -4.720711871707655405e+01 -1.559067212905275426e+02 -2.387636811689179694e+01 1.375250173423024478e+02 7.921210951668081179e+01 -1.300058028250123527e+02 -1.590849033408783839e+02 -7.238171481524524609e+01 -8.118844453399680106e+01 1.558158739438665918e+02 -1.810573255925355625e+02 9.187921651849877946e+01 -4.896330949904002416e+00 -4.568098857635371957e+01 1.415476015593367798e+01 9.688935916994658726e+01 5.273258673193674184e+01 1.468051215891804020e+02 -1.690150029612314597e+02 -8.600798226881759945e+01 2.687061666540581584e+01 4.455262772541872351e+01 2.190012651264216572e+02 1.544677729253561154e+02 6.956274741214980395e+01 7.658618661537143169e+01 -3.648791496249708644e+01 1.613001434390533859e+02 -1.904038310112101158e+02 -6.729844068665512680e+01 -5.702703634654594111e+01 -5.501113669268026740e+01 -1.097366760746429719e+02 -1.589771724184590873e+01 -7.291793802084463039e+01 7.562613639242604791e+01 -9.753271398080009646e+00 -6.176154253482288681e+01 -6.625582084183731979e+01 1.913744272229777721e+02 6.259397121636387595e+01 -1.451300878608987688e+01 2.218069956468027613e+02 -1.150025027086138891e+02 -3.753936945879927123e+01 7.109379546954212969e+01 -1.291394110719918109e-01 1.582107875758791948e+01 -1.327234535647941414e+02 1.870652182662140035e+02 -5.207233191887706880e+01 -2.866234760369406231e+01 -1.164807408841507481e+02 1.335968729733300222e+02 1.018402552135464276e+02 -8.230631391049136880e+01 -3.980172312805633794e+01 4.129606103812770357e+01 -1.606899612295629538e+02 -1.023448117709592625e-01 -7.926334210027330585e+01 8.199306552742481102e+00 -1.147436204297874696e+02 -1.681866246026790748e+02 -7.496037306645355613e+01 1.571372961464763023e+02 6.006249924244702498e+01 -9.500823958473371533e+01 9.460422776876460205e+01 3.634550034139679298e+01 9.356484566102845690e+01 -4.464301486944437869e+01 -8.917607006778483481e+01 1.812505276968771568e+02 4.418956358832339504e+01 3.069749073752037916e+01 -7.739465731730426512e+01 -4.482670712062250118e+01 1.017250199113681219e+01 -7.568126321640376020e+00 -1.830608920853684367e+02 -3.663298516801597060e+01 6.824436697032876964e+01 1.182466390472011284e+02 1.648456872925615073e+02 -1.402793366158852884e+01 9.487272914337752638e+01 1.669120720961198856e+02 6.714721900747161953e+01 1.565006149412151615e+02 1.699317203756136152e+01 1.389012413195159468e+02 -8.879116164706046277e+01 5.647743496258174645e+01 3.106924675618149578e+01 8.023175535531993319e+01 -1.122613749249621264e+02 2.092326835131687801e+02 -1.361871359319204657e+02 9.325321250736053003e+01 -1.135600733035940664e+02 4.870108781916704999e+01 1.456055281297290804e+01 9.580431987700011121e+01 -7.781492398735376526e+01 -7.971299342497705709e+01 -1.181856890572312579e+01 9.402025130371343664e+01 -3.121022183025032959e+01 -1.722345830077411577e+01 -2.071184228797287830e+01 4.998612991652057858e+00 1.034999005831376166e+02 -6.599401971655744603e+01 -2.873586910315208520e+00 -2.040542897047533870e+02 1.281859051797030418e+02 -1.312663660913792114e+02 -7.768905090158018822e+01 -2.477395807565470776e+01 -1.134327473378075837e+02 -5.589982358664867235e+01 -6.154362405974822536e+01 -2.064889325746046467e+01 1.432763989739513590e+02 5.682388353410029680e+01 1.055917105846479274e+02 -1.430522521248582848e+02 -1.456810235542282896e+02 -3.010522053593531950e+02 1.073252812222358443e+02 1.096552210965376588e+02 4.439367455875244417e+01 -4.453636153590484525e+01 -3.917254958963481926e+01 -1.929972704242797192e+02 1.536713926617754282e+02 -1.129396990965861249e+02 1.124420825121979277e+02 -1.674296798257890089e+02 -1.502998188049990702e+01 -5.821701914593246840e+01 -1.253592962111226541e+02 -4.845480618560428354e+01 -1.307846511317063865e+01 -9.739714100582862955e+01 -1.088611232688030555e+02 -1.298250710100642458e+01 7.488732213555367423e+01 -1.310782946781935436e+02 -1.649772988568362919e+01 -7.757095250503262207e+01 -1.382070571151436980e+02 7.091538805222793229e+00 1.001812177629164893e+02 1.740432216369561900e+02 -2.007768953647739352e+01 -4.845552167067797456e+01 -1.305483239575034702e+02 -1.720087789638946560e+02 1.091214596594129347e+02 -7.653859476958628250e+01 8.316425952928042875e+01 9.900751879548527867e+00 3.081485703162768885e+01 7.771653618711016520e+01 -8.911703080538121924e+01 8.696468823772045198e+01 1.212890635520601137e+02 1.655806764699089513e+02 -1.227544006171469846e+02 1.093658800792017871e+02 -5.023951483409938845e+01 -9.554357092001087892e+01 2.257570628254840983e+02 5.188100616413471755e+01 8.783735821185621262e+01 2.247650741820519471e+01 -6.640433782010330788e+01 -3.677132766459812530e+01 -2.213809042611525513e+02 1.111538048144605142e+02 8.580480543367161772e+01 -7.967354174094428743e+01 -7.703344611094313166e+01 1.528201819706870879e+02 1.063677065426462605e+02 5.378731647191504806e+01 8.009752894982399596e+01 -8.362073896030571163e+00 1.086218777627926784e+02 -1.089203657593307497e+02 1.962508737126601943e+02 -4.155529635579279812e+01 -1.283744620530202099e+02 -3.959869834037642278e+01 7.551955799160768379e+01 1.550986058225188060e+02 1.367400478175794198e+01 1.829578399631344610e+02 5.497337766945936011e+01 3.536042719641333321e+01 -1.171901177011835671e+02 4.720487081026963949e+01 -1.316680156085101032e+02 5.017508682493291161e+01 4.073932250721412629e+01 -1.297912048419911741e+02 -8.950521569094071594e+01 4.190569286482190137e+01 9.186434711586295876e+00 -2.448811466573459938e+01 4.402442472580728605e+01 -2.252098691625299409e+01 -6.641751371054516540e+01 -2.743278163319987684e+01 -2.367832495107641577e+01 -4.193785522139065591e+01 1.978483211478627268e+01 -8.469114273277244820e+01 1.252279971335408248e+02 -7.829808751212506479e+01 -4.592676637852228794e+00 6.887069782189826128e+01 4.129351638141588232e+00 1.676167336080796844e+01 1.678298941440211678e+01 -1.233318844976638928e+02 -4.664006413472481682e+00 6.848773070649389183e+01 -2.436396669085586097e+02 -8.928076806818950217e+01 -1.186964273222169481e+02 4.608418828980927628e+01 1.013015030171480078e+02 -9.655833373154717947e+01 -1.767315969799174411e+02 -1.948346613464333359e+02 2.104309623276083485e+01 -1.525770113073149616e+02 -6.640131267030353612e+00 1.552872006948253443e+02 -7.517678430292131786e+00 3.908873155669773780e+01 -1.040405953230319369e+02 8.387701681245138730e+01 -1.245089825081183648e+02 -1.614703462051736693e+01 -3.184708830385517331e+01 6.037599078779786765e+01 -9.359045551139336894e+00 1.108212829689323797e+02 -1.278999717182872899e+02 -5.247426179608586949e+01 9.054974020168589277e+01 6.927180306183657876e+01 -8.626580668955222109e+01 -5.691713628202053599e+01 -5.161801670266519437e+01 -3.026785085051128590e+02 2.023979530915421492e+02 7.963455586391813767e+01 -2.470892913512813038e+01 -3.099762486676373996e+01 4.340081735113614059e+01 -8.799973527990815114e+01 1.040286085291374150e+02 6.310277108179244721e+01 8.574637145441320740e+01 -8.781002271912460344e+01 -2.781071220204167815e+01 3.485002139010919109e+01 1.814302837211450026e+01 -4.464390104523371150e+01 1.646911737220166287e+02 -1.805677774896928156e+01 3.688193432806323102e+01 -2.396336843126745748e+02 -8.835351965020004172e+01 -7.632125707894992672e+01 2.398925083247726420e+01 1.138486538983127048e+02 -2.414340152350792152e+02 -1.949641736912757324e+02 2.311194165922158845e+02 -1.102339752766151548e+01 1.001799747852363396e+02 6.545722016904110774e+01 -5.774894480113606932e+01 -1.365610904507489352e+02 -9.919820255991862723e+01 -5.240934588078975764e+01 -3.905399070323448285e+01 -4.080878391551307516e+01 1.689812920661758966e+01 3.865207029237437553e+01 1.738273134567232603e+02 1.283594895793922888e+02 7.162666266592704112e+00 -4.547374137793200433e+00 -1.655721987973385865e+02 1.247114655588730443e+02 1.660943795615759768e+02 -1.077442114069030339e+02 7.686334124953877733e+01 1.918135410273854591e+00 5.716853265752779834e+01 1.308083064710139070e+02 7.394461403342236849e+01 -1.396716729017630882e+02 1.686266307783153096e+01 -3.062862159989794009e+01 1.160516756277403161e+01 -2.421945583233712185e+01 4.730749549962202138e+01 -2.715472676606026994e+02 1.890078243390244097e+02 7.677308094240129499e+00 1.663250004693248627e+02 -1.105913506182018580e+01 1.108400584100141799e+02 7.476506000529928997e+01 -4.388754277325600128e+01 3.116153840293737431e+01 -7.596003030243963394e+01 -9.287019089140541439e+01 -7.531161711578548079e+01 -3.346538069061779197e+01 4.721857590650579795e+01 1.151341525155477115e+02 2.981181188406561589e+01 6.482622774618448602e+01 -1.095390737826559331e+02 -1.433511714754949367e+02 -1.409746681424536696e+01 4.854128707150671573e+01 -4.766487349457725031e+01 9.879938305303237200e+01 5.802630490714579281e+01 -2.893242483755858885e+01 3.133596999454482912e+01 6.416311337487530864e+01 -7.546091038578352084e+01 -1.398951934645267841e+02 1.486867275223650608e+02 8.181516187973791432e+00 5.248469711094929124e+01 -1.562352056349958502e+02 -5.590193810282198683e+01 -5.137829733479923888e-01 -6.873333219689385487e+01 4.486570826526273592e+00 5.892877442622311435e+01 1.952738661967867131e+02 4.098089496436861623e+01 -1.149378505315992172e+01 7.560142678828933072e+01 -4.768755387631917131e+01 -1.142307680936397531e+02 -1.448980873058096108e+02 9.840682186638259665e+00 2.633573141828448883e+01 2.491523273338322753e+01 -5.965662142424145031e+01 1.267787521426500206e+02 -8.483623130094795783e+01 1.346741709026839828e+02 9.163549683862528639e+01 -6.828103463647259730e+01 -8.883695552145664465e+01 8.837804323105170567e+01 2.156440146417120118e+01 -5.508628392670730989e+01 -5.656944271068130803e+01 1.434910872145824214e+02 6.016399403193534567e+01 8.388406906913256478e+01 2.747187678117938248e+01 -4.425994659768040407e+01 1.130028330434192156e+02 -5.734925892187998642e+01 5.297936173044327512e-01 8.054489955065817242e+01 1.047011588054290456e+02 2.685994762994952794e+02 -1.841634753095933092e+02 1.693297410687595459e+02 -7.117286100574901297e+01 -1.601120808637447368e+01 -2.629931450136015414e+01 -2.182661938663891377e+01 -5.814900973005499907e+01 9.779716631507989177e+01 1.939285527724575218e+02 -1.252011935580652846e+02 3.259736305568239345e+01 -1.337799075989057371e+02 7.401036955902145564e+01 -4.696754933634144891e+01 -8.539566858562240270e+01 -5.683359887479362982e+01 4.344092938388212133e+01 2.049957140372953290e+01 -8.642924984132210398e+01 -1.490671886722203396e+02 2.196482583069852268e+01 1.666329041010722847e+02 1.510483078282661040e+01 1.930218428502829227e+02 7.908392163121690466e+00 1.424438487740611947e+02 -3.663502582087092918e+01 9.599691186788443531e+01 -7.566688829839596053e+01 -1.196035300462300341e+02 5.237671141142454445e+01 -6.150689506643117710e+01 -8.321339588715001412e+01 7.735204960452941236e+01 6.800876132086932202e+00 -1.000651469405992913e+02 -1.597006394088869285e+02 1.569370271759550519e+02 -9.466632724424485446e+01 -2.455628696911469788e+00 1.275095064874024473e+02 6.167992199835776290e+01 -1.043164458714022373e+02 1.125134406960665778e+01 2.997827697666153313e+02 5.672448435884753337e+01 -1.677733120769928519e+02 -5.073459155120990971e+01 -6.550165491313396160e+01 1.026910622721610622e+01 1.144701696926953360e+02 -1.101079565324244811e+02 2.292568735652318779e+01 1.389765106830511741e+02 2.000416133887183534e+01 -2.249895926231812950e+02 5.155760268417599690e+01 8.040015166210072550e+01 -1.444082946255260147e+01 3.496609841520066198e+01 1.059289337959675725e-01 2.390550680769386460e+01 2.955289417419436759e+01 1.233725204318722177e+02 1.043959440877053453e+02 1.647463051407671841e+01 1.587973947545228555e+02 -6.821652695314988080e+01 2.628054077334894032e+02 6.927149560810030948e+01 1.509349486054785245e+02 -2.342859401974061484e+01 9.595865399291122344e+01 -5.236863546985457418e+01 -1.559979939365039172e+02 2.794941838864526318e+01 1.014384094708888853e+02 -9.343840540182758048e+01 -1.116406732078455235e+02 -7.092489734488630404e+01 3.897632923769093338e+01 -1.218306192490930187e+02 7.970160311195488134e+01 2.996839692344304495e+01 -1.040688179442946932e+02 2.025464712466443302e+02 -1.254524494011580593e+01 -1.084506519629802312e+02 -1.422753399472578195e+01 -2.178735014178396057e+01 -1.495399475663519411e+02 -4.271074522924075012e+01 6.556581547350346284e+01 1.404795181557493891e+02 3.091199388481234678e+01 2.856999469912385337e+01 4.776286044696488631e+01 -3.817703677726692746e+01 -1.552174473089177980e+02 1.685832672650880326e+01 3.309784491546619734e+01 1.418964180235829815e+02 -1.065586170202518801e+01 -8.121968373124229856e+01 7.808384272626661016e+01 1.088927915526007872e+00 3.418690490917135349e+01 1.486248380130469116e+02 -1.894257760155416577e+02 -9.901526355474700836e+01 1.330191266510067578e+02 -2.235879229680098774e+02 -1.905995452860483681e+02 9.425126577962612373e+01 1.595940876282725185e+02 6.564182911485065119e+01 -4.579051818679262809e+00 1.614942737332401634e+02 -2.274110062113328752e+02 1.110529201139260920e+02 4.392625736292988847e+01 1.317034108741704301e+02 -1.954494962065552386e+02 1.105311405163862304e+02 -2.937147752229039099e+01 -1.385716944923578637e+02 -5.525267325597739365e+00 -9.578727473564006800e+01 -1.700397902039594911e+01 -4.371753317572785846e+00 -1.276669691505741611e+02 -1.278009238919565433e+02 -6.486376505082527899e+01 -1.336391922929297778e+02 2.083266535999934490e+02 -1.667787300075817143e+02 -5.197608801721649741e+01 1.788024214015318591e+02 3.515103432042056397e+01 -3.067281998208354707e+02 -1.316447378386727678e+02 3.684051888025980048e+01 5.661248193434882126e+01 8.982585947119780201e+00 -1.602935468089104063e+02 3.698699917823195449e+01 7.696208970526547510e+00 -7.702600552768113573e+01 2.100432947703909292e+02 2.099916599169561096e+02 4.468737321252631567e+00 -2.160778212567136904e+02 1.305836241816006975e+02 3.191498301083842648e+01 3.825900074943565876e+00 7.946443824185179494e+01 -2.149758494970478182e+02 -1.430748002206605349e+02 1.462002628236705277e+02 1.136091909619996727e+02 5.488926730494470974e+01 1.484869305292617696e+02 -1.847348020603005807e+02 -2.114010322579778389e+01 -1.352063061354832030e+02 4.508556587362613044e+01 -1.076225967044868668e+02 9.017590036652407548e+01 -3.505702500671477395e+01 1.282819182769079269e+01 1.838495859472467941e+02 2.946782912681065270e+01 -2.731266233135964967e+02 -1.309027541637860281e+02 -8.639244562326388177e+01 1.638343716167840682e+02 1.298325407192536751e+01 -5.568531294472945348e+01 3.155195597919099981e+01 6.482366271076440967e+01 -4.105755313300625886e+01 1.114160186305950759e+02 -1.043761301895992375e+02 5.099627903676865515e+01 1.159777341348168278e+02 -3.664581954478489934e+01 -1.016776016242516789e+02 -1.174744877607883637e+02 1.240949475665216823e+02 -5.143110468062108254e+01 2.036746080805269798e+02 5.927685211179250757e+01 1.149913099602040774e+02 1.909884795828749304e+02 8.878109406286865735e+00 -1.287393247346337262e+02 -1.718188292520687241e+02 -1.183577849858763642e+02 4.397103820472809588e+01
-1.382156510249054548e+01 -4.839076017697743204e+00 1.048552468231572163e+02 -2.317866032892341366e+02 1.573066959269020799e+02 6.433466746813043358e+01 1.539784538289574982e+02 -1.307130417231263380e+02 -2.836792813520953693e+00 -2.438660317233566133e+01 -2.221349640328959083e+02 3.316893140782487137e+01 -1.855712938495179287e+01 1.237636675297648878e+02 -1.265244337108265711e+02 6.245294402660239541e+01 1.268576504427003897e+02 -4.648671379198811593e+01 -5.034220472273832314e+01 -2.744960248039170381e+01 6.242007732342000992e+01 6.393321307056822178e+01 3.278658277119424724e+01 -2.353792350617475790e+02 -5.231656268452672265e+01 9.254490034846311630e+01 1.001237587019271658e+01 -1.044819452334247600e+01 -6.735741264869419354e+01 -1.560120274870855184e+01 7.422764082243240580e+01 -1.471736832930045864e+02 -6.260589916929330911e+01 9.128316822423782284e+00 2.099492079505346851e+02 2.145847927949177461e+02 -3.238764887689903560e+01 5.656487364981564525e+01 -2.956650596314984170e-01 -1.413741181614630307e+02 9.716190476854174563e+01 1.085645181845797964e+02 1.098434570771797922e+02 1.185252746165882876e+01 6.266598313521321018e+01 4.871613940849328372e+01 3.936701636075310518e+01 2.964322456528911687e+01 1.116344394455955467e+02 9.082628179409013569e+01 6.642727523522525246e+01 1.649294335583665827e+02 2.505351668860129450e+02 1.979182661815351310e+02 -5.983275330121320223e+01 4.985952766906848410e+01 -6.510058384990843194e+01 5.713210785865211960e+01 -1.944186320136011545e+02 5.718674059918692620e+01 -2.072844274446869122e+02 -1.707408724399306266e+02 1.308890134486121681e+01 -9.323222930129640318e+00 1.716134824692598499e+02 -2.103993885423097652e+02 7.620841407579570159e+01 2.325487258013086773e+02 -7.359894350803164009e+00 -1.969841712938031435e+02 3.607291622649359653e+01 1.996534905937414521e+02 -6.183328001779016603e+01 -2.696440374872518646e+02 -1.038127056007289184e+02 8.877542399106971516e+00 -2.329081229924905756e+02 3.235132452144313930e+01 -1.816792885652936036e+02 -1.879323240635680463e+02 -5.775273426779550334e+01 1.544556260858095129e+02 7.044504010503491997e+01 1.072696564055093127e+01 -8.971773655312493645e+01 -4.316523522427823423e+01 6.460581894506795209e+01 -2.350765329097414167e+02 5.482805227493113875e+01 -7.607872619225108224e+01 -7.910807415137092846e+01 -1.791703499217342710e+02 6.601816691950887162e+01 9.406703330323647094e+01 -1.645606914260505675e+02 1.750976801714192277e+02 -4.047308633805013045e+01 -1.714557645105546868e+01 8.870111010964147624e+01 1.584450549180098164e+02 2.193257079173475432e+01 1.535401886561903382e+02 -1.868623112760149141e+01 -9.198094049817161988e+01 -1.990705945872914739e+01 1.025290437044170915e+02 4.687853850203745054e+01 1.019738092511003771e+02 9.842548922473079642e+01 -8.653498657749189249e+01 -1.771272367434050068e+02 1.282946919514121760e+02 5.657566585444397589e+01 1.678426327974898058e+01 3.189005706488978831e+01 -7.082186259404433315e+01 1.001471652409882438e+02 9.364717610442723128e+01 -1.420686114707691772e+01 -7.427457139927311403e+01 3.214890653717459656e+01 6.532041331318342969e+00 -6.422774930658385983e+01 1.768036303126637563e+02 -3.454027566400429095e+01 1.268685649743978132e+02 -7.317181793321907435e+01 4.004895770949355693e+01 -3.772879249581267658e+01 9.333255312242428658e+01 2.452589551011621793e+01 1.206210218086565789e+02 -1.210400759217133668e+02 7.760373275510954727e+01 1.289469882355584502e+02 -4.671382681552248073e+01 7.861820752096038589e+00 -1.312816351678704763e+01 1.219056207938400576e+02 3.604156849345506952e+00 1.762453148371223790e+02 -1.477204427197036978e+02 1.219379108245429251e+02 -9.550358435182928929e+01 1.000122180543256292e+02 -1.432226895332499339e+02 3.086703618041118347e+01 2.584515410238180522e+01 1.937187686931514996e+00 3.796137071152566733e+01 4.790638772279883284e+01 -1.304332785926550287e+01 1.120966720948753625e+01 1.130274104170966893e+02 1.331206269080439313e+02 -9.061365269344476303e+01 -5.676414168453717224e+01 4.959008762323831832e+01 1.636285471185792595e+00 -1.432515427601227316e+02 -5.758956953238410392e+01 -3.715556161197000051e+01 5.122328038181672838e+01 -6.865934554558631930e+01 2.402393987531560882e+01 1.678737676113650537e+02 -8.322996840108713457e+01 8.455087636576314480e+01 8.810045980645151076e+01 1.171135095733349907e+01 1.292928525475516324e+02 6.588862050589258956e+01 1.760979833551784850e+02 -3.614488741223470925e+01 1.179162886108598514e+02 5.820921408597919111e+01 -1.687399213889628413e+01 2.140519655756478414e+02 -1.456136973870208067e+02 5.125851607094860896e+01 -1.967807719937449633e+02 -8.834837930801813854e+01 4.302979220426793461e+01 -7.577778477736637797e+01 -1.636378551689440428e+02 2.092557643618227701e+02 -9.007570744695539133e+01 -4.986829804621293505e+01 -4.861326582802477958e+01 1.278720973114969155e+02 2.046181887932470715e+02 6.803398103646969730e+01 1.536507525358093460e+02 2.305427077448232467e+02 -1.737875841050981807e+00 1.712142030228672240e+02 7.449620710175311444e+01 2.000673820296431415e+02 -1.321353299511450530e+02 -1.251171794964493067e+01 6.637227230201220074e+00 1.996375573823376612e+02 -9.557327814977278990e+01 -6.348314453766439414e+01 -5.566512346680682555e+01 -1.406995697980339912e+02 4.891276674298913996e+00 -1.060897415937612607e+02 1.618720913255781966e+02 2.479779019821941333e+01 1.264521358702541676e+01 7.599453801181083179e+01 -5.217143828390487847e+00 1.228457699836878021e+02 -1.668933699262107950e+02 4.768884592079965046e+01 -1.796152354863254743e+02 1.234030113415426229e+02 1.008280439393003434e+02 -7.077883588717354257e+01 4.910326521856282511e+01 2.502532920019424694e+02 -3.198228302362555553e+01 4.379185068892530808e+01 -3.432591884607096233e+01 6.087661101936482311e+01 6.758945902016090201e+01 -6.575081389931331621e+00 1.071494987847470810e+02 1.067449270033506110e+02 -2.037405990471615382e+02 -1.610393378367077162e+02 -1.258651941885612473e+02 -9.963019400974232553e+00 -1.574365301968493611e+02 1.214070332573091804e+02 1.159874844318253082e+02 6.192630677425525221e+01 1.172162032410895094e+01 1.656981023860172684e+02 8.821933621565904105e+01 7.089318419297562457e+01 -1.068357320179752747e+02 1.599599918349000518e+02 -3.725849831310849236e+00 1.148152158691284512e+02 9.253478756112901493e+00 3.860385074880888823e+01 -7.955585986171297463e+01 -9.534981544721404134e+01 7.517918637791332515e+01 -3.991235420418801638e+00 1.536674878397122654e+02 -1.322708565320815843e+01 -3.015431594841652352e+00 4.814836595489902038e+01 2.379430648194346531e+01 1.484692753958885305e+02 1.529787463952200355e+01 3.760503963876605837e+01 -1.624147760615751110e+02 6.914648609281755398e+01 1.402864425444606127e+02 -1.863249846525532760e+01 -2.392200535562181472e+02 8.854190127336403293e+01 1.426593127149898237e+02 2.121512263183231894e+01 1.978052738015547618e+02 -4.235043657444385268e+00 4.490587219217460557e+01 -4.553835142318887108e+01 -1.449947076709556768e+02 5.847091101136526703e+01 -4.957446053695958454e+01 -8.472928858044375033e+01 4.301962746698785622e+01 -1.929442441873721918e+02 7.493680799957957106e+01 1.714603284323672199e+02 -1.056206152294124223e+02 1.803632416751915741e+02 -1.019199298292181055e+02 -6.264793009262564993e+00 -1.093750217159223759e+01 7.980794352476792142e+01 -4.849273611165662601e+01 -1.123768289755108043e+02 -9.218200055712453889e+01 1.518054249458933214e+02 6.153670132546740490e+01 -1.370583285746709237e+02 4.646950957640841651e+00 4.524074799248376877e+01 8.593591962101884008e+01 -4.197358909370942825e+01 6.245262713810672750e+01 -7.174752344805041560e+01 -1.689408652937491979e+02 -3.603495145244177422e+01 1.466399249235571745e+02 -1.178446518027338215e+02 -6.709786507190043103e+00 -1.694595388365287363e+02 -4.896680414388621116e+00 -1.516395600463132780e+02 3.414623650146485545e+01 6.243982359901830392e+01 -5.231319028589707898e+01 -8.565190245031887173e+01 5.839410480093234490e+00 7.727821790616323483e+01 -7.040313286499541334e+01 1.399536621618237859e+02 1.095209325237242979e+02 -1.325580423460272073e+02 -1.094823368147008011e+02 1.402472322121941488e+02 7.409613815388607350e+01 1.558757032907075484e+02 1.041897780333594312e+02 8.426702594361097454e+01 -6.250908963470182300e+01 -8.486672800736702982e+01 -7.996693807867592341e+01 2.120898009921624237e+02 3.159114456340440213e+01 -2.579336330705804414e+01 -7.109283895675247322e+01 -5.192197283404068031e+01 -1.359241171188918429e+02 -1.713043048913996103e+01 -1.810922701233487828e+02 1.290870688102313295e+02 4.754658135470275226e+01 -1.189907305165150575e+02 -4.992494289573477317e+01 1.236219358554200198e+02 -1.001638984698731889e+02 1.061187677442764965e+02 -1.222333561610699491e+02 -1.213084297789918509e+01 -9.856421118823310223e+01 9.254760303268099619e+01 -4.385139118730416641e+01 1.072316573335347734e+01 3.023591987309543327e+01 -1.307104757509432602e+02 1.290470031090866598e+01 4.982754881845966111e+01 -2.317547531618616219e+01 -7.092814661065983728e+01 2.088337570276697193e+02 8.916469091909399936e+01 4.865387420281616926e+01 -3.242102465851944260e+01 8.279921776988832960e+01 1.728568235524214742e+02 -9.524063595739542620e+01 2.159993911780630640e+02 -1.372677941777561728e+02 -1.897249231408065384e+02 1.566808854973062921e+02 -2.412574731877718648e+02 -1.072004461722895652e+00 -2.525715331979798179e+02 -1.577466285901889478e+02 7.398055453602921716e+01 -1.502322680990683921e+02 6.022431827148744787e+01 1.132580941814754283e+02 -1.654385847322953396e+02 -3.112430126821470466e+01 7.773865550202168606e+01 1.381293719074907074e+02 -1.918518521765475953e+02 9.015101408939499095e+01 -1.009913008105036027e+02 -1.020962543120017862e+01 -1.435509422904304877e+01 -8.208520509392613462e+01 -9.315986706680897100e+01 1.870146714605382385e+02 -2.231460219107321663e+01 1.353870680915514324e+00 1.342774046505361980e+02 -8.934097091097902421e+01 -3.550291797042327602e+01 -1.110111608495881086e+02 -5.040907411530717042e+01 5.380527671561510239e+00 6.132314523288872010e+01 -1.394996333714935020e+02 2.450482306731154267e+02 -5.574466964040929895e+01 1.269184649116098313e+02 -5.051458208130722483e+01 1.239929540078514805e+02 1.438730039479151799e+02 4.975207276426900194e+01 1.264591115897528937e+02 -4.475626806189912088e+01 1.449417755803438297e+02 -1.619690769182578265e+02 -6.772341934456987644e+01 -6.522997758500409304e+01 2.640024022874864329e+01 -1.681553258722636315e+02 7.518047004796702026e+01 -3.194213734674545080e+01 -8.562518868512685799e+01 9.287400665805593292e+01 -1.565538389684469678e+02 -9.448825275768382426e+01 -5.445219692695989977e+01 3.429165998637618173e+01 1.345412236254322806e+02 1.211480919012805657e+02 7.167619881332913678e+01 -1.717820298968165238e+00 1.811285798311973281e+02 1.269562639226446521e+02 -9.779495585103678934e+01 -8.103289082641060759e+01 5.767528010108465963e+01 1.038939291651992569e+01 1.015123374088791621e+02 1.725932949280702928e+02 7.310637149481271990e+01 2.520540778622136813e+01 -1.058255163568938713e+02 1.780076331565736041e+02 -1.177675388022972527e+02 -1.711936185648744697e+02 6.804690195276378972e+01 1.154201857889991629e+02 2.030082261207130045e+01 -1.437523852820847026e+02 3.081511260577457634e+01 4.394797756606969585e+01 -2.782420627896594612e-01 1.354900073738937465e+02 1.008263541764461593e+02 1.769506558708400945e+01 8.107427339925887111e+01 -1.108251117151562397e+02 -6.467780497960210262e+00 1.017108375380190921e+02 3.069687691618898029e+01 -6.728626478709898606e+01 2.048031205663156982e+02 2.390181371695804842e+02 -1.298864926558880768e+02 -2.852003340804076004e+01 -2.174409226175908429e+02 -7.464191121875815327e+01 1.620083827111299115e+02 3.568451791760848923e+00 -7.338925251895162205e+01 1.693889807975317581e+02 -6.466562342488145987e+01 -1.660041294483229990e+02 1.411403210533128174e+02 -6.952223730031030868e+01 3.554796106276817369e+01 8.928644892308322767e+01 1.422432191732743689e+01 -2.461481528588252274e+02 4.365827424780037092e+01 -6.287511800741954815e+00 9.303454482744797360e+01 -2.433822727455076773e+01 1.045869103188745441e+02 1.749451439444429468e+01 -8.765028448571187880e+01 -2.114141918932602593e+01 -1.809929997055432693e+02 1.188136828400620857e+02 2.609035026277017622e+01 -4.302211980270115532e+01 -5.353988483381556307e+01 -6.489479803842091599e+01 4.242703861665120968e+01 1.659796495135691998e+02 1.370927523372130281e+02 4.452379638531176198e+01 -2.043794221245501035e+02 -4.006956071129320662e+01 4.524167083411450818e+01 1.212426598245948099e+02 9.015554275407650664e+01 1.598746517317862548e+01 -1.922099425873595919e+02 1.361253839602765652e+02 -2.311706217837085546e+02 -2.126135270171407399e+02 -1.933160177693801884e+00 -7.622687742891893947e+01 -2.482719684925451986e+01 9.002847074448234821e+01 5.777740911174844740e+01 -1.149214401998981572e+02 -1.564287100160646276e+02 1.509501849082539415e+01 1.277901145481933725e+02 2.143436207993088161e+01 -5.858917955906944286e+01 -5.327491359457157216e+01 -1.224744997288637016e+01 1.667151615447571942e+02 2.313135957364085371e+01 -1.825503741652792655e+02 1.348246096797487894e+02 -7.019515654701699248e+01 -4.395257838013582941e+00 1.619447598481385739e+02 -5.504584740011072341e+01 -2.057690536860836872e+01 -1.155215208882679008e+02 -6.331286905896027051e+00 -2.510744727577192137e+01 1.385653645327095944e+02 1.263400580682533558e+02 7.107366073452294586e+01 6.874952398252729324e+01 -1.968855552087294569e+01 1.422796897235331528e+02 -1.185462826074096370e+02 -4.496046634618582338e+00 -9.576248616798149271e+01 1.653385108233425740e+02 7.673491711190133913e+01 5.440815182753937762e+01 8.742028274839933388e+00 -5.600100284384028981e+01 3.616527170569418814e+01 7.135034816705023708e+00 3.714322142856886888e+00 2.538850023585577986e+01 6.286664990408123543e+01 1.790386018856792134e+02 -4.078574065493278056e+01 -5.469590538974547655e+01 7.021893492378768542e+01 1.216534184324641643e+02 -1.346001143750912910e+01 9.661860166342570722e+01 1.093025592725354471e+02 2.215465664817677123e+02 -9.101409257432537458e+01 -1.290360405367567580e+02 -3.009605639580118108e+01 6.529656081524665012e+01 -1.066523180417862804e+01 1.129360057625490583e+02 3.911980043688806319e+01 -1.709646274994778992e+02 4.737609462230086166e+01 -9.403426082006471631e+01 -1.422156486905962538e+02 1.413524634351432212e+02 -7.985299087681848107e+01 6.209930467791111397e+01 1.169046739037268736e+02 -1.041071230497035600e+02 2.462192458046404298e+01 -7.580395149512673925e+01 4.225390877660950650e+01 -1.202719488496124001e+02 6.461717017830558518e+01 5.737745140363293217e+01 4.184018445717129886e+00 8.831763946482547567e+01 -1.606248059952787344e+02 8.019679494130100750e+01 -3.062306127550876766e+01 -1.760701030368317106e+02 9.841607292262104068e+01 2.551627829854971097e+01 -2.045064079049927557e+02 2.451178523638877493e+02 -5.430857910764742558e-01 1.096265430880967813e+02 -1.257004031780026025e+02 -2.024077966529665957e+02 -9.725151914422175992e+01 2.547541344104105487e+00 1.489796919891773825e+02 4.233610946687806909e+00 -9.958876316693260833e+01 5.260601740632266399e+01 1.428357810822116960e+02 6.776111456054731264e+01 -5.396501219340464672e+01 -6.162661159892737572e+01 8.808325949688665446e+01 3.209576598950179260e+01 -2.037491250891615948e+02 -2.161373684787972493e+01 1.761938392319997604e+02 1.030591751445947324e+02 -5.971496060883962542e+01 -1.165265144823510326e+02 -4.449772146806330397e+01 -5.010957232381386461e+01 -1.192906430186366151e+02 -1.932703500976102973e+01 -4.759884217620367508e+01 -1.184068115588365231e+02 -1.373906918298187350e+02 -2.802343570291083807e+01 -1.309419173168692794e+02 -1.393554845261428738e+02 -3.994927732933148690e+01 -5.772420356662988183e+01 -1.156400864366765973e+02 2.010592048804000740e+02 1.138642241192705384e+01 -3.039936700192665953e+01 -1.838815557638798737e+01 8.496654927121998924e+01 1.687559485791688729e+01 2.705570608188541115e+01 -2.305931323320637460e+01 -4.985974218636025768e+01 2.261099940161624033e+01 -1.569810641129579096e+02 -1.719743214986619364e+02 -9.775435244009287317e+01 -2.061372420252600364e+02 -9.682959392824878364e+01 9.274274467135307987e+01 6.629071864326576247e+01 -2.817135198083543202e+01 6.564512908865999918e+01 -1.690583772729785039e+02 -4.400526004970628691e+01 -1.254082860066945102e+02 -7.211359575583919934e+01 2.277632464034462032e+02 -2.217409584578420834e+02 2.217277799837487464e+02 2.704815206599113964e+01 -6.104508562940068828e+01 9.971279127514733887e+01 1.340390910491468333e+02 -5.605768081542607462e+01 -2.200035280063766265e+02 -1.610581271773088758e+02 1.104425390588912705e+02 9.048387889514657445e+01 -1.464863837767968846e+02 3.455698533909931314e+01 -4.280831768480412336e+01 -8.360333159958686622e+01 -3.069832425830675149e+01 -5.924854304671330851e+01 -9.340431996049294128e+01 -3.672725894270660518e+01 4.770645027965419338e+00 -3.539924008398281075e+01 -4.657699104956605773e-01 -1.557221048832914612e+01 9.941448347087312243e+01 1.372225696699413788e+02 1.423947171783669496e+01 1.811483343412572466e+01 -6.811413759405483859e+01 -2.116741222678189729e+02 3.657706222262766005e+01 -9.912109870806206402e+01 2.787986411337804071e+01 -8.920531282400030904e+00 1.040123590894573846e+00 7.792234513969657428e+01 1.316294514792859616e+02 -7.607324810478668553e+01 4.104455884008091715e+01 -2.082039882990959825e+02 1.041803864843473448e+01 7.651843098481594829e+00 -1.323472716978989467e+02 -3.645534339205698160e+01 -4.787809375981856874e+01 5.167469674240631861e+00 -1.104637477586213805e+02 2.923245185722866779e+01 -1.054930990837484899e+02 6.070487650126052870e+01 7.324515763396043155e+01 3.980910867995614666e+01 -3.134823734254543837e+01 1.160108025799327720e+02 6.591258456074308469e+01 8.637289412365439034e+01 -7.231576586482860591e+01 2.198151192087724937e+01 1.381100147604757069e+02 -6.309618979298821273e+01 -7.455334852220653730e+00 3.454700338353772793e+01 -1.385704959577670365e+02 1.056142799604232749e+02 9.667907812565272252e+01 -1.090856507219068163e+02 -8.888212118859013344e+01 -5.988728749829369491e+01 -4.905398761352178383e+01 -1.729939001741047377e+02 -1.466804114946697553e+02 -1.428808910772216336e+02 1.139697262066789136e+02 6.441705780066087073e+01 1.720002089033710320e+02 7.744274990771504719e+00 -9.253282057664976890e+01 2.015696348898969958e+01 1.492058461844462691e+01 -6.838668065679122776e+01 7.981413252239123324e+01 1.272496255519288724e+02 1.081573241795418028e+01 1.546216408691774689e+02 2.428869290918329682e+01 1.195803625942743906e+02 1.630433939547354072e+01 -2.238405739219963095e+02 2.352449671544453054e+02 -5.271640355607688377e+01 -1.607006765376555677e+02 -7.236803286419583969e+01 -4.631592989330374621e+01 4.425902975796767436e+01 2.740147214310110968e+01 4.894998927202580319e+01 -7.941001406046530064e+01 1.309960776500882673e+02 -9.231764373202497609e+01 -7.497909999601431785e+00 1.524759776393164543e+02 1.173177128762801686e+02 6.197143735311599499e+01 -1.892416079287924902e+02 2.718451987668930414e+01 1.500752143746994705e+02 2.505091650817394822e+01 1.042052653181937529e+02 1.136261350938671768e+02 -2.254678864661129865e+02 8.205298968248783353e+01 -6.159157882484628743e+01 -2.397180718970448083e+02 9.427849345960694905e+01 2.618391674538688818e+01 -1.293627164665077487e+02 -6.200572554048911655e+01 1.468128727518570429e+02 1.557129032432544875e+02 -7.987984007647321505e+01 -1.345767176813149035e+02 -8.779901165978259314e+01 -1.743468892769674028e+02 2.052445387043919922e+01 3.974175316779002287e+01 -1.769138951702002416e+01 -1.294678820608550573e+01 -9.356275848220720093e+01 -9.242653327921851769e+01 -2.571189736876012688e+01 1.394160730586012278e+02 1.417961127853054961e+02 8.435200433541616860e+01 1.007974667302564882e+02 -8.164067164158450396e+01 -1.871020686219042943e+02 -1.375723764419079842e+01 -2.404823692143148506e+01 -7.342243202076389252e+01 1.567520186370440882e+00 7.561827415324552248e+01 -5.477021777052659957e+01 2.541100320088533593e+01 8.189599186278185527e+01 7.249982339944975251e+01 1.142971286269663693e+02 -1.543494108506987175e+02 4.101724045859157286e+01 8.617958931695714853e+01 9.802372767089174488e+01 6.113648511829506305e+01 -1.068006699508719493e+02 1.416713729039433360e+02 1.318176241693236932e+02 9.911593483112004321e+01 1.050183052349258759e+02 -8.714680851594387434e+01 -1.540241978684342428e+01 -1.334255558893980975e+01 7.974360966206819512e+01 6.719688835866547549e+01 5.783186363814421327e+01 1.009750618413350480e+02 1.204462608641381536e+02 1.280479979989664798e+02 -6.722801781657037168e+01 8.334926709804594225e+01 6.751648566278899466e+01 -1.217038725947009965e+02 1.361302580756466227e+02 -1.040477590749930492e+01 -2.886845147091588615e+01 2.061240878516362329e+02 9.149278246617657828e+01 1.283781239520315296e+02 -1.493410618990039325e+02 -1.632863203475795615e+02 -1.592439649145881901e+02 -1.265203362937572678e+02 -4.585652058630073924e+01 1.138032256135079052e+02 -1.746858723307578600e+02 3.373853281774212576e+01 1.496062406089163801e+02 -6.149165143560208691e+01 -9.472124923219813297e+01 -3.638095621504630373e+01 1.409672538108795266e+02 2.358133537571020213e+02 -6.907194621585607308e+01 2.054758676937988326e+01 -2.877054635908587699e+01 7.107651957974741208e+01 6.258566766991991415e+01 -2.213659375287690523e+02 -9.204943417320322396e+01 1.428438686577267447e+02 1.452032600184330704e+02 9.819908542085443059e+01 -5.169667292590912666e+01 -7.878830338897266472e+01 -4.722649291680292549e+01 -1.833804196076498272e+02 7.398891879778432212e+01 -2.671111836742363010e+01 1.729675965896740308e+02 -2.900921319536419318e+01 -3.269675082842248912e+02 1.506608288771817570e+02 5.240049317251347105e+01 -1.227134739258244878e+02 -2.298476882938567556e+01 3.674763528871786633e+01 -2.159975746290554355e+02 -1.189186471144701898e+02 -1.139570411678101038e+02 -5.877486844478964656e+01 6.538437201297136880e+01 -1.714672902476109186e+02 1.123717020135362645e+02 -5.651863861819347790e+01 3.006100927443140058e+00 -1.388621626723684130e+02 -1.077441682237008962e+02 1.830756433865879842e+02 9.021169246913846962e+01 -4.397582383129309136e+01 3.874528829776516403e+01 -2.923428222422571565e+01 4.492918464776096243e+01 -1.089440804160845317e+02 1.028428378010471107e+02 5.263815710898553135e+01 -1.238728641010308706e+02 1.216372708167491510e+02 -5.123222127553879801e+01 1.041099440856838498e+02 -5.149912417753047578e+01 9.212717532665087106e+01 -1.598886673867174295e+02 1.486789781164241617e+02 2.583146327675303056e+01 1.048693316205089161e+02 1.359195504526427953e+02 -1.528540060713439743e+02 -8.953615102637108691e+01 -1.101158335888232074e+02 6.974564041096328992e+01 -1.786525609109613697e+02 1.578799842864269749e+02 1.485482739959660421e+02 5.527268328696237631e+01 -8.854034205451556261e+01 5.949350281815911501e+01 -1.118706564082412029e+02 -1.146178409677246712e+01 3.652155180365114262e+01 -1.916871247187669098e+02 -8.516173447121592233e+01 -1.412349840865314299e+01 1.066851376312107362e+02 -5.237740784399324667e+01 1.133856275335572263e+02 -6.717524934954779781e+01 -2.200821558794862938e+02 -1.118032910848811241e+02 -3.563302490054891081e+01 -6.285976765400539534e+01 3.144837309934025882e+01 5.358866449012575828e+01 6.650657936626552136e+00 2.632914161051397883e+01 -1.224361469028441007e+02 5.616517487211427095e+01 3.407004629794106165e+01 -7.544982181988125092e+01 9.644485561602110124e+00 5.875862628052336589e+01 -9.970322572248457504e+01 -5.751706816945743839e+01 -2.518650518830207474e+01 1.020244823137887096e+02 -1.789709287267548277e+01 4.379148134067438747e+00 -2.382725094176709320e+02 -9.936792356932643600e+01 1.033923481148495540e+02 -9.336521848477119079e+01 3.277099957675434183e+01 3.248981079604148192e+01 3.971273325801863763e+01 6.910219518842301056e+01 -1.855508618879080132e+02 1.505170437700053299e+02 8.510455171789963913e+01 -7.827398778464225160e+00 -8.450768683646933255e+01 1.171110245116039152e+02 6.493473235799172016e+01 -2.102580802774000972e+02 -5.271489914170901159e+01 -8.540330724465781032e+01 -5.427261899330959238e+01 -6.483154207917355905e+01 -1.036752573413776730e+02 -6.316630053118409904e+01 2.002500067577359175e+02 -1.787038917212521199e+02 6.852501267240199923e+01 2.901448041366645114e+01 -7.862356086290215273e+01 1.084091981594696108e+01 -4.120581734360246173e+01 3.570433256867562744e+00 -1.005396769466451445e+02 -2.066429885972477223e+02 1.923963934924953634e+01 4.387550871833619937e+01 -1.339607738446191831e+01 -9.515616939268330299e+00 -4.162473572122696197e+01 -1.987648838238800977e+02 -3.209540519187567043e+01 -6.841244578533465415e+01 1.465791897057893145e+01 -1.632528880392544224e+01 9.469473120146408007e+01 -6.595502639261356137e+01 -1.085394859088271602e+02 -3.746896682202621065e+01 -9.480118408606550418e+00 4.771138474709859878e+01 -2.320534484152760513e+01 -7.706698743441680222e+01 -1.660119539455607196e+01 2.103341417630959143e+01 4.972072389043302820e+01 -1.193766979580136791e+02 -1.455485333441325508e+02 2.410998775806364733e+02 -2.284690451119328429e+02 -7.954731413824094943e+01 -4.854970228992031167e+01 1.464410933109639075e+02 6.626069820843702018e+01 2.395240918538528945e+02 2.562208905374627079e+02 -6.522649649921385162e+01 1.355964923194392497e+02 -5.848261441693782814e+01 -4.271316495168314731e+01 -1.054259090923076059e+02 -8.360676472637845791e+01 -7.288690315699422229e+01 -9.314412981456489149e+01 -2.552339472509463292e+02 -2.836715605634225312e+02 1.410682527917669233e+02 -2.776035916539273529e+01 5.576653981948179251e+01 1.369692353325445993e+02
