# 
#                 ----------------------------------------------------
#                 Data from a 3D direct N-body simulation. 
# 
#                 rows are i-particle; 
#                 coumns are :mass, tag, x ,y, z, vx, vy, vz, ax, ay, az
# 
#                 NTHU, Computational Physics Lab
# 
#                 ----------------------------------------------------
#                 Time = 6.699999999999902
1.000000000000000000e+00 2.000000000000000000e+00 3.000000000000000000e+00 4.000000000000000000e+00 5.000000000000000000e+00 6.000000000000000000e+00 7.000000000000000000e+00 8.000000000000000000e+00 9.000000000000000000e+00 1.000000000000000000e+01 1.100000000000000000e+01 1.200000000000000000e+01 1.300000000000000000e+01 1.400000000000000000e+01 1.500000000000000000e+01 1.600000000000000000e+01 1.700000000000000000e+01 1.800000000000000000e+01 1.900000000000000000e+01 2.000000000000000000e+01 2.100000000000000000e+01 2.200000000000000000e+01 2.300000000000000000e+01 2.400000000000000000e+01 2.500000000000000000e+01 2.600000000000000000e+01 2.700000000000000000e+01 2.800000000000000000e+01 2.900000000000000000e+01 3.000000000000000000e+01 3.100000000000000000e+01 3.200000000000000000e+01 3.300000000000000000e+01 3.400000000000000000e+01 3.500000000000000000e+01 3.600000000000000000e+01 3.700000000000000000e+01 3.800000000000000000e+01 3.900000000000000000e+01 4.000000000000000000e+01 4.100000000000000000e+01 4.200000000000000000e+01 4.300000000000000000e+01 4.400000000000000000e+01 4.500000000000000000e+01 4.600000000000000000e+01 4.700000000000000000e+01 4.800000000000000000e+01 4.900000000000000000e+01 5.000000000000000000e+01 5.100000000000000000e+01 5.200000000000000000e+01 5.300000000000000000e+01 5.400000000000000000e+01 5.500000000000000000e+01 5.600000000000000000e+01 5.700000000000000000e+01 5.800000000000000000e+01 5.900000000000000000e+01 6.000000000000000000e+01 6.100000000000000000e+01 6.200000000000000000e+01 6.300000000000000000e+01 6.400000000000000000e+01 6.500000000000000000e+01 6.600000000000000000e+01 6.700000000000000000e+01 6.800000000000000000e+01 6.900000000000000000e+01 7.000000000000000000e+01 7.100000000000000000e+01 7.200000000000000000e+01 7.300000000000000000e+01 7.400000000000000000e+01 7.500000000000000000e+01 7.600000000000000000e+01 7.700000000000000000e+01 7.800000000000000000e+01 7.900000000000000000e+01 8.000000000000000000e+01 8.100000000000000000e+01 8.200000000000000000e+01 8.300000000000000000e+01 8.400000000000000000e+01 8.500000000000000000e+01 8.600000000000000000e+01 8.700000000000000000e+01 8.800000000000000000e+01 8.900000000000000000e+01 9.000000000000000000e+01 9.100000000000000000e+01 9.200000000000000000e+01 9.300000000000000000e+01 9.400000000000000000e+01 9.500000000000000000e+01 9.600000000000000000e+01 9.700000000000000000e+01 9.800000000000000000e+01 9.900000000000000000e+01 1.000000000000000000e+02 1.010000000000000000e+02 1.020000000000000000e+02 1.030000000000000000e+02 1.040000000000000000e+02 1.050000000000000000e+02 1.060000000000000000e+02 1.070000000000000000e+02 1.080000000000000000e+02 1.090000000000000000e+02 1.100000000000000000e+02 1.110000000000000000e+02 1.120000000000000000e+02 1.130000000000000000e+02 1.140000000000000000e+02 1.150000000000000000e+02 1.160000000000000000e+02 1.170000000000000000e+02 1.180000000000000000e+02 1.190000000000000000e+02 1.200000000000000000e+02 1.210000000000000000e+02 1.220000000000000000e+02 1.230000000000000000e+02 1.240000000000000000e+02 1.250000000000000000e+02 1.260000000000000000e+02 1.270000000000000000e+02 1.280000000000000000e+02 1.290000000000000000e+02 1.300000000000000000e+02 1.310000000000000000e+02 1.320000000000000000e+02 1.330000000000000000e+02 1.340000000000000000e+02 1.350000000000000000e+02 1.360000000000000000e+02 1.370000000000000000e+02 1.380000000000000000e+02 1.390000000000000000e+02 1.400000000000000000e+02 1.410000000000000000e+02 1.420000000000000000e+02 1.430000000000000000e+02 1.440000000000000000e+02 1.450000000000000000e+02 1.460000000000000000e+02 1.470000000000000000e+02 1.480000000000000000e+02 1.490000000000000000e+02 1.500000000000000000e+02 1.510000000000000000e+02 1.520000000000000000e+02 1.530000000000000000e+02 1.540000000000000000e+02 1.550000000000000000e+02 1.560000000000000000e+02 1.570000000000000000e+02 1.580000000000000000e+02 1.590000000000000000e+02 1.600000000000000000e+02 1.610000000000000000e+02 1.620000000000000000e+02 1.630000000000000000e+02 1.640000000000000000e+02 1.650000000000000000e+02 1.660000000000000000e+02 1.670000000000000000e+02 1.680000000000000000e+02 1.690000000000000000e+02 1.700000000000000000e+02 1.710000000000000000e+02 1.720000000000000000e+02 1.730000000000000000e+02 1.740000000000000000e+02 1.750000000000000000e+02 1.760000000000000000e+02 1.770000000000000000e+02 1.780000000000000000e+02 1.790000000000000000e+02 1.800000000000000000e+02 1.810000000000000000e+02 1.820000000000000000e+02 1.830000000000000000e+02 1.840000000000000000e+02 1.850000000000000000e+02 1.860000000000000000e+02 1.870000000000000000e+02 1.880000000000000000e+02 1.890000000000000000e+02 1.900000000000000000e+02 1.910000000000000000e+02 1.920000000000000000e+02 1.930000000000000000e+02 1.940000000000000000e+02 1.950000000000000000e+02 1.960000000000000000e+02 1.970000000000000000e+02 1.980000000000000000e+02 1.990000000000000000e+02 2.000000000000000000e+02 2.010000000000000000e+02 2.020000000000000000e+02 2.030000000000000000e+02 2.040000000000000000e+02 2.050000000000000000e+02 2.060000000000000000e+02 2.070000000000000000e+02 2.080000000000000000e+02 2.090000000000000000e+02 2.100000000000000000e+02 2.110000000000000000e+02 2.120000000000000000e+02 2.130000000000000000e+02 2.140000000000000000e+02 2.150000000000000000e+02 2.160000000000000000e+02 2.170000000000000000e+02 2.180000000000000000e+02 2.190000000000000000e+02 2.200000000000000000e+02 2.210000000000000000e+02 2.220000000000000000e+02 2.230000000000000000e+02 2.240000000000000000e+02 2.250000000000000000e+02 2.260000000000000000e+02 2.270000000000000000e+02 2.280000000000000000e+02 2.290000000000000000e+02 2.300000000000000000e+02 2.310000000000000000e+02 2.320000000000000000e+02 2.330000000000000000e+02 2.340000000000000000e+02 2.350000000000000000e+02 2.360000000000000000e+02 2.370000000000000000e+02 2.380000000000000000e+02 2.390000000000000000e+02 2.400000000000000000e+02 2.410000000000000000e+02 2.420000000000000000e+02 2.430000000000000000e+02 2.440000000000000000e+02 2.450000000000000000e+02 2.460000000000000000e+02 2.470000000000000000e+02 2.480000000000000000e+02 2.490000000000000000e+02 2.500000000000000000e+02 2.510000000000000000e+02 2.520000000000000000e+02 2.530000000000000000e+02 2.540000000000000000e+02 2.550000000000000000e+02 2.560000000000000000e+02 2.570000000000000000e+02 2.580000000000000000e+02 2.590000000000000000e+02 2.600000000000000000e+02 2.610000000000000000e+02 2.620000000000000000e+02 2.630000000000000000e+02 2.640000000000000000e+02 2.650000000000000000e+02 2.660000000000000000e+02 2.670000000000000000e+02 2.680000000000000000e+02 2.690000000000000000e+02 2.700000000000000000e+02 2.710000000000000000e+02 2.720000000000000000e+02 2.730000000000000000e+02 2.740000000000000000e+02 2.750000000000000000e+02 2.760000000000000000e+02 2.770000000000000000e+02 2.780000000000000000e+02 2.790000000000000000e+02 2.800000000000000000e+02 2.810000000000000000e+02 2.820000000000000000e+02 2.830000000000000000e+02 2.840000000000000000e+02 2.850000000000000000e+02 2.860000000000000000e+02 2.870000000000000000e+02 2.880000000000000000e+02 2.890000000000000000e+02 2.900000000000000000e+02 2.910000000000000000e+02 2.920000000000000000e+02 2.930000000000000000e+02 2.940000000000000000e+02 2.950000000000000000e+02 2.960000000000000000e+02 2.970000000000000000e+02 2.980000000000000000e+02 2.990000000000000000e+02 3.000000000000000000e+02 3.010000000000000000e+02 3.020000000000000000e+02 3.030000000000000000e+02 3.040000000000000000e+02 3.050000000000000000e+02 3.060000000000000000e+02 3.070000000000000000e+02 3.080000000000000000e+02 3.090000000000000000e+02 3.100000000000000000e+02 3.110000000000000000e+02 3.120000000000000000e+02 3.130000000000000000e+02 3.140000000000000000e+02 3.150000000000000000e+02 3.160000000000000000e+02 3.170000000000000000e+02 3.180000000000000000e+02 3.190000000000000000e+02 3.200000000000000000e+02 3.210000000000000000e+02 3.220000000000000000e+02 3.230000000000000000e+02 3.240000000000000000e+02 3.250000000000000000e+02 3.260000000000000000e+02 3.270000000000000000e+02 3.280000000000000000e+02 3.290000000000000000e+02 3.300000000000000000e+02 3.310000000000000000e+02 3.320000000000000000e+02 3.330000000000000000e+02 3.340000000000000000e+02 3.350000000000000000e+02 3.360000000000000000e+02 3.370000000000000000e+02 3.380000000000000000e+02 3.390000000000000000e+02 3.400000000000000000e+02 3.410000000000000000e+02 3.420000000000000000e+02 3.430000000000000000e+02 3.440000000000000000e+02 3.450000000000000000e+02 3.460000000000000000e+02 3.470000000000000000e+02 3.480000000000000000e+02 3.490000000000000000e+02 3.500000000000000000e+02 3.510000000000000000e+02 3.520000000000000000e+02 3.530000000000000000e+02 3.540000000000000000e+02 3.550000000000000000e+02 3.560000000000000000e+02 3.570000000000000000e+02 3.580000000000000000e+02 3.590000000000000000e+02 3.600000000000000000e+02 3.610000000000000000e+02 3.620000000000000000e+02 3.630000000000000000e+02 3.640000000000000000e+02 3.650000000000000000e+02 3.660000000000000000e+02 3.670000000000000000e+02 3.680000000000000000e+02 3.690000000000000000e+02 3.700000000000000000e+02 3.710000000000000000e+02 3.720000000000000000e+02 3.730000000000000000e+02 3.740000000000000000e+02 3.750000000000000000e+02 3.760000000000000000e+02 3.770000000000000000e+02 3.780000000000000000e+02 3.790000000000000000e+02 3.800000000000000000e+02 3.810000000000000000e+02 3.820000000000000000e+02 3.830000000000000000e+02 3.840000000000000000e+02 3.850000000000000000e+02 3.860000000000000000e+02 3.870000000000000000e+02 3.880000000000000000e+02 3.890000000000000000e+02 3.900000000000000000e+02 3.910000000000000000e+02 3.920000000000000000e+02 3.930000000000000000e+02 3.940000000000000000e+02 3.950000000000000000e+02 3.960000000000000000e+02 3.970000000000000000e+02 3.980000000000000000e+02 3.990000000000000000e+02 4.000000000000000000e+02 4.010000000000000000e+02 4.020000000000000000e+02 4.030000000000000000e+02 4.040000000000000000e+02 4.050000000000000000e+02 4.060000000000000000e+02 4.070000000000000000e+02 4.080000000000000000e+02 4.090000000000000000e+02 4.100000000000000000e+02 4.110000000000000000e+02 4.120000000000000000e+02 4.130000000000000000e+02 4.140000000000000000e+02 4.150000000000000000e+02 4.160000000000000000e+02 4.170000000000000000e+02 4.180000000000000000e+02 4.190000000000000000e+02 4.200000000000000000e+02 4.210000000000000000e+02 4.220000000000000000e+02 4.230000000000000000e+02 4.240000000000000000e+02 4.250000000000000000e+02 4.260000000000000000e+02 4.270000000000000000e+02 4.280000000000000000e+02 4.290000000000000000e+02 4.300000000000000000e+02 4.310000000000000000e+02 4.320000000000000000e+02 4.330000000000000000e+02 4.340000000000000000e+02 4.350000000000000000e+02 4.360000000000000000e+02 4.370000000000000000e+02 4.380000000000000000e+02 4.390000000000000000e+02 4.400000000000000000e+02 4.410000000000000000e+02 4.420000000000000000e+02 4.430000000000000000e+02 4.440000000000000000e+02 4.450000000000000000e+02 4.460000000000000000e+02 4.470000000000000000e+02 4.480000000000000000e+02 4.490000000000000000e+02 4.500000000000000000e+02 4.510000000000000000e+02 4.520000000000000000e+02 4.530000000000000000e+02 4.540000000000000000e+02 4.550000000000000000e+02 4.560000000000000000e+02 4.570000000000000000e+02 4.580000000000000000e+02 4.590000000000000000e+02 4.600000000000000000e+02 4.610000000000000000e+02 4.620000000000000000e+02 4.630000000000000000e+02 4.640000000000000000e+02 4.650000000000000000e+02 4.660000000000000000e+02 4.670000000000000000e+02 4.680000000000000000e+02 4.690000000000000000e+02 4.700000000000000000e+02 4.710000000000000000e+02 4.720000000000000000e+02 4.730000000000000000e+02 4.740000000000000000e+02 4.750000000000000000e+02 4.760000000000000000e+02 4.770000000000000000e+02 4.780000000000000000e+02 4.790000000000000000e+02 4.800000000000000000e+02 4.810000000000000000e+02 4.820000000000000000e+02 4.830000000000000000e+02 4.840000000000000000e+02 4.850000000000000000e+02 4.860000000000000000e+02 4.870000000000000000e+02 4.880000000000000000e+02 4.890000000000000000e+02 4.900000000000000000e+02 4.910000000000000000e+02 4.920000000000000000e+02 4.930000000000000000e+02 4.940000000000000000e+02 4.950000000000000000e+02 4.960000000000000000e+02 4.970000000000000000e+02 4.980000000000000000e+02 4.990000000000000000e+02 5.000000000000000000e+02 5.010000000000000000e+02 5.020000000000000000e+02 5.030000000000000000e+02 5.040000000000000000e+02 5.050000000000000000e+02 5.060000000000000000e+02 5.070000000000000000e+02 5.080000000000000000e+02 5.090000000000000000e+02 5.100000000000000000e+02 5.110000000000000000e+02 5.120000000000000000e+02 5.130000000000000000e+02 5.140000000000000000e+02 5.150000000000000000e+02 5.160000000000000000e+02 5.170000000000000000e+02 5.180000000000000000e+02 5.190000000000000000e+02 5.200000000000000000e+02 5.210000000000000000e+02 5.220000000000000000e+02 5.230000000000000000e+02 5.240000000000000000e+02 5.250000000000000000e+02 5.260000000000000000e+02 5.270000000000000000e+02 5.280000000000000000e+02 5.290000000000000000e+02 5.300000000000000000e+02 5.310000000000000000e+02 5.320000000000000000e+02 5.330000000000000000e+02 5.340000000000000000e+02 5.350000000000000000e+02 5.360000000000000000e+02 5.370000000000000000e+02 5.380000000000000000e+02 5.390000000000000000e+02 5.400000000000000000e+02 5.410000000000000000e+02 5.420000000000000000e+02 5.430000000000000000e+02 5.440000000000000000e+02 5.450000000000000000e+02 5.460000000000000000e+02 5.470000000000000000e+02 5.480000000000000000e+02 5.490000000000000000e+02 5.500000000000000000e+02 5.510000000000000000e+02 5.520000000000000000e+02 5.530000000000000000e+02 5.540000000000000000e+02 5.550000000000000000e+02 5.560000000000000000e+02 5.570000000000000000e+02 5.580000000000000000e+02 5.590000000000000000e+02 5.600000000000000000e+02 5.610000000000000000e+02 5.620000000000000000e+02 5.630000000000000000e+02 5.640000000000000000e+02 5.650000000000000000e+02 5.660000000000000000e+02 5.670000000000000000e+02 5.680000000000000000e+02 5.690000000000000000e+02 5.700000000000000000e+02 5.710000000000000000e+02 5.720000000000000000e+02 5.730000000000000000e+02 5.740000000000000000e+02 5.750000000000000000e+02 5.760000000000000000e+02 5.770000000000000000e+02 5.780000000000000000e+02 5.790000000000000000e+02 5.800000000000000000e+02 5.810000000000000000e+02 5.820000000000000000e+02 5.830000000000000000e+02 5.840000000000000000e+02 5.850000000000000000e+02 5.860000000000000000e+02 5.870000000000000000e+02 5.880000000000000000e+02 5.890000000000000000e+02 5.900000000000000000e+02 5.910000000000000000e+02 5.920000000000000000e+02 5.930000000000000000e+02 5.940000000000000000e+02 5.950000000000000000e+02 5.960000000000000000e+02 5.970000000000000000e+02 5.980000000000000000e+02 5.990000000000000000e+02 6.000000000000000000e+02 6.010000000000000000e+02 6.020000000000000000e+02 6.030000000000000000e+02 6.040000000000000000e+02 6.050000000000000000e+02 6.060000000000000000e+02 6.070000000000000000e+02 6.080000000000000000e+02 6.090000000000000000e+02 6.100000000000000000e+02 6.110000000000000000e+02 6.120000000000000000e+02 6.130000000000000000e+02 6.140000000000000000e+02 6.150000000000000000e+02 6.160000000000000000e+02 6.170000000000000000e+02 6.180000000000000000e+02 6.190000000000000000e+02 6.200000000000000000e+02 6.210000000000000000e+02 6.220000000000000000e+02 6.230000000000000000e+02 6.240000000000000000e+02 6.250000000000000000e+02 6.260000000000000000e+02 6.270000000000000000e+02 6.280000000000000000e+02 6.290000000000000000e+02 6.300000000000000000e+02 6.310000000000000000e+02 6.320000000000000000e+02 6.330000000000000000e+02 6.340000000000000000e+02 6.350000000000000000e+02 6.360000000000000000e+02 6.370000000000000000e+02 6.380000000000000000e+02 6.390000000000000000e+02 6.400000000000000000e+02 6.410000000000000000e+02 6.420000000000000000e+02 6.430000000000000000e+02 6.440000000000000000e+02 6.450000000000000000e+02 6.460000000000000000e+02 6.470000000000000000e+02 6.480000000000000000e+02 6.490000000000000000e+02 6.500000000000000000e+02 6.510000000000000000e+02 6.520000000000000000e+02 6.530000000000000000e+02 6.540000000000000000e+02 6.550000000000000000e+02 6.560000000000000000e+02 6.570000000000000000e+02 6.580000000000000000e+02 6.590000000000000000e+02 6.600000000000000000e+02 6.610000000000000000e+02 6.620000000000000000e+02 6.630000000000000000e+02 6.640000000000000000e+02 6.650000000000000000e+02 6.660000000000000000e+02 6.670000000000000000e+02 6.680000000000000000e+02 6.690000000000000000e+02 6.700000000000000000e+02 6.710000000000000000e+02 6.720000000000000000e+02 6.730000000000000000e+02 6.740000000000000000e+02 6.750000000000000000e+02 6.760000000000000000e+02 6.770000000000000000e+02 6.780000000000000000e+02 6.790000000000000000e+02 6.800000000000000000e+02 6.810000000000000000e+02 6.820000000000000000e+02 6.830000000000000000e+02 6.840000000000000000e+02 6.850000000000000000e+02 6.860000000000000000e+02 6.870000000000000000e+02 6.880000000000000000e+02 6.890000000000000000e+02 6.900000000000000000e+02 6.910000000000000000e+02 6.920000000000000000e+02 6.930000000000000000e+02 6.940000000000000000e+02 6.950000000000000000e+02 6.960000000000000000e+02 6.970000000000000000e+02 6.980000000000000000e+02 6.990000000000000000e+02 7.000000000000000000e+02 7.010000000000000000e+02 7.020000000000000000e+02 7.030000000000000000e+02 7.040000000000000000e+02 7.050000000000000000e+02 7.060000000000000000e+02 7.070000000000000000e+02 7.080000000000000000e+02 7.090000000000000000e+02 7.100000000000000000e+02 7.110000000000000000e+02 7.120000000000000000e+02 7.130000000000000000e+02 7.140000000000000000e+02 7.150000000000000000e+02 7.160000000000000000e+02 7.170000000000000000e+02 7.180000000000000000e+02 7.190000000000000000e+02 7.200000000000000000e+02 7.210000000000000000e+02 7.220000000000000000e+02 7.230000000000000000e+02 7.240000000000000000e+02 7.250000000000000000e+02 7.260000000000000000e+02 7.270000000000000000e+02 7.280000000000000000e+02 7.290000000000000000e+02 7.300000000000000000e+02 7.310000000000000000e+02 7.320000000000000000e+02 7.330000000000000000e+02 7.340000000000000000e+02 7.350000000000000000e+02 7.360000000000000000e+02 7.370000000000000000e+02 7.380000000000000000e+02 7.390000000000000000e+02 7.400000000000000000e+02 7.410000000000000000e+02 7.420000000000000000e+02 7.430000000000000000e+02 7.440000000000000000e+02 7.450000000000000000e+02 7.460000000000000000e+02 7.470000000000000000e+02 7.480000000000000000e+02 7.490000000000000000e+02 7.500000000000000000e+02 7.510000000000000000e+02 7.520000000000000000e+02 7.530000000000000000e+02 7.540000000000000000e+02 7.550000000000000000e+02 7.560000000000000000e+02 7.570000000000000000e+02 7.580000000000000000e+02 7.590000000000000000e+02 7.600000000000000000e+02 7.610000000000000000e+02 7.620000000000000000e+02 7.630000000000000000e+02 7.640000000000000000e+02 7.650000000000000000e+02 7.660000000000000000e+02 7.670000000000000000e+02 7.680000000000000000e+02 7.690000000000000000e+02 7.700000000000000000e+02 7.710000000000000000e+02 7.720000000000000000e+02 7.730000000000000000e+02 7.740000000000000000e+02 7.750000000000000000e+02 7.760000000000000000e+02 7.770000000000000000e+02 7.780000000000000000e+02 7.790000000000000000e+02 7.800000000000000000e+02 7.810000000000000000e+02 7.820000000000000000e+02 7.830000000000000000e+02 7.840000000000000000e+02 7.850000000000000000e+02 7.860000000000000000e+02 7.870000000000000000e+02 7.880000000000000000e+02 7.890000000000000000e+02 7.900000000000000000e+02 7.910000000000000000e+02 7.920000000000000000e+02 7.930000000000000000e+02 7.940000000000000000e+02 7.950000000000000000e+02 7.960000000000000000e+02 7.970000000000000000e+02 7.980000000000000000e+02 7.990000000000000000e+02 8.000000000000000000e+02 8.010000000000000000e+02 8.020000000000000000e+02 8.030000000000000000e+02 8.040000000000000000e+02 8.050000000000000000e+02 8.060000000000000000e+02 8.070000000000000000e+02 8.080000000000000000e+02 8.090000000000000000e+02 8.100000000000000000e+02 8.110000000000000000e+02 8.120000000000000000e+02 8.130000000000000000e+02 8.140000000000000000e+02 8.150000000000000000e+02 8.160000000000000000e+02 8.170000000000000000e+02 8.180000000000000000e+02 8.190000000000000000e+02 8.200000000000000000e+02 8.210000000000000000e+02 8.220000000000000000e+02 8.230000000000000000e+02 8.240000000000000000e+02 8.250000000000000000e+02 8.260000000000000000e+02 8.270000000000000000e+02 8.280000000000000000e+02 8.290000000000000000e+02 8.300000000000000000e+02 8.310000000000000000e+02 8.320000000000000000e+02 8.330000000000000000e+02 8.340000000000000000e+02 8.350000000000000000e+02 8.360000000000000000e+02 8.370000000000000000e+02 8.380000000000000000e+02 8.390000000000000000e+02 8.400000000000000000e+02 8.410000000000000000e+02 8.420000000000000000e+02 8.430000000000000000e+02 8.440000000000000000e+02 8.450000000000000000e+02 8.460000000000000000e+02 8.470000000000000000e+02 8.480000000000000000e+02 8.490000000000000000e+02 8.500000000000000000e+02 8.510000000000000000e+02 8.520000000000000000e+02 8.530000000000000000e+02 8.540000000000000000e+02 8.550000000000000000e+02 8.560000000000000000e+02 8.570000000000000000e+02 8.580000000000000000e+02 8.590000000000000000e+02 8.600000000000000000e+02 8.610000000000000000e+02 8.620000000000000000e+02 8.630000000000000000e+02 8.640000000000000000e+02 8.650000000000000000e+02 8.660000000000000000e+02 8.670000000000000000e+02 8.680000000000000000e+02 8.690000000000000000e+02 8.700000000000000000e+02 8.710000000000000000e+02 8.720000000000000000e+02 8.730000000000000000e+02 8.740000000000000000e+02 8.750000000000000000e+02 8.760000000000000000e+02 8.770000000000000000e+02 8.780000000000000000e+02 8.790000000000000000e+02 8.800000000000000000e+02 8.810000000000000000e+02 8.820000000000000000e+02 8.830000000000000000e+02 8.840000000000000000e+02 8.850000000000000000e+02 8.860000000000000000e+02 8.870000000000000000e+02 8.880000000000000000e+02 8.890000000000000000e+02 8.900000000000000000e+02 8.910000000000000000e+02 8.920000000000000000e+02 8.930000000000000000e+02 8.940000000000000000e+02 8.950000000000000000e+02 8.960000000000000000e+02 8.970000000000000000e+02 8.980000000000000000e+02 8.990000000000000000e+02 9.000000000000000000e+02 9.010000000000000000e+02 9.020000000000000000e+02 9.030000000000000000e+02 9.040000000000000000e+02 9.050000000000000000e+02 9.060000000000000000e+02 9.070000000000000000e+02 9.080000000000000000e+02 9.090000000000000000e+02 9.100000000000000000e+02 9.110000000000000000e+02 9.120000000000000000e+02 9.130000000000000000e+02 9.140000000000000000e+02 9.150000000000000000e+02 9.160000000000000000e+02 9.170000000000000000e+02 9.180000000000000000e+02 9.190000000000000000e+02 9.200000000000000000e+02 9.210000000000000000e+02 9.220000000000000000e+02 9.230000000000000000e+02 9.240000000000000000e+02 9.250000000000000000e+02 9.260000000000000000e+02 9.270000000000000000e+02 9.280000000000000000e+02 9.290000000000000000e+02 9.300000000000000000e+02 9.310000000000000000e+02 9.320000000000000000e+02 9.330000000000000000e+02 9.340000000000000000e+02 9.350000000000000000e+02 9.360000000000000000e+02 9.370000000000000000e+02 9.380000000000000000e+02 9.390000000000000000e+02 9.400000000000000000e+02 9.410000000000000000e+02 9.420000000000000000e+02 9.430000000000000000e+02 9.440000000000000000e+02 9.450000000000000000e+02 9.460000000000000000e+02 9.470000000000000000e+02 9.480000000000000000e+02 9.490000000000000000e+02 9.500000000000000000e+02 9.510000000000000000e+02 9.520000000000000000e+02 9.530000000000000000e+02 9.540000000000000000e+02 9.550000000000000000e+02 9.560000000000000000e+02 9.570000000000000000e+02 9.580000000000000000e+02 9.590000000000000000e+02 9.600000000000000000e+02 9.610000000000000000e+02 9.620000000000000000e+02 9.630000000000000000e+02 9.640000000000000000e+02 9.650000000000000000e+02 9.660000000000000000e+02 9.670000000000000000e+02 9.680000000000000000e+02 9.690000000000000000e+02 9.700000000000000000e+02 9.710000000000000000e+02 9.720000000000000000e+02 9.730000000000000000e+02 9.740000000000000000e+02 9.750000000000000000e+02 9.760000000000000000e+02 9.770000000000000000e+02 9.780000000000000000e+02 9.790000000000000000e+02 9.800000000000000000e+02 9.810000000000000000e+02 9.820000000000000000e+02 9.830000000000000000e+02 9.840000000000000000e+02 9.850000000000000000e+02 9.860000000000000000e+02 9.870000000000000000e+02 9.880000000000000000e+02 9.890000000000000000e+02 9.900000000000000000e+02 9.910000000000000000e+02 9.920000000000000000e+02 9.930000000000000000e+02 9.940000000000000000e+02 9.950000000000000000e+02 9.960000000000000000e+02 9.970000000000000000e+02 9.980000000000000000e+02 9.990000000000000000e+02 1.000000000000000000e+03
1.000000000000000021e-02 1.000000000000000021e-02 1.000000000000000021e-02 1.000000000000000021e-02 1.000000000000000021e-02 1.000000000000000021e-02 1.000000000000000021e-02 1.000000000000000021e-02 1.000000000000000021e-02 1.000000000000000021e-02 1.000000000000000021e-02 1.000000000000000021e-02 1.000000000000000021e-02 1.000000000000000021e-02 1.000000000000000021e-02 1.000000000000000021e-02 1.000000000000000021e-02 1.000000000000000021e-02 1.000000000000000021e-02 1.000000000000000021e-02 1.000000000000000021e-02 1.000000000000000021e-02 1.000000000000000021e-02 1.000000000000000021e-02 1.000000000000000021e-02 1.000000000000000021e-02 1.000000000000000021e-02 1.000000000000000021e-02 1.000000000000000021e-02 1.000000000000000021e-02 1.000000000000000021e-02 1.000000000000000021e-02 1.000000000000000021e-02 1.000000000000000021e-02 1.000000000000000021e-02 1.000000000000000021e-02 1.000000000000000021e-02 1.000000000000000021e-02 1.000000000000000021e-02 1.000000000000000021e-02 1.000000000000000021e-02 1.000000000000000021e-02 1.000000000000000021e-02 1.000000000000000021e-02 1.000000000000000021e-02 1.000000000000000021e-02 1.000000000000000021e-02 1.000000000000000021e-02 1.000000000000000021e-02 1.000000000000000021e-02 1.000000000000000021e-02 1.000000000000000021e-02 1.000000000000000021e-02 1.000000000000000021e-02 1.000000000000000021e-02 1.000000000000000021e-02 1.000000000000000021e-02 1.000000000000000021e-02 1.000000000000000021e-02 1.000000000000000021e-02 1.000000000000000021e-02 1.000000000000000021e-02 1.000000000000000021e-02 1.000000000000000021e-02 1.000000000000000021e-02 1.000000000000000021e-02 1.000000000000000021e-02 1.000000000000000021e-02 1.000000000000000021e-02 1.000000000000000021e-02 1.000000000000000021e-02 1.000000000000000021e-02 1.000000000000000021e-02 1.000000000000000021e-02 1.000000000000000021e-02 1.000000000000000021e-02 1.000000000000000021e-02 1.000000000000000021e-02 1.000000000000000021e-02 1.000000000000000021e-02 1.000000000000000021e-02 1.000000000000000021e-02 1.000000000000000021e-02 1.000000000000000021e-02 1.000000000000000021e-02 1.000000000000000021e-02 1.000000000000000021e-02 1.000000000000000021e-02 1.000000000000000021e-02 1.000000000000000021e-02 1.000000000000000021e-02 1.000000000000000021e-02 1.000000000000000021e-02 1.000000000000000021e-02 1.000000000000000021e-02 1.000000000000000021e-02 1.000000000000000021e-02 1.000000000000000021e-02 1.000000000000000021e-02 1.000000000000000021e-02 1.000000000000000021e-02 1.000000000000000021e-02 1.000000000000000021e-02 1.000000000000000021e-02 1.000000000000000021e-02 1.000000000000000021e-02 1.000000000000000021e-02 1.000000000000000021e-02 1.000000000000000021e-02 1.000000000000000021e-02 1.000000000000000021e-02 1.000000000000000021e-02 1.000000000000000021e-02 1.000000000000000021e-02 1.000000000000000021e-02 1.000000000000000021e-02 1.000000000000000021e-02 1.000000000000000021e-02 1.000000000000000021e-02 1.000000000000000021e-02 1.000000000000000021e-02 1.000000000000000021e-02 1.000000000000000021e-02 1.000000000000000021e-02 1.000000000000000021e-02 1.000000000000000021e-02 1.000000000000000021e-02 1.000000000000000021e-02 1.000000000000000021e-02 1.000000000000000021e-02 1.000000000000000021e-02 1.000000000000000021e-02 1.000000000000000021e-02 1.000000000000000021e-02 1.000000000000000021e-02 1.000000000000000021e-02 1.000000000000000021e-02 1.000000000000000021e-02 1.000000000000000021e-02 1.000000000000000021e-02 1.000000000000000021e-02 1.000000000000000021e-02 1.000000000000000021e-02 1.000000000000000021e-02 1.000000000000000021e-02 1.000000000000000021e-02 1.000000000000000021e-02 1.000000000000000021e-02 1.000000000000000021e-02 1.000000000000000021e-02 1.000000000000000021e-02 1.000000000000000021e-02 1.000000000000000021e-02 1.000000000000000021e-02 1.000000000000000021e-02 1.000000000000000021e-02 1.000000000000000021e-02 1.000000000000000021e-02 1.000000000000000021e-02 1.000000000000000021e-02 1.000000000000000021e-02 1.000000000000000021e-02 1.000000000000000021e-02 1.000000000000000021e-02 1.000000000000000021e-02 1.000000000000000021e-02 1.000000000000000021e-02 1.000000000000000021e-02 1.000000000000000021e-02 1.000000000000000021e-02 1.000000000000000021e-02 1.000000000000000021e-02 1.000000000000000021e-02 1.000000000000000021e-02 1.000000000000000021e-02 1.000000000000000021e-02 1.000000000000000021e-02 1.000000000000000021e-02 1.000000000000000021e-02 1.000000000000000021e-02 1.000000000000000021e-02 1.000000000000000021e-02 1.000000000000000021e-02 1.000000000000000021e-02 1.000000000000000021e-02 1.000000000000000021e-02 1.000000000000000021e-02 1.000000000000000021e-02 1.000000000000000021e-02 1.000000000000000021e-02 1.000000000000000021e-02 1.000000000000000021e-02 1.000000000000000021e-02 1.000000000000000021e-02 1.000000000000000021e-02 1.000000000000000021e-02 1.000000000000000021e-02 1.000000000000000021e-02 1.000000000000000021e-02 1.000000000000000021e-02 1.000000000000000021e-02 1.000000000000000021e-02 1.000000000000000021e-02 1.000000000000000021e-02 1.000000000000000021e-02 1.000000000000000021e-02 1.000000000000000021e-02 1.000000000000000021e-02 1.000000000000000021e-02 1.000000000000000021e-02 1.000000000000000021e-02 1.000000000000000021e-02 1.000000000000000021e-02 1.000000000000000021e-02 1.000000000000000021e-02 1.000000000000000021e-02 1.000000000000000021e-02 1.000000000000000021e-02 1.000000000000000021e-02 1.000000000000000021e-02 1.000000000000000021e-02 1.000000000000000021e-02 1.000000000000000021e-02 1.000000000000000021e-02 1.000000000000000021e-02 1.000000000000000021e-02 1.000000000000000021e-02 1.000000000000000021e-02 1.000000000000000021e-02 1.000000000000000021e-02 1.000000000000000021e-02 1.000000000000000021e-02 1.000000000000000021e-02 1.000000000000000021e-02 1.000000000000000021e-02 1.000000000000000021e-02 1.000000000000000021e-02 1.000000000000000021e-02 1.000000000000000021e-02 1.000000000000000021e-02 1.000000000000000021e-02 1.000000000000000021e-02 1.000000000000000021e-02 1.000000000000000021e-02 1.000000000000000021e-02 1.000000000000000021e-02 1.000000000000000021e-02 1.000000000000000021e-02 1.000000000000000021e-02 1.000000000000000021e-02 1.000000000000000021e-02 1.000000000000000021e-02 1.000000000000000021e-02 1.000000000000000021e-02 1.000000000000000021e-02 1.000000000000000021e-02 1.000000000000000021e-02 1.000000000000000021e-02 1.000000000000000021e-02 1.000000000000000021e-02 1.000000000000000021e-02 1.000000000000000021e-02 1.000000000000000021e-02 1.000000000000000021e-02 1.000000000000000021e-02 1.000000000000000021e-02 1.000000000000000021e-02 1.000000000000000021e-02 1.000000000000000021e-02 1.000000000000000021e-02 1.000000000000000021e-02 1.000000000000000021e-02 1.000000000000000021e-02 1.000000000000000021e-02 1.000000000000000021e-02 1.000000000000000021e-02 1.000000000000000021e-02 1.000000000000000021e-02 1.000000000000000021e-02 1.000000000000000021e-02 1.000000000000000021e-02 1.000000000000000021e-02 1.000000000000000021e-02 1.000000000000000021e-02 1.000000000000000021e-02 1.000000000000000021e-02 1.000000000000000021e-02 1.000000000000000021e-02 1.000000000000000021e-02 1.000000000000000021e-02 1.000000000000000021e-02 1.000000000000000021e-02 1.000000000000000021e-02 1.000000000000000021e-02 1.000000000000000021e-02 1.000000000000000021e-02 1.000000000000000021e-02 1.000000000000000021e-02 1.000000000000000021e-02 1.000000000000000021e-02 1.000000000000000021e-02 1.000000000000000021e-02 1.000000000000000021e-02 1.000000000000000021e-02 1.000000000000000021e-02 1.000000000000000021e-02 1.000000000000000021e-02 1.000000000000000021e-02 1.000000000000000021e-02 1.000000000000000021e-02 1.000000000000000021e-02 1.000000000000000021e-02 1.000000000000000021e-02 1.000000000000000021e-02 1.000000000000000021e-02 1.000000000000000021e-02 1.000000000000000021e-02 1.000000000000000021e-02 1.000000000000000021e-02 1.000000000000000021e-02 1.000000000000000021e-02 1.000000000000000021e-02 1.000000000000000021e-02 1.000000000000000021e-02 1.000000000000000021e-02 1.000000000000000021e-02 1.000000000000000021e-02 1.000000000000000021e-02 1.000000000000000021e-02 1.000000000000000021e-02 1.000000000000000021e-02 1.000000000000000021e-02 1.000000000000000021e-02 1.000000000000000021e-02 1.000000000000000021e-02 1.000000000000000021e-02 1.000000000000000021e-02 1.000000000000000021e-02 1.000000000000000021e-02 1.000000000000000021e-02 1.000000000000000021e-02 1.000000000000000021e-02 1.000000000000000021e-02 1.000000000000000021e-02 1.000000000000000021e-02 1.000000000000000021e-02 1.000000000000000021e-02 1.000000000000000021e-02 1.000000000000000021e-02 1.000000000000000021e-02 1.000000000000000021e-02 1.000000000000000021e-02 1.000000000000000021e-02 1.000000000000000021e-02 1.000000000000000021e-02 1.000000000000000021e-02 1.000000000000000021e-02 1.000000000000000021e-02 1.000000000000000021e-02 1.000000000000000021e-02 1.000000000000000021e-02 1.000000000000000021e-02 1.000000000000000021e-02 1.000000000000000021e-02 1.000000000000000021e-02 1.000000000000000021e-02 1.000000000000000021e-02 1.000000000000000021e-02 1.000000000000000021e-02 1.000000000000000021e-02 1.000000000000000021e-02 1.000000000000000021e-02 1.000000000000000021e-02 1.000000000000000021e-02 1.000000000000000021e-02 1.000000000000000021e-02 1.000000000000000021e-02 1.000000000000000021e-02 1.000000000000000021e-02 1.000000000000000021e-02 1.000000000000000021e-02 1.000000000000000021e-02 1.000000000000000021e-02 1.000000000000000021e-02 1.000000000000000021e-02 1.000000000000000021e-02 1.000000000000000021e-02 1.000000000000000021e-02 1.000000000000000021e-02 1.000000000000000021e-02 1.000000000000000021e-02 1.000000000000000021e-02 1.000000000000000021e-02 1.000000000000000021e-02 1.000000000000000021e-02 1.000000000000000021e-02 1.000000000000000021e-02 1.000000000000000021e-02 1.000000000000000021e-02 1.000000000000000021e-02 1.000000000000000021e-02 1.000000000000000021e-02 1.000000000000000021e-02 1.000000000000000021e-02 1.000000000000000021e-02 1.000000000000000021e-02 1.000000000000000021e-02 1.000000000000000021e-02 1.000000000000000021e-02 1.000000000000000021e-02 1.000000000000000021e-02 1.000000000000000021e-02 1.000000000000000021e-02 1.000000000000000021e-02 1.000000000000000021e-02 1.000000000000000021e-02 1.000000000000000021e-02 1.000000000000000021e-02 1.000000000000000021e-02 1.000000000000000021e-02 1.000000000000000021e-02 1.000000000000000021e-02 1.000000000000000021e-02 1.000000000000000021e-02 1.000000000000000021e-02 1.000000000000000021e-02 1.000000000000000021e-02 1.000000000000000021e-02 1.000000000000000021e-02 1.000000000000000021e-02 1.000000000000000021e-02 1.000000000000000021e-02 1.000000000000000021e-02 1.000000000000000021e-02 1.000000000000000021e-02 1.000000000000000021e-02 1.000000000000000021e-02 1.000000000000000021e-02 1.000000000000000021e-02 1.000000000000000021e-02 1.000000000000000021e-02 1.000000000000000021e-02 1.000000000000000021e-02 1.000000000000000021e-02 1.000000000000000021e-02 1.000000000000000021e-02 1.000000000000000021e-02 1.000000000000000021e-02 1.000000000000000021e-02 1.000000000000000021e-02 1.000000000000000021e-02 1.000000000000000021e-02 1.000000000000000021e-02 1.000000000000000021e-02 1.000000000000000021e-02 1.000000000000000021e-02 1.000000000000000021e-02 1.000000000000000021e-02 1.000000000000000021e-02 1.000000000000000021e-02 1.000000000000000021e-02 1.000000000000000021e-02 1.000000000000000021e-02 1.000000000000000021e-02 1.000000000000000021e-02 1.000000000000000021e-02 1.000000000000000021e-02 1.000000000000000021e-02 1.000000000000000021e-02 1.000000000000000021e-02 1.000000000000000021e-02 1.000000000000000021e-02 1.000000000000000021e-02 1.000000000000000021e-02 1.000000000000000021e-02 1.000000000000000021e-02 1.000000000000000021e-02 1.000000000000000021e-02 1.000000000000000021e-02 1.000000000000000021e-02 1.000000000000000021e-02 1.000000000000000021e-02 1.000000000000000021e-02 1.000000000000000021e-02 1.000000000000000021e-02 1.000000000000000021e-02 1.000000000000000021e-02 1.000000000000000021e-02 1.000000000000000021e-02 1.000000000000000021e-02 1.000000000000000021e-02 1.000000000000000021e-02 1.000000000000000021e-02 1.000000000000000021e-02 1.000000000000000021e-02 1.000000000000000021e-02 1.000000000000000021e-02 1.000000000000000021e-02 1.000000000000000021e-02 1.000000000000000021e-02 1.000000000000000021e-02 1.000000000000000021e-02 1.000000000000000021e-02 1.000000000000000021e-02 1.000000000000000021e-02 1.000000000000000021e-02 1.000000000000000021e-02 1.000000000000000021e-02 1.000000000000000021e-02 1.000000000000000021e-02 1.000000000000000021e-02 1.000000000000000021e-02 1.000000000000000021e-02 1.000000000000000021e-02 1.000000000000000021e-02 1.000000000000000021e-02 1.000000000000000021e-02 1.000000000000000021e-02 1.000000000000000021e-02 1.000000000000000021e-02 1.000000000000000021e-02 1.000000000000000021e-02 1.000000000000000021e-02 1.000000000000000021e-02 1.000000000000000021e-02 1.000000000000000021e-02 1.000000000000000021e-02 1.000000000000000021e-02 1.000000000000000021e-02 1.000000000000000021e-02 1.000000000000000021e-02 1.000000000000000021e-02 1.000000000000000021e-02 1.000000000000000021e-02 1.000000000000000021e-02 1.000000000000000021e-02 1.000000000000000021e-02 1.000000000000000021e-02 1.000000000000000021e-02 1.000000000000000021e-02 1.000000000000000021e-02 1.000000000000000021e-02 1.000000000000000021e-02 1.000000000000000021e-02 1.000000000000000021e-02 1.000000000000000021e-02 1.000000000000000021e-02 1.000000000000000021e-02 1.000000000000000021e-02 1.000000000000000021e-02 1.000000000000000021e-02 1.000000000000000021e-02 1.000000000000000021e-02 1.000000000000000021e-02 1.000000000000000021e-02 1.000000000000000021e-02 1.000000000000000021e-02 1.000000000000000021e-02 1.000000000000000021e-02 1.000000000000000021e-02 1.000000000000000021e-02 1.000000000000000021e-02 1.000000000000000021e-02 1.000000000000000021e-02 1.000000000000000021e-02 1.000000000000000021e-02 1.000000000000000021e-02 1.000000000000000021e-02 1.000000000000000021e-02 1.000000000000000021e-02 1.000000000000000021e-02 1.000000000000000021e-02 1.000000000000000021e-02 1.000000000000000021e-02 1.000000000000000021e-02 1.000000000000000021e-02 1.000000000000000021e-02 1.000000000000000021e-02 1.000000000000000021e-02 1.000000000000000021e-02 1.000000000000000021e-02 1.000000000000000021e-02 1.000000000000000021e-02 1.000000000000000021e-02 1.000000000000000021e-02 1.000000000000000021e-02 1.000000000000000021e-02 1.000000000000000021e-02 1.000000000000000021e-02 1.000000000000000021e-02 1.000000000000000021e-02 1.000000000000000021e-02 1.000000000000000021e-02 1.000000000000000021e-02 1.000000000000000021e-02 1.000000000000000021e-02 1.000000000000000021e-02 1.000000000000000021e-02 1.000000000000000021e-02 1.000000000000000021e-02 1.000000000000000021e-02 1.000000000000000021e-02 1.000000000000000021e-02 1.000000000000000021e-02 1.000000000000000021e-02 1.000000000000000021e-02 1.000000000000000021e-02 1.000000000000000021e-02 1.000000000000000021e-02 1.000000000000000021e-02 1.000000000000000021e-02 1.000000000000000021e-02 1.000000000000000021e-02 1.000000000000000021e-02 1.000000000000000021e-02 1.000000000000000021e-02 1.000000000000000021e-02 1.000000000000000021e-02 1.000000000000000021e-02 1.000000000000000021e-02 1.000000000000000021e-02 1.000000000000000021e-02 1.000000000000000021e-02 1.000000000000000021e-02 1.000000000000000021e-02 1.000000000000000021e-02 1.000000000000000021e-02 1.000000000000000021e-02 1.000000000000000021e-02 1.000000000000000021e-02 1.000000000000000021e-02 1.000000000000000021e-02 1.000000000000000021e-02 1.000000000000000021e-02 1.000000000000000021e-02 1.000000000000000021e-02 1.000000000000000021e-02 1.000000000000000021e-02 1.000000000000000021e-02 1.000000000000000021e-02 1.000000000000000021e-02 1.000000000000000021e-02 1.000000000000000021e-02 1.000000000000000021e-02 1.000000000000000021e-02 1.000000000000000021e-02 1.000000000000000021e-02 1.000000000000000021e-02 1.000000000000000021e-02 1.000000000000000021e-02 1.000000000000000021e-02 1.000000000000000021e-02 1.000000000000000021e-02 1.000000000000000021e-02 1.000000000000000021e-02 1.000000000000000021e-02 1.000000000000000021e-02 1.000000000000000021e-02 1.000000000000000021e-02 1.000000000000000021e-02 1.000000000000000021e-02 1.000000000000000021e-02 1.000000000000000021e-02 1.000000000000000021e-02 1.000000000000000021e-02 1.000000000000000021e-02 1.000000000000000021e-02 1.000000000000000021e-02 1.000000000000000021e-02 1.000000000000000021e-02 1.000000000000000021e-02 1.000000000000000021e-02 1.000000000000000021e-02 1.000000000000000021e-02 1.000000000000000021e-02 1.000000000000000021e-02 1.000000000000000021e-02 1.000000000000000021e-02 1.000000000000000021e-02 1.000000000000000021e-02 1.000000000000000021e-02 1.000000000000000021e-02 1.000000000000000021e-02 1.000000000000000021e-02 1.000000000000000021e-02 1.000000000000000021e-02 1.000000000000000021e-02 1.000000000000000021e-02 1.000000000000000021e-02 1.000000000000000021e-02 1.000000000000000021e-02 1.000000000000000021e-02 1.000000000000000021e-02 1.000000000000000021e-02 1.000000000000000021e-02 1.000000000000000021e-02 1.000000000000000021e-02 1.000000000000000021e-02 1.000000000000000021e-02 1.000000000000000021e-02 1.000000000000000021e-02 1.000000000000000021e-02 1.000000000000000021e-02 1.000000000000000021e-02 1.000000000000000021e-02 1.000000000000000021e-02 1.000000000000000021e-02 1.000000000000000021e-02 1.000000000000000021e-02 1.000000000000000021e-02 1.000000000000000021e-02 1.000000000000000021e-02 1.000000000000000021e-02 1.000000000000000021e-02 1.000000000000000021e-02 1.000000000000000021e-02 1.000000000000000021e-02 1.000000000000000021e-02 1.000000000000000021e-02 1.000000000000000021e-02 1.000000000000000021e-02 1.000000000000000021e-02 1.000000000000000021e-02 1.000000000000000021e-02 1.000000000000000021e-02 1.000000000000000021e-02 1.000000000000000021e-02 1.000000000000000021e-02 1.000000000000000021e-02 1.000000000000000021e-02 1.000000000000000021e-02 1.000000000000000021e-02 1.000000000000000021e-02 1.000000000000000021e-02 1.000000000000000021e-02 1.000000000000000021e-02 1.000000000000000021e-02 1.000000000000000021e-02 1.000000000000000021e-02 1.000000000000000021e-02 1.000000000000000021e-02 1.000000000000000021e-02 1.000000000000000021e-02 1.000000000000000021e-02 1.000000000000000021e-02 1.000000000000000021e-02 1.000000000000000021e-02 1.000000000000000021e-02 1.000000000000000021e-02 1.000000000000000021e-02 1.000000000000000021e-02 1.000000000000000021e-02 1.000000000000000021e-02 1.000000000000000021e-02 1.000000000000000021e-02 1.000000000000000021e-02 1.000000000000000021e-02 1.000000000000000021e-02 1.000000000000000021e-02 1.000000000000000021e-02 1.000000000000000021e-02 1.000000000000000021e-02 1.000000000000000021e-02 1.000000000000000021e-02 1.000000000000000021e-02 1.000000000000000021e-02 1.000000000000000021e-02 1.000000000000000021e-02 1.000000000000000021e-02 1.000000000000000021e-02 1.000000000000000021e-02 1.000000000000000021e-02 1.000000000000000021e-02 1.000000000000000021e-02 1.000000000000000021e-02 1.000000000000000021e-02 1.000000000000000021e-02 1.000000000000000021e-02 1.000000000000000021e-02 1.000000000000000021e-02 1.000000000000000021e-02 1.000000000000000021e-02 1.000000000000000021e-02 1.000000000000000021e-02 1.000000000000000021e-02 1.000000000000000021e-02 1.000000000000000021e-02 1.000000000000000021e-02 1.000000000000000021e-02 1.000000000000000021e-02 1.000000000000000021e-02 1.000000000000000021e-02 1.000000000000000021e-02 1.000000000000000021e-02 1.000000000000000021e-02 1.000000000000000021e-02 1.000000000000000021e-02 1.000000000000000021e-02 1.000000000000000021e-02 1.000000000000000021e-02 1.000000000000000021e-02 1.000000000000000021e-02 1.000000000000000021e-02 1.000000000000000021e-02 1.000000000000000021e-02 1.000000000000000021e-02 1.000000000000000021e-02 1.000000000000000021e-02 1.000000000000000021e-02 1.000000000000000021e-02 1.000000000000000021e-02 1.000000000000000021e-02 1.000000000000000021e-02 1.000000000000000021e-02 1.000000000000000021e-02 1.000000000000000021e-02 1.000000000000000021e-02 1.000000000000000021e-02 1.000000000000000021e-02 1.000000000000000021e-02 1.000000000000000021e-02 1.000000000000000021e-02 1.000000000000000021e-02 1.000000000000000021e-02 1.000000000000000021e-02 1.000000000000000021e-02 1.000000000000000021e-02 1.000000000000000021e-02 1.000000000000000021e-02 1.000000000000000021e-02 1.000000000000000021e-02 1.000000000000000021e-02 1.000000000000000021e-02 1.000000000000000021e-02 1.000000000000000021e-02 1.000000000000000021e-02 1.000000000000000021e-02 1.000000000000000021e-02 1.000000000000000021e-02 1.000000000000000021e-02 1.000000000000000021e-02 1.000000000000000021e-02 1.000000000000000021e-02 1.000000000000000021e-02 1.000000000000000021e-02 1.000000000000000021e-02 1.000000000000000021e-02 1.000000000000000021e-02 1.000000000000000021e-02 1.000000000000000021e-02 1.000000000000000021e-02 1.000000000000000021e-02 1.000000000000000021e-02 1.000000000000000021e-02 1.000000000000000021e-02 1.000000000000000021e-02 1.000000000000000021e-02 1.000000000000000021e-02 1.000000000000000021e-02 1.000000000000000021e-02 1.000000000000000021e-02 1.000000000000000021e-02 1.000000000000000021e-02 1.000000000000000021e-02 1.000000000000000021e-02 1.000000000000000021e-02 1.000000000000000021e-02 1.000000000000000021e-02 1.000000000000000021e-02 1.000000000000000021e-02 1.000000000000000021e-02 1.000000000000000021e-02 1.000000000000000021e-02 1.000000000000000021e-02 1.000000000000000021e-02 1.000000000000000021e-02 1.000000000000000021e-02 1.000000000000000021e-02 1.000000000000000021e-02 1.000000000000000021e-02 1.000000000000000021e-02 1.000000000000000021e-02 1.000000000000000021e-02 1.000000000000000021e-02 1.000000000000000021e-02 1.000000000000000021e-02 1.000000000000000021e-02 1.000000000000000021e-02 1.000000000000000021e-02 1.000000000000000021e-02 1.000000000000000021e-02 1.000000000000000021e-02 1.000000000000000021e-02 1.000000000000000021e-02 1.000000000000000021e-02 1.000000000000000021e-02 1.000000000000000021e-02 1.000000000000000021e-02 1.000000000000000021e-02 1.000000000000000021e-02 1.000000000000000021e-02 1.000000000000000021e-02 1.000000000000000021e-02 1.000000000000000021e-02 1.000000000000000021e-02 1.000000000000000021e-02 1.000000000000000021e-02 1.000000000000000021e-02 1.000000000000000021e-02 1.000000000000000021e-02 1.000000000000000021e-02 1.000000000000000021e-02 1.000000000000000021e-02 1.000000000000000021e-02 1.000000000000000021e-02 1.000000000000000021e-02 1.000000000000000021e-02 1.000000000000000021e-02 1.000000000000000021e-02 1.000000000000000021e-02 1.000000000000000021e-02 1.000000000000000021e-02 1.000000000000000021e-02 1.000000000000000021e-02 1.000000000000000021e-02 1.000000000000000021e-02 1.000000000000000021e-02 1.000000000000000021e-02 1.000000000000000021e-02 1.000000000000000021e-02 1.000000000000000021e-02 1.000000000000000021e-02 1.000000000000000021e-02 1.000000000000000021e-02 1.000000000000000021e-02 1.000000000000000021e-02 1.000000000000000021e-02 1.000000000000000021e-02 1.000000000000000021e-02 1.000000000000000021e-02 1.000000000000000021e-02 1.000000000000000021e-02 1.000000000000000021e-02 1.000000000000000021e-02 1.000000000000000021e-02 1.000000000000000021e-02 1.000000000000000021e-02 1.000000000000000021e-02 1.000000000000000021e-02 1.000000000000000021e-02 1.000000000000000021e-02 1.000000000000000021e-02 1.000000000000000021e-02 1.000000000000000021e-02 1.000000000000000021e-02 1.000000000000000021e-02 1.000000000000000021e-02 1.000000000000000021e-02 1.000000000000000021e-02 1.000000000000000021e-02 1.000000000000000021e-02 1.000000000000000021e-02 1.000000000000000021e-02 1.000000000000000021e-02 1.000000000000000021e-02 1.000000000000000021e-02 1.000000000000000021e-02 1.000000000000000021e-02 1.000000000000000021e-02 1.000000000000000021e-02 1.000000000000000021e-02 1.000000000000000021e-02 1.000000000000000021e-02 1.000000000000000021e-02 1.000000000000000021e-02 1.000000000000000021e-02 1.000000000000000021e-02 1.000000000000000021e-02 1.000000000000000021e-02 1.000000000000000021e-02 1.000000000000000021e-02 1.000000000000000021e-02 1.000000000000000021e-02 1.000000000000000021e-02 1.000000000000000021e-02 1.000000000000000021e-02 1.000000000000000021e-02 1.000000000000000021e-02 1.000000000000000021e-02 1.000000000000000021e-02 1.000000000000000021e-02 1.000000000000000021e-02 1.000000000000000021e-02 1.000000000000000021e-02 1.000000000000000021e-02 1.000000000000000021e-02 1.000000000000000021e-02 1.000000000000000021e-02 1.000000000000000021e-02 1.000000000000000021e-02
-1.126169571414531987e+02 1.711476389435141527e+02 3.971152311687762904e+01 -8.927252961873064052e+00 -8.869453907324692921e+01 -1.351592865018752754e+01 -2.098208427186293079e+02 6.890677102929199105e-01 -8.551763928606115428e+01 -1.414610276737465000e+01 -2.001224955828659091e+01 6.571456779828020345e+00 -1.797585799239625359e+00 1.693503727122415796e+02 8.540437463703945298e+01 -3.913163512455148663e+01 -5.327201629292356699e+01 7.995497780040450664e+01 3.312549669150892129e+01 -2.560281754927964215e+01 -7.958880600662263305e+01 -7.450278205177374957e+01 -1.393828833359663477e+01 2.920306122967094709e+01 -1.967416826218034771e+02 -9.966057430839762787e+01 -2.633024109388141909e+01 2.035212679475791333e+02 7.142408171423562635e+01 7.742858911651967446e+01 8.104095815229764810e+01 1.197073332742392582e+00 -7.995158252047369274e+01 2.093569734491885868e+02 -2.471143604063122154e+02 5.936401818468492309e+01 -1.212855909564805472e+02 -3.500294777038591576e+01 4.070192137661801546e+00 1.278974149541641765e+02 -1.240582801975042457e+02 -1.378444312025573204e+01 7.809182335969067879e+01 1.752209000176766551e+02 7.203299142358939378e+01 -6.907188807773574979e+01 4.162452556051326269e+01 -2.864371121098673356e+01 -6.668502670860040382e+01 1.580649160364277463e+02 -7.125016959630774238e+01 -5.261032093309520974e+01 -1.406187724804019297e+02 5.789458515776133574e+00 -5.101924742807430135e+01 3.902705231349147397e+01 -8.956337257540354813e+01 -5.053698852315309153e+01 -1.023664435182708701e+02 -1.569121583470617338e+02 1.965040888178887712e+01 4.577448996723978780e+01 -1.242884430531129283e+02 1.298196077929076431e+01 -8.005650634362871187e+01 4.958453939867840177e+01 1.681946992135422079e+02 -1.456300476413298099e+02 -4.372801227247666134e+01 7.257076496839101942e+00 2.954413563983583568e+00 4.278258586946656550e+01 8.478425401920715387e+01 9.069714077225671245e-01 -8.875720154358180736e+00 -7.070213647063035012e+01 7.901438420345463953e+01 -3.309363866066703252e+01 2.654202477474051491e+01 1.050066722325430533e+02 8.907787340783642094e+01 -4.316024745222497216e+01 5.836972392027256973e+01 1.488518868739771790e+02 1.173201508182948629e+02 -4.069128868320201597e+00 1.758874177448965952e+02 -1.125840776782728341e+02 4.248387108942106138e+00 -4.234088553111957509e+01 2.088297413531678046e+02 -2.142715937294923734e+01 2.904639578589590432e+00 -7.752120223331306192e+01 -7.201478023831943354e+00 -6.446690655986925833e+01 6.841886227940939591e+01 -9.545737316685141138e+01 6.921792138071305089e+01 -4.820211385357824696e+01 -5.024536872883106042e+01 -9.254038614760618486e+01 5.361054866232836957e+01 -5.525230144241690056e+01 -1.507740210562828054e+02 -8.024081368739982167e+01 -1.056262439624473473e+02 -1.587475452066557864e+02 1.372577948898799320e+02 -2.777307271387882892e+01 3.233672833154805204e+01 9.053381901398462617e+01 -1.050851284598370370e+02 5.752458039560694658e+01 -4.374103830121555347e+01 -6.998729241214962826e+01 -9.094596656407541957e+01 2.052511382272476794e+02 -5.729262479510698824e+01 -4.996489714888778622e+01 -4.767881464726509222e+01 8.118139077798643655e+01 -4.180583048611237729e+01 1.393292669936078596e+02 -5.034616524585057817e+01 5.561872553047268042e+01 4.586083337058775022e+00 -8.193497080826003298e+01 6.949080943403627941e+01 2.800713704001261135e+02 -9.290927132888646156e+01 4.795890190243351725e+01 -7.697203808498952071e+01 4.567722905099046926e+01 1.324727845289426398e+02 -5.187709783537999186e+01 1.472949408245529312e+01 -2.718666222518791287e+01 -1.029413751777714197e+02 -1.745957898643318984e+01 4.313965261263906115e+00 -7.899796912803724425e+00 -1.510459042327020107e+01 1.194233068111731626e+02 1.316510619694487332e+02 1.883255518971540141e+02 -3.073833477406950578e+02 3.860063600394840932e+01 -1.590917476759954141e+01 -6.299095619944957036e+01 1.821923836600466302e+02 7.700310920760745148e+01 -2.603311713384645731e+00 -1.171757642130842072e+02 -1.102041898520159613e+01 1.011436562984034282e+02 -1.358261609919740351e+02 -1.704300618474594842e+02 1.085059430001351188e+01 4.289257855027112498e+01 -6.167650592636842077e+01 4.249268244812094508e+01 -1.082559922975479907e+02 -1.529933421039864356e+02 2.134963381349515998e+01 4.912268988767841194e+01 4.855948515517404473e+00 -8.443684582292685548e+01 -9.466118016858102635e+01 -8.529876287115521905e+01 -8.856374249977467628e+01 1.277534670565098907e+01 5.751192996782501865e+01 1.178959482857288776e+02 8.039709024279852656e+01 9.059971034571191240e+01 1.087747783904633820e+02 -7.572986434062165984e+01 -8.355936253618996545e+01 7.142211897006261268e+01 6.934549881380671366e+01 6.000621808981588146e+01 -9.517260439784852366e+00 -9.229934908453026310e+01 5.471731242910794180e+01 -1.814411024454715005e+02 6.809454100785191599e+01 -4.517657943879061833e+01 -9.782591286783757312e+01 7.528258196056334839e+01 -1.738356402061740269e+01 -7.828483494829251299e+01 -5.833821264256795303e+01 -9.286506469450731771e+00 2.464296510418694481e+02 7.803622860590476762e+01 5.570611086570124826e+01 -1.055751343707900105e+02 1.506801020000914946e+02 1.059941767475650831e+00 -9.190014753157520033e+01 1.584336613429367731e+02 -1.567838191522233728e+02 1.604741145356763354e+01 -3.311860757779530218e+01 -2.260708305655742265e+02 -1.372460620980631631e+02 -8.974963266444882493e+01 -3.013111514511278699e+01 -1.226770741355162642e+02 5.932234530575941989e+01 6.685545112777677446e+01 -2.836331128915990973e+01 -1.025936885592924313e+02 1.163548677531710211e+02 1.216267790886859785e+02 4.755115061322443637e+01 1.796901295327640113e+01 2.689668649077567579e+02 4.494764494607971272e+01 -1.229203450649529259e+02 -4.637311196597615037e+01 -1.738391690025709124e+02 3.281251615055977311e+01 1.578692732170503916e+02 -1.527968067632949669e+02 1.356631143340456731e+02 -9.368470939806142894e+01 -1.946763793528993958e+01 -7.741029912441346195e-01 5.444976631126769462e+01 -1.195304705545109236e+01 -2.347907474115620730e+01 -1.948109294188091667e+01 -1.305328334003925193e+02 4.783478096220029130e+01 -3.128608867195886134e+01 -1.337699058981675826e+01 -1.104088931572148802e+01 2.328751667689083433e+02 1.795383074123899405e+02 2.397621397612913086e+02 1.358466273969299891e+02 -8.923380719476162426e+01 7.750819041538944987e+01 2.176540256426612530e+01 4.906045353131317910e+01 -4.095579771225305166e+01 2.633176790268095147e+02 -2.401859236048913360e+01 -1.409662991421792810e+02 -1.542073959556899432e+01 -4.724839687937987520e+01 -7.981152151821561347e+01 4.450379191493112074e+01 -1.207825189189008164e+01 1.875896899663315764e+02 9.529664743959673956e+01 4.216520384836051960e+01 1.011030607939705561e+02 9.746058790215516865e+01 -2.370993161788797465e+01 1.440227637472231095e+02 2.732133494465359291e+01 9.239304202113599729e+01 4.915312349116122448e+01 7.153941855126182858e+00 -1.194210655664121532e+02 -1.194884531300032791e+02 -9.286030461283823456e+01 -1.606608180610196968e+01 8.942459108028340609e+01 -3.163022466303781854e+01 1.020194449671769235e+02 4.519384038108913870e+01 -7.502655358094456517e+01 -3.091612759618256945e+01 -6.045237892957942449e+01 1.811908910590291555e+01 -4.780001130318097324e+01 -1.155935679184346156e+02 1.253854065514849765e+02 1.251786968132320936e+02 -8.144774378176369112e+01 5.624121171940817732e+00 -4.674575584403508799e+01 -3.364565852094651177e+01 -1.170153874883139800e+01 -3.220880355388257499e+01 4.585688269897541858e+01 -1.449689180555425025e+02 -5.450191739712791872e+01 -1.566651859646926823e+02 1.795841335376168502e+02 -2.086755480333231461e+01 6.078512587104876985e+01 1.230123439370182403e+01 1.488797310716319657e+02 4.602840961122795704e+01 3.683861524624396111e+01 1.590920542536763094e+02 -5.077368064584555185e+01 -1.005729397539396217e+02 2.799276421728836084e+01 -1.628070114492005018e+02 -5.501411426824958539e+01 1.053839321024275080e+02 -1.315503954529010571e+02 -3.745741753043050437e+01 9.403154305841209748e+01 -9.731702290211808304e+01 -9.217588487597143398e+01 -8.511501572664808180e+01 -6.573134814957225558e+01 2.564329408548004494e+02 2.040568360023478363e+02 1.060477422382039805e+02 -1.052109385827415764e+02 7.705968443936176016e+01 -6.807306092316355262e+01 -3.215950399508232493e+01 1.708535115959975670e+01 -3.312648470802269429e+01 -9.645181841025318192e+01 -2.805113436365159085e+00 1.521722965697345487e+01 1.118562381162757760e+02 -1.321029376165240024e+02 4.306283955662676988e+01 6.553090749738804277e+01 3.550602508643278554e+01 -9.310432701068643269e+01 -1.525648418175874781e+02 1.984680654852991211e+02 -1.829796567577841770e+01 2.586989466801104598e+01 1.607245446329929450e+02 2.738029881638248497e+01 2.848109700385212406e+01 -4.570882706617688740e+01 9.092261433920498348e+01 -1.399162225451212009e+02 -3.161175696024147541e+01 -6.294313582429780674e+00 -5.479870306705064564e+01 6.356308834877621550e+00 2.185054735393941527e+01 -3.670665128214094608e+01 1.401602527032121337e+01 2.191617084900823613e+02 -2.808489217437515961e+01 -2.867843798385367293e+01 -1.042286599999500254e+02 -1.694547637538180274e+00 -8.278818078449762652e+01 6.564858495889779988e+00 1.148782911935369100e+02 -5.333179598096679541e+01 6.200709774630828619e+00 -5.567813820636506961e+01 3.415089221904729744e+00 8.937909501561496484e+01 -1.187327871936466295e+02 -9.921051386022395491e+01 -1.050967145057619092e+02 7.315727848278048384e+01 8.870018525404439913e+01 -9.457621562705348595e+01 6.414982758465821178e+01 2.645093890499252609e+01 3.964019784841269001e+01 -1.819304741938458392e+01 9.358326076725784048e+01 8.168940046602574512e+01 -7.917492238612487654e+01 1.214278038802941850e+01 8.288111405221863492e+01 7.464686210012878576e+01 -2.036856635758785217e+01 2.559549560414284031e+01 -1.358291935030552793e+02 4.969945675856083511e+01 -3.356812307813031282e+01 -3.344571136402543488e+01 1.774098799091201784e+02 4.859665673716827428e+01 1.231476333542127151e+02 1.955992589940603068e+02 -1.410490347756878862e+02 1.526951121627980115e+02 -6.493200128776506119e+01 -1.384195967032875103e+02 8.432466624142240619e+01 -1.373427842150645120e+02 -2.940227000463995566e+01 5.779265969757936006e+01 8.282357567696188028e+00 -1.721957382767379841e+02 8.627267979792915753e+01 2.582818288300243736e+01 7.077748992159672525e+01 3.715621271358200772e+01 9.705947746566955914e+00 -6.874887826438768457e+01 1.185509852871272187e+02 5.580921969585334352e+01 -6.363458593507256467e+01 -1.036976093602542903e+02 3.989609959417037288e+01 2.629112453138139216e+01 8.438301159103549764e+01 1.881900269922662687e+02 -2.523586960388479028e+01 -1.128147791209874953e+02 -8.679437088641658704e+01 -5.256499153782224454e+01 -4.545838741791244786e+01 -1.502890394143798574e+02 -2.304378268390710716e+01 1.326207336814880478e+02 7.634911972640186661e+01 -1.253307523940525243e+02 -1.534557015599535532e+02 -6.975473272311313622e+01 -7.821646074157912665e+01 1.502876546423798061e+02 -1.745676787350197117e+02 8.861695215063899411e+01 -4.719205565426560334e+00 -4.405735969145069930e+01 1.362779392341008133e+01 9.337523765527852504e+01 5.079476983686645042e+01 1.415318721653680711e+02 -1.629565086489313046e+02 -8.291803702052315828e+01 2.594341883808433025e+01 4.294424733896263291e+01 2.111020155304093180e+02 1.489389015601263395e+02 6.709254998256567148e+01 7.383495927749882526e+01 -3.503643976067720445e+01 1.554741299823447207e+02 -1.836177023599644542e+02 -6.491241103262417766e+01 -5.497306105582073599e+01 -5.303434172634225519e+01 -1.057632372052632803e+02 -1.534065255172123443e+01 -7.028655185193410659e+01 7.288779757451283103e+01 -9.383222556531295666e+00 -5.949625181817793163e+01 -6.379901592434005408e+01 1.844953759251447707e+02 6.039547275796002168e+01 -1.402631065920681763e+01 2.138550094452504311e+02 -1.109031679152378302e+02 -3.617989890565354472e+01 6.854930984079422274e+01 -1.319866641380755545e-01 1.529053429148276777e+01 -1.280229056507443772e+02 1.803599186106978891e+02 -5.015813815780913387e+01 -2.758746715241134950e+01 -1.122887533259711290e+02 1.287981212922645113e+02 9.813536424193483754e+01 -7.933197799704522879e+01 -3.843219509412702450e+01 3.983839630132533927e+01 -1.548980437902608287e+02 -1.450327650920814893e-01 -7.641738592189460633e+01 7.883925167390418487e+00 -1.105941971785681943e+02 -1.621433832572534754e+02 -7.227951369640889823e+01 1.515130668576621247e+02 5.786523990610176327e+01 -9.162227841904825709e+01 9.118114490131071648e+01 3.500818016835993518e+01 9.025539190851084470e+01 -4.304515438253423554e+01 -8.595043895237711240e+01 1.747658014511966940e+02 4.257474726415354382e+01 2.958605459279709748e+01 -7.459368298002011954e+01 -4.322192880031682449e+01 9.767023051846358328e+00 -7.310899377036307989e+00 -1.765102730811925369e+02 -3.533653961374151464e+01 6.578369050775789617e+01 1.139717601933006677e+02 1.589666586579724878e+02 -1.354311427385507116e+01 9.147709566703363748e+01 1.609613156045511460e+02 6.472592199619467124e+01 1.508016887464228830e+02 1.638766509685587636e+01 1.339359799915634142e+02 -8.561334156057250766e+01 5.442391455343508966e+01 2.992015797001490895e+01 7.734173543435720433e+01 -1.082441960074568641e+02 2.017774481425471151e+02 -1.312194526033188424e+02 8.993795208296835142e+01 -1.094273565705756965e+02 4.698108191158005553e+01 1.404770897629613025e+01 9.234399363325424304e+01 -7.499180175925577885e+01 -7.684594711032852388e+01 -1.136466630288193969e+01 9.063836980539187493e+01 -3.009365678562757296e+01 -1.659038389192920349e+01 -1.996462167582416569e+01 4.816831431910811645e+00 9.975639268318938946e+01 -6.358562896977939971e+01 -2.759545571457098223e+00 -1.967225140368833252e+02 1.236495626827874332e+02 -1.265606035852853211e+02 -7.488188305089222752e+01 -2.386354497439654310e+01 -1.093783441586213740e+02 -5.387737413481467996e+01 -5.935159731527574678e+01 -1.993003928207330944e+01 1.380909795164203615e+02 5.478135262015071305e+01 1.017745570179960595e+02 -1.379080812212149283e+02 -1.404279161884956579e+02 -2.903455975760816727e+02 1.035037280503112243e+02 1.056660884166372512e+02 4.283758623214500716e+01 -4.298188491201863570e+01 -3.771730537849693832e+01 -1.860854733959354235e+02 1.480926534730073456e+02 -1.088592924470247425e+02 1.083927447064533425e+02 -1.613633542936443632e+02 -1.449962664272304380e+01 -5.612021647913071121e+01 -1.208541046122819012e+02 -4.671717025168493365e+01 -1.265559462981122074e+01 -9.390730195374261768e+01 -1.049041713919093013e+02 -1.252128438805823585e+01 7.217096159018309720e+01 -1.263311240545966143e+02 -1.588401765514018038e+01 -7.476558762498572719e+01 -1.332160101674148223e+02 6.767684387403102519e+00 9.649399813913682067e+01 1.677951724778118603e+02 -1.933866492596629882e+01 -4.669916727031664294e+01 -1.258749251741576103e+02 -1.658682663643390924e+02 1.052280635044852204e+02 -7.377592858652728580e+01 8.014362389264093167e+01 9.538705509532137583e+00 2.967210323849712239e+01 7.491268043769576934e+01 -8.594752553353309565e+01 8.385964572779863602e+01 1.169441710909144945e+02 1.597110051425429447e+02 -1.182905229752424248e+02 1.054597435429025012e+02 -4.846046353791593475e+01 -9.212514567100998875e+01 2.177064543500867160e+02 4.998162435173118467e+01 8.469334016034636647e+01 2.160427252093954209e+01 -6.410875986189465436e+01 -3.545143657694187311e+01 -2.134666755649055858e+02 1.071831451938245010e+02 8.270924483243376812e+01 -7.681572898224355583e+01 -7.423512495162781022e+01 1.473366203738391107e+02 1.025553605260057850e+02 5.186636219976783480e+01 7.720817545258853443e+01 -8.017861961902676526e+00 1.047207706178122351e+02 -1.050600641269499675e+02 1.891633132390022354e+02 -4.006580049451388703e+01 -1.237897736671538098e+02 -3.821874847196443170e+01 7.280680899848640308e+01 1.495237919629290957e+02 1.311893883823503515e+01 1.763954296443555734e+02 5.298129341507279122e+01 3.411127357143511318e+01 -1.129709044237144440e+02 4.548033589292169410e+01 -1.268962595417228130e+02 4.839751752232530180e+01 3.921906974607448859e+01 -1.251676623965828412e+02 -8.629663173380366459e+01 4.042386138515234251e+01 8.855697066691053720e+00 -2.358343272568031068e+01 4.247280595937814240e+01 -2.171609063483271029e+01 -6.402968594043369421e+01 -2.652855253208188202e+01 -2.279345548901726914e+01 -4.042202125640709198e+01 1.905968501487311073e+01 -8.168519109843791171e+01 1.207198787253735048e+02 -7.543686005110879478e+01 -4.355557960852999955e+00 6.648760081470105376e+01 3.958842868649928182e+00 1.617912577372565153e+01 1.619290045553525914e+01 -1.188781049906321954e+02 -4.485457431020399177e+00 6.601896730965280824e+01 -2.348719451650788130e+02 -8.610630625177250863e+01 -1.143986877861403002e+02 4.443722844336415534e+01 9.764886904882000351e+01 -9.310356438587925254e+01 -1.703714566617461799e+02 -1.878724085261848700e+02 2.026930492292571273e+01 -1.470679185194596812e+02 -6.409896056787768970e+00 1.497043595688001290e+02 -7.213009244838070266e+00 3.766064371714896453e+01 -1.002446537925912367e+02 8.086202658656084452e+01 -1.200100456441072083e+02 -1.558960300309752256e+01 -3.066910068997484728e+01 5.822257858037113465e+01 -8.983156562629703856e+00 1.068229217903661805e+02 -1.233303002585074921e+02 -5.059179353422087644e+01 8.739877876785485000e+01 6.678667547156955209e+01 -8.313312817833629254e+01 -5.489344668474149813e+01 -4.979313994142115263e+01 -2.918616733777571426e+02 1.951504701238281143e+02 7.673822733148504938e+01 -2.379260680070338196e+01 -2.989320046513047657e+01 4.184454293489503840e+01 -8.478506291938151662e+01 1.002558222172533959e+02 6.086776318979902101e+01 8.257726468724894175e+01 -8.464882643840586240e+01 -2.674514942656961836e+01 3.356294730831835693e+01 1.748915557570495238e+01 -4.307046605376525150e+01 1.588305116523481217e+02 -1.739535733852544297e+01 3.558370906183510129e+01 -2.310857183775940769e+02 -8.515341991017784551e+01 -7.355924781205770557e+01 2.313821872805586111e+01 1.097569319848030318e+02 -2.328581208945021501e+02 -1.879866795451474957e+02 2.227981485141678206e+02 -1.062350634622873535e+01 9.655938875849597025e+01 6.303993784631008168e+01 -5.565015772601283572e+01 -1.316590644844109477e+02 -9.563814298000306735e+01 -5.051553536365251063e+01 -3.762771720440724010e+01 -3.935046330792268776e+01 1.625617987875171622e+01 3.732447966715004384e+01 1.676406314326554821e+02 1.238063629145257494e+02 6.961071008844623265e+00 -4.405612687170030739e+00 -1.595886724918501614e+02 1.202430402794069977e+02 1.601158724915670177e+02 -1.039246237061975506e+02 7.409834529144062287e+01 1.783952299623119409e+00 5.516117735061229865e+01 1.260647735871253445e+02 7.129478984862316793e+01 -1.346909775456048521e+02 1.623066014082130692e+01 -2.953345092249247372e+01 1.119595448503873669e+01 -2.329119370922305166e+01 4.559295752706250227e+01 -2.619139059909330172e+02 1.821958672846847946e+02 7.357460116641843406e+00 1.603407738455934464e+02 -1.062584727898939363e+01 1.068296966568803725e+02 7.207532545540476576e+01 -4.227609544876020209e+01 3.008731257255625735e+01 -7.326938567949326853e+01 -8.956669318066839480e+01 -7.257751282234306700e+01 -3.227331462586160171e+01 4.550796116812147574e+01 1.109805568480876445e+02 2.871144346678357451e+01 6.256124627662802595e+01 -1.056184439802734261e+02 -1.382018215787280155e+02 -1.359015231631595455e+01 4.677470650365194160e+01 -4.588583288110928038e+01 9.530213143234821871e+01 5.597020007435526878e+01 -2.788154183146543375e+01 3.020210903918685119e+01 6.188257790357315713e+01 -7.272927377844474961e+01 -1.348665579812183068e+02 1.433174361806468369e+02 7.884349399496356270e+00 5.059218227018909886e+01 -1.506450272671685013e+02 -5.389866362158741708e+01 -4.698545896498900754e-01 -6.634258334554132830e+01 4.314512305414018201e+00 5.683174838187720468e+01 1.882869452286606986e+02 3.951870649622207310e+01 -1.107626712276247005e+01 7.294212184030151036e+01 -4.596263930079099680e+01 -1.101352944060106296e+02 -1.396875156731053096e+02 9.477340278642351734e+00 2.539062924193404314e+01 2.405830467303436038e+01 -5.752324258727975348e+01 1.222208886311976244e+02 -8.178217990266288950e+01 1.298421207719628114e+02 8.834233027495957913e+01 -6.582902849155117053e+01 -8.571912416610858543e+01 8.523133757181656733e+01 2.073904568822085892e+01 -5.314642826055917624e+01 -5.453361099682168600e+01 1.384260222998700840e+02 5.804246048645686784e+01 8.092369990954323100e+01 2.649122658382948003e+01 -4.264603551033287943e+01 1.089180243760702922e+02 -5.530608043034972354e+01 5.406795197589921997e-01 7.763563212960917781e+01 1.009747029529644777e+02 2.590693289057791162e+02 -1.776408769985624758e+02 1.632646157767312047e+02 -6.858572877962922121e+01 -1.544748887416411876e+01 -2.542221535881585837e+01 -2.104450583492188898e+01 -5.601749507888730051e+01 9.436046956524458551e+01 1.869587493046838631e+02 -1.206957280873690905e+02 3.143160282064837929e+01 -1.289905823196289703e+02 7.136392258316031700e+01 -4.525731875730623699e+01 -8.238074159735806745e+01 -5.482706854323811996e+01 4.190886423574745834e+01 1.974444068260958929e+01 -8.330399984334783881e+01 -1.437076032362368210e+02 2.116838487429840754e+01 1.606570742253018409e+02 1.456503706730435965e+01 1.860988788761456760e+02 7.615992128684423434e+00 1.373481452718761489e+02 -3.531081556067389471e+01 9.259376214076263523e+01 -7.294692663120929410e+01 -1.153105604714294401e+02 5.049850439111051514e+01 -5.928309569831424142e+01 -8.024466873464920980e+01 7.453214388756003927e+01 6.584673560990551344e+00 -9.644610287631198275e+01 -1.540025390568074215e+02 1.513331210894232868e+02 -9.127000691932254028e+01 -2.394026122679148383e+00 1.229544150117475141e+02 5.944333139679859102e+01 -1.005936293691874965e+02 1.087820537320583902e+01 2.890430314371340614e+02 5.466526298888846469e+01 -1.617349304159663177e+02 -4.892920240203363846e+01 -6.311780966421722638e+01 9.884702002305626678e+00 1.103687556554600775e+02 -1.061869200123377794e+02 2.213006025410515321e+01 1.339739704075965960e+02 1.928158750769649998e+01 -2.169398939921945839e+02 4.965963653313214365e+01 7.752536514958131875e+01 -1.394134783887471229e+01 3.369784319878731083e+01 1.354230600267749829e-01 2.310452986579502976e+01 2.849397268386040594e+01 1.189802153000778731e+02 1.006938763208777772e+02 1.596064898696900691e+01 1.531116863795448921e+02 -6.577695419253916498e+01 2.534171286788644863e+02 6.681107434598943939e+01 1.455856884560606090e+02 -2.258168205844353338e+01 9.254648121440858688e+01 -5.040564205643275386e+01 -1.504284120199054087e+02 2.692277373427660692e+01 9.773105120548990499e+01 -9.005622966657359996e+01 -1.076547001583916199e+02 -6.839200612568994586e+01 3.760820613298503190e+01 -1.174316702687677889e+02 7.682313989830670664e+01 2.886471300307370669e+01 -1.003456138033716343e+02 1.952714443676048575e+02 -1.209381979659091400e+01 -1.045965010396991772e+02 -1.375011761380312159e+01 -2.100854916653592852e+01 -1.441748326468888024e+02 -4.116516555020993451e+01 6.322973590881093742e+01 1.354748418095423119e+02 2.983019255985981744e+01 2.752431033253933279e+01 4.605116188610605121e+01 -3.677124383025849141e+01 -1.496879673269670832e+02 1.629219642110204092e+01 3.187513296277095520e+01 1.368433934342112934e+02 -1.022782324060563930e+01 -7.829541042106416171e+01 7.527890543871589557e+01 1.029365053474163849e+00 3.285397560297958819e+01 1.432360983666427217e+02 -1.825796289075398704e+02 -9.547843231248265283e+01 1.282613238565430152e+02 -2.155754466967349003e+02 -1.837696726280389896e+02 9.091231699703136826e+01 1.538774181880890239e+02 6.332689673740658520e+01 -4.440743368723370388e+00 1.556639642815271998e+02 -2.193094291810983805e+02 1.070743266139551366e+02 4.234915787152463196e+01 1.269814194726507708e+02 -1.884476780053560674e+02 1.065013986498912146e+02 -2.826979007125239818e+01 -1.335988965636175578e+02 -5.323053251479684889e+00 -9.233925578661971656e+01 -1.631350954079229609e+01 -4.271699615035047692e+00 -1.230966388285566779e+02 -1.232235171384898393e+02 -6.253001875962752365e+01 -1.288317933800375954e+02 2.008467412695151211e+02 -1.608878197653567383e+02 -5.012691299525528166e+01 1.724031585005830038e+02 3.389809314920662331e+01 -2.957535549969780391e+02 -1.269761381889871217e+02 3.549997062910264845e+01 5.460085038182109685e+01 8.605229334994112023e+00 -1.545170932040238938e+02 3.566031166814460818e+01 7.455575020634301886e+00 -7.426950535108748852e+01 2.025470913575678082e+02 2.024450854125066428e+02 4.324688644830524176e+00 -2.083611918499063052e+02 1.258949296202140147e+02 3.075136960692010035e+01 3.741803871145305660e+00 7.657686411519040348e+01 -2.072993031202627776e+02 -1.379323602498614321e+02 1.409378111620091829e+02 1.095528127025018819e+02 5.289565192921278225e+01 1.431230696950610479e+02 -1.781205311257494088e+02 -2.041224296735824950e+01 -1.303342888760326161e+02 4.354133352519743738e+01 -1.037787525153691917e+02 8.697135101011329539e+01 -3.384257942063450741e+01 1.237173104332589979e+01 1.772809182928215535e+02 2.846258321938775637e+01 -2.633524760001959635e+02 -1.262483054384902346e+02 -8.328802213758231687e+01 1.579739243127444013e+02 1.252353091656012829e+01 -5.375929470453480974e+01 3.036710214241817596e+01 6.247237574645797764e+01 -3.955531873293013945e+01 1.074253160978553439e+02 -1.006502694873814079e+02 4.917169490618772443e+01 1.118326173209551939e+02 -3.540372214752283497e+01 -9.804095654584028807e+01 -1.133128159584996268e+02 1.196574097573110009e+02 -4.961350324894931418e+01 1.963858786431468388e+02 5.715629297188363722e+01 1.108648189913974420e+02 1.842418863595291043e+02 8.555154806009978685e+00 -1.241658298372950213e+02 -1.656327048671131763e+02 -1.140983977444252560e+02 4.243138195402713109e+01
-1.329878823253927678e+01 -4.694230473257944070e+00 1.010792103635185128e+02 -2.235101523966832247e+02 1.516791527918759073e+02 6.200010347708250436e+01 1.484759107399203231e+02 -1.260460270932484974e+02 -2.718957610192833219e+00 -2.349871802531913545e+01 -2.141956400165812795e+02 3.195340151537213558e+01 -1.788539232602737172e+01 1.193483031997166961e+02 -1.220407000074079491e+02 6.022186446733128662e+01 1.222888535087616049e+02 -4.483435858232340365e+01 -4.847220876061693673e+01 -2.640496273866644472e+01 6.021160522862862052e+01 6.159825060420212850e+01 3.163156315064841451e+01 -2.269232207432913526e+02 -5.038477201491603807e+01 8.928196893155566727e+01 9.663256149166786102e+00 -1.009927882782408837e+01 -6.493019103599371533e+01 -1.508085899826262199e+01 7.156690394747330686e+01 -1.418939874784706205e+02 -6.040615325489459053e+01 8.778941187071589880e+00 2.024878721480836816e+02 2.069110664817537497e+02 -3.129055826971269028e+01 5.453488194833617797e+01 -2.704265973334614159e-01 -1.362857107392769080e+02 9.366258111245576856e+01 1.046485355767957230e+02 1.058940562949856030e+02 1.141126046634058255e+01 6.040067854081587484e+01 4.696077276509222287e+01 3.794531849916604216e+01 2.861295171406791837e+01 1.076183060921164980e+02 8.755035399888281233e+01 6.401708117987223545e+01 1.590277082757569644e+02 2.416659563206677319e+02 1.908312387423651728e+02 -5.769534193416948398e+01 4.807188793746725963e+01 -6.273704509614803015e+01 5.505303058450789422e+01 -1.874885178686952827e+02 5.513205082265482559e+01 -1.998157586741056662e+02 -1.646216559977654867e+02 1.262847203705077170e+01 -9.012976135598442795e+00 1.654344059583057458e+02 -2.028936330993351760e+02 7.346262959258956471e+01 2.242446461506174842e+02 -7.150091405181226101e+00 -1.900000820766468053e+02 3.472892296517386512e+01 1.924572758666062384e+02 -5.962529575135327065e+01 -2.600507657912784794e+02 -1.000921203899866612e+02 8.621771657550901580e+00 -2.245579180768905019e+02 3.125124045733496558e+01 -1.751635667454310124e+02 -1.811646438496249232e+02 -5.574577453394573467e+01 1.488706538214163686e+02 6.786813960211787844e+01 1.035438755763036589e+01 -8.654383094742607341e+01 -4.161038566832849739e+01 6.226915174193934632e+01 -2.266977665390040784e+02 5.285506128925611335e+01 -7.328465109720023918e+01 -7.630577193375484057e+01 -1.727422771621924369e+02 6.359944593165377569e+01 9.064051398025686979e+01 -1.586351085271858778e+02 1.688391157246061027e+02 -3.899796029374048345e+01 -1.653382088831056862e+01 8.558761488974344900e+01 1.527884871723212825e+02 2.119752673592650183e+01 1.480454968902390362e+02 -1.805195729376599445e+01 -8.867916398746781681e+01 -1.918137622814219156e+01 9.883234483763850164e+01 4.520480564020981973e+01 9.833442673983833515e+01 9.489324110033457771e+01 -8.348388788393218363e+01 -1.708035387438437169e+02 1.237052567712795650e+02 5.454286981588435879e+01 1.624823623050131260e+01 3.074342685934920993e+01 -6.829109199132456354e+01 9.655947050559973377e+01 9.032684211844481581e+01 -1.374742905130417014e+01 -7.163590376978909546e+01 3.094138639005213065e+01 6.309005391447620958e+00 -6.188672352734766946e+01 1.705189518070390022e+02 -3.316613280606944159e+01 1.223254131001639706e+02 -7.053425670990233698e+01 3.861824596797200115e+01 -3.633719266905561085e+01 9.001470840785685823e+01 2.363400702159148281e+01 1.163083104802092578e+02 -1.167376024174648990e+02 7.482690229575631236e+01 1.243033993364414727e+02 -4.501554830064332435e+01 7.635976025636449727e+00 -1.275272786343341735e+01 1.175746295069306768e+02 3.568262956719817858e+00 1.698671276194351947e+02 -1.424218953337401103e+02 1.175281185614731356e+02 -9.201460530091458168e+01 9.646616983869377293e+01 -1.380850871487428435e+02 2.974698173848267402e+01 2.493087811520285157e+01 1.832970991077198075e+00 3.659871026605551236e+01 4.626916206124435860e+01 -1.253106864235011031e+01 1.088829906988153873e+01 1.089707070957909565e+02 1.283139888757987990e+02 -8.739240071614715077e+01 -5.467849103642274855e+01 4.776998513305265703e+01 1.555237884388934511e+00 -1.381322521153133209e+02 -5.556620881434001546e+01 -3.577427085424216813e+01 4.935597854519278371e+01 -6.615238990798057728e+01 2.314084304917500745e+01 1.618472224260362964e+02 -8.021690417042933063e+01 8.155515275211000414e+01 8.490441958403745559e+01 1.133527154270364257e+01 1.246578196369968197e+02 6.351927899054977189e+01 1.697676570206783708e+02 -3.490625998759818316e+01 1.136561273965687064e+02 5.613752245022057252e+01 -1.625342698303355959e+01 2.063812100252487767e+02 -1.403684625673198809e+02 4.943626499742718039e+01 -1.897443922320277920e+02 -8.517383654673662363e+01 4.151138070095719002e+01 -7.307793948784643590e+01 -1.577527976765721007e+02 2.017906910644130392e+02 -8.685558443622295499e+01 -4.809063199254443788e+01 -4.687108925093946965e+01 1.233067051715508882e+02 1.972948411502872545e+02 6.559558370965216056e+01 1.481563114690063685e+02 2.223241143218773459e+02 -1.649280533595426368e+00 1.650600670947145545e+02 7.182704153913964262e+01 1.929147691786274379e+02 -1.274408564309929801e+02 -1.203067897381459161e+01 6.419442282985762915e+00 1.924794178770314375e+02 -9.211127949792999914e+01 -6.126696410201049758e+01 -5.365701309058661650e+01 -1.357334691708892080e+02 4.724752503315241547e+00 -1.022832092862510365e+02 1.561501367811686691e+02 2.388648292094870129e+01 1.217244726017929501e+01 7.327255306181501737e+01 -5.005503430077481219e+00 1.185037540425396685e+02 -1.609591949927296071e+02 4.600695437884282768e+01 -1.731344489765162677e+02 1.189901741592676956e+02 9.729717849052551060e+01 -6.821654170929600980e+01 4.738404194454116691e+01 2.413118816507182203e+02 -3.085883143359755820e+01 4.221650745254220993e+01 -3.310709714047692387e+01 5.870812477464756540e+01 6.514701464178219226e+01 -6.353725168640088405e+00 1.032846608471980403e+02 1.028673457837473535e+02 -1.964448834281622567e+02 -1.552712025622448380e+02 -1.213930459892727498e+02 -9.580892570184957435e+00 -1.517722704584501514e+02 1.170674527683165138e+02 1.118093053026268819e+02 5.974310804923102580e+01 1.130664191321105960e+01 1.597538507712727665e+02 8.505969763400820227e+01 6.837352358382277373e+01 -1.029683448475927179e+02 1.543158536231083815e+02 -3.620019210284483702e+00 1.107388215389819379e+02 8.928905799848914526e+00 3.721917837213462121e+01 -7.668252588586456397e+01 -9.191686169935677242e+01 7.249296001718012405e+01 -3.879155783572814098e+00 1.481049580268313548e+02 -1.273481762128590233e+01 -2.894182003179918361e+00 4.642419112977639628e+01 2.292449896889745631e+01 1.431509431731491873e+02 1.480690526725762446e+01 3.627282633182857552e+01 -1.565691969671852632e+02 6.663707388536843723e+01 1.352394994523442620e+02 -1.788567283755937964e+01 -2.306288698383513065e+02 8.535781992398150919e+01 1.375666582069771380e+02 2.051251937750508247e+01 1.907669645202883544e+02 -4.185799725761247814e+00 4.327394933371901686e+01 -4.394537180140503096e+01 -1.397606367966459402e+02 5.641149211587048740e+01 -4.781270953241351407e+01 -8.163298742527679508e+01 4.149140885293063263e+01 -1.860070414944965194e+02 7.218328071459569628e+01 1.653817904794767344e+02 -1.018294486590265535e+02 1.739506730900313300e+02 -9.821116133106146151e+01 -6.019216951554959394e+00 -1.057156839221149980e+01 7.699015657336552465e+01 -4.680011051420254375e+01 -1.083188659718627349e+02 -8.893211949971521335e+01 1.463909496839375777e+02 5.934259227374163004e+01 -1.322379333036769822e+02 4.459305203349424929e+00 4.359400006236457870e+01 8.284719662514906702e+01 -4.046537856936237176e+01 6.017861124001058215e+01 -6.917874976566794487e+01 -1.628411973228385534e+02 -3.473370923700130675e+01 1.413643751304694547e+02 -1.136605363030365083e+02 -6.438433267866097154e+00 -1.633233930694195237e+02 -4.783786913790306627e+00 -1.462079130011304642e+02 3.296548172760992657e+01 6.027026440338870117e+01 -5.043111395107980854e+01 -8.255231447948327173e+01 5.640217665647874412e+00 7.451567765996824733e+01 -6.787639043646419168e+01 1.349020534961262854e+02 1.056433370580711681e+02 -1.277966497476300134e+02 -1.055631032173767778e+02 1.352075738875399793e+02 7.140084598484145317e+01 1.502896161959117194e+02 1.002686022174531502e+02 8.120315033676590133e+01 -6.027436883509659538e+01 -8.178218936979055798e+01 -7.706597600321920538e+01 2.044448806181989369e+02 3.051686991223398948e+01 -2.488253404881315944e+01 -6.848715638756560509e+01 -4.997261054627805521e+01 -1.310552504486810506e+02 -1.648038536529885079e+01 -1.746065448720480617e+02 1.244387210599885378e+02 4.579940353933185548e+01 -1.146863125087604800e+02 -4.814904474350804975e+01 1.191650925668100882e+02 -9.650569538525570579e+01 1.023164860642079077e+02 -1.178639995013654698e+02 -1.170655786729360770e+01 -9.502360034240253128e+01 8.925524096995123102e+01 -4.226640167540560356e+01 1.027842922867085562e+01 2.917460667939175067e+01 -1.259975313108815698e+02 1.243692135943713239e+01 4.807520274110169112e+01 -2.228890676157596928e+01 -6.837681837645408223e+01 2.014088759500437789e+02 8.597453567499886162e+01 4.687574445891458197e+01 -3.124668128742550977e+01 7.979370044561787267e+01 1.666602586586928680e+02 -9.176923558058354047e+01 2.082702008239508018e+02 -1.323461107002979134e+02 -1.828876051142884194e+02 1.509902464154590973e+02 -2.326146918489290556e+02 -9.897106470512524456e-01 -2.435155131404309543e+02 -1.520450585362563345e+02 7.134194893057119202e+01 -1.448010522970421619e+02 5.804718233704163310e+01 1.092552966153532310e+02 -1.594529280775470852e+02 -2.996436986627498911e+01 7.496457708001481990e+01 1.331539481006815322e+02 -1.850048868411329011e+02 8.695204786774323225e+01 -9.738356376200728448e+01 -9.818843101345555269e+00 -1.380768222796846878e+01 -7.912095330478221911e+01 -8.979021578397048131e+01 1.803109141938779487e+02 -2.154880664482336883e+01 1.323771798850506665e+00 1.294816895781737571e+02 -8.619372457161905743e+01 -3.423548440248617197e+01 -1.070743842380352646e+02 -4.858712348579691565e+01 5.155941481623814937e+00 5.909733149433351684e+01 -1.344985847918280513e+02 2.362740026004049412e+02 -5.372456635269909953e+01 1.223096905197631230e+02 -4.869589172118940468e+01 1.195056721572829730e+02 1.387739222533768952e+02 4.790635780674720223e+01 1.218750047358973632e+02 -4.314838259240571006e+01 1.397338044822758150e+02 -1.561998987721792389e+02 -6.529710434248757167e+01 -6.288633260901398359e+01 2.549634972458925120e+01 -1.621046797668747104e+02 7.246740336520147707e+01 -3.080130503474227055e+01 -8.254990141174934593e+01 8.951224796079451096e+01 -1.509404811595658487e+02 -9.111627225906515548e+01 -5.254705846243967216e+01 3.305000986554487241e+01 1.296937471255264711e+02 1.167571246138200109e+02 6.906403241904824597e+01 -1.608222741127797617e+00 1.746806672345768732e+02 1.224018179404990718e+02 -9.433641224891098886e+01 -7.807898745649016803e+01 5.535836486264363998e+01 9.976885149754394888e+00 9.787279627063499277e+01 1.664832339055457169e+02 7.050294661256555173e+01 2.435859550080114033e+01 -1.020681987880007000e+02 1.715983921110380663e+02 -1.135354900840241754e+02 -1.650561966124371622e+02 6.562373539559611402e+01 1.113129786208675966e+02 1.959744757177418606e+01 -1.386150694838023867e+02 2.968622447898017569e+01 4.235330363267038933e+01 -3.143676724083666052e-01 1.306620316525380758e+02 9.738980002132593938e+01 1.706938932810901832e+01 7.817316020515535513e+01 -1.067832786470326170e+02 -6.292738090713904775e+00 9.809225313492272846e+01 2.961036911231916235e+01 -6.487211883699923476e+01 1.975144000292444559e+02 2.304858789689223784e+02 -1.251829002261802799e+02 -2.752695726875133531e+01 -2.096094166284322569e+02 -7.196888664299939364e+01 1.561482385752840685e+02 3.398382299113230864e+00 -7.076384881660159465e+01 1.632807582944825526e+02 -6.231533605027770761e+01 -1.600690113788626832e+02 1.360919322659999580e+02 -6.699279868319334241e+01 3.433480295855886055e+01 8.605506137156464774e+01 1.372863014281097449e+01 -2.373524797583339705e+02 4.213015296956986333e+01 -6.106564608890150403e+00 8.973937714902312734e+01 -2.347166185024508422e+01 1.007768032264760478e+02 1.689992121913960688e+01 -8.443465711115979389e+01 -2.039523962635562881e+01 -1.745335293961618390e+02 1.145413985337567908e+02 2.516950510741503066e+01 -4.146543627058903780e+01 -5.160799863627780582e+01 -6.261938096742038340e+01 4.093605553698018440e+01 1.600451188375615175e+02 1.321720051779867902e+02 4.289933244449281347e+01 -1.970652079805827839e+02 -3.863681951479827603e+01 4.363426446577106077e+01 1.168735732764238691e+02 8.688042956350355439e+01 1.539423549417103487e+01 -1.852941008499755355e+02 1.311919896357854896e+02 -2.228622262027837735e+02 -2.049855995070996642e+02 -1.841935890246282792e+00 -7.348168681877641006e+01 -2.398177219117723169e+01 8.678311779936755954e+01 5.569891688118216422e+01 -1.107685838316018589e+02 -1.508392193507403363e+02 1.453766360687351522e+01 1.231977825598102498e+02 2.062528600595233996e+01 -5.648377241217232836e+01 -5.140590215364245097e+01 -1.173410442001745224e+01 1.607299443715786254e+02 2.228754711298448044e+01 -1.760713137281512104e+02 1.300627193958578403e+02 -6.772346008065245826e+01 -4.234632018039251378e+00 1.561408709997769790e+02 -5.304030832742158452e+01 -1.985351660160784704e+01 -1.113826458126643502e+02 -6.094044067042116986e+00 -2.419326727105674024e+01 1.335554438041202729e+02 1.217752394778753882e+02 6.852527337804974650e+01 6.632420130742556807e+01 -1.897515693744036014e+01 1.371158482188247945e+02 -1.143207029526314784e+02 -4.324080156740312653e+00 -9.232553439922875782e+01 1.593436207724580811e+02 7.396574143124632883e+01 5.242220956469148518e+01 8.397436847007872629e+00 -5.401951273796253616e+01 3.486371294548106192e+01 6.848887657858641731e+00 3.643915047343015967e+00 2.445592810908048875e+01 6.060777458984540544e+01 1.726174611896481395e+02 -3.936157572194526466e+01 -5.271292925118601147e+01 6.770831329786588526e+01 1.172758329733416502e+02 -1.298496854718981908e+01 9.318879690810111072e+01 1.054573080202119542e+02 2.136487641216118050e+02 -8.773948770223063320e+01 -1.243816799613238686e+02 -2.902789210311444279e+01 6.298629476497652746e+01 -1.028497752213118410e+01 1.088802615145871613e+02 3.773663254079639984e+01 -1.648300965090582793e+02 4.566961211853513447e+01 -9.066178500322148182e+01 -1.371101783898066060e+02 1.362905397000155858e+02 -7.702461181708987681e+01 5.991709349496480286e+01 1.126672570403711404e+02 -1.003281837767035682e+02 2.377316987605563980e+01 -7.307715467160605272e+01 4.077066727035698790e+01 -1.160302308592296612e+02 6.233965980856599742e+01 5.534595694466220550e+01 3.977995915068454735e+00 8.511184683497171477e+01 -1.548158737193001571e+02 7.731193939868819598e+01 -2.959676577422469990e+01 -1.697686645260491218e+02 9.493321726161534002e+01 2.463625434588504604e+01 -1.971313901944570262e+02 2.363895995254370916e+02 -5.323822162451765649e-01 1.056883986669934217e+02 -1.211916020412583350e+02 -1.951527335936918632e+02 -9.377186756802130674e+01 2.484181890592779496e+00 1.436071252061556436e+02 4.034574505770512687e+00 -9.603337549074329615e+01 5.066247473059426198e+01 1.377162511585137850e+02 6.530857507776087800e+01 -5.200371676751609584e+01 -5.942769240821505861e+01 8.492226519760913561e+01 3.090822560913200334e+01 -1.964961304694298860e+02 -2.083565812991503208e+01 1.698664085872561316e+02 9.932352542502039228e+01 -5.759760032657813156e+01 -1.123511991531427867e+02 -4.289178554120144327e+01 -4.831554140434636935e+01 -1.150124304914469633e+02 -1.858283070630066902e+01 -4.588766627876140802e+01 -1.141700158056960248e+02 -1.325189002058429253e+02 -2.705374893341338449e+01 -1.262720685400799709e+02 -1.344263470248772876e+02 -3.851876918341305611e+01 -5.562791899098552761e+01 -1.115348776909790018e+02 1.938263624895002977e+02 1.096660961463906325e+01 -2.929656632636055136e+01 -1.771329403415064263e+01 8.191104206891785111e+01 1.628034036982274912e+01 2.608108548883220834e+01 -2.217589116495092583e+01 -4.812736178773046447e+01 2.178511127367685063e+01 -1.513539846080986422e+02 -1.657670842374409119e+02 -9.417466060378040993e+01 -1.987163799470177992e+02 -9.332453812448392227e+01 8.935469891283406696e+01 6.391243744204346200e+01 -2.714097352672229846e+01 6.327734531478569124e+01 -1.630053647116694435e+02 -4.249069768735871122e+01 -1.209135586962325704e+02 -6.950861742713631486e+01 2.196263152927952262e+02 -2.137552632411925799e+02 2.137366380225227545e+02 2.603582484682158693e+01 -5.881237001316095103e+01 9.606758799327785425e+01 1.292050690771793882e+02 -5.403301001041820939e+01 -2.121244393482340058e+02 -1.552521734695918383e+02 1.064833079684560033e+02 8.721943511455138776e+01 -1.411860334943285693e+02 3.328370725517499551e+01 -4.129494386837146180e+01 -8.059389104100152679e+01 -2.959632362132017747e+01 -5.709609496594341493e+01 -9.001481594198156699e+01 -3.543435364020064782e+01 4.650676973814356963e+00 -3.407015429188876254e+01 -4.190962812744659094e-01 -1.496330414661746389e+01 9.578676984797500893e+01 1.323188502186950188e+02 1.371518035422004367e+01 1.747837526493101734e+01 -6.570297794157400517e+01 -2.041018854884651432e+02 3.525286196497616231e+01 -9.552773990652656266e+01 2.689118338023917332e+01 -8.534473096281004700e+00 1.049239233714908126e+00 7.522900130366882365e+01 1.269060981415086076e+02 -7.336354509356186782e+01 3.956714047051974603e+01 -2.007823494525512160e+02 1.006334952261432925e+01 7.305124540641415365e+00 -1.276017492620632794e+02 -3.512390162170322583e+01 -4.615626671178713281e+01 4.971549432197714502e+00 -1.064756606197278472e+02 2.817421722061553879e+01 -1.016844184322264653e+02 5.844997192272003872e+01 7.063884033476411162e+01 3.839675765020089671e+01 -3.021621653772664118e+01 1.118700846479204785e+02 6.357527590968767583e+01 8.328107696035294794e+01 -6.973787508365077770e+01 2.114257701231339936e+01 1.331344217750732071e+02 -6.085694405852515843e+01 -7.193895845606409267e+00 3.329937917000818715e+01 -1.336266497473375807e+02 1.018062150750790238e+02 9.321196896001364962e+01 -1.052225034302290112e+02 -8.568866109610043225e+01 -5.775943020195683886e+01 -4.737707035242650022e+01 -1.667402416786529784e+02 -1.413966080647205956e+02 -1.377820238666656110e+02 1.098910328439472721e+02 6.214983394182097953e+01 1.658677477218859906e+02 7.479175804339500466e+00 -8.916154528735860652e+01 1.946522747466344683e+01 1.438079719140533896e+01 -6.599908757140272542e+01 7.696112790891295674e+01 1.226946932263962253e+02 1.039305696959461223e+01 1.490305983461178982e+02 2.339585353707419557e+01 1.152848760547031333e+02 1.569114266284531389e+01 -2.158366058641693712e+02 2.268285167092536483e+02 -5.082822228051367119e+01 -1.548886069413885309e+02 -6.977616185021436479e+01 -4.458819223817074118e+01 4.273327374042047211e+01 2.643753978082135703e+01 4.723935058309107404e+01 -7.654784160589099429e+01 1.263418999574652588e+02 -8.903565936275144566e+01 -7.233847972894014156e+00 1.469913828395698943e+02 1.130861247627082236e+02 5.979586241420207671e+01 -1.824851693796684344e+02 2.621110247518270597e+01 1.446762084004118947e+02 2.414244019576582190e+01 1.004740034364751864e+02 1.095418819394022876e+02 -2.174698652677951998e+02 7.911230782535159278e+01 -5.938147282559886264e+01 -2.311538026380258088e+02 9.090354111330385933e+01 2.523069997094304640e+01 -1.247101024641042528e+02 -5.976991689904773608e+01 1.414902028074434099e+02 1.501492537635701296e+02 -7.705846611499735843e+01 -1.297580612192523404e+02 -8.463585242184096558e+01 -1.680699304962800795e+02 1.980013841968875710e+01 3.834817147909802770e+01 -1.711101199418317620e+01 -1.249222507694653572e+01 -9.025523187459953078e+01 -8.906189248708605533e+01 -2.480960250992393057e+01 1.344290610724369230e+02 1.366524849783059494e+02 8.130251138888768025e+01 9.719986161129429547e+01 -7.863564519364661010e+01 -1.804323992805281023e+02 -1.322414268499957224e+01 -2.313140930839820442e+01 -7.081285539574885490e+01 1.497485108808730425e+00 7.287351768107461680e+01 -5.278154664544998553e+01 2.455793334775735559e+01 7.895426931362709411e+01 6.989661226974976671e+01 1.102044531590623251e+02 -1.487644765901179369e+02 3.953101971577356011e+01 8.307460132227794247e+01 9.448918028477862663e+01 5.890866113069903065e+01 -1.029460108649942924e+02 1.365498682031019086e+02 1.270902974550919993e+02 9.555868286763683273e+01 1.012393033030008382e+02 -8.398912408306603083e+01 -1.483359690414859244e+01 -1.288445724641690582e+01 7.684608034509653862e+01 6.478088258894693752e+01 5.579659683205095178e+01 9.731191716979091666e+01 1.161363275665695625e+02 1.235071996916836525e+02 -6.473668729827869583e+01 8.036167880792019957e+01 6.506551063813671476e+01 -1.173221545893022153e+02 1.312289882876717400e+02 -1.001464816574485717e+01 -2.784007906532290377e+01 1.987493462776878914e+02 8.824261285629856388e+01 1.237995730309173297e+02 -1.440093158102679354e+02 -1.574538789536711079e+02 -1.534709083766393007e+02 -1.219653150524808041e+02 -4.421442271958812142e+01 1.096756719278043590e+02 -1.684517870037509226e+02 3.250443011793242221e+01 1.442423956774150327e+02 -5.930464744714432612e+01 -9.131893721902763161e+01 -3.510113827272706288e+01 1.358900875573628753e+02 2.273510245889736723e+02 -6.665611562531644552e+01 1.982235192687324599e+01 -2.772089976894981334e+01 6.854257007706884508e+01 6.032313371864822926e+01 -2.134600039729410810e+02 -8.876927098394536131e+01 1.377586148319108759e+02 1.400093342551977855e+02 9.468883460786096862e+01 -4.988454545592649225e+01 -7.595271992085049817e+01 -4.550606056476622285e+01 -1.768802043158968331e+02 7.131888027115110162e+01 -2.573378261479172835e+01 1.667766093719613139e+02 -2.799046240140136987e+01 -3.153448642808895670e+02 1.452636702311308738e+02 5.045197569286669648e+01 -1.183032497335529740e+02 -2.219965121770331251e+01 3.541974820644141886e+01 -2.082921146087996647e+02 -1.146417333283753663e+02 -1.099306022346105607e+02 -5.662731657646960315e+01 6.301911453457763201e+01 -1.653635500451862583e+02 1.083080283459129163e+02 -5.450183498053714715e+01 2.916241416971266265e+00 -1.338914762972572703e+02 -1.039577613627262735e+02 1.765074940060284803e+02 8.698568622514976312e+01 -4.239741433267877824e+01 3.732689639580323160e+01 -2.817299888080104253e+01 4.339140932975372067e+01 -1.050449270448590653e+02 9.923778953840661643e+01 5.072914168410274272e+01 -1.194198436411762856e+02 1.172670068384372257e+02 -4.936325895440052136e+01 1.003621459673055369e+02 -4.963633410922480493e+01 8.879847141493995366e+01 -1.541293002235598806e+02 1.433678458747303068e+02 2.489262396100563279e+01 1.011264546902437331e+02 1.310523295773878374e+02 -1.473772027223863859e+02 -8.632952761481789139e+01 -1.061689421546911234e+02 6.722792193927844551e+01 -1.722434997339373695e+02 1.522750059171615646e+02 1.431688742691450216e+02 5.327451848532857781e+01 -8.536111521356215803e+01 5.736800978817879582e+01 -1.078906318867581007e+02 -1.102137502898954402e+01 3.518949214680703363e+01 -1.847956538322922029e+02 -8.207111583881912509e+01 -1.361450832349107998e+01 1.028215971771340378e+02 -5.050556303879373132e+01 1.093542274282473272e+02 -6.473889314961347452e+01 -2.121339213620690032e+02 -1.077741176102563401e+02 -3.430301562625525236e+01 -6.058254353901662626e+01 3.029953472524823255e+01 5.170884265953019820e+01 6.395608968701876229e+00 2.546409594636179463e+01 -1.180935742142729197e+02 5.419793790558679092e+01 3.285553548420584491e+01 -7.270499094618362790e+01 9.322105380713253453e+00 5.671546798738705775e+01 -9.611477110967894077e+01 -5.547851751497291417e+01 -2.431625437156482405e+01 9.834048464064821360e+01 -1.725887726587868443e+01 4.224964852380387548e+00 -2.298121063893520670e+02 -9.578815904380405755e+01 9.970572651727339064e+01 -8.995405037153693684e+01 3.159187841173586619e+01 3.131702900151521263e+01 3.825260492660945033e+01 6.662209827196369361e+01 -1.789051915095171523e+02 1.451455408154368172e+02 8.213285269484376272e+01 -7.572500492264326866e+00 -8.147878407065287831e+01 1.128633523149313191e+02 6.261404471888510415e+01 -2.027715057322134840e+02 -5.081396109561198671e+01 -8.237318282556049098e+01 -5.229002858238320073e+01 -6.247454453680466457e+01 -9.991159053955175295e+01 -6.089063370997823199e+01 1.931232558504474639e+02 -1.722625241846230324e+02 6.605248774257485422e+01 2.798055131474801627e+01 -7.582436160195209141e+01 1.046916794308844878e+01 -3.975371992059378812e+01 3.454786733100113416e+00 -9.696425392152352174e+01 -1.992746056950341540e+02 1.855393957200000443e+01 4.228567999759616214e+01 -1.291258943736148268e+01 -9.113526024919591961e+00 -4.013288188090523789e+01 -1.916208050863193932e+02 -3.092699664604905507e+01 -6.595171226293476252e+01 1.409996250357273517e+01 -1.574828213573865021e+01 9.135204134186905378e+01 -6.359961454228508160e+01 -1.046384563908634817e+02 -3.607750634746420104e+01 -9.103417347267363624e+00 4.593365749889672855e+01 -2.234891174017414883e+01 -7.439342161647833507e+01 -1.601640588261703613e+01 2.025553386494268793e+01 4.793960702965820531e+01 -1.150719021948940366e+02 -1.403239211789947376e+02 2.324806785420677784e+02 -2.203082321318247523e+02 -7.667027143014028923e+01 -4.678490427589969869e+01 1.411822174885846835e+02 6.388094723420802978e+01 2.310182731689568527e+02 2.470661462629871608e+02 -6.292113811683132951e+01 1.307115367245285711e+02 -5.647144019616121824e+01 -4.119720771384713487e+01 -1.016177474361750086e+02 -8.060843638749346951e+01 -7.024507370178197618e+01 -8.984145144840245223e+01 -2.461104110575627431e+02 -2.734820814154966797e+02 1.359971117874676736e+02 -2.678111195604146033e+01 5.377655254319017075e+01 1.321176588754644854e+02
