# 
#                 ----------------------------------------------------
#                 Data from a 3D direct N-body simulation. 
# 
#                 rows are i-particle; 
#                 coumns are :mass, tag, x ,y, z, vx, vy, vz, ax, ay, az
# 
#                 NTHU, Computational Physics Lab
# 
#                 ----------------------------------------------------
#                 Time = 8.599999999999861
1.000000000000000000e+00 2.000000000000000000e+00 3.000000000000000000e+00 4.000000000000000000e+00 5.000000000000000000e+00 6.000000000000000000e+00 7.000000000000000000e+00 8.000000000000000000e+00 9.000000000000000000e+00 1.000000000000000000e+01 1.100000000000000000e+01 1.200000000000000000e+01 1.300000000000000000e+01 1.400000000000000000e+01 1.500000000000000000e+01 1.600000000000000000e+01 1.700000000000000000e+01 1.800000000000000000e+01 1.900000000000000000e+01 2.000000000000000000e+01 2.100000000000000000e+01 2.200000000000000000e+01 2.300000000000000000e+01 2.400000000000000000e+01 2.500000000000000000e+01 2.600000000000000000e+01 2.700000000000000000e+01 2.800000000000000000e+01 2.900000000000000000e+01 3.000000000000000000e+01 3.100000000000000000e+01 3.200000000000000000e+01 3.300000000000000000e+01 3.400000000000000000e+01 3.500000000000000000e+01 3.600000000000000000e+01 3.700000000000000000e+01 3.800000000000000000e+01 3.900000000000000000e+01 4.000000000000000000e+01 4.100000000000000000e+01 4.200000000000000000e+01 4.300000000000000000e+01 4.400000000000000000e+01 4.500000000000000000e+01 4.600000000000000000e+01 4.700000000000000000e+01 4.800000000000000000e+01 4.900000000000000000e+01 5.000000000000000000e+01 5.100000000000000000e+01 5.200000000000000000e+01 5.300000000000000000e+01 5.400000000000000000e+01 5.500000000000000000e+01 5.600000000000000000e+01 5.700000000000000000e+01 5.800000000000000000e+01 5.900000000000000000e+01 6.000000000000000000e+01 6.100000000000000000e+01 6.200000000000000000e+01 6.300000000000000000e+01 6.400000000000000000e+01 6.500000000000000000e+01 6.600000000000000000e+01 6.700000000000000000e+01 6.800000000000000000e+01 6.900000000000000000e+01 7.000000000000000000e+01 7.100000000000000000e+01 7.200000000000000000e+01 7.300000000000000000e+01 7.400000000000000000e+01 7.500000000000000000e+01 7.600000000000000000e+01 7.700000000000000000e+01 7.800000000000000000e+01 7.900000000000000000e+01 8.000000000000000000e+01 8.100000000000000000e+01 8.200000000000000000e+01 8.300000000000000000e+01 8.400000000000000000e+01 8.500000000000000000e+01 8.600000000000000000e+01 8.700000000000000000e+01 8.800000000000000000e+01 8.900000000000000000e+01 9.000000000000000000e+01 9.100000000000000000e+01 9.200000000000000000e+01 9.300000000000000000e+01 9.400000000000000000e+01 9.500000000000000000e+01 9.600000000000000000e+01 9.700000000000000000e+01 9.800000000000000000e+01 9.900000000000000000e+01 1.000000000000000000e+02 1.010000000000000000e+02 1.020000000000000000e+02 1.030000000000000000e+02 1.040000000000000000e+02 1.050000000000000000e+02 1.060000000000000000e+02 1.070000000000000000e+02 1.080000000000000000e+02 1.090000000000000000e+02 1.100000000000000000e+02 1.110000000000000000e+02 1.120000000000000000e+02 1.130000000000000000e+02 1.140000000000000000e+02 1.150000000000000000e+02 1.160000000000000000e+02 1.170000000000000000e+02 1.180000000000000000e+02 1.190000000000000000e+02 1.200000000000000000e+02 1.210000000000000000e+02 1.220000000000000000e+02 1.230000000000000000e+02 1.240000000000000000e+02 1.250000000000000000e+02 1.260000000000000000e+02 1.270000000000000000e+02 1.280000000000000000e+02 1.290000000000000000e+02 1.300000000000000000e+02 1.310000000000000000e+02 1.320000000000000000e+02 1.330000000000000000e+02 1.340000000000000000e+02 1.350000000000000000e+02 1.360000000000000000e+02 1.370000000000000000e+02 1.380000000000000000e+02 1.390000000000000000e+02 1.400000000000000000e+02 1.410000000000000000e+02 1.420000000000000000e+02 1.430000000000000000e+02 1.440000000000000000e+02 1.450000000000000000e+02 1.460000000000000000e+02 1.470000000000000000e+02 1.480000000000000000e+02 1.490000000000000000e+02 1.500000000000000000e+02 1.510000000000000000e+02 1.520000000000000000e+02 1.530000000000000000e+02 1.540000000000000000e+02 1.550000000000000000e+02 1.560000000000000000e+02 1.570000000000000000e+02 1.580000000000000000e+02 1.590000000000000000e+02 1.600000000000000000e+02 1.610000000000000000e+02 1.620000000000000000e+02 1.630000000000000000e+02 1.640000000000000000e+02 1.650000000000000000e+02 1.660000000000000000e+02 1.670000000000000000e+02 1.680000000000000000e+02 1.690000000000000000e+02 1.700000000000000000e+02 1.710000000000000000e+02 1.720000000000000000e+02 1.730000000000000000e+02 1.740000000000000000e+02 1.750000000000000000e+02 1.760000000000000000e+02 1.770000000000000000e+02 1.780000000000000000e+02 1.790000000000000000e+02 1.800000000000000000e+02 1.810000000000000000e+02 1.820000000000000000e+02 1.830000000000000000e+02 1.840000000000000000e+02 1.850000000000000000e+02 1.860000000000000000e+02 1.870000000000000000e+02 1.880000000000000000e+02 1.890000000000000000e+02 1.900000000000000000e+02 1.910000000000000000e+02 1.920000000000000000e+02 1.930000000000000000e+02 1.940000000000000000e+02 1.950000000000000000e+02 1.960000000000000000e+02 1.970000000000000000e+02 1.980000000000000000e+02 1.990000000000000000e+02 2.000000000000000000e+02 2.010000000000000000e+02 2.020000000000000000e+02 2.030000000000000000e+02 2.040000000000000000e+02 2.050000000000000000e+02 2.060000000000000000e+02 2.070000000000000000e+02 2.080000000000000000e+02 2.090000000000000000e+02 2.100000000000000000e+02 2.110000000000000000e+02 2.120000000000000000e+02 2.130000000000000000e+02 2.140000000000000000e+02 2.150000000000000000e+02 2.160000000000000000e+02 2.170000000000000000e+02 2.180000000000000000e+02 2.190000000000000000e+02 2.200000000000000000e+02 2.210000000000000000e+02 2.220000000000000000e+02 2.230000000000000000e+02 2.240000000000000000e+02 2.250000000000000000e+02 2.260000000000000000e+02 2.270000000000000000e+02 2.280000000000000000e+02 2.290000000000000000e+02 2.300000000000000000e+02 2.310000000000000000e+02 2.320000000000000000e+02 2.330000000000000000e+02 2.340000000000000000e+02 2.350000000000000000e+02 2.360000000000000000e+02 2.370000000000000000e+02 2.380000000000000000e+02 2.390000000000000000e+02 2.400000000000000000e+02 2.410000000000000000e+02 2.420000000000000000e+02 2.430000000000000000e+02 2.440000000000000000e+02 2.450000000000000000e+02 2.460000000000000000e+02 2.470000000000000000e+02 2.480000000000000000e+02 2.490000000000000000e+02 2.500000000000000000e+02 2.510000000000000000e+02 2.520000000000000000e+02 2.530000000000000000e+02 2.540000000000000000e+02 2.550000000000000000e+02 2.560000000000000000e+02 2.570000000000000000e+02 2.580000000000000000e+02 2.590000000000000000e+02 2.600000000000000000e+02 2.610000000000000000e+02 2.620000000000000000e+02 2.630000000000000000e+02 2.640000000000000000e+02 2.650000000000000000e+02 2.660000000000000000e+02 2.670000000000000000e+02 2.680000000000000000e+02 2.690000000000000000e+02 2.700000000000000000e+02 2.710000000000000000e+02 2.720000000000000000e+02 2.730000000000000000e+02 2.740000000000000000e+02 2.750000000000000000e+02 2.760000000000000000e+02 2.770000000000000000e+02 2.780000000000000000e+02 2.790000000000000000e+02 2.800000000000000000e+02 2.810000000000000000e+02 2.820000000000000000e+02 2.830000000000000000e+02 2.840000000000000000e+02 2.850000000000000000e+02 2.860000000000000000e+02 2.870000000000000000e+02 2.880000000000000000e+02 2.890000000000000000e+02 2.900000000000000000e+02 2.910000000000000000e+02 2.920000000000000000e+02 2.930000000000000000e+02 2.940000000000000000e+02 2.950000000000000000e+02 2.960000000000000000e+02 2.970000000000000000e+02 2.980000000000000000e+02 2.990000000000000000e+02 3.000000000000000000e+02 3.010000000000000000e+02 3.020000000000000000e+02 3.030000000000000000e+02 3.040000000000000000e+02 3.050000000000000000e+02 3.060000000000000000e+02 3.070000000000000000e+02 3.080000000000000000e+02 3.090000000000000000e+02 3.100000000000000000e+02 3.110000000000000000e+02 3.120000000000000000e+02 3.130000000000000000e+02 3.140000000000000000e+02 3.150000000000000000e+02 3.160000000000000000e+02 3.170000000000000000e+02 3.180000000000000000e+02 3.190000000000000000e+02 3.200000000000000000e+02 3.210000000000000000e+02 3.220000000000000000e+02 3.230000000000000000e+02 3.240000000000000000e+02 3.250000000000000000e+02 3.260000000000000000e+02 3.270000000000000000e+02 3.280000000000000000e+02 3.290000000000000000e+02 3.300000000000000000e+02 3.310000000000000000e+02 3.320000000000000000e+02 3.330000000000000000e+02 3.340000000000000000e+02 3.350000000000000000e+02 3.360000000000000000e+02 3.370000000000000000e+02 3.380000000000000000e+02 3.390000000000000000e+02 3.400000000000000000e+02 3.410000000000000000e+02 3.420000000000000000e+02 3.430000000000000000e+02 3.440000000000000000e+02 3.450000000000000000e+02 3.460000000000000000e+02 3.470000000000000000e+02 3.480000000000000000e+02 3.490000000000000000e+02 3.500000000000000000e+02 3.510000000000000000e+02 3.520000000000000000e+02 3.530000000000000000e+02 3.540000000000000000e+02 3.550000000000000000e+02 3.560000000000000000e+02 3.570000000000000000e+02 3.580000000000000000e+02 3.590000000000000000e+02 3.600000000000000000e+02 3.610000000000000000e+02 3.620000000000000000e+02 3.630000000000000000e+02 3.640000000000000000e+02 3.650000000000000000e+02 3.660000000000000000e+02 3.670000000000000000e+02 3.680000000000000000e+02 3.690000000000000000e+02 3.700000000000000000e+02 3.710000000000000000e+02 3.720000000000000000e+02 3.730000000000000000e+02 3.740000000000000000e+02 3.750000000000000000e+02 3.760000000000000000e+02 3.770000000000000000e+02 3.780000000000000000e+02 3.790000000000000000e+02 3.800000000000000000e+02 3.810000000000000000e+02 3.820000000000000000e+02 3.830000000000000000e+02 3.840000000000000000e+02 3.850000000000000000e+02 3.860000000000000000e+02 3.870000000000000000e+02 3.880000000000000000e+02 3.890000000000000000e+02 3.900000000000000000e+02 3.910000000000000000e+02 3.920000000000000000e+02 3.930000000000000000e+02 3.940000000000000000e+02 3.950000000000000000e+02 3.960000000000000000e+02 3.970000000000000000e+02 3.980000000000000000e+02 3.990000000000000000e+02 4.000000000000000000e+02 4.010000000000000000e+02 4.020000000000000000e+02 4.030000000000000000e+02 4.040000000000000000e+02 4.050000000000000000e+02 4.060000000000000000e+02 4.070000000000000000e+02 4.080000000000000000e+02 4.090000000000000000e+02 4.100000000000000000e+02 4.110000000000000000e+02 4.120000000000000000e+02 4.130000000000000000e+02 4.140000000000000000e+02 4.150000000000000000e+02 4.160000000000000000e+02 4.170000000000000000e+02 4.180000000000000000e+02 4.190000000000000000e+02 4.200000000000000000e+02 4.210000000000000000e+02 4.220000000000000000e+02 4.230000000000000000e+02 4.240000000000000000e+02 4.250000000000000000e+02 4.260000000000000000e+02 4.270000000000000000e+02 4.280000000000000000e+02 4.290000000000000000e+02 4.300000000000000000e+02 4.310000000000000000e+02 4.320000000000000000e+02 4.330000000000000000e+02 4.340000000000000000e+02 4.350000000000000000e+02 4.360000000000000000e+02 4.370000000000000000e+02 4.380000000000000000e+02 4.390000000000000000e+02 4.400000000000000000e+02 4.410000000000000000e+02 4.420000000000000000e+02 4.430000000000000000e+02 4.440000000000000000e+02 4.450000000000000000e+02 4.460000000000000000e+02 4.470000000000000000e+02 4.480000000000000000e+02 4.490000000000000000e+02 4.500000000000000000e+02 4.510000000000000000e+02 4.520000000000000000e+02 4.530000000000000000e+02 4.540000000000000000e+02 4.550000000000000000e+02 4.560000000000000000e+02 4.570000000000000000e+02 4.580000000000000000e+02 4.590000000000000000e+02 4.600000000000000000e+02 4.610000000000000000e+02 4.620000000000000000e+02 4.630000000000000000e+02 4.640000000000000000e+02 4.650000000000000000e+02 4.660000000000000000e+02 4.670000000000000000e+02 4.680000000000000000e+02 4.690000000000000000e+02 4.700000000000000000e+02 4.710000000000000000e+02 4.720000000000000000e+02 4.730000000000000000e+02 4.740000000000000000e+02 4.750000000000000000e+02 4.760000000000000000e+02 4.770000000000000000e+02 4.780000000000000000e+02 4.790000000000000000e+02 4.800000000000000000e+02 4.810000000000000000e+02 4.820000000000000000e+02 4.830000000000000000e+02 4.840000000000000000e+02 4.850000000000000000e+02 4.860000000000000000e+02 4.870000000000000000e+02 4.880000000000000000e+02 4.890000000000000000e+02 4.900000000000000000e+02 4.910000000000000000e+02 4.920000000000000000e+02 4.930000000000000000e+02 4.940000000000000000e+02 4.950000000000000000e+02 4.960000000000000000e+02 4.970000000000000000e+02 4.980000000000000000e+02 4.990000000000000000e+02 5.000000000000000000e+02 5.010000000000000000e+02 5.020000000000000000e+02 5.030000000000000000e+02 5.040000000000000000e+02 5.050000000000000000e+02 5.060000000000000000e+02 5.070000000000000000e+02 5.080000000000000000e+02 5.090000000000000000e+02 5.100000000000000000e+02 5.110000000000000000e+02 5.120000000000000000e+02 5.130000000000000000e+02 5.140000000000000000e+02 5.150000000000000000e+02 5.160000000000000000e+02 5.170000000000000000e+02 5.180000000000000000e+02 5.190000000000000000e+02 5.200000000000000000e+02 5.210000000000000000e+02 5.220000000000000000e+02 5.230000000000000000e+02 5.240000000000000000e+02 5.250000000000000000e+02 5.260000000000000000e+02 5.270000000000000000e+02 5.280000000000000000e+02 5.290000000000000000e+02 5.300000000000000000e+02 5.310000000000000000e+02 5.320000000000000000e+02 5.330000000000000000e+02 5.340000000000000000e+02 5.350000000000000000e+02 5.360000000000000000e+02 5.370000000000000000e+02 5.380000000000000000e+02 5.390000000000000000e+02 5.400000000000000000e+02 5.410000000000000000e+02 5.420000000000000000e+02 5.430000000000000000e+02 5.440000000000000000e+02 5.450000000000000000e+02 5.460000000000000000e+02 5.470000000000000000e+02 5.480000000000000000e+02 5.490000000000000000e+02 5.500000000000000000e+02 5.510000000000000000e+02 5.520000000000000000e+02 5.530000000000000000e+02 5.540000000000000000e+02 5.550000000000000000e+02 5.560000000000000000e+02 5.570000000000000000e+02 5.580000000000000000e+02 5.590000000000000000e+02 5.600000000000000000e+02 5.610000000000000000e+02 5.620000000000000000e+02 5.630000000000000000e+02 5.640000000000000000e+02 5.650000000000000000e+02 5.660000000000000000e+02 5.670000000000000000e+02 5.680000000000000000e+02 5.690000000000000000e+02 5.700000000000000000e+02 5.710000000000000000e+02 5.720000000000000000e+02 5.730000000000000000e+02 5.740000000000000000e+02 5.750000000000000000e+02 5.760000000000000000e+02 5.770000000000000000e+02 5.780000000000000000e+02 5.790000000000000000e+02 5.800000000000000000e+02 5.810000000000000000e+02 5.820000000000000000e+02 5.830000000000000000e+02 5.840000000000000000e+02 5.850000000000000000e+02 5.860000000000000000e+02 5.870000000000000000e+02 5.880000000000000000e+02 5.890000000000000000e+02 5.900000000000000000e+02 5.910000000000000000e+02 5.920000000000000000e+02 5.930000000000000000e+02 5.940000000000000000e+02 5.950000000000000000e+02 5.960000000000000000e+02 5.970000000000000000e+02 5.980000000000000000e+02 5.990000000000000000e+02 6.000000000000000000e+02 6.010000000000000000e+02 6.020000000000000000e+02 6.030000000000000000e+02 6.040000000000000000e+02 6.050000000000000000e+02 6.060000000000000000e+02 6.070000000000000000e+02 6.080000000000000000e+02 6.090000000000000000e+02 6.100000000000000000e+02 6.110000000000000000e+02 6.120000000000000000e+02 6.130000000000000000e+02 6.140000000000000000e+02 6.150000000000000000e+02 6.160000000000000000e+02 6.170000000000000000e+02 6.180000000000000000e+02 6.190000000000000000e+02 6.200000000000000000e+02 6.210000000000000000e+02 6.220000000000000000e+02 6.230000000000000000e+02 6.240000000000000000e+02 6.250000000000000000e+02 6.260000000000000000e+02 6.270000000000000000e+02 6.280000000000000000e+02 6.290000000000000000e+02 6.300000000000000000e+02 6.310000000000000000e+02 6.320000000000000000e+02 6.330000000000000000e+02 6.340000000000000000e+02 6.350000000000000000e+02 6.360000000000000000e+02 6.370000000000000000e+02 6.380000000000000000e+02 6.390000000000000000e+02 6.400000000000000000e+02 6.410000000000000000e+02 6.420000000000000000e+02 6.430000000000000000e+02 6.440000000000000000e+02 6.450000000000000000e+02 6.460000000000000000e+02 6.470000000000000000e+02 6.480000000000000000e+02 6.490000000000000000e+02 6.500000000000000000e+02 6.510000000000000000e+02 6.520000000000000000e+02 6.530000000000000000e+02 6.540000000000000000e+02 6.550000000000000000e+02 6.560000000000000000e+02 6.570000000000000000e+02 6.580000000000000000e+02 6.590000000000000000e+02 6.600000000000000000e+02 6.610000000000000000e+02 6.620000000000000000e+02 6.630000000000000000e+02 6.640000000000000000e+02 6.650000000000000000e+02 6.660000000000000000e+02 6.670000000000000000e+02 6.680000000000000000e+02 6.690000000000000000e+02 6.700000000000000000e+02 6.710000000000000000e+02 6.720000000000000000e+02 6.730000000000000000e+02 6.740000000000000000e+02 6.750000000000000000e+02 6.760000000000000000e+02 6.770000000000000000e+02 6.780000000000000000e+02 6.790000000000000000e+02 6.800000000000000000e+02 6.810000000000000000e+02 6.820000000000000000e+02 6.830000000000000000e+02 6.840000000000000000e+02 6.850000000000000000e+02 6.860000000000000000e+02 6.870000000000000000e+02 6.880000000000000000e+02 6.890000000000000000e+02 6.900000000000000000e+02 6.910000000000000000e+02 6.920000000000000000e+02 6.930000000000000000e+02 6.940000000000000000e+02 6.950000000000000000e+02 6.960000000000000000e+02 6.970000000000000000e+02 6.980000000000000000e+02 6.990000000000000000e+02 7.000000000000000000e+02 7.010000000000000000e+02 7.020000000000000000e+02 7.030000000000000000e+02 7.040000000000000000e+02 7.050000000000000000e+02 7.060000000000000000e+02 7.070000000000000000e+02 7.080000000000000000e+02 7.090000000000000000e+02 7.100000000000000000e+02 7.110000000000000000e+02 7.120000000000000000e+02 7.130000000000000000e+02 7.140000000000000000e+02 7.150000000000000000e+02 7.160000000000000000e+02 7.170000000000000000e+02 7.180000000000000000e+02 7.190000000000000000e+02 7.200000000000000000e+02 7.210000000000000000e+02 7.220000000000000000e+02 7.230000000000000000e+02 7.240000000000000000e+02 7.250000000000000000e+02 7.260000000000000000e+02 7.270000000000000000e+02 7.280000000000000000e+02 7.290000000000000000e+02 7.300000000000000000e+02 7.310000000000000000e+02 7.320000000000000000e+02 7.330000000000000000e+02 7.340000000000000000e+02 7.350000000000000000e+02 7.360000000000000000e+02 7.370000000000000000e+02 7.380000000000000000e+02 7.390000000000000000e+02 7.400000000000000000e+02 7.410000000000000000e+02 7.420000000000000000e+02 7.430000000000000000e+02 7.440000000000000000e+02 7.450000000000000000e+02 7.460000000000000000e+02 7.470000000000000000e+02 7.480000000000000000e+02 7.490000000000000000e+02 7.500000000000000000e+02 7.510000000000000000e+02 7.520000000000000000e+02 7.530000000000000000e+02 7.540000000000000000e+02 7.550000000000000000e+02 7.560000000000000000e+02 7.570000000000000000e+02 7.580000000000000000e+02 7.590000000000000000e+02 7.600000000000000000e+02 7.610000000000000000e+02 7.620000000000000000e+02 7.630000000000000000e+02 7.640000000000000000e+02 7.650000000000000000e+02 7.660000000000000000e+02 7.670000000000000000e+02 7.680000000000000000e+02 7.690000000000000000e+02 7.700000000000000000e+02 7.710000000000000000e+02 7.720000000000000000e+02 7.730000000000000000e+02 7.740000000000000000e+02 7.750000000000000000e+02 7.760000000000000000e+02 7.770000000000000000e+02 7.780000000000000000e+02 7.790000000000000000e+02 7.800000000000000000e+02 7.810000000000000000e+02 7.820000000000000000e+02 7.830000000000000000e+02 7.840000000000000000e+02 7.850000000000000000e+02 7.860000000000000000e+02 7.870000000000000000e+02 7.880000000000000000e+02 7.890000000000000000e+02 7.900000000000000000e+02 7.910000000000000000e+02 7.920000000000000000e+02 7.930000000000000000e+02 7.940000000000000000e+02 7.950000000000000000e+02 7.960000000000000000e+02 7.970000000000000000e+02 7.980000000000000000e+02 7.990000000000000000e+02 8.000000000000000000e+02 8.010000000000000000e+02 8.020000000000000000e+02 8.030000000000000000e+02 8.040000000000000000e+02 8.050000000000000000e+02 8.060000000000000000e+02 8.070000000000000000e+02 8.080000000000000000e+02 8.090000000000000000e+02 8.100000000000000000e+02 8.110000000000000000e+02 8.120000000000000000e+02 8.130000000000000000e+02 8.140000000000000000e+02 8.150000000000000000e+02 8.160000000000000000e+02 8.170000000000000000e+02 8.180000000000000000e+02 8.190000000000000000e+02 8.200000000000000000e+02 8.210000000000000000e+02 8.220000000000000000e+02 8.230000000000000000e+02 8.240000000000000000e+02 8.250000000000000000e+02 8.260000000000000000e+02 8.270000000000000000e+02 8.280000000000000000e+02 8.290000000000000000e+02 8.300000000000000000e+02 8.310000000000000000e+02 8.320000000000000000e+02 8.330000000000000000e+02 8.340000000000000000e+02 8.350000000000000000e+02 8.360000000000000000e+02 8.370000000000000000e+02 8.380000000000000000e+02 8.390000000000000000e+02 8.400000000000000000e+02 8.410000000000000000e+02 8.420000000000000000e+02 8.430000000000000000e+02 8.440000000000000000e+02 8.450000000000000000e+02 8.460000000000000000e+02 8.470000000000000000e+02 8.480000000000000000e+02 8.490000000000000000e+02 8.500000000000000000e+02 8.510000000000000000e+02 8.520000000000000000e+02 8.530000000000000000e+02 8.540000000000000000e+02 8.550000000000000000e+02 8.560000000000000000e+02 8.570000000000000000e+02 8.580000000000000000e+02 8.590000000000000000e+02 8.600000000000000000e+02 8.610000000000000000e+02 8.620000000000000000e+02 8.630000000000000000e+02 8.640000000000000000e+02 8.650000000000000000e+02 8.660000000000000000e+02 8.670000000000000000e+02 8.680000000000000000e+02 8.690000000000000000e+02 8.700000000000000000e+02 8.710000000000000000e+02 8.720000000000000000e+02 8.730000000000000000e+02 8.740000000000000000e+02 8.750000000000000000e+02 8.760000000000000000e+02 8.770000000000000000e+02 8.780000000000000000e+02 8.790000000000000000e+02 8.800000000000000000e+02 8.810000000000000000e+02 8.820000000000000000e+02 8.830000000000000000e+02 8.840000000000000000e+02 8.850000000000000000e+02 8.860000000000000000e+02 8.870000000000000000e+02 8.880000000000000000e+02 8.890000000000000000e+02 8.900000000000000000e+02 8.910000000000000000e+02 8.920000000000000000e+02 8.930000000000000000e+02 8.940000000000000000e+02 8.950000000000000000e+02 8.960000000000000000e+02 8.970000000000000000e+02 8.980000000000000000e+02 8.990000000000000000e+02 9.000000000000000000e+02 9.010000000000000000e+02 9.020000000000000000e+02 9.030000000000000000e+02 9.040000000000000000e+02 9.050000000000000000e+02 9.060000000000000000e+02 9.070000000000000000e+02 9.080000000000000000e+02 9.090000000000000000e+02 9.100000000000000000e+02 9.110000000000000000e+02 9.120000000000000000e+02 9.130000000000000000e+02 9.140000000000000000e+02 9.150000000000000000e+02 9.160000000000000000e+02 9.170000000000000000e+02 9.180000000000000000e+02 9.190000000000000000e+02 9.200000000000000000e+02 9.210000000000000000e+02 9.220000000000000000e+02 9.230000000000000000e+02 9.240000000000000000e+02 9.250000000000000000e+02 9.260000000000000000e+02 9.270000000000000000e+02 9.280000000000000000e+02 9.290000000000000000e+02 9.300000000000000000e+02 9.310000000000000000e+02 9.320000000000000000e+02 9.330000000000000000e+02 9.340000000000000000e+02 9.350000000000000000e+02 9.360000000000000000e+02 9.370000000000000000e+02 9.380000000000000000e+02 9.390000000000000000e+02 9.400000000000000000e+02 9.410000000000000000e+02 9.420000000000000000e+02 9.430000000000000000e+02 9.440000000000000000e+02 9.450000000000000000e+02 9.460000000000000000e+02 9.470000000000000000e+02 9.480000000000000000e+02 9.490000000000000000e+02 9.500000000000000000e+02 9.510000000000000000e+02 9.520000000000000000e+02 9.530000000000000000e+02 9.540000000000000000e+02 9.550000000000000000e+02 9.560000000000000000e+02 9.570000000000000000e+02 9.580000000000000000e+02 9.590000000000000000e+02 9.600000000000000000e+02 9.610000000000000000e+02 9.620000000000000000e+02 9.630000000000000000e+02 9.640000000000000000e+02 9.650000000000000000e+02 9.660000000000000000e+02 9.670000000000000000e+02 9.680000000000000000e+02 9.690000000000000000e+02 9.700000000000000000e+02 9.710000000000000000e+02 9.720000000000000000e+02 9.730000000000000000e+02 9.740000000000000000e+02 9.750000000000000000e+02 9.760000000000000000e+02 9.770000000000000000e+02 9.780000000000000000e+02 9.790000000000000000e+02 9.800000000000000000e+02 9.810000000000000000e+02 9.820000000000000000e+02 9.830000000000000000e+02 9.840000000000000000e+02 9.850000000000000000e+02 9.860000000000000000e+02 9.870000000000000000e+02 9.880000000000000000e+02 9.890000000000000000e+02 9.900000000000000000e+02 9.910000000000000000e+02 9.920000000000000000e+02 9.930000000000000000e+02 9.940000000000000000e+02 9.950000000000000000e+02 9.960000000000000000e+02 9.970000000000000000e+02 9.980000000000000000e+02 9.990000000000000000e+02 1.000000000000000000e+03
1.000000000000000021e-02 1.000000000000000021e-02 1.000000000000000021e-02 1.000000000000000021e-02 1.000000000000000021e-02 1.000000000000000021e-02 1.000000000000000021e-02 1.000000000000000021e-02 1.000000000000000021e-02 1.000000000000000021e-02 1.000000000000000021e-02 1.000000000000000021e-02 1.000000000000000021e-02 1.000000000000000021e-02 1.000000000000000021e-02 1.000000000000000021e-02 1.000000000000000021e-02 1.000000000000000021e-02 1.000000000000000021e-02 1.000000000000000021e-02 1.000000000000000021e-02 1.000000000000000021e-02 1.000000000000000021e-02 1.000000000000000021e-02 1.000000000000000021e-02 1.000000000000000021e-02 1.000000000000000021e-02 1.000000000000000021e-02 1.000000000000000021e-02 1.000000000000000021e-02 1.000000000000000021e-02 1.000000000000000021e-02 1.000000000000000021e-02 1.000000000000000021e-02 1.000000000000000021e-02 1.000000000000000021e-02 1.000000000000000021e-02 1.000000000000000021e-02 1.000000000000000021e-02 1.000000000000000021e-02 1.000000000000000021e-02 1.000000000000000021e-02 1.000000000000000021e-02 1.000000000000000021e-02 1.000000000000000021e-02 1.000000000000000021e-02 1.000000000000000021e-02 1.000000000000000021e-02 1.000000000000000021e-02 1.000000000000000021e-02 1.000000000000000021e-02 1.000000000000000021e-02 1.000000000000000021e-02 1.000000000000000021e-02 1.000000000000000021e-02 1.000000000000000021e-02 1.000000000000000021e-02 1.000000000000000021e-02 1.000000000000000021e-02 1.000000000000000021e-02 1.000000000000000021e-02 1.000000000000000021e-02 1.000000000000000021e-02 1.000000000000000021e-02 1.000000000000000021e-02 1.000000000000000021e-02 1.000000000000000021e-02 1.000000000000000021e-02 1.000000000000000021e-02 1.000000000000000021e-02 1.000000000000000021e-02 1.000000000000000021e-02 1.000000000000000021e-02 1.000000000000000021e-02 1.000000000000000021e-02 1.000000000000000021e-02 1.000000000000000021e-02 1.000000000000000021e-02 1.000000000000000021e-02 1.000000000000000021e-02 1.000000000000000021e-02 1.000000000000000021e-02 1.000000000000000021e-02 1.000000000000000021e-02 1.000000000000000021e-02 1.000000000000000021e-02 1.000000000000000021e-02 1.000000000000000021e-02 1.000000000000000021e-02 1.000000000000000021e-02 1.000000000000000021e-02 1.000000000000000021e-02 1.000000000000000021e-02 1.000000000000000021e-02 1.000000000000000021e-02 1.000000000000000021e-02 1.000000000000000021e-02 1.000000000000000021e-02 1.000000000000000021e-02 1.000000000000000021e-02 1.000000000000000021e-02 1.000000000000000021e-02 1.000000000000000021e-02 1.000000000000000021e-02 1.000000000000000021e-02 1.000000000000000021e-02 1.000000000000000021e-02 1.000000000000000021e-02 1.000000000000000021e-02 1.000000000000000021e-02 1.000000000000000021e-02 1.000000000000000021e-02 1.000000000000000021e-02 1.000000000000000021e-02 1.000000000000000021e-02 1.000000000000000021e-02 1.000000000000000021e-02 1.000000000000000021e-02 1.000000000000000021e-02 1.000000000000000021e-02 1.000000000000000021e-02 1.000000000000000021e-02 1.000000000000000021e-02 1.000000000000000021e-02 1.000000000000000021e-02 1.000000000000000021e-02 1.000000000000000021e-02 1.000000000000000021e-02 1.000000000000000021e-02 1.000000000000000021e-02 1.000000000000000021e-02 1.000000000000000021e-02 1.000000000000000021e-02 1.000000000000000021e-02 1.000000000000000021e-02 1.000000000000000021e-02 1.000000000000000021e-02 1.000000000000000021e-02 1.000000000000000021e-02 1.000000000000000021e-02 1.000000000000000021e-02 1.000000000000000021e-02 1.000000000000000021e-02 1.000000000000000021e-02 1.000000000000000021e-02 1.000000000000000021e-02 1.000000000000000021e-02 1.000000000000000021e-02 1.000000000000000021e-02 1.000000000000000021e-02 1.000000000000000021e-02 1.000000000000000021e-02 1.000000000000000021e-02 1.000000000000000021e-02 1.000000000000000021e-02 1.000000000000000021e-02 1.000000000000000021e-02 1.000000000000000021e-02 1.000000000000000021e-02 1.000000000000000021e-02 1.000000000000000021e-02 1.000000000000000021e-02 1.000000000000000021e-02 1.000000000000000021e-02 1.000000000000000021e-02 1.000000000000000021e-02 1.000000000000000021e-02 1.000000000000000021e-02 1.000000000000000021e-02 1.000000000000000021e-02 1.000000000000000021e-02 1.000000000000000021e-02 1.000000000000000021e-02 1.000000000000000021e-02 1.000000000000000021e-02 1.000000000000000021e-02 1.000000000000000021e-02 1.000000000000000021e-02 1.000000000000000021e-02 1.000000000000000021e-02 1.000000000000000021e-02 1.000000000000000021e-02 1.000000000000000021e-02 1.000000000000000021e-02 1.000000000000000021e-02 1.000000000000000021e-02 1.000000000000000021e-02 1.000000000000000021e-02 1.000000000000000021e-02 1.000000000000000021e-02 1.000000000000000021e-02 1.000000000000000021e-02 1.000000000000000021e-02 1.000000000000000021e-02 1.000000000000000021e-02 1.000000000000000021e-02 1.000000000000000021e-02 1.000000000000000021e-02 1.000000000000000021e-02 1.000000000000000021e-02 1.000000000000000021e-02 1.000000000000000021e-02 1.000000000000000021e-02 1.000000000000000021e-02 1.000000000000000021e-02 1.000000000000000021e-02 1.000000000000000021e-02 1.000000000000000021e-02 1.000000000000000021e-02 1.000000000000000021e-02 1.000000000000000021e-02 1.000000000000000021e-02 1.000000000000000021e-02 1.000000000000000021e-02 1.000000000000000021e-02 1.000000000000000021e-02 1.000000000000000021e-02 1.000000000000000021e-02 1.000000000000000021e-02 1.000000000000000021e-02 1.000000000000000021e-02 1.000000000000000021e-02 1.000000000000000021e-02 1.000000000000000021e-02 1.000000000000000021e-02 1.000000000000000021e-02 1.000000000000000021e-02 1.000000000000000021e-02 1.000000000000000021e-02 1.000000000000000021e-02 1.000000000000000021e-02 1.000000000000000021e-02 1.000000000000000021e-02 1.000000000000000021e-02 1.000000000000000021e-02 1.000000000000000021e-02 1.000000000000000021e-02 1.000000000000000021e-02 1.000000000000000021e-02 1.000000000000000021e-02 1.000000000000000021e-02 1.000000000000000021e-02 1.000000000000000021e-02 1.000000000000000021e-02 1.000000000000000021e-02 1.000000000000000021e-02 1.000000000000000021e-02 1.000000000000000021e-02 1.000000000000000021e-02 1.000000000000000021e-02 1.000000000000000021e-02 1.000000000000000021e-02 1.000000000000000021e-02 1.000000000000000021e-02 1.000000000000000021e-02 1.000000000000000021e-02 1.000000000000000021e-02 1.000000000000000021e-02 1.000000000000000021e-02 1.000000000000000021e-02 1.000000000000000021e-02 1.000000000000000021e-02 1.000000000000000021e-02 1.000000000000000021e-02 1.000000000000000021e-02 1.000000000000000021e-02 1.000000000000000021e-02 1.000000000000000021e-02 1.000000000000000021e-02 1.000000000000000021e-02 1.000000000000000021e-02 1.000000000000000021e-02 1.000000000000000021e-02 1.000000000000000021e-02 1.000000000000000021e-02 1.000000000000000021e-02 1.000000000000000021e-02 1.000000000000000021e-02 1.000000000000000021e-02 1.000000000000000021e-02 1.000000000000000021e-02 1.000000000000000021e-02 1.000000000000000021e-02 1.000000000000000021e-02 1.000000000000000021e-02 1.000000000000000021e-02 1.000000000000000021e-02 1.000000000000000021e-02 1.000000000000000021e-02 1.000000000000000021e-02 1.000000000000000021e-02 1.000000000000000021e-02 1.000000000000000021e-02 1.000000000000000021e-02 1.000000000000000021e-02 1.000000000000000021e-02 1.000000000000000021e-02 1.000000000000000021e-02 1.000000000000000021e-02 1.000000000000000021e-02 1.000000000000000021e-02 1.000000000000000021e-02 1.000000000000000021e-02 1.000000000000000021e-02 1.000000000000000021e-02 1.000000000000000021e-02 1.000000000000000021e-02 1.000000000000000021e-02 1.000000000000000021e-02 1.000000000000000021e-02 1.000000000000000021e-02 1.000000000000000021e-02 1.000000000000000021e-02 1.000000000000000021e-02 1.000000000000000021e-02 1.000000000000000021e-02 1.000000000000000021e-02 1.000000000000000021e-02 1.000000000000000021e-02 1.000000000000000021e-02 1.000000000000000021e-02 1.000000000000000021e-02 1.000000000000000021e-02 1.000000000000000021e-02 1.000000000000000021e-02 1.000000000000000021e-02 1.000000000000000021e-02 1.000000000000000021e-02 1.000000000000000021e-02 1.000000000000000021e-02 1.000000000000000021e-02 1.000000000000000021e-02 1.000000000000000021e-02 1.000000000000000021e-02 1.000000000000000021e-02 1.000000000000000021e-02 1.000000000000000021e-02 1.000000000000000021e-02 1.000000000000000021e-02 1.000000000000000021e-02 1.000000000000000021e-02 1.000000000000000021e-02 1.000000000000000021e-02 1.000000000000000021e-02 1.000000000000000021e-02 1.000000000000000021e-02 1.000000000000000021e-02 1.000000000000000021e-02 1.000000000000000021e-02 1.000000000000000021e-02 1.000000000000000021e-02 1.000000000000000021e-02 1.000000000000000021e-02 1.000000000000000021e-02 1.000000000000000021e-02 1.000000000000000021e-02 1.000000000000000021e-02 1.000000000000000021e-02 1.000000000000000021e-02 1.000000000000000021e-02 1.000000000000000021e-02 1.000000000000000021e-02 1.000000000000000021e-02 1.000000000000000021e-02 1.000000000000000021e-02 1.000000000000000021e-02 1.000000000000000021e-02 1.000000000000000021e-02 1.000000000000000021e-02 1.000000000000000021e-02 1.000000000000000021e-02 1.000000000000000021e-02 1.000000000000000021e-02 1.000000000000000021e-02 1.000000000000000021e-02 1.000000000000000021e-02 1.000000000000000021e-02 1.000000000000000021e-02 1.000000000000000021e-02 1.000000000000000021e-02 1.000000000000000021e-02 1.000000000000000021e-02 1.000000000000000021e-02 1.000000000000000021e-02 1.000000000000000021e-02 1.000000000000000021e-02 1.000000000000000021e-02 1.000000000000000021e-02 1.000000000000000021e-02 1.000000000000000021e-02 1.000000000000000021e-02 1.000000000000000021e-02 1.000000000000000021e-02 1.000000000000000021e-02 1.000000000000000021e-02 1.000000000000000021e-02 1.000000000000000021e-02 1.000000000000000021e-02 1.000000000000000021e-02 1.000000000000000021e-02 1.000000000000000021e-02 1.000000000000000021e-02 1.000000000000000021e-02 1.000000000000000021e-02 1.000000000000000021e-02 1.000000000000000021e-02 1.000000000000000021e-02 1.000000000000000021e-02 1.000000000000000021e-02 1.000000000000000021e-02 1.000000000000000021e-02 1.000000000000000021e-02 1.000000000000000021e-02 1.000000000000000021e-02 1.000000000000000021e-02 1.000000000000000021e-02 1.000000000000000021e-02 1.000000000000000021e-02 1.000000000000000021e-02 1.000000000000000021e-02 1.000000000000000021e-02 1.000000000000000021e-02 1.000000000000000021e-02 1.000000000000000021e-02 1.000000000000000021e-02 1.000000000000000021e-02 1.000000000000000021e-02 1.000000000000000021e-02 1.000000000000000021e-02 1.000000000000000021e-02 1.000000000000000021e-02 1.000000000000000021e-02 1.000000000000000021e-02 1.000000000000000021e-02 1.000000000000000021e-02 1.000000000000000021e-02 1.000000000000000021e-02 1.000000000000000021e-02 1.000000000000000021e-02 1.000000000000000021e-02 1.000000000000000021e-02 1.000000000000000021e-02 1.000000000000000021e-02 1.000000000000000021e-02 1.000000000000000021e-02 1.000000000000000021e-02 1.000000000000000021e-02 1.000000000000000021e-02 1.000000000000000021e-02 1.000000000000000021e-02 1.000000000000000021e-02 1.000000000000000021e-02 1.000000000000000021e-02 1.000000000000000021e-02 1.000000000000000021e-02 1.000000000000000021e-02 1.000000000000000021e-02 1.000000000000000021e-02 1.000000000000000021e-02 1.000000000000000021e-02 1.000000000000000021e-02 1.000000000000000021e-02 1.000000000000000021e-02 1.000000000000000021e-02 1.000000000000000021e-02 1.000000000000000021e-02 1.000000000000000021e-02 1.000000000000000021e-02 1.000000000000000021e-02 1.000000000000000021e-02 1.000000000000000021e-02 1.000000000000000021e-02 1.000000000000000021e-02 1.000000000000000021e-02 1.000000000000000021e-02 1.000000000000000021e-02 1.000000000000000021e-02 1.000000000000000021e-02 1.000000000000000021e-02 1.000000000000000021e-02 1.000000000000000021e-02 1.000000000000000021e-02 1.000000000000000021e-02 1.000000000000000021e-02 1.000000000000000021e-02 1.000000000000000021e-02 1.000000000000000021e-02 1.000000000000000021e-02 1.000000000000000021e-02 1.000000000000000021e-02 1.000000000000000021e-02 1.000000000000000021e-02 1.000000000000000021e-02 1.000000000000000021e-02 1.000000000000000021e-02 1.000000000000000021e-02 1.000000000000000021e-02 1.000000000000000021e-02 1.000000000000000021e-02 1.000000000000000021e-02 1.000000000000000021e-02 1.000000000000000021e-02 1.000000000000000021e-02 1.000000000000000021e-02 1.000000000000000021e-02 1.000000000000000021e-02 1.000000000000000021e-02 1.000000000000000021e-02 1.000000000000000021e-02 1.000000000000000021e-02 1.000000000000000021e-02 1.000000000000000021e-02 1.000000000000000021e-02 1.000000000000000021e-02 1.000000000000000021e-02 1.000000000000000021e-02 1.000000000000000021e-02 1.000000000000000021e-02 1.000000000000000021e-02 1.000000000000000021e-02 1.000000000000000021e-02 1.000000000000000021e-02 1.000000000000000021e-02 1.000000000000000021e-02 1.000000000000000021e-02 1.000000000000000021e-02 1.000000000000000021e-02 1.000000000000000021e-02 1.000000000000000021e-02 1.000000000000000021e-02 1.000000000000000021e-02 1.000000000000000021e-02 1.000000000000000021e-02 1.000000000000000021e-02 1.000000000000000021e-02 1.000000000000000021e-02 1.000000000000000021e-02 1.000000000000000021e-02 1.000000000000000021e-02 1.000000000000000021e-02 1.000000000000000021e-02 1.000000000000000021e-02 1.000000000000000021e-02 1.000000000000000021e-02 1.000000000000000021e-02 1.000000000000000021e-02 1.000000000000000021e-02 1.000000000000000021e-02 1.000000000000000021e-02 1.000000000000000021e-02 1.000000000000000021e-02 1.000000000000000021e-02 1.000000000000000021e-02 1.000000000000000021e-02 1.000000000000000021e-02 1.000000000000000021e-02 1.000000000000000021e-02 1.000000000000000021e-02 1.000000000000000021e-02 1.000000000000000021e-02 1.000000000000000021e-02 1.000000000000000021e-02 1.000000000000000021e-02 1.000000000000000021e-02 1.000000000000000021e-02 1.000000000000000021e-02 1.000000000000000021e-02 1.000000000000000021e-02 1.000000000000000021e-02 1.000000000000000021e-02 1.000000000000000021e-02 1.000000000000000021e-02 1.000000000000000021e-02 1.000000000000000021e-02 1.000000000000000021e-02 1.000000000000000021e-02 1.000000000000000021e-02 1.000000000000000021e-02 1.000000000000000021e-02 1.000000000000000021e-02 1.000000000000000021e-02 1.000000000000000021e-02 1.000000000000000021e-02 1.000000000000000021e-02 1.000000000000000021e-02 1.000000000000000021e-02 1.000000000000000021e-02 1.000000000000000021e-02 1.000000000000000021e-02 1.000000000000000021e-02 1.000000000000000021e-02 1.000000000000000021e-02 1.000000000000000021e-02 1.000000000000000021e-02 1.000000000000000021e-02 1.000000000000000021e-02 1.000000000000000021e-02 1.000000000000000021e-02 1.000000000000000021e-02 1.000000000000000021e-02 1.000000000000000021e-02 1.000000000000000021e-02 1.000000000000000021e-02 1.000000000000000021e-02 1.000000000000000021e-02 1.000000000000000021e-02 1.000000000000000021e-02 1.000000000000000021e-02 1.000000000000000021e-02 1.000000000000000021e-02 1.000000000000000021e-02 1.000000000000000021e-02 1.000000000000000021e-02 1.000000000000000021e-02 1.000000000000000021e-02 1.000000000000000021e-02 1.000000000000000021e-02 1.000000000000000021e-02 1.000000000000000021e-02 1.000000000000000021e-02 1.000000000000000021e-02 1.000000000000000021e-02 1.000000000000000021e-02 1.000000000000000021e-02 1.000000000000000021e-02 1.000000000000000021e-02 1.000000000000000021e-02 1.000000000000000021e-02 1.000000000000000021e-02 1.000000000000000021e-02 1.000000000000000021e-02 1.000000000000000021e-02 1.000000000000000021e-02 1.000000000000000021e-02 1.000000000000000021e-02 1.000000000000000021e-02 1.000000000000000021e-02 1.000000000000000021e-02 1.000000000000000021e-02 1.000000000000000021e-02 1.000000000000000021e-02 1.000000000000000021e-02 1.000000000000000021e-02 1.000000000000000021e-02 1.000000000000000021e-02 1.000000000000000021e-02 1.000000000000000021e-02 1.000000000000000021e-02 1.000000000000000021e-02 1.000000000000000021e-02 1.000000000000000021e-02 1.000000000000000021e-02 1.000000000000000021e-02 1.000000000000000021e-02 1.000000000000000021e-02 1.000000000000000021e-02 1.000000000000000021e-02 1.000000000000000021e-02 1.000000000000000021e-02 1.000000000000000021e-02 1.000000000000000021e-02 1.000000000000000021e-02 1.000000000000000021e-02 1.000000000000000021e-02 1.000000000000000021e-02 1.000000000000000021e-02 1.000000000000000021e-02 1.000000000000000021e-02 1.000000000000000021e-02 1.000000000000000021e-02 1.000000000000000021e-02 1.000000000000000021e-02 1.000000000000000021e-02 1.000000000000000021e-02 1.000000000000000021e-02 1.000000000000000021e-02 1.000000000000000021e-02 1.000000000000000021e-02 1.000000000000000021e-02 1.000000000000000021e-02 1.000000000000000021e-02 1.000000000000000021e-02 1.000000000000000021e-02 1.000000000000000021e-02 1.000000000000000021e-02 1.000000000000000021e-02 1.000000000000000021e-02 1.000000000000000021e-02 1.000000000000000021e-02 1.000000000000000021e-02 1.000000000000000021e-02 1.000000000000000021e-02 1.000000000000000021e-02 1.000000000000000021e-02 1.000000000000000021e-02 1.000000000000000021e-02 1.000000000000000021e-02 1.000000000000000021e-02 1.000000000000000021e-02 1.000000000000000021e-02 1.000000000000000021e-02 1.000000000000000021e-02 1.000000000000000021e-02 1.000000000000000021e-02 1.000000000000000021e-02 1.000000000000000021e-02 1.000000000000000021e-02 1.000000000000000021e-02 1.000000000000000021e-02 1.000000000000000021e-02 1.000000000000000021e-02 1.000000000000000021e-02 1.000000000000000021e-02 1.000000000000000021e-02 1.000000000000000021e-02 1.000000000000000021e-02 1.000000000000000021e-02 1.000000000000000021e-02 1.000000000000000021e-02 1.000000000000000021e-02 1.000000000000000021e-02 1.000000000000000021e-02 1.000000000000000021e-02 1.000000000000000021e-02 1.000000000000000021e-02 1.000000000000000021e-02 1.000000000000000021e-02 1.000000000000000021e-02 1.000000000000000021e-02 1.000000000000000021e-02 1.000000000000000021e-02 1.000000000000000021e-02 1.000000000000000021e-02 1.000000000000000021e-02 1.000000000000000021e-02 1.000000000000000021e-02 1.000000000000000021e-02 1.000000000000000021e-02 1.000000000000000021e-02 1.000000000000000021e-02 1.000000000000000021e-02 1.000000000000000021e-02 1.000000000000000021e-02 1.000000000000000021e-02 1.000000000000000021e-02 1.000000000000000021e-02 1.000000000000000021e-02 1.000000000000000021e-02 1.000000000000000021e-02 1.000000000000000021e-02 1.000000000000000021e-02 1.000000000000000021e-02 1.000000000000000021e-02 1.000000000000000021e-02 1.000000000000000021e-02 1.000000000000000021e-02 1.000000000000000021e-02 1.000000000000000021e-02 1.000000000000000021e-02 1.000000000000000021e-02 1.000000000000000021e-02 1.000000000000000021e-02 1.000000000000000021e-02 1.000000000000000021e-02 1.000000000000000021e-02 1.000000000000000021e-02 1.000000000000000021e-02 1.000000000000000021e-02 1.000000000000000021e-02 1.000000000000000021e-02 1.000000000000000021e-02 1.000000000000000021e-02 1.000000000000000021e-02 1.000000000000000021e-02 1.000000000000000021e-02 1.000000000000000021e-02 1.000000000000000021e-02 1.000000000000000021e-02 1.000000000000000021e-02 1.000000000000000021e-02 1.000000000000000021e-02 1.000000000000000021e-02 1.000000000000000021e-02 1.000000000000000021e-02 1.000000000000000021e-02 1.000000000000000021e-02 1.000000000000000021e-02 1.000000000000000021e-02 1.000000000000000021e-02 1.000000000000000021e-02 1.000000000000000021e-02 1.000000000000000021e-02 1.000000000000000021e-02 1.000000000000000021e-02 1.000000000000000021e-02 1.000000000000000021e-02 1.000000000000000021e-02 1.000000000000000021e-02 1.000000000000000021e-02 1.000000000000000021e-02 1.000000000000000021e-02 1.000000000000000021e-02 1.000000000000000021e-02 1.000000000000000021e-02 1.000000000000000021e-02 1.000000000000000021e-02 1.000000000000000021e-02 1.000000000000000021e-02 1.000000000000000021e-02 1.000000000000000021e-02 1.000000000000000021e-02 1.000000000000000021e-02 1.000000000000000021e-02 1.000000000000000021e-02 1.000000000000000021e-02 1.000000000000000021e-02 1.000000000000000021e-02 1.000000000000000021e-02 1.000000000000000021e-02 1.000000000000000021e-02 1.000000000000000021e-02 1.000000000000000021e-02 1.000000000000000021e-02 1.000000000000000021e-02 1.000000000000000021e-02 1.000000000000000021e-02 1.000000000000000021e-02 1.000000000000000021e-02 1.000000000000000021e-02 1.000000000000000021e-02 1.000000000000000021e-02 1.000000000000000021e-02 1.000000000000000021e-02 1.000000000000000021e-02 1.000000000000000021e-02 1.000000000000000021e-02 1.000000000000000021e-02 1.000000000000000021e-02 1.000000000000000021e-02 1.000000000000000021e-02 1.000000000000000021e-02 1.000000000000000021e-02 1.000000000000000021e-02 1.000000000000000021e-02 1.000000000000000021e-02 1.000000000000000021e-02 1.000000000000000021e-02 1.000000000000000021e-02 1.000000000000000021e-02 1.000000000000000021e-02 1.000000000000000021e-02 1.000000000000000021e-02 1.000000000000000021e-02 1.000000000000000021e-02 1.000000000000000021e-02 1.000000000000000021e-02 1.000000000000000021e-02 1.000000000000000021e-02 1.000000000000000021e-02 1.000000000000000021e-02 1.000000000000000021e-02 1.000000000000000021e-02 1.000000000000000021e-02 1.000000000000000021e-02 1.000000000000000021e-02 1.000000000000000021e-02 1.000000000000000021e-02 1.000000000000000021e-02 1.000000000000000021e-02 1.000000000000000021e-02 1.000000000000000021e-02 1.000000000000000021e-02 1.000000000000000021e-02 1.000000000000000021e-02 1.000000000000000021e-02 1.000000000000000021e-02 1.000000000000000021e-02 1.000000000000000021e-02 1.000000000000000021e-02 1.000000000000000021e-02 1.000000000000000021e-02 1.000000000000000021e-02 1.000000000000000021e-02 1.000000000000000021e-02 1.000000000000000021e-02 1.000000000000000021e-02 1.000000000000000021e-02 1.000000000000000021e-02 1.000000000000000021e-02 1.000000000000000021e-02 1.000000000000000021e-02 1.000000000000000021e-02 1.000000000000000021e-02 1.000000000000000021e-02 1.000000000000000021e-02 1.000000000000000021e-02 1.000000000000000021e-02 1.000000000000000021e-02 1.000000000000000021e-02 1.000000000000000021e-02 1.000000000000000021e-02 1.000000000000000021e-02 1.000000000000000021e-02 1.000000000000000021e-02 1.000000000000000021e-02 1.000000000000000021e-02 1.000000000000000021e-02 1.000000000000000021e-02 1.000000000000000021e-02 1.000000000000000021e-02 1.000000000000000021e-02 1.000000000000000021e-02 1.000000000000000021e-02 1.000000000000000021e-02 1.000000000000000021e-02 1.000000000000000021e-02 1.000000000000000021e-02 1.000000000000000021e-02 1.000000000000000021e-02 1.000000000000000021e-02 1.000000000000000021e-02 1.000000000000000021e-02 1.000000000000000021e-02 1.000000000000000021e-02 1.000000000000000021e-02 1.000000000000000021e-02 1.000000000000000021e-02 1.000000000000000021e-02 1.000000000000000021e-02 1.000000000000000021e-02 1.000000000000000021e-02 1.000000000000000021e-02 1.000000000000000021e-02 1.000000000000000021e-02 1.000000000000000021e-02 1.000000000000000021e-02 1.000000000000000021e-02 1.000000000000000021e-02 1.000000000000000021e-02 1.000000000000000021e-02 1.000000000000000021e-02 1.000000000000000021e-02 1.000000000000000021e-02 1.000000000000000021e-02 1.000000000000000021e-02 1.000000000000000021e-02 1.000000000000000021e-02 1.000000000000000021e-02 1.000000000000000021e-02 1.000000000000000021e-02 1.000000000000000021e-02 1.000000000000000021e-02 1.000000000000000021e-02 1.000000000000000021e-02 1.000000000000000021e-02 1.000000000000000021e-02 1.000000000000000021e-02 1.000000000000000021e-02 1.000000000000000021e-02 1.000000000000000021e-02 1.000000000000000021e-02 1.000000000000000021e-02 1.000000000000000021e-02 1.000000000000000021e-02 1.000000000000000021e-02 1.000000000000000021e-02 1.000000000000000021e-02 1.000000000000000021e-02 1.000000000000000021e-02 1.000000000000000021e-02 1.000000000000000021e-02 1.000000000000000021e-02 1.000000000000000021e-02 1.000000000000000021e-02 1.000000000000000021e-02 1.000000000000000021e-02 1.000000000000000021e-02 1.000000000000000021e-02 1.000000000000000021e-02 1.000000000000000021e-02 1.000000000000000021e-02 1.000000000000000021e-02 1.000000000000000021e-02 1.000000000000000021e-02 1.000000000000000021e-02 1.000000000000000021e-02 1.000000000000000021e-02 1.000000000000000021e-02 1.000000000000000021e-02 1.000000000000000021e-02 1.000000000000000021e-02 1.000000000000000021e-02 1.000000000000000021e-02 1.000000000000000021e-02 1.000000000000000021e-02 1.000000000000000021e-02 1.000000000000000021e-02 1.000000000000000021e-02 1.000000000000000021e-02 1.000000000000000021e-02
-1.151285770373774540e+02 1.748861569406434739e+02 4.061556805021444916e+01 -9.134918544059409840e+00 -9.066069525081117320e+01 -1.381686840988179910e+01 -2.144279493257745628e+02 6.911214961901521736e-01 -8.742676140993106060e+01 -1.438764710353879472e+01 -2.044282243770069840e+01 6.696315021196878270e+00 -1.836297738065895802e+00 1.730927157603985620e+02 8.728496785756514953e+01 -3.997010907107036104e+01 -5.441544719140885888e+01 8.172113986676875186e+01 3.385064527907815801e+01 -2.615866366843891200e+01 -8.135783416769929488e+01 -7.616396554261388019e+01 -1.425568250320930908e+01 2.984788106965989130e+01 -2.010937854158348443e+02 -1.018765259738661513e+02 -2.690742161904936225e+01 2.080302110587049640e+02 7.300189779637869947e+01 7.911296713492633614e+01 8.282403544296954578e+01 1.226645692129685106e+00 -8.165730881363371907e+01 2.139324443946884458e+02 -2.525277936236077778e+02 6.063691666393017243e+01 -1.239985780228097951e+02 -3.576781197357495046e+01 4.156709130380556338e+00 1.307164109557149345e+02 -1.268075235704209689e+02 -1.410712514140525187e+01 7.983377308097067271e+01 1.790745678522886237e+02 7.364123310662883171e+01 -7.062637606427099968e+01 4.257829728763736199e+01 -2.926389240718217621e+01 -6.815701227801699247e+01 1.615585066718337828e+02 -7.287220564749148366e+01 -5.378731311701383078e+01 -1.436790965548673853e+02 5.872127132478879297e+00 -5.215923907186455466e+01 3.987894711398887182e+01 -9.153585509035170276e+01 -5.166081852994663137e+01 -1.046239327176825782e+02 -1.603641682559037633e+02 2.010981641251627394e+01 4.675214019985799752e+01 -1.270235433168335675e+02 1.327404987342019105e+01 -8.184610167753413634e+01 5.067443477683781339e+01 1.718675136451704475e+02 -1.488299019509967138e+02 -4.470540224843287547e+01 7.399598337347792487e+00 3.012345890668820303e+00 4.371854868472313171e+01 8.665478652005054983e+01 9.790427605831203417e-01 -9.047662286464476011e+00 -7.227520465493996937e+01 8.076851626393991523e+01 -3.385643060774624757e+01 2.711720280170133179e+01 1.073141413578418337e+02 9.106338675716168041e+01 -4.410065661924591041e+01 5.968905322055460516e+01 1.521414480709762813e+02 1.199011070578665255e+02 -4.178071440406306181e+00 1.797851914112031579e+02 -1.150587522311436572e+02 4.364011563691726714e+00 -4.327457746915915493e+01 2.134520258795044754e+02 -2.189968976113416588e+01 2.955914349161276267e+00 -7.923121693657628839e+01 -7.350527799228947501e+00 -6.591018268776038269e+01 6.991747535758922538e+01 -9.755635377112106710e+01 7.070335938270805798e+01 -4.924997304317835756e+01 -5.136599493617378442e+01 -9.457675404932727758e+01 5.481532051385956805e+01 -5.649646888252734556e+01 -1.541060563686420721e+02 -8.202552633506508073e+01 -1.079660981213815631e+02 -1.622550274415821718e+02 1.403004727372182288e+02 -2.841970536190332197e+01 3.304091096377108983e+01 9.253416443413455283e+01 -1.074293364031059497e+02 5.881068196658552694e+01 -4.471098517812842488e+01 -7.148343667094232501e+01 -9.292100222218675754e+01 2.098298840458365930e+02 -5.856213246113348703e+01 -5.104880009581948741e+01 -4.876270647618910914e+01 8.298018357998360273e+01 -4.271943973728571819e+01 1.424268431770911718e+02 -5.142171629430132640e+01 5.681909385352346220e+01 4.686717167415126895e+00 -8.378280570385788906e+01 7.105074459506984397e+01 2.862464928673646227e+02 -9.493192254211295733e+01 4.903347313191635948e+01 -7.864449982772072190e+01 4.668021349580727986e+01 1.353870502362985633e+02 -5.298980651131847708e+01 1.503602082677575780e+01 -2.777118130840636567e+01 -1.051965823016503663e+02 -1.780604030267889826e+01 4.388188177809774437e+00 -8.081420161420183490e+00 -1.544683802901560910e+01 1.220812182957604790e+02 1.345216343936893395e+02 1.924542895668211315e+02 -3.141129534133833090e+02 3.945686629941476298e+01 -1.624450056825123312e+01 -6.438452264871155251e+01 1.861908194004784320e+02 7.873717679493020682e+01 -2.636610691369084325e+00 -1.197703588648626862e+02 -1.127952722052182644e+01 1.033653738424510919e+02 -1.388383642950698231e+02 -1.741956470423976953e+02 1.108834570010469989e+01 4.384870888669088629e+01 -6.302248896202620898e+01 4.342543814650505141e+01 -1.106456899130729425e+02 -1.563791503989607463e+02 2.183681606433424349e+01 5.020811202199283940e+01 4.949946808935516529e+00 -8.633182137549425761e+01 -9.675624262064513914e+01 -8.721125478807273623e+01 -9.051569614827336352e+01 1.303617698285157012e+01 5.879440264131326188e+01 1.204916240087589898e+02 8.218399293198322653e+01 9.259174579644619030e+01 1.111515969953688199e+02 -7.741070446268888361e+01 -8.541341503077899233e+01 7.299914517730749708e+01 7.082394586458771357e+01 6.133295916215090671e+01 -9.733979244695412092e+00 -9.434035872487311281e+01 5.591805873451822606e+01 -1.853804762367826129e+02 6.958146270099894082e+01 -4.619335128293305814e+01 -9.999593400215792371e+01 7.693982616961599774e+01 -1.774781209085264422e+01 -8.003251380005562510e+01 -5.964481305765505681e+01 -9.476073392848149979e+00 2.518404244476473650e+02 7.969852029174380448e+01 5.692698766559080781e+01 -1.079233405207352519e+02 1.539882812083075407e+02 1.067272908357477901e+00 -9.393913442120674517e+01 1.619021357974516775e+02 -1.602416493891678613e+02 1.639826683786765571e+01 -3.386732571996184049e+01 -2.310339164626402919e+02 -1.403101509265292464e+02 -9.174129916627903469e+01 -3.073962144089573911e+01 -1.254078702059299957e+02 6.064649881092419292e+01 6.832237002443064000e+01 -2.896938566896252354e+01 -1.048240671509234971e+02 1.189256193087399680e+02 1.243413209375047614e+02 4.860481262910143840e+01 1.834057003684648279e+01 2.748690861415423115e+02 4.595150166329368346e+01 -1.255806646758182126e+02 -4.737581587280069328e+01 -1.776946836011909170e+02 3.353471500159745489e+01 1.613755257269706362e+02 -1.562238912044953452e+02 1.386569104262766530e+02 -9.575179638502881119e+01 -1.987740840125211506e+01 -7.586105899716011347e-01 5.563817074985190914e+01 -1.223388918374016754e+01 -2.397669833009150153e+01 -1.996312201332458258e+01 -1.333620015598152406e+02 4.890533102309745317e+01 -3.198976529708158267e+01 -1.370538288958324458e+01 -1.127866337901072669e+01 2.379978813517930973e+02 1.834572424149924075e+02 2.450388675706451238e+02 1.388371137144969509e+02 -9.119716822557046498e+01 7.923770551300998477e+01 2.222567920143133335e+01 5.018091298630562136e+01 -4.189346762542898261e+01 2.691276886909960808e+02 -2.453506620849212538e+01 -1.440679107438325843e+02 -1.576981857110872554e+01 -4.827934745262491134e+01 -8.158602763686262449e+01 4.548858649902618367e+01 -1.234525926414630881e+01 1.917274731991773251e+02 9.744089326808474993e+01 4.310213029547247032e+01 1.033622732336239807e+02 9.954064797322767788e+01 -2.423492687204685936e+01 1.472042105423218743e+02 2.789920005129836511e+01 9.441035531331253594e+01 5.021656016840746162e+01 7.318345754557760152e+00 -1.220659815859057602e+02 -1.221013688495826983e+02 -9.489228284118968304e+01 -1.642638355046934961e+01 9.138704512749431785e+01 -3.234757479039995332e+01 1.042713616331832753e+02 4.617921587929356519e+01 -7.668058525677760429e+01 -3.161136523311845892e+01 -6.179142546096729660e+01 1.851483742840031255e+01 -4.887619454758662840e+01 -1.181418223020640710e+02 1.281648515670037796e+02 1.279298921136314959e+02 -8.322488551414191704e+01 5.778726911129010269e+00 -4.776491052746142429e+01 -3.441619811488719449e+01 -1.195998211754757712e+01 -3.290476685794381240e+01 4.683975439273427810e+01 -1.481322015966151184e+02 -5.568749736067378819e+01 -1.601351882356443070e+02 1.835450372104168366e+02 -2.135748104719370488e+01 6.214910742845150082e+01 1.258615588924315176e+01 1.521717964277200963e+02 4.706915288443380518e+01 3.767380909423630442e+01 1.625854653834438750e+02 -5.189622563376877906e+01 -1.027695523294157738e+02 2.858006346709827383e+01 -1.663991180012537825e+02 -5.622191016934159791e+01 1.076882482632893527e+02 -1.345371151881826961e+02 -3.828916444370059224e+01 9.611502465936472106e+01 -9.949717982791993620e+01 -9.424095969388601191e+01 -8.700943806998851926e+01 -6.721473151758678455e+01 2.620747449648462180e+02 2.085652675370750728e+02 1.084142030507036765e+02 -1.075422314998656930e+02 7.878020401987706123e+01 -6.953723423658441050e+01 -3.277486685700552727e+01 1.745462907858099300e+01 -3.381477779958594709e+01 -9.859664700381429725e+01 -2.821603881512193102e+00 1.557849396558639121e+01 1.143061001010953248e+02 -1.350109797240702392e+02 4.396561329909695104e+01 6.696679388461716087e+01 3.631139833352732182e+01 -9.515079097474520609e+01 -1.559031627357301772e+02 2.028725308326887102e+02 -1.870867922592857369e+01 2.644172518426304919e+01 1.642286080152719023e+02 2.798794577526892269e+01 2.911716324770041453e+01 -4.670593860597743685e+01 9.291445018538925638e+01 -1.430077957202292112e+02 -3.231574968389722358e+01 -6.431160932861525126e+00 -5.602153076455685010e+01 6.435543358002387748e+00 2.236132252415029598e+01 -3.751644652257576951e+01 1.432552179534161141e+01 2.239922130389531105e+02 -2.869639495414569552e+01 -2.928963520920417096e+01 -1.065284932586418876e+02 -1.741879178766222669e+00 -8.462607511321192533e+01 6.726899674930023387e+00 1.174039539915122106e+02 -5.451570578898947161e+01 6.342520697775177574e+00 -5.691912463597437721e+01 3.501390750050289657e+00 9.136519073023976034e+01 -1.213625163302833130e+02 -1.013860940276917546e+02 -1.074038828822516507e+02 7.479961609732144723e+01 9.066419193622016337e+01 -9.670691870955279512e+01 6.554549827036572651e+01 2.702224971368280393e+01 4.051656854631099236e+01 -1.860346293574161791e+01 9.564093085254016557e+01 8.351687200979161219e+01 -8.094314546582863557e+01 1.244397799058719833e+01 8.473065969911937145e+01 7.631216989036583698e+01 -2.080320469976169306e+01 2.617475450029274242e+01 -1.388315616780770938e+02 5.078487930011321794e+01 -3.430343908353724203e+01 -3.416499573800087575e+01 1.813378172377749422e+02 4.968549465495723183e+01 1.258852303864167510e+02 1.999129203322087562e+02 -1.441827249508853015e+02 1.560564803720828024e+02 -6.633312387533472076e+01 -1.414736614132796149e+02 8.619513230653518576e+01 -1.404003309057123658e+02 -3.004640704077852220e+01 5.908461538355478382e+01 8.488021359582070602e+00 -1.759662498768862804e+02 8.815584542374752175e+01 2.638619239500157931e+01 7.235010739554451220e+01 3.795970706066236033e+01 9.926268130701780379e+00 -7.027257607000480277e+01 1.211939905415583922e+02 5.703982686608583919e+01 -6.504846192633203827e+01 -1.059899768905812323e+02 4.080244692835776021e+01 2.683828014432166853e+01 8.623785906375138666e+01 1.923155686152335306e+02 -2.580698788705763747e+01 -1.153011502177456151e+02 -8.874969623722044787e+01 -5.373096353975611805e+01 -4.649666717904136704e+01 -1.536244724111692221e+02 -2.353813108022045952e+01 1.355326639328075942e+02 7.804897728226333697e+01 -1.281065114415136748e+02 -1.567979683360601086e+02 -7.131445554007925125e+01 -7.998104757709639046e+01 1.535699866149202251e+02 -1.784208624550717559e+02 9.055389617552629034e+01 -4.824362014423638101e+00 -4.502136132701693327e+01 1.394065272147894774e+01 9.546171428240100454e+01 5.194531964336974994e+01 1.446628199349646593e+02 -1.665536589700028287e+02 -8.475265723862828793e+01 2.649392186047457187e+01 4.389920610412078616e+01 2.157921287988446011e+02 1.522216233609248093e+02 6.855917994073188027e+01 7.546846425506498690e+01 -3.589812333779571674e+01 1.589332670004567376e+02 -1.876469002965027357e+02 -6.632905861894589350e+01 -5.619256720328166210e+01 -5.420805809672465614e+01 -1.081223580905976149e+02 -1.567142422298111271e+01 -7.184891133813979991e+01 7.451367027948325017e+01 -9.602926130849242625e+00 -6.084121352446023678e+01 -6.525772977034414168e+01 1.885797575482080788e+02 6.170085733482993362e+01 -1.431530603108040722e+01 2.185764188724367614e+02 -1.133371096767121173e+02 -3.698705659505685617e+01 7.006007014114167930e+01 -1.302796050730649358e-01 1.560554288558588709e+01 -1.308137755672050559e+02 1.843411121610415364e+02 -5.129465450008060401e+01 -2.822567024798114588e+01 -1.147776927693055313e+02 1.316472392642749014e+02 1.003350817840356513e+02 -8.109796069513981820e+01 -3.924532782533337638e+01 4.070388634956412943e+01 -1.583369239197818672e+02 -1.197197215064644826e-01 -7.810714459301455292e+01 8.071181679409891174e+00 -1.130579014222328453e+02 -1.657314830337524256e+02 -7.387134735938938945e+01 1.548523968800987518e+02 5.916979453939943312e+01 -9.363264355511519454e+01 9.321357744344315677e+01 3.580217186177802802e+01 9.222034959815098887e+01 -4.399384234984241004e+01 -8.786559742041440302e+01 1.786160546687310955e+02 4.353353319067272054e+01 3.024595583431675294e+01 -7.625673326788874817e+01 -4.417474930217751705e+01 1.000776646894349931e+01 -7.463617735657886776e+00 -1.803996283991686482e+02 -3.610626901346789452e+01 6.724467377811812696e+01 1.165099149548865682e+02 1.624572682601064173e+02 -1.383096870745072593e+01 9.349321100933575224e+01 1.644944845238424023e+02 6.616353784034404839e+01 1.541853742508327230e+02 1.674718035057001586e+01 1.368840534912868634e+02 -8.750012584691272366e+01 5.564312647740241857e+01 3.060242349616946100e+01 7.905768052200033935e+01 -1.106293634381296869e+02 2.062039535191736093e+02 -1.341689340280170484e+02 9.190635611193970078e+01 -1.118810980539709163e+02 4.800227838122528112e+01 1.435220295641798849e+01 9.439851888935250201e+01 -7.666797573622375239e+01 -7.854823996827224164e+01 -1.163415840905947896e+01 9.264631802359528479e+01 -3.075659735020846952e+01 -1.696626560712178389e+01 -2.040828681169499959e+01 4.924782594077027120e+00 1.019790414834222219e+02 -6.501557482672829735e+01 -2.827251614030336313e+00 -2.010756810939665797e+02 1.263429552895611465e+02 -1.293546067462802682e+02 -7.654842263373375033e+01 -2.440407991068704163e+01 -1.117855969847063591e+02 -5.507816862326473739e+01 -6.065307117124391567e+01 -2.035684444027133466e+01 1.411697588283164748e+02 5.599407547596074863e+01 1.040409480117561998e+02 -1.409623609612002326e+02 -1.435468827444248632e+02 -2.967026208195174490e+02 1.057727511458127765e+02 1.080346829562155335e+02 4.376150372846740311e+01 -4.390482489330456417e+01 -3.858133556214021098e+01 -1.901893095649234908e+02 1.514049708790198849e+02 -1.112819726882358395e+02 1.107968763695978680e+02 -1.649651439498350953e+02 -1.481452075027922888e+01 -5.736516457684239612e+01 -1.235290313908272424e+02 -4.774887103061808347e+01 -1.290665716451072065e+01 -9.597933705300656015e+01 -1.072535725117515426e+02 -1.279513401554283725e+01 7.378376139248801735e+01 -1.291496883473473360e+02 -1.624839842111953203e+01 -7.643121473365158636e+01 -1.361793915638585872e+02 6.959956091342232476e+00 9.868325664232810368e+01 1.715048766006177061e+02 -1.977745430174101671e+01 -4.774198288909005328e+01 -1.286497015987391705e+02 -1.695141318157759258e+02 1.075397310980229690e+02 -7.541621802173854405e+01 8.193707857736139033e+01 9.753654917247065015e+00 3.035061239462875093e+01 7.657740667125709422e+01 -8.782938350275357209e+01 8.570321932263273368e+01 1.195239127241968902e+02 1.631960615178836349e+02 -1.209408503098223804e+02 1.077789683785673560e+02 -4.951674561874497726e+01 -9.415478238738674577e+01 2.224864773157497950e+02 5.110937945714661623e+01 8.656004318952096810e+01 2.212214318662130808e+01 -6.547173926767710839e+01 -3.623510901375376392e+01 -2.181656971556050166e+02 1.095407041645732704e+02 8.454717981964370210e+01 -7.851252479423783370e+01 -7.589657503820583884e+01 1.505924505803290003e+02 1.048188905304372014e+02 5.300688382425227019e+01 7.892368419702785332e+01 -8.222228566391638793e+00 1.070369705322405594e+02 -1.073520544237372718e+02 1.933714987527641824e+02 -4.095016180595457911e+01 -1.265119060409962373e+02 -3.903808348277863161e+01 7.441746989491568343e+01 1.528337850516038827e+02 1.344851724874947863e+01 1.802918188072167140e+02 5.416407371032754270e+01 3.485294319662862250e+01 -1.154760156390931911e+02 4.650424132219534812e+01 -1.297294471338641983e+02 4.945292715222415580e+01 4.012166405561537630e+01 -1.279128476457086379e+02 -8.820173141057468058e+01 4.130362021436947373e+01 9.052065487781206343e+00 -2.412057834498989806e+01 4.339403986949360359e+01 -2.219396529615377744e+01 -6.544743233067185884e+01 -2.706546958139911396e+01 -2.331882924316890993e+01 -4.132200806994761422e+01 1.949021601647731572e+01 -8.346994075597969243e+01 1.233965083633773361e+02 -7.713567525058714125e+01 -4.496346899049904700e+00 6.790254845479596213e+01 4.060087404016039514e+00 1.652501498258058632e+01 1.654327117475603259e+01 -1.215224833690082420e+02 -4.591467169647068580e+00 6.748479556442261185e+01 -2.400777298134262026e+02 -8.799111216000581237e+01 -1.169504275402863982e+02 4.541515018021931382e+01 9.981753971571637862e+01 -9.515477786358030698e+01 -1.741477528542085906e+02 -1.920061870669066479e+02 2.072872713206342965e+01 -1.503388780163291187e+02 -6.546603730068251359e+00 1.530191207006486991e+02 -7.393897128848465172e+00 3.850840167181853957e+01 -1.024984115805680318e+02 8.265213158100515045e+01 -1.226812624765302786e+02 -1.592057311861300128e+01 -3.136851425007318994e+01 5.950112692061084374e+01 -9.206334905441844185e+00 1.091968970441890150e+02 -1.260435112010848542e+02 -5.170948815033133883e+01 8.926963001805248155e+01 6.826218155203629578e+01 -8.499310870737406276e+01 -5.609499222554241982e+01 -5.087662545737621400e+01 -2.982841413722334210e+02 1.994536102077738349e+02 7.845781724597965479e+01 -2.433668469461935402e+01 -3.054894735069770562e+01 4.276869865062545983e+01 -8.669374326191025659e+01 1.024958844721561775e+02 6.219477957242473565e+01 8.445888932855295650e+01 -8.652573654457518160e+01 -2.737768195066572829e+01 3.432713504907771807e+01 1.787739053050131943e+01 -4.400466829131907076e+01 1.623102115952609381e+02 -1.778804995739877270e+01 3.635451177306217829e+01 -2.361610224068748778e+02 -8.705341930388543403e+01 -7.519914132582096045e+01 2.364351975549654838e+01 1.121863494309983906e+02 -2.379500095493858964e+02 -1.921295326816379259e+02 2.277388566263218763e+02 -1.086092788374129370e+01 9.870906451836472684e+01 6.447514253445970667e+01 -5.689626058953103893e+01 -1.345695646873112992e+02 -9.775186868004045948e+01 -5.163994729520702975e+01 -3.847455922181351440e+01 -4.021633380270519353e+01 1.663732519011946920e+01 3.811269129830933622e+01 1.713139210550644407e+02 1.265097586672549568e+02 7.080834708500925778e+00 -4.489769071752702345e+00 -1.631413108075978471e+02 1.228961092848919634e+02 1.636655314081117751e+02 -1.061924736894875849e+02 7.574004332088405533e+01 1.863579354639519625e+00 5.635301744193426998e+01 1.288811848846174826e+02 7.286811954642652722e+01 -1.376481931591684145e+02 1.660591015618010857e+01 -3.018370491378876252e+01 1.143906866917448717e+01 -2.384231568982056615e+01 4.661092806208336725e+01 -2.676336892096352358e+02 1.862404021468022108e+02 7.547395178775553326e+00 1.638938447060929491e+02 -1.088309890969614990e+01 1.092108008226144307e+02 7.367232408730565396e+01 -4.323285338381717935e+01 3.072511747758740341e+01 -7.486700181456089354e+01 -9.152809481678201564e+01 -7.420086123965216984e+01 -3.298120771773383098e+01 4.652365571306457781e+01 1.134467494788980275e+02 2.936475826461945715e+01 6.390605999389917002e+01 -1.079463009178438426e+02 -1.412592131804927362e+02 -1.389134227936553501e+01 4.782360124799089363e+01 -4.694212415941866112e+01 9.737859960866096287e+01 5.719098603342442289e+01 -2.850549288560397798e+01 3.087532819921395344e+01 6.323664041373093880e+01 -7.435115535639913276e+01 -1.378522668227460031e+02 1.465054357298122056e+02 8.060788529080246789e+00 5.171581876926433807e+01 -1.539641407303970198e+02 -5.508807531823271830e+01 -4.959241678241375628e-01 -6.776208750555674953e+01 4.416657865059236521e+00 5.807684708639930449e+01 1.924353926021592542e+02 4.038685561586452621e+01 -1.132416371237833275e+01 7.452106591495837051e+01 -4.698678941368801532e+01 -1.125669592970628656e+02 -1.427812357072916143e+02 9.693083415649576651e+00 2.595178038278192645e+01 2.456711188317326489e+01 -5.878991004189349212e+01 1.249270732432061521e+02 -8.359547757622163999e+01 1.327110982704205639e+02 9.029761017431093251e+01 -6.728480578351539521e+01 -8.757031619761202990e+01 8.709971863284189908e+01 2.122910507123493673e+01 -5.429820825626349290e+01 -5.574236890267601297e+01 1.414333576135804549e+02 5.930205657133834052e+01 8.268140778300627858e+01 2.707348407569185866e+01 -4.360426031817920745e+01 1.113433305737750914e+02 -5.651918990234952389e+01 5.342340576155286680e-01 7.936297037859222314e+01 1.031872426822654063e+02 2.647278098405458309e+02 -1.815136323781023577e+02 1.668657339189114168e+02 -7.012180353706358460e+01 -1.578217686671623632e+01 -2.594298518858517966e+01 -2.150886211642920998e+01 -5.728306035359268833e+01 9.640099212302305887e+01 1.910970270251439445e+02 -1.233708093062982414e+02 3.212376994056573665e+01 -1.318342148780112382e+02 7.293519991107318390e+01 -4.627273434309076805e+01 -8.417083086427211924e+01 -5.601845426344695511e+01 4.281850775366201134e+01 2.019280696473873249e+01 -8.515957980995264620e+01 -1.468898156599493632e+02 2.164124469581952326e+01 1.642051905347216234e+02 1.488556413819880042e+01 1.902093553169719087e+02 7.789589971691022185e+00 1.403736745108929256e+02 -3.609705634849141376e+01 9.461432914507697944e+01 -7.456187836436579630e+01 -1.178594800403099470e+02 5.161366685526429166e+01 -6.060346939548634282e+01 -8.200733056887661121e+01 7.620642556208657936e+01 6.713041265286104675e+00 -9.859489091229799840e+01 -1.573857331581297387e+02 1.546603928130918177e+02 -9.328653463984421990e+01 -2.430587498593428819e+00 1.256589633097046601e+02 6.077128760027790833e+01 -1.028040094746686890e+02 1.109974622449414383e+01 2.954197177530876388e+02 5.588792045955802479e+01 -1.653201894634662210e+02 -5.000111524534862184e+01 -6.453319793540140381e+01 1.011291669483147260e+01 1.128039264979349952e+02 -1.085150151123760338e+02 2.260244948952044197e+01 1.369441897128963319e+02 1.971057904591702581e+01 -2.217193567121680076e+02 5.078654568713900375e+01 7.923224163223049743e+01 -1.423792082165833328e+01 3.445084830501023987e+01 1.179020325217371296e-01 2.358012973695331738e+01 2.912270279145355900e+01 1.215880949796756312e+02 1.028919342659688425e+02 1.626581535699923720e+01 1.564875203926947904e+02 -6.722544028688801632e+01 2.589913952806426209e+02 6.827195223832282522e+01 1.487622935892437965e+02 -2.308453023161274231e+01 9.457241563281512242e+01 -5.157114847813998182e+01 -1.537353199947150415e+02 2.753232721869352417e+01 9.993226594365479798e+01 -9.206437194312498207e+01 -1.100213624350677861e+02 -6.989587954086432831e+01 3.842052863182242817e+01 -1.200434701249238003e+02 7.853220053542288781e+01 2.951999491689814548e+01 -1.025562363345959795e+02 1.995909476784578374e+02 -1.236185337504866411e+01 -1.068848856164670025e+02 -1.403357048237784532e+01 -2.147093863813214654e+01 -1.473603534721642063e+02 -4.208284668356606772e+01 6.461676751185480327e+01 1.384463246793967812e+02 3.047248888899656905e+01 2.814517942913043314e+01 4.706747517295909233e+01 -3.760589888927646740e+01 -1.529710344288504018e+02 1.662819674314940244e+01 3.260111793057328100e+01 1.398435956807323350e+02 -1.048197146605152419e+01 -8.003168135946161499e+01 7.694428434316749588e+01 1.064725666396514558e+00 3.364539818532325199e+01 1.464351112599330236e+02 -1.866444786119412527e+02 -9.757838334276029002e+01 1.310862355610099712e+02 -2.203328132467742364e+02 -1.878248778380539363e+02 9.289479685334782744e+01 1.572716523107745275e+02 6.470137672804655438e+01 -4.522856812579123975e+00 1.591256603143920358e+02 -2.241196860155652928e+02 1.094365740613947509e+02 4.328554312017548966e+01 1.297850499916422677e+02 -1.926049850249752637e+02 1.088940225559301211e+02 -2.892390389630331526e+01 -1.365514262935389240e+02 -5.443087665288124377e+00 -9.438646941516888944e+01 -1.672346874972824438e+01 -4.331102408622947486e+00 -1.258102448135808373e+02 -1.259413176154667156e+02 -6.391565419608723886e+01 -1.316861548658115737e+02 2.052879121692976696e+02 -1.643855209156311901e+02 -5.122483572033794275e+01 1.762026944559112565e+02 3.464201641675538212e+01 -3.022697228647897418e+02 -1.297480831389153195e+02 3.629589037996731093e+01 5.579523534589254297e+01 8.829263793596640042e+00 -1.579468386144605176e+02 3.644802244974312089e+01 7.598447940940508794e+00 -7.590614804812466332e+01 2.069979200591228050e+02 2.069258197324504920e+02 4.410219874597203216e+00 -2.129428840317481502e+02 1.286788133017492157e+02 3.144224935740691507e+01 3.791733817854194388e+00 7.829133644726866237e+01 -2.118572227726868391e+02 -1.409856443469221006e+02 1.440623468744248896e+02 1.119612713776963346e+02 5.407933587655043794e+01 1.463078310408472191e+02 -1.820477111435378674e+02 -2.084439741003244251e+01 -1.332270106336753770e+02 4.445824588092647645e+01 -1.060610089334238069e+02 8.887402371242406218e+01 -3.456366003339928028e+01 1.264274404021199771e+01 1.811810203770371288e+02 2.905944299415561360e+01 -2.691558662106783686e+02 -1.290118527674539735e+02 -8.513124465726491508e+01 1.614535256700287107e+02 1.279648789336273929e+01 -5.490285957831389396e+01 3.107060095543311107e+01 6.386843588936258698e+01 -4.044725005443616794e+01 1.097947637759289705e+02 -1.028624615068919894e+02 5.025503486256818775e+01 1.142937645627274037e+02 -3.614123414536576462e+01 -1.002001890609406729e+02 -1.157837713326498346e+02 1.222921736681535663e+02 -5.069268777688602512e+01 2.007135174703545886e+02 5.841534623200219301e+01 1.133148877450435776e+02 1.882476615268210196e+02 8.746908363158528488e+00 -1.268813443437172879e+02 -1.693056781085304010e+02 -1.166273760657544329e+02 4.334556187574488462e+01
-1.360917703434680703e+01 -4.780231425105514909e+00 1.033211991136213044e+02 -2.284242626315601115e+02 1.550204663569669208e+02 6.338622163296937373e+01 1.517430273685163513e+02 -1.288170341748315195e+02 -2.788918185701308339e+00 -2.402589712630762264e+01 -2.189095726920971288e+02 3.267510716718872743e+01 -1.828422210888198052e+01 1.219699040995628536e+02 -1.247028828129692641e+02 6.154653882795537356e+01 1.250015456825377100e+02 -4.581542246556077913e+01 -4.958249143121251024e+01 -2.702519595448227463e+01 6.152287286682869905e+01 6.298460194095575559e+01 3.231734021278183633e+01 -2.319439447184471419e+02 -5.153176021266622087e+01 9.121930174209492748e+01 9.870542555211184066e+00 -1.030644324779287579e+01 -6.637133732832396049e+01 -1.538983483526243567e+01 7.314669618914146554e+01 -1.450287792314319120e+02 -6.171224745957155022e+01 8.986382656684243742e+00 2.069180238859862868e+02 2.114673056574338261e+02 -3.194194859042791990e+01 5.574017222387571024e+01 -2.854001162983369477e-01 -1.393069292032728015e+02 9.574028008867522033e+01 1.069736301644203280e+02 1.082389895969504039e+02 1.167326131702855641e+01 6.174569044770361614e+01 4.800301847410520395e+01 3.878941356979041899e+01 2.922465577252143021e+01 1.100028562185108427e+02 8.949542422183316148e+01 6.544809811076375183e+01 1.625318335389372351e+02 2.469320315680774627e+02 1.950391233485804605e+02 -5.896440984138426700e+01 4.913328838378291152e+01 -6.414037894181433330e+01 5.628746879851854601e+01 -1.916032348482036696e+02 5.635201201238885460e+01 -2.042502315964791535e+02 -1.682548883624610312e+02 1.290184719484558151e+01 -9.197183868465717893e+00 1.691031899821700506e+02 -2.073501216931227589e+02 7.509292611154202746e+01 2.291751619889312508e+02 -7.274643589423137158e+00 -1.941468812330148523e+02 3.552688972608719808e+01 1.967299727529929214e+02 -6.093627949068842042e+01 -2.657467579532051900e+02 -1.023011739658369521e+02 8.773631618418344047e+00 -2.295158197755984588e+02 3.190439517421390647e+01 -1.790322268855473169e+02 -1.851829188081821655e+02 -5.693739647564845541e+01 1.521866782261455171e+02 6.939814441503388309e+01 1.057560656682462508e+01 -8.842832520559835530e+01 -4.253356695727207182e+01 6.365653517981247944e+01 -2.316726212566423726e+02 5.402655377794688718e+01 -7.494358422013765164e+01 -7.796962554933138279e+01 -1.765588921677618259e+02 6.503549990941991155e+01 9.267496590470916829e+01 -1.621533806359969105e+02 1.725550765181143049e+02 -3.987380864107004186e+01 -1.689704500446758217e+01 8.743624064846653710e+01 1.561470355985306639e+02 2.163397591597629344e+01 1.513079353932510287e+02 -1.842854683186070375e+01 -9.063957293791774816e+01 -1.961224065927333271e+01 1.010272383918733965e+02 4.619856220831744764e+01 1.004952912136916865e+02 9.699049874859994702e+01 -8.529546610951781815e+01 -1.745581951298408967e+02 1.264301951283562460e+02 5.574986870089269786e+01 1.656648984113829925e+01 3.142423113376841926e+01 -6.979370521277537875e+01 9.868963330206464946e+01 9.229827407195949718e+01 -1.402020359728515508e+01 -7.320257835278792413e+01 3.165832973780032233e+01 6.441434160956822197e+00 -6.327669584963813065e+01 1.742504443517105130e+02 -3.398203527886801112e+01 1.250228737973247064e+02 -7.210029602622468303e+01 3.946773847837958726e+01 -3.716341971567072733e+01 9.198466945291094987e+01 2.416355421487526911e+01 1.188689076052711613e+02 -1.192921413731713329e+02 7.647563397094369009e+01 1.270604964479075534e+02 -4.602387694279429553e+01 7.770083710528801646e+00 -1.297566313668405336e+01 1.201461233215762263e+02 3.589705421690269738e+00 1.736541257707019383e+02 -1.455678547959384161e+02 1.201463906811866877e+02 -9.408616528128148104e+01 9.857161052221506736e+01 -1.411355106113684883e+02 3.041201178739284572e+01 2.547374486934221594e+01 1.894721128934912624e+00 3.740777999962177347e+01 4.724136312638995605e+01 -1.283520968695653153e+01 1.107914513811311963e+01 1.113793425578789282e+02 1.311678749056301854e+02 -8.930500311339446284e+01 -5.591682207331066934e+01 4.885065564942654959e+01 1.603363237990309553e+00 -1.411717690197864954e+02 -5.676756065238583915e+01 -3.659439381489134746e+01 5.046466264552657321e+01 -6.764087505243878695e+01 2.366517987143325996e+01 1.654254325350309784e+02 -8.200588834680989692e+01 8.333383935602212489e+01 8.680203002466967632e+01 1.155856056066797422e+01 1.274098294351979774e+02 6.492608542220938261e+01 1.735262500709934841e+02 -3.564169176132683248e+01 1.161855576304960778e+02 5.736757420722613432e+01 -1.662187419619447937e+01 2.109356727582245696e+02 -1.434827795948228584e+02 5.051822026327160131e+01 -1.939222058546039023e+02 -8.705869141380068754e+01 4.241294261640247498e+01 -7.468094548210473249e+01 -1.612470243256694289e+02 2.062230487898992237e+02 -8.876750932056503984e+01 -4.914606745475762040e+01 -4.790548340617021950e+01 1.260173657322564793e+02 2.016430241928727582e+02 6.704336414999525573e+01 1.514185666510323642e+02 2.272038404896775887e+02 -1.701880886969155071e+00 1.687140451986790026e+02 7.341184447632872434e+01 1.971615894691562971e+02 -1.302281692349220634e+02 -1.231630110121135679e+01 6.548751962680368521e+00 1.967295241078221295e+02 -9.416680469705343626e+01 -6.258281277966144529e+01 -5.484932938490896959e+01 -1.386820709979200501e+02 4.823615925386186554e+00 -1.045432989026529924e+02 1.595474980532493134e+02 2.442757103291338439e+01 1.245313582126444452e+01 7.488871189411040064e+01 -5.131132351019085824e+00 1.210817906054400908e+02 -1.644825810425492705e+02 4.700557058392142551e+01 -1.769823827021721456e+02 1.216102602779263151e+02 9.939362188349059579e+01 -6.973787664303792155e+01 4.840482161561008922e+01 2.466207969202693562e+02 -3.152587255469005711e+01 4.315185576060743244e+01 -3.383078635437900061e+01 5.999563925712981671e+01 6.659719262131770279e+01 -6.485157404509452661e+00 1.055793421823364042e+02 1.051695987160385499e+02 -2.007766728163225309e+02 -1.586959851933526124e+02 -1.240483430326649881e+02 -9.807793269432808714e+00 -1.551353854038054294e+02 1.196440485719523537e+02 1.142900639654816644e+02 6.103935686294674667e+01 1.155304176925749893e+01 1.632832257213999299e+02 8.693573855270548734e+01 6.986956149299469132e+01 -1.052645773152900119e+02 1.576670135172106768e+02 -3.682836583925490626e+00 1.131591384079459459e+02 9.121637542519220432e+00 3.804128755849001919e+01 -7.838855891957778965e+01 -9.395513233339237047e+01 7.408788967592806785e+01 -3.945697189267247662e+00 1.514076517829947761e+02 -1.302709226630855355e+01 -2.966168851758070435e+00 4.744783662547703074e+01 2.344094307680186162e+01 1.463086399970733851e+02 1.509842828457887265e+01 3.706383727385321691e+01 -1.600399482164067422e+02 6.812701946865414016e+01 1.382360820990621448e+02 -1.832897506594365566e+01 -2.357298436262912276e+02 8.724830839615756872e+01 1.405903445021897085e+02 2.092968406298052741e+01 1.949459199091092501e+02 -4.215042528346844897e+00 4.424290426715348445e+01 -4.489118862588324532e+01 -1.428683322910445384e+02 5.763425300259818584e+01 -4.885871744931293392e+01 -8.347135849497226445e+01 4.239878336609042009e+01 -1.901259822285283860e+02 7.381811838063038067e+01 1.689908500071217645e+02 -1.040804109513098297e+02 1.777580895132871035e+02 -1.004131689658429991e+02 -6.164999874504760058e+00 -1.078884116211401079e+01 7.866319831670860196e+01 -4.780508547656115326e+01 -1.107282134281705197e+02 -9.086170842052487728e+01 1.496057308651982964e+02 6.064531537959516072e+01 -1.351000304407235717e+02 4.570725156239094922e+00 4.457163998724148968e+01 8.468109853369490736e+01 -4.136088568353558514e+01 6.152878442744900411e+01 -7.070393884878362201e+01 -1.664628142539129101e+02 -3.550629695380788320e+01 1.444967054959715540e+02 -1.161447856103790031e+02 -6.599587010640165730e+00 -1.669666682981991812e+02 -4.850817687599267458e+00 -1.494328987877578925e+02 3.366654345227351541e+01 6.155839606169858058e+01 -5.154856000255168880e+01 -8.439264529221782141e+01 5.758482875762517494e+00 7.615588101243520214e+01 -6.937659813032760781e+01 1.379013969615859025e+02 1.079456417899854301e+02 -1.306237033028849055e+02 -1.078900963829069326e+02 1.381998365119740129e+02 7.300112604431741659e+01 1.536063107075461858e+02 1.025966904099312416e+02 8.302226886925664928e+01 -6.160117535798329413e+01 -8.361359832803039183e+01 -7.878836430824267723e+01 2.089839905354999132e+02 3.115471509059427646e+01 -2.542333547479442046e+01 -7.003424821640274445e+01 -5.113000486491814200e+01 -1.339461095119948482e+02 -1.686633139838850681e+01 -1.784574226693377739e+02 1.271986536993383083e+02 4.683673633375828160e+01 -1.172420192505445584e+02 -4.920345578803424758e+01 1.218112915502117488e+02 -9.867771115812007565e+01 1.045740388949553790e+02 -1.204582648739849731e+02 -1.195846168490965056e+01 -9.712573352552288952e+01 9.121005460671621279e+01 -4.320744353093741807e+01 1.054249308381480255e+01 2.980479449809153891e+01 -1.287958033461205787e+02 1.271466114098317846e+01 4.911565184306515874e+01 -2.281527069875273028e+01 -6.989159769714854065e+01 2.058173439967533795e+02 8.786862675086052832e+01 4.793149725421341856e+01 -3.194391809460973874e+01 8.157820231447195169e+01 1.703394434252865608e+02 -9.383033501270308818e+01 2.128593354007501262e+02 -1.352682895349415446e+02 -1.869472174108495324e+02 1.543690059982202456e+02 -2.377462947372044653e+02 -1.038517891532807935e+00 -2.488924959453686370e+02 -1.554303020899132832e+02 7.290857738533243548e+01 -1.480258043392865090e+02 5.933982922139935567e+01 1.116319311587180465e+02 -1.630068523605626467e+02 -3.065305918848082811e+01 7.661166018720068394e+01 1.361080558096949744e+02 -1.890702168503495386e+02 8.885142192737042421e+01 -9.952561021409846376e+01 -1.005089276627519901e+01 -1.413277154641259159e+01 -8.088095266396048544e+01 -9.179088438645688086e+01 1.842912044261459528e+02 -2.200348387276609330e+01 1.341651123370544596e+00 1.323291058128895372e+02 -8.806239485138674183e+01 -3.498801989811990865e+01 -1.094117950013055776e+02 -4.966887694520094243e+01 5.289279543107767267e+00 6.041887849506235852e+01 -1.374679126466093635e+02 2.414836634366295698e+02 -5.492398884281549698e+01 1.250460896057985281e+02 -4.977570705865503697e+01 1.221699699913986592e+02 1.418014619871715638e+02 4.900220970895827577e+01 1.245967640317634988e+02 -4.410303092637483502e+01 1.428259801379823273e+02 -1.596252867541418254e+02 -6.673770074707140054e+01 -6.427784509657006140e+01 2.603301943627874238e+01 -1.656972002343343888e+02 7.407824726837711182e+01 -3.147869213708799663e+01 -8.437581133496065888e+01 9.150827074461683708e+01 -1.542733819797808508e+02 -9.311834568720568939e+01 -5.367820566275616301e+01 3.378722196317907134e+01 1.325718699151617841e+02 1.193642275274995939e+02 7.061496912987661290e+01 -1.673207991295317720e+00 1.785090366018797852e+02 1.251059707652774478e+02 -9.638989401462141871e+01 -7.983282114441726662e+01 5.673400004559942289e+01 1.022181819042070572e+01 1.000337347678806879e+02 1.701110413556944820e+02 7.204869835910223230e+01 2.486135434004367184e+01 -1.042990577304833124e+02 1.754038003738053817e+02 -1.160482362542716857e+02 -1.687002454308189385e+02 6.706246501883643418e+01 1.137515963929398168e+02 2.001505867739684064e+01 -1.416652869219969375e+02 3.035649332824597479e+01 4.330012964763619721e+01 -2.929177108300562993e-01 1.335285859250024885e+02 9.943026009650334629e+01 1.744088312733554247e+01 7.989567456438236093e+01 -1.091830680044969597e+02 -6.396668765914919064e+00 1.002407318325970635e+02 3.025552175512568809e+01 -6.630549930398026959e+01 2.018420222710011558e+02 2.355518656988276121e+02 -1.279756078583054801e+02 -2.811657957862103885e+01 -2.142593092691236052e+02 -7.355597610221838067e+01 1.596275796978973460e+02 3.499349922080005282e+00 -7.232265917671333000e+01 1.669074541076119260e+02 -6.371077652957294646e+01 -1.635929100449411635e+02 1.390893715813302549e+02 -6.849463757911544803e+01 3.505511841500404557e+01 8.797364385124792818e+01 1.402290240234242802e+01 -2.425748507206214128e+02 4.303746421769896102e+01 -6.214090403224640013e+00 9.169584535967629790e+01 -2.398618055218688383e+01 1.030389948156273903e+02 1.725295520883970823e+01 -8.634391368144672185e+01 -2.083828004464451311e+01 -1.783687824100624653e+02 1.170779957718938533e+02 2.571618529771018302e+01 -4.238969595233312759e+01 -5.275517323372564960e+01 -6.397038587063503456e+01 4.182129792468636964e+01 1.635686853789119368e+02 1.350936374165281677e+02 4.386381568856136681e+01 -2.014079657548348052e+02 -3.948748914111254749e+01 4.458864311466965091e+01 1.194676977411989753e+02 8.882499220688796981e+01 1.574644801046030373e+01 -1.894003265263096125e+02 1.341211227131366002e+02 -2.277952651625400051e+02 -2.095146101542070198e+02 -1.896089933936602190e+00 -7.511158240161927324e+01 -2.448372933588592559e+01 8.871000969099368660e+01 5.693298427899956238e+01 -1.132342833800854009e+02 -1.541579300890353466e+02 1.486860090394942446e+01 1.259244220668641674e+02 2.110566047644758569e+01 -5.773379502767166116e+01 -5.251561321416969719e+01 -1.203886221505672438e+01 1.642836202173338336e+02 2.278856549416479638e+01 -1.799182439903325417e+02 1.328900540766263418e+02 -6.919101531286197826e+01 -4.329984301742404895e+00 1.595868656594475397e+02 -5.423106729221100863e+01 -2.028300819906674235e+01 -1.138400416407710622e+02 -6.234910961591743295e+00 -2.473604151877367130e+01 1.365300167376342984e+02 1.244855142139542750e+02 7.003837186631636769e+01 6.776418629691329443e+01 -1.939871481070407100e+01 1.401818255777742763e+02 -1.168295872433511420e+02 -4.426180157023347661e+00 -9.436618700977088281e+01 1.629030037504741415e+02 7.560992253420596398e+01 5.360134801472596422e+01 8.602028110751676948e+00 -5.519586549257949315e+01 3.563649315866469180e+01 7.018807316046143718e+00 3.685732315881665500e+00 2.500963262561785427e+01 6.194896797182525461e+01 1.764299517486915079e+02 -4.020714186304606841e+01 -5.389029338299600624e+01 6.919896432824164378e+01 1.198749826060936670e+02 -1.326702241421784478e+01 9.522527561782771954e+01 1.077404992777915425e+02 2.183380265112358245e+02 -8.968375005611939343e+01 -1.271451342583876567e+02 -2.966210740738854312e+01 6.435799168554756022e+01 -1.051073559733147356e+01 1.112881771989868156e+02 3.855790906778715055e+01 -1.684724183465758642e+02 4.668281401046501600e+01 -9.266413869241311829e+01 -1.401415092132730535e+02 1.392959993005321451e+02 -7.870393725118418615e+01 6.121276242504674059e+01 1.151831563562025451e+02 -1.025718607898970589e+02 2.427712496582807589e+01 -7.469612337677358482e+01 4.165131190751448287e+01 -1.185487107071464550e+02 6.369190534339910670e+01 5.655211770245492175e+01 4.100330730924050648e+00 8.701522600418441300e+01 -1.582648584973416348e+02 7.902483168252656753e+01 -3.020611381245289095e+01 -1.735100932014836985e+02 9.700111564451489699e+01 2.515874803843866658e+01 -2.015102576712342568e+02 2.415719589261798887e+02 -5.387552443743942598e-01 1.080266349230348339e+02 -1.238686737540015343e+02 -1.994603745141006641e+02 -9.583786977052236011e+01 2.521793284617102948e+00 1.467970226538627116e+02 4.152787406410073601e+00 -9.814434611900122718e+01 5.181645484955900116e+01 1.407559330305949175e+02 6.676475262907666774e+01 -5.316821785215906004e+01 -6.073326216929296351e+01 8.679902779270736346e+01 3.161332129214626008e+01 -2.008025530572759294e+02 -2.129762710585450947e+01 1.736232624947849388e+02 1.015415247071269391e+02 -5.885477971806082564e+01 -1.148302370874755240e+02 -4.384528784147718738e+01 -4.938072277047260172e+01 -1.175525815490344286e+02 -1.902467734770438668e+01 -4.690366250377105928e+01 -1.166855751433738533e+02 -1.354115249859342782e+02 -2.762948344898964237e+01 -1.290447521283789456e+02 -1.373529698240847949e+02 -3.936812702480719395e+01 -5.687256437156974442e+01 -1.139723218944302943e+02 1.981207833611960609e+02 1.121589224397213513e+01 -2.995132081629607868e+01 -1.811397047340387800e+01 8.372521532232580910e+01 1.663369229037364150e+01 2.665974767475166729e+01 -2.270042191046657010e+01 -4.915592324291906579e+01 2.227543726188135409e+01 -1.546949981444544449e+02 -1.694525547917222070e+02 -9.630008280140448562e+01 -2.031224267869248763e+02 -9.540560840858439917e+01 9.136633079061614637e+01 6.532449782821515782e+01 -2.775271801818798068e+01 6.468317988133432550e+01 -1.665993274393168235e+02 -4.338996727493765349e+01 -1.235822464932859646e+02 -7.105526771050976720e+01 2.244575592654360605e+02 -2.184967062000596059e+02 2.184813057112725971e+02 2.663685653399252118e+01 -6.013800721095220325e+01 9.823187999631025491e+01 1.320751959760612806e+02 -5.523513828930028779e+01 -2.168025908282667160e+02 -1.586994131574105324e+02 1.088340567794120517e+02 8.915763819076764207e+01 -1.443330682079721043e+02 3.403970480046250913e+01 -4.219348911820950576e+01 -8.238069188124117659e+01 -3.025060429560195985e+01 -5.837408522547737988e+01 -9.202730007373617127e+01 -3.620201049371366508e+01 4.721837092750434728e+00 -3.485928152312470019e+01 -4.468150447432264749e-01 -1.532485076728503159e+01 9.794069705701576822e+01 1.352303729566553443e+02 1.402647387103583476e+01 1.785626496965835130e+01 -6.713457381265955348e+01 -2.085978596749561689e+02 3.603908456323038223e+01 -9.766124530877254983e+01 2.747820082317100443e+01 -8.763686062790831954e+00 1.043845206167832940e+00 7.682815492699184290e+01 1.297105792449904129e+02 -7.497241336729304351e+01 4.044433609969640031e+01 -2.051889175607128095e+02 1.027393750240111459e+01 7.511130178038408545e+00 -1.304193752249200884e+02 -3.591445030833542518e+01 -4.717857168545939572e+01 5.087882673870764094e+00 -1.088435369091174181e+02 2.880257679310919983e+01 -1.039457560920097876e+02 5.978879532220125981e+01 7.218631323079287654e+01 3.923527200438210372e+01 -3.088833136536207036e+01 1.143285923943414275e+02 6.496304561583053783e+01 8.511680914431443057e+01 -7.126848022584586317e+01 2.164068951482936853e+01 1.360886538799294954e+02 -6.218649636140948900e+01 -7.349118447116573805e+00 3.404014318010172957e+01 -1.365620261440177501e+02 1.040672205456545214e+02 9.527049115668994261e+01 -1.075162416236536416e+02 -8.758476135459684997e+01 -5.902280385296408838e+01 -4.837271974503207872e+01 -1.704533022693545377e+02 -1.445337799418213081e+02 -1.408094181467934050e+02 1.123127458325752741e+02 6.349598564872573547e+01 1.695088656944614058e+02 7.636542687345531100e+00 -9.116318321822851090e+01 1.987592541496672993e+01 1.470128738030179072e+01 -6.741669339740114708e+01 7.865506345006932065e+01 1.253991438588961671e+02 1.064403631963896757e+01 1.523502166997140534e+02 2.392597345500588801e+01 1.178352935351549888e+02 1.605522420445316811e+01 -2.205889081965264893e+02 2.318257314846310635e+02 -5.194929089865124894e+01 -1.583394550352632280e+02 -7.131505110510256884e+01 -4.561402846006441791e+01 4.363918325591048841e+01 2.700984633437888149e+01 4.825507971783122230e+01 -7.824723745301282918e+01 1.291052632879465421e+02 -9.098428533521121153e+01 -7.390630670342870800e+00 1.502478035948445836e+02 1.155985945695649662e+02 6.108758440548078283e+01 -1.864967632130432094e+02 2.678900696000362203e+01 1.478817997256675483e+02 2.468183288246079243e+01 1.026893864802344467e+02 1.119668755495165584e+02 -2.222186431659806090e+02 8.085832244423087900e+01 -6.069368869385838394e+01 -2.362387864665958546e+02 9.290738120260057542e+01 2.579665953904407161e+01 -1.274725214451891304e+02 -6.109740743343854064e+01 1.446504692314957197e+02 1.534526416103830400e+02 -7.873361350068807951e+01 -1.326191026500914063e+02 -8.651395701922459125e+01 -1.717968101939355279e+02 2.023019245443071057e+01 3.917559914501610763e+01 -1.745559646290484679e+01 -1.276211051848451561e+01 -9.221904958340920189e+01 -9.105959971359740734e+01 -2.534535213539432519e+01 1.373900748276961963e+02 1.397064871509944624e+02 8.311311546377308446e+01 9.933589856650162631e+01 -8.041985129219659711e+01 -1.843924808160481064e+02 -1.354067020885812056e+01 -2.367576995836982690e+01 -7.236223965059396335e+01 1.539089168992623158e+00 7.450318094082592779e+01 -5.396229103683470640e+01 2.506444793567013107e+01 8.070090138936529911e+01 7.144224668568152481e+01 1.126344111578251557e+02 -1.520804486595040146e+02 4.041345163909775096e+01 8.491820098037142373e+01 9.658776819330500985e+01 6.023141897292861557e+01 -1.052346813118757041e+02 1.395907113388510083e+02 1.298970810814145409e+02 9.767077244680160675e+01 1.034830479541630694e+02 -8.586396539534568717e+01 -1.517133997111504051e+01 -1.315645410707574570e+01 7.856645558395049989e+01 6.621536285515348652e+01 5.700502670026542518e+01 9.948689457888424670e+01 1.186953158040595184e+02 1.262032580656251497e+02 -6.621587719335130373e+01 8.213552515303362611e+01 6.652078825836503029e+01 -1.199237224809680527e+02 1.341390636431853238e+02 -1.024627923354016268e+01 -2.845066730275945943e+01 2.031280581726247476e+02 9.017234738341404920e+01 1.265180669283292474e+02 -1.471749873639996622e+02 -1.609168474284060437e+02 -1.568986107601656101e+02 -1.246698178604847982e+02 -4.518944785824798061e+01 1.121263693035415798e+02 -1.721532420097487091e+02 3.323716821437075453e+01 1.474271436500887660e+02 -6.060314693596913571e+01 -9.333904174898977146e+01 -3.586103302704059104e+01 1.389046126319451844e+02 2.323754944125398936e+02 -6.809050469923083426e+01 2.025294789898441650e+01 -2.834411381566457067e+01 7.004708110067512905e+01 6.166650311387603978e+01 -2.181541129961942715e+02 -9.071684679631354697e+01 1.407779323609003654e+02 1.430931858174654963e+02 9.677301663410653987e+01 -5.096048035652342634e+01 -7.763632791919148701e+01 -4.652754766456735069e+01 -1.807396763513648921e+02 7.290419999582914556e+01 -2.631406750256492799e+01 1.704524684305058031e+02 -2.859534431058673221e+01 -3.222457801425934463e+02 1.484682049998162086e+02 5.160888121838470965e+01 -1.209217871653910237e+02 -2.266575945571501549e+01 3.620815796870819980e+01 -2.128671885111035351e+02 -1.171811191661916212e+02 -1.123212701983949557e+02 -5.790239103634065287e+01 6.442346531669500109e+01 -1.689876113467113043e+02 1.107207841385123004e+02 -5.569929208363724626e+01 2.969604993672753324e+00 -1.368427833684696111e+02 -1.062058808281382767e+02 1.804072691913656001e+02 8.890110367068244557e+01 -4.333456260063739762e+01 3.816906710487119625e+01 -2.880312992352270385e+01 4.430444880322863099e+01 -1.073600379883536675e+02 1.013783205292291285e+02 5.186240344563462656e+01 -1.220638033255003592e+02 1.198618297046354968e+02 -5.047294284757526128e+01 1.025873560282106354e+02 -5.074228532859833507e+01 9.077487268803103859e+01 -1.575488907881713203e+02 1.465212828255189095e+02 2.545004998772164839e+01 1.033487589434666347e+02 1.339421736976222803e+02 -1.506290125158424473e+02 -8.823343817778354037e+01 -1.085123841910724138e+02 6.872279538306339930e+01 -1.760488296940236808e+02 1.556029541336101545e+02 1.463628348777892825e+02 5.446086840101312987e+01 -8.724875368314762625e+01 5.862999230795941230e+01 -1.102537193640937829e+02 -1.128286780248735965e+01 3.598039753865346313e+01 -1.888874346123279508e+02 -8.390612550564719641e+01 -1.391670407996839032e+01 1.051155392690719879e+02 -5.161696096955942181e+01 1.117478332613512322e+02 -6.618546421888972020e+01 -2.168531458313479732e+02 -1.101664187156930410e+02 -3.509269784634998501e+01 -6.193463505290886673e+01 3.098161366121253124e+01 5.282519344370470549e+01 6.547043825299912356e+00 2.597771521333213585e+01 -1.206719303220566246e+02 5.536598135230698858e+01 3.357664710314719514e+01 -7.433469217925512851e+01 9.513507990431797623e+00 5.792856172286663963e+01 -9.824540966559970911e+01 -5.668889548113183707e+01 -2.483295368706839668e+01 1.005278304805682126e+02 -1.763781493488609797e+01 4.316510179801882785e+00 -2.348354467521006939e+02 -9.791360351398488149e+01 1.018946087294431351e+02 -9.197942174558349393e+01 3.229196426012188681e+01 3.201335127499203281e+01 3.911954582831234006e+01 6.809463244350710909e+01 -1.828510280183899965e+02 1.483348201153853836e+02 8.389726298090263867e+01 -7.723845569083786167e+00 -8.327718282477462708e+01 1.153853898935355460e+02 6.399192940249474049e+01 -2.072166292625510948e+02 -5.194262798704789219e+01 -8.417230958011528230e+01 -5.346715649594303699e+01 -6.387398895123809694e+01 -1.021462362979734451e+02 -6.224180990690988580e+01 1.973547356368776207e+02 -1.760870472179368562e+02 6.752052899896973770e+01 2.859444439010612271e+01 -7.748636574538680577e+01 1.068989591201887812e+01 -4.061589702818397285e+01 3.523448900254688265e+00 -9.908712797376107062e+01 -2.036495287037747062e+02 1.896108848175800432e+01 4.322963455535033717e+01 -1.319966591209250772e+01 -9.352266744724973435e+00 -4.101866759666012285e+01 -1.958625616195010366e+02 -3.162072569809519962e+01 -6.741275165696389138e+01 1.443124746998408803e+01 -1.609088406537632565e+01 9.333672993234364412e+01 -6.499813832398555746e+01 -1.069546720726471705e+02 -3.690367354456683557e+01 -9.327080176519388033e+00 4.698915835434487320e+01 -2.285740829468154089e+01 -7.598084535229844505e+01 -1.636362409097921145e+01 2.071739519394979467e+01 4.899713070868831011e+01 -1.176278506721880746e+02 -1.434259925628361714e+02 2.375982954937678642e+02 -2.251536670619280187e+02 -7.837849697643173386e+01 -4.783273639547090994e+01 1.443046333579999327e+02 6.529390741384011676e+01 2.360685668261915566e+02 2.525017432822185128e+02 -6.428993410983130730e+01 1.336119465528910553e+02 -5.766555477474847180e+01 -4.209729242601350307e+01 -1.038788084983909954e+02 -8.238867826572364095e+01 -7.181364155654350157e+01 -9.180241133786883267e+01 -2.515274943581761704e+02 -2.795320463853009301e+02 1.390081104765329201e+02 -2.736253314198013342e+01 5.495809092530527096e+01 1.349982401865000838e+02
