# 
#                 ----------------------------------------------------
#                 Data from a 3D direct N-body simulation. 
# 
#                 rows are i-particle; 
#                 coumns are :mass, tag, x ,y, z, vx, vy, vz, ax, ay, az
# 
#                 NTHU, Computational Physics Lab
# 
#                 ----------------------------------------------------
#                 Time = 5.599999999999925
1.000000000000000000e+00 2.000000000000000000e+00 3.000000000000000000e+00 4.000000000000000000e+00 5.000000000000000000e+00 6.000000000000000000e+00 7.000000000000000000e+00 8.000000000000000000e+00 9.000000000000000000e+00 1.000000000000000000e+01 1.100000000000000000e+01 1.200000000000000000e+01 1.300000000000000000e+01 1.400000000000000000e+01 1.500000000000000000e+01 1.600000000000000000e+01 1.700000000000000000e+01 1.800000000000000000e+01 1.900000000000000000e+01 2.000000000000000000e+01 2.100000000000000000e+01 2.200000000000000000e+01 2.300000000000000000e+01 2.400000000000000000e+01 2.500000000000000000e+01 2.600000000000000000e+01 2.700000000000000000e+01 2.800000000000000000e+01 2.900000000000000000e+01 3.000000000000000000e+01 3.100000000000000000e+01 3.200000000000000000e+01 3.300000000000000000e+01 3.400000000000000000e+01 3.500000000000000000e+01 3.600000000000000000e+01 3.700000000000000000e+01 3.800000000000000000e+01 3.900000000000000000e+01 4.000000000000000000e+01 4.100000000000000000e+01 4.200000000000000000e+01 4.300000000000000000e+01 4.400000000000000000e+01 4.500000000000000000e+01 4.600000000000000000e+01 4.700000000000000000e+01 4.800000000000000000e+01 4.900000000000000000e+01 5.000000000000000000e+01 5.100000000000000000e+01 5.200000000000000000e+01 5.300000000000000000e+01 5.400000000000000000e+01 5.500000000000000000e+01 5.600000000000000000e+01 5.700000000000000000e+01 5.800000000000000000e+01 5.900000000000000000e+01 6.000000000000000000e+01 6.100000000000000000e+01 6.200000000000000000e+01 6.300000000000000000e+01 6.400000000000000000e+01 6.500000000000000000e+01 6.600000000000000000e+01 6.700000000000000000e+01 6.800000000000000000e+01 6.900000000000000000e+01 7.000000000000000000e+01 7.100000000000000000e+01 7.200000000000000000e+01 7.300000000000000000e+01 7.400000000000000000e+01 7.500000000000000000e+01 7.600000000000000000e+01 7.700000000000000000e+01 7.800000000000000000e+01 7.900000000000000000e+01 8.000000000000000000e+01 8.100000000000000000e+01 8.200000000000000000e+01 8.300000000000000000e+01 8.400000000000000000e+01 8.500000000000000000e+01 8.600000000000000000e+01 8.700000000000000000e+01 8.800000000000000000e+01 8.900000000000000000e+01 9.000000000000000000e+01 9.100000000000000000e+01 9.200000000000000000e+01 9.300000000000000000e+01 9.400000000000000000e+01 9.500000000000000000e+01 9.600000000000000000e+01 9.700000000000000000e+01 9.800000000000000000e+01 9.900000000000000000e+01 1.000000000000000000e+02 1.010000000000000000e+02 1.020000000000000000e+02 1.030000000000000000e+02 1.040000000000000000e+02 1.050000000000000000e+02 1.060000000000000000e+02 1.070000000000000000e+02 1.080000000000000000e+02 1.090000000000000000e+02 1.100000000000000000e+02 1.110000000000000000e+02 1.120000000000000000e+02 1.130000000000000000e+02 1.140000000000000000e+02 1.150000000000000000e+02 1.160000000000000000e+02 1.170000000000000000e+02 1.180000000000000000e+02 1.190000000000000000e+02 1.200000000000000000e+02 1.210000000000000000e+02 1.220000000000000000e+02 1.230000000000000000e+02 1.240000000000000000e+02 1.250000000000000000e+02 1.260000000000000000e+02 1.270000000000000000e+02 1.280000000000000000e+02 1.290000000000000000e+02 1.300000000000000000e+02 1.310000000000000000e+02 1.320000000000000000e+02 1.330000000000000000e+02 1.340000000000000000e+02 1.350000000000000000e+02 1.360000000000000000e+02 1.370000000000000000e+02 1.380000000000000000e+02 1.390000000000000000e+02 1.400000000000000000e+02 1.410000000000000000e+02 1.420000000000000000e+02 1.430000000000000000e+02 1.440000000000000000e+02 1.450000000000000000e+02 1.460000000000000000e+02 1.470000000000000000e+02 1.480000000000000000e+02 1.490000000000000000e+02 1.500000000000000000e+02 1.510000000000000000e+02 1.520000000000000000e+02 1.530000000000000000e+02 1.540000000000000000e+02 1.550000000000000000e+02 1.560000000000000000e+02 1.570000000000000000e+02 1.580000000000000000e+02 1.590000000000000000e+02 1.600000000000000000e+02 1.610000000000000000e+02 1.620000000000000000e+02 1.630000000000000000e+02 1.640000000000000000e+02 1.650000000000000000e+02 1.660000000000000000e+02 1.670000000000000000e+02 1.680000000000000000e+02 1.690000000000000000e+02 1.700000000000000000e+02 1.710000000000000000e+02 1.720000000000000000e+02 1.730000000000000000e+02 1.740000000000000000e+02 1.750000000000000000e+02 1.760000000000000000e+02 1.770000000000000000e+02 1.780000000000000000e+02 1.790000000000000000e+02 1.800000000000000000e+02 1.810000000000000000e+02 1.820000000000000000e+02 1.830000000000000000e+02 1.840000000000000000e+02 1.850000000000000000e+02 1.860000000000000000e+02 1.870000000000000000e+02 1.880000000000000000e+02 1.890000000000000000e+02 1.900000000000000000e+02 1.910000000000000000e+02 1.920000000000000000e+02 1.930000000000000000e+02 1.940000000000000000e+02 1.950000000000000000e+02 1.960000000000000000e+02 1.970000000000000000e+02 1.980000000000000000e+02 1.990000000000000000e+02 2.000000000000000000e+02 2.010000000000000000e+02 2.020000000000000000e+02 2.030000000000000000e+02 2.040000000000000000e+02 2.050000000000000000e+02 2.060000000000000000e+02 2.070000000000000000e+02 2.080000000000000000e+02 2.090000000000000000e+02 2.100000000000000000e+02 2.110000000000000000e+02 2.120000000000000000e+02 2.130000000000000000e+02 2.140000000000000000e+02 2.150000000000000000e+02 2.160000000000000000e+02 2.170000000000000000e+02 2.180000000000000000e+02 2.190000000000000000e+02 2.200000000000000000e+02 2.210000000000000000e+02 2.220000000000000000e+02 2.230000000000000000e+02 2.240000000000000000e+02 2.250000000000000000e+02 2.260000000000000000e+02 2.270000000000000000e+02 2.280000000000000000e+02 2.290000000000000000e+02 2.300000000000000000e+02 2.310000000000000000e+02 2.320000000000000000e+02 2.330000000000000000e+02 2.340000000000000000e+02 2.350000000000000000e+02 2.360000000000000000e+02 2.370000000000000000e+02 2.380000000000000000e+02 2.390000000000000000e+02 2.400000000000000000e+02 2.410000000000000000e+02 2.420000000000000000e+02 2.430000000000000000e+02 2.440000000000000000e+02 2.450000000000000000e+02 2.460000000000000000e+02 2.470000000000000000e+02 2.480000000000000000e+02 2.490000000000000000e+02 2.500000000000000000e+02 2.510000000000000000e+02 2.520000000000000000e+02 2.530000000000000000e+02 2.540000000000000000e+02 2.550000000000000000e+02 2.560000000000000000e+02 2.570000000000000000e+02 2.580000000000000000e+02 2.590000000000000000e+02 2.600000000000000000e+02 2.610000000000000000e+02 2.620000000000000000e+02 2.630000000000000000e+02 2.640000000000000000e+02 2.650000000000000000e+02 2.660000000000000000e+02 2.670000000000000000e+02 2.680000000000000000e+02 2.690000000000000000e+02 2.700000000000000000e+02 2.710000000000000000e+02 2.720000000000000000e+02 2.730000000000000000e+02 2.740000000000000000e+02 2.750000000000000000e+02 2.760000000000000000e+02 2.770000000000000000e+02 2.780000000000000000e+02 2.790000000000000000e+02 2.800000000000000000e+02 2.810000000000000000e+02 2.820000000000000000e+02 2.830000000000000000e+02 2.840000000000000000e+02 2.850000000000000000e+02 2.860000000000000000e+02 2.870000000000000000e+02 2.880000000000000000e+02 2.890000000000000000e+02 2.900000000000000000e+02 2.910000000000000000e+02 2.920000000000000000e+02 2.930000000000000000e+02 2.940000000000000000e+02 2.950000000000000000e+02 2.960000000000000000e+02 2.970000000000000000e+02 2.980000000000000000e+02 2.990000000000000000e+02 3.000000000000000000e+02 3.010000000000000000e+02 3.020000000000000000e+02 3.030000000000000000e+02 3.040000000000000000e+02 3.050000000000000000e+02 3.060000000000000000e+02 3.070000000000000000e+02 3.080000000000000000e+02 3.090000000000000000e+02 3.100000000000000000e+02 3.110000000000000000e+02 3.120000000000000000e+02 3.130000000000000000e+02 3.140000000000000000e+02 3.150000000000000000e+02 3.160000000000000000e+02 3.170000000000000000e+02 3.180000000000000000e+02 3.190000000000000000e+02 3.200000000000000000e+02 3.210000000000000000e+02 3.220000000000000000e+02 3.230000000000000000e+02 3.240000000000000000e+02 3.250000000000000000e+02 3.260000000000000000e+02 3.270000000000000000e+02 3.280000000000000000e+02 3.290000000000000000e+02 3.300000000000000000e+02 3.310000000000000000e+02 3.320000000000000000e+02 3.330000000000000000e+02 3.340000000000000000e+02 3.350000000000000000e+02 3.360000000000000000e+02 3.370000000000000000e+02 3.380000000000000000e+02 3.390000000000000000e+02 3.400000000000000000e+02 3.410000000000000000e+02 3.420000000000000000e+02 3.430000000000000000e+02 3.440000000000000000e+02 3.450000000000000000e+02 3.460000000000000000e+02 3.470000000000000000e+02 3.480000000000000000e+02 3.490000000000000000e+02 3.500000000000000000e+02 3.510000000000000000e+02 3.520000000000000000e+02 3.530000000000000000e+02 3.540000000000000000e+02 3.550000000000000000e+02 3.560000000000000000e+02 3.570000000000000000e+02 3.580000000000000000e+02 3.590000000000000000e+02 3.600000000000000000e+02 3.610000000000000000e+02 3.620000000000000000e+02 3.630000000000000000e+02 3.640000000000000000e+02 3.650000000000000000e+02 3.660000000000000000e+02 3.670000000000000000e+02 3.680000000000000000e+02 3.690000000000000000e+02 3.700000000000000000e+02 3.710000000000000000e+02 3.720000000000000000e+02 3.730000000000000000e+02 3.740000000000000000e+02 3.750000000000000000e+02 3.760000000000000000e+02 3.770000000000000000e+02 3.780000000000000000e+02 3.790000000000000000e+02 3.800000000000000000e+02 3.810000000000000000e+02 3.820000000000000000e+02 3.830000000000000000e+02 3.840000000000000000e+02 3.850000000000000000e+02 3.860000000000000000e+02 3.870000000000000000e+02 3.880000000000000000e+02 3.890000000000000000e+02 3.900000000000000000e+02 3.910000000000000000e+02 3.920000000000000000e+02 3.930000000000000000e+02 3.940000000000000000e+02 3.950000000000000000e+02 3.960000000000000000e+02 3.970000000000000000e+02 3.980000000000000000e+02 3.990000000000000000e+02 4.000000000000000000e+02 4.010000000000000000e+02 4.020000000000000000e+02 4.030000000000000000e+02 4.040000000000000000e+02 4.050000000000000000e+02 4.060000000000000000e+02 4.070000000000000000e+02 4.080000000000000000e+02 4.090000000000000000e+02 4.100000000000000000e+02 4.110000000000000000e+02 4.120000000000000000e+02 4.130000000000000000e+02 4.140000000000000000e+02 4.150000000000000000e+02 4.160000000000000000e+02 4.170000000000000000e+02 4.180000000000000000e+02 4.190000000000000000e+02 4.200000000000000000e+02 4.210000000000000000e+02 4.220000000000000000e+02 4.230000000000000000e+02 4.240000000000000000e+02 4.250000000000000000e+02 4.260000000000000000e+02 4.270000000000000000e+02 4.280000000000000000e+02 4.290000000000000000e+02 4.300000000000000000e+02 4.310000000000000000e+02 4.320000000000000000e+02 4.330000000000000000e+02 4.340000000000000000e+02 4.350000000000000000e+02 4.360000000000000000e+02 4.370000000000000000e+02 4.380000000000000000e+02 4.390000000000000000e+02 4.400000000000000000e+02 4.410000000000000000e+02 4.420000000000000000e+02 4.430000000000000000e+02 4.440000000000000000e+02 4.450000000000000000e+02 4.460000000000000000e+02 4.470000000000000000e+02 4.480000000000000000e+02 4.490000000000000000e+02 4.500000000000000000e+02 4.510000000000000000e+02 4.520000000000000000e+02 4.530000000000000000e+02 4.540000000000000000e+02 4.550000000000000000e+02 4.560000000000000000e+02 4.570000000000000000e+02 4.580000000000000000e+02 4.590000000000000000e+02 4.600000000000000000e+02 4.610000000000000000e+02 4.620000000000000000e+02 4.630000000000000000e+02 4.640000000000000000e+02 4.650000000000000000e+02 4.660000000000000000e+02 4.670000000000000000e+02 4.680000000000000000e+02 4.690000000000000000e+02 4.700000000000000000e+02 4.710000000000000000e+02 4.720000000000000000e+02 4.730000000000000000e+02 4.740000000000000000e+02 4.750000000000000000e+02 4.760000000000000000e+02 4.770000000000000000e+02 4.780000000000000000e+02 4.790000000000000000e+02 4.800000000000000000e+02 4.810000000000000000e+02 4.820000000000000000e+02 4.830000000000000000e+02 4.840000000000000000e+02 4.850000000000000000e+02 4.860000000000000000e+02 4.870000000000000000e+02 4.880000000000000000e+02 4.890000000000000000e+02 4.900000000000000000e+02 4.910000000000000000e+02 4.920000000000000000e+02 4.930000000000000000e+02 4.940000000000000000e+02 4.950000000000000000e+02 4.960000000000000000e+02 4.970000000000000000e+02 4.980000000000000000e+02 4.990000000000000000e+02 5.000000000000000000e+02 5.010000000000000000e+02 5.020000000000000000e+02 5.030000000000000000e+02 5.040000000000000000e+02 5.050000000000000000e+02 5.060000000000000000e+02 5.070000000000000000e+02 5.080000000000000000e+02 5.090000000000000000e+02 5.100000000000000000e+02 5.110000000000000000e+02 5.120000000000000000e+02 5.130000000000000000e+02 5.140000000000000000e+02 5.150000000000000000e+02 5.160000000000000000e+02 5.170000000000000000e+02 5.180000000000000000e+02 5.190000000000000000e+02 5.200000000000000000e+02 5.210000000000000000e+02 5.220000000000000000e+02 5.230000000000000000e+02 5.240000000000000000e+02 5.250000000000000000e+02 5.260000000000000000e+02 5.270000000000000000e+02 5.280000000000000000e+02 5.290000000000000000e+02 5.300000000000000000e+02 5.310000000000000000e+02 5.320000000000000000e+02 5.330000000000000000e+02 5.340000000000000000e+02 5.350000000000000000e+02 5.360000000000000000e+02 5.370000000000000000e+02 5.380000000000000000e+02 5.390000000000000000e+02 5.400000000000000000e+02 5.410000000000000000e+02 5.420000000000000000e+02 5.430000000000000000e+02 5.440000000000000000e+02 5.450000000000000000e+02 5.460000000000000000e+02 5.470000000000000000e+02 5.480000000000000000e+02 5.490000000000000000e+02 5.500000000000000000e+02 5.510000000000000000e+02 5.520000000000000000e+02 5.530000000000000000e+02 5.540000000000000000e+02 5.550000000000000000e+02 5.560000000000000000e+02 5.570000000000000000e+02 5.580000000000000000e+02 5.590000000000000000e+02 5.600000000000000000e+02 5.610000000000000000e+02 5.620000000000000000e+02 5.630000000000000000e+02 5.640000000000000000e+02 5.650000000000000000e+02 5.660000000000000000e+02 5.670000000000000000e+02 5.680000000000000000e+02 5.690000000000000000e+02 5.700000000000000000e+02 5.710000000000000000e+02 5.720000000000000000e+02 5.730000000000000000e+02 5.740000000000000000e+02 5.750000000000000000e+02 5.760000000000000000e+02 5.770000000000000000e+02 5.780000000000000000e+02 5.790000000000000000e+02 5.800000000000000000e+02 5.810000000000000000e+02 5.820000000000000000e+02 5.830000000000000000e+02 5.840000000000000000e+02 5.850000000000000000e+02 5.860000000000000000e+02 5.870000000000000000e+02 5.880000000000000000e+02 5.890000000000000000e+02 5.900000000000000000e+02 5.910000000000000000e+02 5.920000000000000000e+02 5.930000000000000000e+02 5.940000000000000000e+02 5.950000000000000000e+02 5.960000000000000000e+02 5.970000000000000000e+02 5.980000000000000000e+02 5.990000000000000000e+02 6.000000000000000000e+02 6.010000000000000000e+02 6.020000000000000000e+02 6.030000000000000000e+02 6.040000000000000000e+02 6.050000000000000000e+02 6.060000000000000000e+02 6.070000000000000000e+02 6.080000000000000000e+02 6.090000000000000000e+02 6.100000000000000000e+02 6.110000000000000000e+02 6.120000000000000000e+02 6.130000000000000000e+02 6.140000000000000000e+02 6.150000000000000000e+02 6.160000000000000000e+02 6.170000000000000000e+02 6.180000000000000000e+02 6.190000000000000000e+02 6.200000000000000000e+02 6.210000000000000000e+02 6.220000000000000000e+02 6.230000000000000000e+02 6.240000000000000000e+02 6.250000000000000000e+02 6.260000000000000000e+02 6.270000000000000000e+02 6.280000000000000000e+02 6.290000000000000000e+02 6.300000000000000000e+02 6.310000000000000000e+02 6.320000000000000000e+02 6.330000000000000000e+02 6.340000000000000000e+02 6.350000000000000000e+02 6.360000000000000000e+02 6.370000000000000000e+02 6.380000000000000000e+02 6.390000000000000000e+02 6.400000000000000000e+02 6.410000000000000000e+02 6.420000000000000000e+02 6.430000000000000000e+02 6.440000000000000000e+02 6.450000000000000000e+02 6.460000000000000000e+02 6.470000000000000000e+02 6.480000000000000000e+02 6.490000000000000000e+02 6.500000000000000000e+02 6.510000000000000000e+02 6.520000000000000000e+02 6.530000000000000000e+02 6.540000000000000000e+02 6.550000000000000000e+02 6.560000000000000000e+02 6.570000000000000000e+02 6.580000000000000000e+02 6.590000000000000000e+02 6.600000000000000000e+02 6.610000000000000000e+02 6.620000000000000000e+02 6.630000000000000000e+02 6.640000000000000000e+02 6.650000000000000000e+02 6.660000000000000000e+02 6.670000000000000000e+02 6.680000000000000000e+02 6.690000000000000000e+02 6.700000000000000000e+02 6.710000000000000000e+02 6.720000000000000000e+02 6.730000000000000000e+02 6.740000000000000000e+02 6.750000000000000000e+02 6.760000000000000000e+02 6.770000000000000000e+02 6.780000000000000000e+02 6.790000000000000000e+02 6.800000000000000000e+02 6.810000000000000000e+02 6.820000000000000000e+02 6.830000000000000000e+02 6.840000000000000000e+02 6.850000000000000000e+02 6.860000000000000000e+02 6.870000000000000000e+02 6.880000000000000000e+02 6.890000000000000000e+02 6.900000000000000000e+02 6.910000000000000000e+02 6.920000000000000000e+02 6.930000000000000000e+02 6.940000000000000000e+02 6.950000000000000000e+02 6.960000000000000000e+02 6.970000000000000000e+02 6.980000000000000000e+02 6.990000000000000000e+02 7.000000000000000000e+02 7.010000000000000000e+02 7.020000000000000000e+02 7.030000000000000000e+02 7.040000000000000000e+02 7.050000000000000000e+02 7.060000000000000000e+02 7.070000000000000000e+02 7.080000000000000000e+02 7.090000000000000000e+02 7.100000000000000000e+02 7.110000000000000000e+02 7.120000000000000000e+02 7.130000000000000000e+02 7.140000000000000000e+02 7.150000000000000000e+02 7.160000000000000000e+02 7.170000000000000000e+02 7.180000000000000000e+02 7.190000000000000000e+02 7.200000000000000000e+02 7.210000000000000000e+02 7.220000000000000000e+02 7.230000000000000000e+02 7.240000000000000000e+02 7.250000000000000000e+02 7.260000000000000000e+02 7.270000000000000000e+02 7.280000000000000000e+02 7.290000000000000000e+02 7.300000000000000000e+02 7.310000000000000000e+02 7.320000000000000000e+02 7.330000000000000000e+02 7.340000000000000000e+02 7.350000000000000000e+02 7.360000000000000000e+02 7.370000000000000000e+02 7.380000000000000000e+02 7.390000000000000000e+02 7.400000000000000000e+02 7.410000000000000000e+02 7.420000000000000000e+02 7.430000000000000000e+02 7.440000000000000000e+02 7.450000000000000000e+02 7.460000000000000000e+02 7.470000000000000000e+02 7.480000000000000000e+02 7.490000000000000000e+02 7.500000000000000000e+02 7.510000000000000000e+02 7.520000000000000000e+02 7.530000000000000000e+02 7.540000000000000000e+02 7.550000000000000000e+02 7.560000000000000000e+02 7.570000000000000000e+02 7.580000000000000000e+02 7.590000000000000000e+02 7.600000000000000000e+02 7.610000000000000000e+02 7.620000000000000000e+02 7.630000000000000000e+02 7.640000000000000000e+02 7.650000000000000000e+02 7.660000000000000000e+02 7.670000000000000000e+02 7.680000000000000000e+02 7.690000000000000000e+02 7.700000000000000000e+02 7.710000000000000000e+02 7.720000000000000000e+02 7.730000000000000000e+02 7.740000000000000000e+02 7.750000000000000000e+02 7.760000000000000000e+02 7.770000000000000000e+02 7.780000000000000000e+02 7.790000000000000000e+02 7.800000000000000000e+02 7.810000000000000000e+02 7.820000000000000000e+02 7.830000000000000000e+02 7.840000000000000000e+02 7.850000000000000000e+02 7.860000000000000000e+02 7.870000000000000000e+02 7.880000000000000000e+02 7.890000000000000000e+02 7.900000000000000000e+02 7.910000000000000000e+02 7.920000000000000000e+02 7.930000000000000000e+02 7.940000000000000000e+02 7.950000000000000000e+02 7.960000000000000000e+02 7.970000000000000000e+02 7.980000000000000000e+02 7.990000000000000000e+02 8.000000000000000000e+02 8.010000000000000000e+02 8.020000000000000000e+02 8.030000000000000000e+02 8.040000000000000000e+02 8.050000000000000000e+02 8.060000000000000000e+02 8.070000000000000000e+02 8.080000000000000000e+02 8.090000000000000000e+02 8.100000000000000000e+02 8.110000000000000000e+02 8.120000000000000000e+02 8.130000000000000000e+02 8.140000000000000000e+02 8.150000000000000000e+02 8.160000000000000000e+02 8.170000000000000000e+02 8.180000000000000000e+02 8.190000000000000000e+02 8.200000000000000000e+02 8.210000000000000000e+02 8.220000000000000000e+02 8.230000000000000000e+02 8.240000000000000000e+02 8.250000000000000000e+02 8.260000000000000000e+02 8.270000000000000000e+02 8.280000000000000000e+02 8.290000000000000000e+02 8.300000000000000000e+02 8.310000000000000000e+02 8.320000000000000000e+02 8.330000000000000000e+02 8.340000000000000000e+02 8.350000000000000000e+02 8.360000000000000000e+02 8.370000000000000000e+02 8.380000000000000000e+02 8.390000000000000000e+02 8.400000000000000000e+02 8.410000000000000000e+02 8.420000000000000000e+02 8.430000000000000000e+02 8.440000000000000000e+02 8.450000000000000000e+02 8.460000000000000000e+02 8.470000000000000000e+02 8.480000000000000000e+02 8.490000000000000000e+02 8.500000000000000000e+02 8.510000000000000000e+02 8.520000000000000000e+02 8.530000000000000000e+02 8.540000000000000000e+02 8.550000000000000000e+02 8.560000000000000000e+02 8.570000000000000000e+02 8.580000000000000000e+02 8.590000000000000000e+02 8.600000000000000000e+02 8.610000000000000000e+02 8.620000000000000000e+02 8.630000000000000000e+02 8.640000000000000000e+02 8.650000000000000000e+02 8.660000000000000000e+02 8.670000000000000000e+02 8.680000000000000000e+02 8.690000000000000000e+02 8.700000000000000000e+02 8.710000000000000000e+02 8.720000000000000000e+02 8.730000000000000000e+02 8.740000000000000000e+02 8.750000000000000000e+02 8.760000000000000000e+02 8.770000000000000000e+02 8.780000000000000000e+02 8.790000000000000000e+02 8.800000000000000000e+02 8.810000000000000000e+02 8.820000000000000000e+02 8.830000000000000000e+02 8.840000000000000000e+02 8.850000000000000000e+02 8.860000000000000000e+02 8.870000000000000000e+02 8.880000000000000000e+02 8.890000000000000000e+02 8.900000000000000000e+02 8.910000000000000000e+02 8.920000000000000000e+02 8.930000000000000000e+02 8.940000000000000000e+02 8.950000000000000000e+02 8.960000000000000000e+02 8.970000000000000000e+02 8.980000000000000000e+02 8.990000000000000000e+02 9.000000000000000000e+02 9.010000000000000000e+02 9.020000000000000000e+02 9.030000000000000000e+02 9.040000000000000000e+02 9.050000000000000000e+02 9.060000000000000000e+02 9.070000000000000000e+02 9.080000000000000000e+02 9.090000000000000000e+02 9.100000000000000000e+02 9.110000000000000000e+02 9.120000000000000000e+02 9.130000000000000000e+02 9.140000000000000000e+02 9.150000000000000000e+02 9.160000000000000000e+02 9.170000000000000000e+02 9.180000000000000000e+02 9.190000000000000000e+02 9.200000000000000000e+02 9.210000000000000000e+02 9.220000000000000000e+02 9.230000000000000000e+02 9.240000000000000000e+02 9.250000000000000000e+02 9.260000000000000000e+02 9.270000000000000000e+02 9.280000000000000000e+02 9.290000000000000000e+02 9.300000000000000000e+02 9.310000000000000000e+02 9.320000000000000000e+02 9.330000000000000000e+02 9.340000000000000000e+02 9.350000000000000000e+02 9.360000000000000000e+02 9.370000000000000000e+02 9.380000000000000000e+02 9.390000000000000000e+02 9.400000000000000000e+02 9.410000000000000000e+02 9.420000000000000000e+02 9.430000000000000000e+02 9.440000000000000000e+02 9.450000000000000000e+02 9.460000000000000000e+02 9.470000000000000000e+02 9.480000000000000000e+02 9.490000000000000000e+02 9.500000000000000000e+02 9.510000000000000000e+02 9.520000000000000000e+02 9.530000000000000000e+02 9.540000000000000000e+02 9.550000000000000000e+02 9.560000000000000000e+02 9.570000000000000000e+02 9.580000000000000000e+02 9.590000000000000000e+02 9.600000000000000000e+02 9.610000000000000000e+02 9.620000000000000000e+02 9.630000000000000000e+02 9.640000000000000000e+02 9.650000000000000000e+02 9.660000000000000000e+02 9.670000000000000000e+02 9.680000000000000000e+02 9.690000000000000000e+02 9.700000000000000000e+02 9.710000000000000000e+02 9.720000000000000000e+02 9.730000000000000000e+02 9.740000000000000000e+02 9.750000000000000000e+02 9.760000000000000000e+02 9.770000000000000000e+02 9.780000000000000000e+02 9.790000000000000000e+02 9.800000000000000000e+02 9.810000000000000000e+02 9.820000000000000000e+02 9.830000000000000000e+02 9.840000000000000000e+02 9.850000000000000000e+02 9.860000000000000000e+02 9.870000000000000000e+02 9.880000000000000000e+02 9.890000000000000000e+02 9.900000000000000000e+02 9.910000000000000000e+02 9.920000000000000000e+02 9.930000000000000000e+02 9.940000000000000000e+02 9.950000000000000000e+02 9.960000000000000000e+02 9.970000000000000000e+02 9.980000000000000000e+02 9.990000000000000000e+02 1.000000000000000000e+03
1.000000000000000021e-02 1.000000000000000021e-02 1.000000000000000021e-02 1.000000000000000021e-02 1.000000000000000021e-02 1.000000000000000021e-02 1.000000000000000021e-02 1.000000000000000021e-02 1.000000000000000021e-02 1.000000000000000021e-02 1.000000000000000021e-02 1.000000000000000021e-02 1.000000000000000021e-02 1.000000000000000021e-02 1.000000000000000021e-02 1.000000000000000021e-02 1.000000000000000021e-02 1.000000000000000021e-02 1.000000000000000021e-02 1.000000000000000021e-02 1.000000000000000021e-02 1.000000000000000021e-02 1.000000000000000021e-02 1.000000000000000021e-02 1.000000000000000021e-02 1.000000000000000021e-02 1.000000000000000021e-02 1.000000000000000021e-02 1.000000000000000021e-02 1.000000000000000021e-02 1.000000000000000021e-02 1.000000000000000021e-02 1.000000000000000021e-02 1.000000000000000021e-02 1.000000000000000021e-02 1.000000000000000021e-02 1.000000000000000021e-02 1.000000000000000021e-02 1.000000000000000021e-02 1.000000000000000021e-02 1.000000000000000021e-02 1.000000000000000021e-02 1.000000000000000021e-02 1.000000000000000021e-02 1.000000000000000021e-02 1.000000000000000021e-02 1.000000000000000021e-02 1.000000000000000021e-02 1.000000000000000021e-02 1.000000000000000021e-02 1.000000000000000021e-02 1.000000000000000021e-02 1.000000000000000021e-02 1.000000000000000021e-02 1.000000000000000021e-02 1.000000000000000021e-02 1.000000000000000021e-02 1.000000000000000021e-02 1.000000000000000021e-02 1.000000000000000021e-02 1.000000000000000021e-02 1.000000000000000021e-02 1.000000000000000021e-02 1.000000000000000021e-02 1.000000000000000021e-02 1.000000000000000021e-02 1.000000000000000021e-02 1.000000000000000021e-02 1.000000000000000021e-02 1.000000000000000021e-02 1.000000000000000021e-02 1.000000000000000021e-02 1.000000000000000021e-02 1.000000000000000021e-02 1.000000000000000021e-02 1.000000000000000021e-02 1.000000000000000021e-02 1.000000000000000021e-02 1.000000000000000021e-02 1.000000000000000021e-02 1.000000000000000021e-02 1.000000000000000021e-02 1.000000000000000021e-02 1.000000000000000021e-02 1.000000000000000021e-02 1.000000000000000021e-02 1.000000000000000021e-02 1.000000000000000021e-02 1.000000000000000021e-02 1.000000000000000021e-02 1.000000000000000021e-02 1.000000000000000021e-02 1.000000000000000021e-02 1.000000000000000021e-02 1.000000000000000021e-02 1.000000000000000021e-02 1.000000000000000021e-02 1.000000000000000021e-02 1.000000000000000021e-02 1.000000000000000021e-02 1.000000000000000021e-02 1.000000000000000021e-02 1.000000000000000021e-02 1.000000000000000021e-02 1.000000000000000021e-02 1.000000000000000021e-02 1.000000000000000021e-02 1.000000000000000021e-02 1.000000000000000021e-02 1.000000000000000021e-02 1.000000000000000021e-02 1.000000000000000021e-02 1.000000000000000021e-02 1.000000000000000021e-02 1.000000000000000021e-02 1.000000000000000021e-02 1.000000000000000021e-02 1.000000000000000021e-02 1.000000000000000021e-02 1.000000000000000021e-02 1.000000000000000021e-02 1.000000000000000021e-02 1.000000000000000021e-02 1.000000000000000021e-02 1.000000000000000021e-02 1.000000000000000021e-02 1.000000000000000021e-02 1.000000000000000021e-02 1.000000000000000021e-02 1.000000000000000021e-02 1.000000000000000021e-02 1.000000000000000021e-02 1.000000000000000021e-02 1.000000000000000021e-02 1.000000000000000021e-02 1.000000000000000021e-02 1.000000000000000021e-02 1.000000000000000021e-02 1.000000000000000021e-02 1.000000000000000021e-02 1.000000000000000021e-02 1.000000000000000021e-02 1.000000000000000021e-02 1.000000000000000021e-02 1.000000000000000021e-02 1.000000000000000021e-02 1.000000000000000021e-02 1.000000000000000021e-02 1.000000000000000021e-02 1.000000000000000021e-02 1.000000000000000021e-02 1.000000000000000021e-02 1.000000000000000021e-02 1.000000000000000021e-02 1.000000000000000021e-02 1.000000000000000021e-02 1.000000000000000021e-02 1.000000000000000021e-02 1.000000000000000021e-02 1.000000000000000021e-02 1.000000000000000021e-02 1.000000000000000021e-02 1.000000000000000021e-02 1.000000000000000021e-02 1.000000000000000021e-02 1.000000000000000021e-02 1.000000000000000021e-02 1.000000000000000021e-02 1.000000000000000021e-02 1.000000000000000021e-02 1.000000000000000021e-02 1.000000000000000021e-02 1.000000000000000021e-02 1.000000000000000021e-02 1.000000000000000021e-02 1.000000000000000021e-02 1.000000000000000021e-02 1.000000000000000021e-02 1.000000000000000021e-02 1.000000000000000021e-02 1.000000000000000021e-02 1.000000000000000021e-02 1.000000000000000021e-02 1.000000000000000021e-02 1.000000000000000021e-02 1.000000000000000021e-02 1.000000000000000021e-02 1.000000000000000021e-02 1.000000000000000021e-02 1.000000000000000021e-02 1.000000000000000021e-02 1.000000000000000021e-02 1.000000000000000021e-02 1.000000000000000021e-02 1.000000000000000021e-02 1.000000000000000021e-02 1.000000000000000021e-02 1.000000000000000021e-02 1.000000000000000021e-02 1.000000000000000021e-02 1.000000000000000021e-02 1.000000000000000021e-02 1.000000000000000021e-02 1.000000000000000021e-02 1.000000000000000021e-02 1.000000000000000021e-02 1.000000000000000021e-02 1.000000000000000021e-02 1.000000000000000021e-02 1.000000000000000021e-02 1.000000000000000021e-02 1.000000000000000021e-02 1.000000000000000021e-02 1.000000000000000021e-02 1.000000000000000021e-02 1.000000000000000021e-02 1.000000000000000021e-02 1.000000000000000021e-02 1.000000000000000021e-02 1.000000000000000021e-02 1.000000000000000021e-02 1.000000000000000021e-02 1.000000000000000021e-02 1.000000000000000021e-02 1.000000000000000021e-02 1.000000000000000021e-02 1.000000000000000021e-02 1.000000000000000021e-02 1.000000000000000021e-02 1.000000000000000021e-02 1.000000000000000021e-02 1.000000000000000021e-02 1.000000000000000021e-02 1.000000000000000021e-02 1.000000000000000021e-02 1.000000000000000021e-02 1.000000000000000021e-02 1.000000000000000021e-02 1.000000000000000021e-02 1.000000000000000021e-02 1.000000000000000021e-02 1.000000000000000021e-02 1.000000000000000021e-02 1.000000000000000021e-02 1.000000000000000021e-02 1.000000000000000021e-02 1.000000000000000021e-02 1.000000000000000021e-02 1.000000000000000021e-02 1.000000000000000021e-02 1.000000000000000021e-02 1.000000000000000021e-02 1.000000000000000021e-02 1.000000000000000021e-02 1.000000000000000021e-02 1.000000000000000021e-02 1.000000000000000021e-02 1.000000000000000021e-02 1.000000000000000021e-02 1.000000000000000021e-02 1.000000000000000021e-02 1.000000000000000021e-02 1.000000000000000021e-02 1.000000000000000021e-02 1.000000000000000021e-02 1.000000000000000021e-02 1.000000000000000021e-02 1.000000000000000021e-02 1.000000000000000021e-02 1.000000000000000021e-02 1.000000000000000021e-02 1.000000000000000021e-02 1.000000000000000021e-02 1.000000000000000021e-02 1.000000000000000021e-02 1.000000000000000021e-02 1.000000000000000021e-02 1.000000000000000021e-02 1.000000000000000021e-02 1.000000000000000021e-02 1.000000000000000021e-02 1.000000000000000021e-02 1.000000000000000021e-02 1.000000000000000021e-02 1.000000000000000021e-02 1.000000000000000021e-02 1.000000000000000021e-02 1.000000000000000021e-02 1.000000000000000021e-02 1.000000000000000021e-02 1.000000000000000021e-02 1.000000000000000021e-02 1.000000000000000021e-02 1.000000000000000021e-02 1.000000000000000021e-02 1.000000000000000021e-02 1.000000000000000021e-02 1.000000000000000021e-02 1.000000000000000021e-02 1.000000000000000021e-02 1.000000000000000021e-02 1.000000000000000021e-02 1.000000000000000021e-02 1.000000000000000021e-02 1.000000000000000021e-02 1.000000000000000021e-02 1.000000000000000021e-02 1.000000000000000021e-02 1.000000000000000021e-02 1.000000000000000021e-02 1.000000000000000021e-02 1.000000000000000021e-02 1.000000000000000021e-02 1.000000000000000021e-02 1.000000000000000021e-02 1.000000000000000021e-02 1.000000000000000021e-02 1.000000000000000021e-02 1.000000000000000021e-02 1.000000000000000021e-02 1.000000000000000021e-02 1.000000000000000021e-02 1.000000000000000021e-02 1.000000000000000021e-02 1.000000000000000021e-02 1.000000000000000021e-02 1.000000000000000021e-02 1.000000000000000021e-02 1.000000000000000021e-02 1.000000000000000021e-02 1.000000000000000021e-02 1.000000000000000021e-02 1.000000000000000021e-02 1.000000000000000021e-02 1.000000000000000021e-02 1.000000000000000021e-02 1.000000000000000021e-02 1.000000000000000021e-02 1.000000000000000021e-02 1.000000000000000021e-02 1.000000000000000021e-02 1.000000000000000021e-02 1.000000000000000021e-02 1.000000000000000021e-02 1.000000000000000021e-02 1.000000000000000021e-02 1.000000000000000021e-02 1.000000000000000021e-02 1.000000000000000021e-02 1.000000000000000021e-02 1.000000000000000021e-02 1.000000000000000021e-02 1.000000000000000021e-02 1.000000000000000021e-02 1.000000000000000021e-02 1.000000000000000021e-02 1.000000000000000021e-02 1.000000000000000021e-02 1.000000000000000021e-02 1.000000000000000021e-02 1.000000000000000021e-02 1.000000000000000021e-02 1.000000000000000021e-02 1.000000000000000021e-02 1.000000000000000021e-02 1.000000000000000021e-02 1.000000000000000021e-02 1.000000000000000021e-02 1.000000000000000021e-02 1.000000000000000021e-02 1.000000000000000021e-02 1.000000000000000021e-02 1.000000000000000021e-02 1.000000000000000021e-02 1.000000000000000021e-02 1.000000000000000021e-02 1.000000000000000021e-02 1.000000000000000021e-02 1.000000000000000021e-02 1.000000000000000021e-02 1.000000000000000021e-02 1.000000000000000021e-02 1.000000000000000021e-02 1.000000000000000021e-02 1.000000000000000021e-02 1.000000000000000021e-02 1.000000000000000021e-02 1.000000000000000021e-02 1.000000000000000021e-02 1.000000000000000021e-02 1.000000000000000021e-02 1.000000000000000021e-02 1.000000000000000021e-02 1.000000000000000021e-02 1.000000000000000021e-02 1.000000000000000021e-02 1.000000000000000021e-02 1.000000000000000021e-02 1.000000000000000021e-02 1.000000000000000021e-02 1.000000000000000021e-02 1.000000000000000021e-02 1.000000000000000021e-02 1.000000000000000021e-02 1.000000000000000021e-02 1.000000000000000021e-02 1.000000000000000021e-02 1.000000000000000021e-02 1.000000000000000021e-02 1.000000000000000021e-02 1.000000000000000021e-02 1.000000000000000021e-02 1.000000000000000021e-02 1.000000000000000021e-02 1.000000000000000021e-02 1.000000000000000021e-02 1.000000000000000021e-02 1.000000000000000021e-02 1.000000000000000021e-02 1.000000000000000021e-02 1.000000000000000021e-02 1.000000000000000021e-02 1.000000000000000021e-02 1.000000000000000021e-02 1.000000000000000021e-02 1.000000000000000021e-02 1.000000000000000021e-02 1.000000000000000021e-02 1.000000000000000021e-02 1.000000000000000021e-02 1.000000000000000021e-02 1.000000000000000021e-02 1.000000000000000021e-02 1.000000000000000021e-02 1.000000000000000021e-02 1.000000000000000021e-02 1.000000000000000021e-02 1.000000000000000021e-02 1.000000000000000021e-02 1.000000000000000021e-02 1.000000000000000021e-02 1.000000000000000021e-02 1.000000000000000021e-02 1.000000000000000021e-02 1.000000000000000021e-02 1.000000000000000021e-02 1.000000000000000021e-02 1.000000000000000021e-02 1.000000000000000021e-02 1.000000000000000021e-02 1.000000000000000021e-02 1.000000000000000021e-02 1.000000000000000021e-02 1.000000000000000021e-02 1.000000000000000021e-02 1.000000000000000021e-02 1.000000000000000021e-02 1.000000000000000021e-02 1.000000000000000021e-02 1.000000000000000021e-02 1.000000000000000021e-02 1.000000000000000021e-02 1.000000000000000021e-02 1.000000000000000021e-02 1.000000000000000021e-02 1.000000000000000021e-02 1.000000000000000021e-02 1.000000000000000021e-02 1.000000000000000021e-02 1.000000000000000021e-02 1.000000000000000021e-02 1.000000000000000021e-02 1.000000000000000021e-02 1.000000000000000021e-02 1.000000000000000021e-02 1.000000000000000021e-02 1.000000000000000021e-02 1.000000000000000021e-02 1.000000000000000021e-02 1.000000000000000021e-02 1.000000000000000021e-02 1.000000000000000021e-02 1.000000000000000021e-02 1.000000000000000021e-02 1.000000000000000021e-02 1.000000000000000021e-02 1.000000000000000021e-02 1.000000000000000021e-02 1.000000000000000021e-02 1.000000000000000021e-02 1.000000000000000021e-02 1.000000000000000021e-02 1.000000000000000021e-02 1.000000000000000021e-02 1.000000000000000021e-02 1.000000000000000021e-02 1.000000000000000021e-02 1.000000000000000021e-02 1.000000000000000021e-02 1.000000000000000021e-02 1.000000000000000021e-02 1.000000000000000021e-02 1.000000000000000021e-02 1.000000000000000021e-02 1.000000000000000021e-02 1.000000000000000021e-02 1.000000000000000021e-02 1.000000000000000021e-02 1.000000000000000021e-02 1.000000000000000021e-02 1.000000000000000021e-02 1.000000000000000021e-02 1.000000000000000021e-02 1.000000000000000021e-02 1.000000000000000021e-02 1.000000000000000021e-02 1.000000000000000021e-02 1.000000000000000021e-02 1.000000000000000021e-02 1.000000000000000021e-02 1.000000000000000021e-02 1.000000000000000021e-02 1.000000000000000021e-02 1.000000000000000021e-02 1.000000000000000021e-02 1.000000000000000021e-02 1.000000000000000021e-02 1.000000000000000021e-02 1.000000000000000021e-02 1.000000000000000021e-02 1.000000000000000021e-02 1.000000000000000021e-02 1.000000000000000021e-02 1.000000000000000021e-02 1.000000000000000021e-02 1.000000000000000021e-02 1.000000000000000021e-02 1.000000000000000021e-02 1.000000000000000021e-02 1.000000000000000021e-02 1.000000000000000021e-02 1.000000000000000021e-02 1.000000000000000021e-02 1.000000000000000021e-02 1.000000000000000021e-02 1.000000000000000021e-02 1.000000000000000021e-02 1.000000000000000021e-02 1.000000000000000021e-02 1.000000000000000021e-02 1.000000000000000021e-02 1.000000000000000021e-02 1.000000000000000021e-02 1.000000000000000021e-02 1.000000000000000021e-02 1.000000000000000021e-02 1.000000000000000021e-02 1.000000000000000021e-02 1.000000000000000021e-02 1.000000000000000021e-02 1.000000000000000021e-02 1.000000000000000021e-02 1.000000000000000021e-02 1.000000000000000021e-02 1.000000000000000021e-02 1.000000000000000021e-02 1.000000000000000021e-02 1.000000000000000021e-02 1.000000000000000021e-02 1.000000000000000021e-02 1.000000000000000021e-02 1.000000000000000021e-02 1.000000000000000021e-02 1.000000000000000021e-02 1.000000000000000021e-02 1.000000000000000021e-02 1.000000000000000021e-02 1.000000000000000021e-02 1.000000000000000021e-02 1.000000000000000021e-02 1.000000000000000021e-02 1.000000000000000021e-02 1.000000000000000021e-02 1.000000000000000021e-02 1.000000000000000021e-02 1.000000000000000021e-02 1.000000000000000021e-02 1.000000000000000021e-02 1.000000000000000021e-02 1.000000000000000021e-02 1.000000000000000021e-02 1.000000000000000021e-02 1.000000000000000021e-02 1.000000000000000021e-02 1.000000000000000021e-02 1.000000000000000021e-02 1.000000000000000021e-02 1.000000000000000021e-02 1.000000000000000021e-02 1.000000000000000021e-02 1.000000000000000021e-02 1.000000000000000021e-02 1.000000000000000021e-02 1.000000000000000021e-02 1.000000000000000021e-02 1.000000000000000021e-02 1.000000000000000021e-02 1.000000000000000021e-02 1.000000000000000021e-02 1.000000000000000021e-02 1.000000000000000021e-02 1.000000000000000021e-02 1.000000000000000021e-02 1.000000000000000021e-02 1.000000000000000021e-02 1.000000000000000021e-02 1.000000000000000021e-02 1.000000000000000021e-02 1.000000000000000021e-02 1.000000000000000021e-02 1.000000000000000021e-02 1.000000000000000021e-02 1.000000000000000021e-02 1.000000000000000021e-02 1.000000000000000021e-02 1.000000000000000021e-02 1.000000000000000021e-02 1.000000000000000021e-02 1.000000000000000021e-02 1.000000000000000021e-02 1.000000000000000021e-02 1.000000000000000021e-02 1.000000000000000021e-02 1.000000000000000021e-02 1.000000000000000021e-02 1.000000000000000021e-02 1.000000000000000021e-02 1.000000000000000021e-02 1.000000000000000021e-02 1.000000000000000021e-02 1.000000000000000021e-02 1.000000000000000021e-02 1.000000000000000021e-02 1.000000000000000021e-02 1.000000000000000021e-02 1.000000000000000021e-02 1.000000000000000021e-02 1.000000000000000021e-02 1.000000000000000021e-02 1.000000000000000021e-02 1.000000000000000021e-02 1.000000000000000021e-02 1.000000000000000021e-02 1.000000000000000021e-02 1.000000000000000021e-02 1.000000000000000021e-02 1.000000000000000021e-02 1.000000000000000021e-02 1.000000000000000021e-02 1.000000000000000021e-02 1.000000000000000021e-02 1.000000000000000021e-02 1.000000000000000021e-02 1.000000000000000021e-02 1.000000000000000021e-02 1.000000000000000021e-02 1.000000000000000021e-02 1.000000000000000021e-02 1.000000000000000021e-02 1.000000000000000021e-02 1.000000000000000021e-02 1.000000000000000021e-02 1.000000000000000021e-02 1.000000000000000021e-02 1.000000000000000021e-02 1.000000000000000021e-02 1.000000000000000021e-02 1.000000000000000021e-02 1.000000000000000021e-02 1.000000000000000021e-02 1.000000000000000021e-02 1.000000000000000021e-02 1.000000000000000021e-02 1.000000000000000021e-02 1.000000000000000021e-02 1.000000000000000021e-02 1.000000000000000021e-02 1.000000000000000021e-02 1.000000000000000021e-02 1.000000000000000021e-02 1.000000000000000021e-02 1.000000000000000021e-02 1.000000000000000021e-02 1.000000000000000021e-02 1.000000000000000021e-02 1.000000000000000021e-02 1.000000000000000021e-02 1.000000000000000021e-02 1.000000000000000021e-02 1.000000000000000021e-02 1.000000000000000021e-02 1.000000000000000021e-02 1.000000000000000021e-02 1.000000000000000021e-02 1.000000000000000021e-02 1.000000000000000021e-02 1.000000000000000021e-02 1.000000000000000021e-02 1.000000000000000021e-02 1.000000000000000021e-02 1.000000000000000021e-02 1.000000000000000021e-02 1.000000000000000021e-02 1.000000000000000021e-02 1.000000000000000021e-02 1.000000000000000021e-02 1.000000000000000021e-02 1.000000000000000021e-02 1.000000000000000021e-02 1.000000000000000021e-02 1.000000000000000021e-02 1.000000000000000021e-02 1.000000000000000021e-02 1.000000000000000021e-02 1.000000000000000021e-02 1.000000000000000021e-02 1.000000000000000021e-02 1.000000000000000021e-02 1.000000000000000021e-02 1.000000000000000021e-02 1.000000000000000021e-02 1.000000000000000021e-02 1.000000000000000021e-02 1.000000000000000021e-02 1.000000000000000021e-02 1.000000000000000021e-02 1.000000000000000021e-02 1.000000000000000021e-02 1.000000000000000021e-02 1.000000000000000021e-02 1.000000000000000021e-02 1.000000000000000021e-02 1.000000000000000021e-02 1.000000000000000021e-02 1.000000000000000021e-02 1.000000000000000021e-02 1.000000000000000021e-02 1.000000000000000021e-02 1.000000000000000021e-02 1.000000000000000021e-02 1.000000000000000021e-02 1.000000000000000021e-02 1.000000000000000021e-02 1.000000000000000021e-02 1.000000000000000021e-02 1.000000000000000021e-02 1.000000000000000021e-02 1.000000000000000021e-02 1.000000000000000021e-02 1.000000000000000021e-02 1.000000000000000021e-02 1.000000000000000021e-02 1.000000000000000021e-02 1.000000000000000021e-02 1.000000000000000021e-02 1.000000000000000021e-02 1.000000000000000021e-02 1.000000000000000021e-02 1.000000000000000021e-02 1.000000000000000021e-02 1.000000000000000021e-02 1.000000000000000021e-02 1.000000000000000021e-02 1.000000000000000021e-02 1.000000000000000021e-02 1.000000000000000021e-02 1.000000000000000021e-02 1.000000000000000021e-02 1.000000000000000021e-02 1.000000000000000021e-02 1.000000000000000021e-02 1.000000000000000021e-02 1.000000000000000021e-02 1.000000000000000021e-02 1.000000000000000021e-02 1.000000000000000021e-02 1.000000000000000021e-02 1.000000000000000021e-02 1.000000000000000021e-02 1.000000000000000021e-02 1.000000000000000021e-02 1.000000000000000021e-02 1.000000000000000021e-02 1.000000000000000021e-02 1.000000000000000021e-02 1.000000000000000021e-02 1.000000000000000021e-02 1.000000000000000021e-02 1.000000000000000021e-02 1.000000000000000021e-02 1.000000000000000021e-02 1.000000000000000021e-02 1.000000000000000021e-02 1.000000000000000021e-02 1.000000000000000021e-02 1.000000000000000021e-02 1.000000000000000021e-02 1.000000000000000021e-02 1.000000000000000021e-02 1.000000000000000021e-02 1.000000000000000021e-02 1.000000000000000021e-02 1.000000000000000021e-02 1.000000000000000021e-02 1.000000000000000021e-02 1.000000000000000021e-02 1.000000000000000021e-02 1.000000000000000021e-02 1.000000000000000021e-02 1.000000000000000021e-02 1.000000000000000021e-02 1.000000000000000021e-02 1.000000000000000021e-02 1.000000000000000021e-02 1.000000000000000021e-02 1.000000000000000021e-02 1.000000000000000021e-02 1.000000000000000021e-02 1.000000000000000021e-02 1.000000000000000021e-02 1.000000000000000021e-02 1.000000000000000021e-02 1.000000000000000021e-02 1.000000000000000021e-02 1.000000000000000021e-02 1.000000000000000021e-02 1.000000000000000021e-02 1.000000000000000021e-02 1.000000000000000021e-02 1.000000000000000021e-02 1.000000000000000021e-02 1.000000000000000021e-02 1.000000000000000021e-02 1.000000000000000021e-02 1.000000000000000021e-02 1.000000000000000021e-02 1.000000000000000021e-02 1.000000000000000021e-02 1.000000000000000021e-02 1.000000000000000021e-02 1.000000000000000021e-02 1.000000000000000021e-02 1.000000000000000021e-02 1.000000000000000021e-02 1.000000000000000021e-02 1.000000000000000021e-02 1.000000000000000021e-02 1.000000000000000021e-02 1.000000000000000021e-02 1.000000000000000021e-02 1.000000000000000021e-02 1.000000000000000021e-02 1.000000000000000021e-02 1.000000000000000021e-02 1.000000000000000021e-02 1.000000000000000021e-02 1.000000000000000021e-02 1.000000000000000021e-02 1.000000000000000021e-02 1.000000000000000021e-02 1.000000000000000021e-02 1.000000000000000021e-02 1.000000000000000021e-02 1.000000000000000021e-02 1.000000000000000021e-02 1.000000000000000021e-02 1.000000000000000021e-02 1.000000000000000021e-02 1.000000000000000021e-02 1.000000000000000021e-02 1.000000000000000021e-02 1.000000000000000021e-02 1.000000000000000021e-02 1.000000000000000021e-02 1.000000000000000021e-02 1.000000000000000021e-02 1.000000000000000021e-02 1.000000000000000021e-02 1.000000000000000021e-02 1.000000000000000021e-02 1.000000000000000021e-02 1.000000000000000021e-02 1.000000000000000021e-02 1.000000000000000021e-02 1.000000000000000021e-02 1.000000000000000021e-02 1.000000000000000021e-02 1.000000000000000021e-02 1.000000000000000021e-02 1.000000000000000021e-02 1.000000000000000021e-02 1.000000000000000021e-02 1.000000000000000021e-02 1.000000000000000021e-02 1.000000000000000021e-02 1.000000000000000021e-02 1.000000000000000021e-02 1.000000000000000021e-02 1.000000000000000021e-02 1.000000000000000021e-02 1.000000000000000021e-02 1.000000000000000021e-02 1.000000000000000021e-02 1.000000000000000021e-02 1.000000000000000021e-02 1.000000000000000021e-02 1.000000000000000021e-02 1.000000000000000021e-02 1.000000000000000021e-02 1.000000000000000021e-02 1.000000000000000021e-02 1.000000000000000021e-02 1.000000000000000021e-02 1.000000000000000021e-02 1.000000000000000021e-02 1.000000000000000021e-02 1.000000000000000021e-02 1.000000000000000021e-02 1.000000000000000021e-02 1.000000000000000021e-02 1.000000000000000021e-02 1.000000000000000021e-02 1.000000000000000021e-02 1.000000000000000021e-02 1.000000000000000021e-02 1.000000000000000021e-02 1.000000000000000021e-02 1.000000000000000021e-02 1.000000000000000021e-02 1.000000000000000021e-02 1.000000000000000021e-02 1.000000000000000021e-02 1.000000000000000021e-02 1.000000000000000021e-02 1.000000000000000021e-02 1.000000000000000021e-02 1.000000000000000021e-02 1.000000000000000021e-02 1.000000000000000021e-02 1.000000000000000021e-02 1.000000000000000021e-02 1.000000000000000021e-02 1.000000000000000021e-02 1.000000000000000021e-02 1.000000000000000021e-02 1.000000000000000021e-02 1.000000000000000021e-02 1.000000000000000021e-02 1.000000000000000021e-02 1.000000000000000021e-02 1.000000000000000021e-02 1.000000000000000021e-02 1.000000000000000021e-02 1.000000000000000021e-02 1.000000000000000021e-02 1.000000000000000021e-02 1.000000000000000021e-02 1.000000000000000021e-02 1.000000000000000021e-02 1.000000000000000021e-02 1.000000000000000021e-02 1.000000000000000021e-02 1.000000000000000021e-02 1.000000000000000021e-02 1.000000000000000021e-02 1.000000000000000021e-02 1.000000000000000021e-02 1.000000000000000021e-02 1.000000000000000021e-02 1.000000000000000021e-02 1.000000000000000021e-02 1.000000000000000021e-02 1.000000000000000021e-02 1.000000000000000021e-02 1.000000000000000021e-02 1.000000000000000021e-02 1.000000000000000021e-02 1.000000000000000021e-02 1.000000000000000021e-02 1.000000000000000021e-02 1.000000000000000021e-02 1.000000000000000021e-02 1.000000000000000021e-02 1.000000000000000021e-02 1.000000000000000021e-02 1.000000000000000021e-02 1.000000000000000021e-02 1.000000000000000021e-02 1.000000000000000021e-02 1.000000000000000021e-02
-1.111629167185018474e+02 1.689832877817051440e+02 3.918815151908598438e+01 -8.807030603115903133e+00 -8.755627849298868171e+01 -1.334170645898467278e+01 -2.071536125976248286e+02 6.878854043811820640e-01 -8.441239079400324385e+01 -1.400626642515638487e+01 -1.976297662275693057e+01 6.499171476838617956e+00 -1.775158689609787288e+00 1.671838032924391655e+02 8.431564656940932423e+01 -3.864623567724633091e+01 -5.261004525729483561e+01 7.893251063664104095e+01 3.270570019835811593e+01 -2.528101666606404763e+01 -7.856466999902231407e+01 -7.354107011183063491e+01 -1.375452374095509001e+01 2.882974815846191774e+01 -1.942221009108412204e+02 -9.837772339366397034e+01 -2.599610258958721332e+01 2.009108803403446188e+02 7.051064097873846492e+01 7.645343869568516482e+01 8.000870994170291794e+01 1.179956277455080693e+00 -7.896411677995334344e+01 2.067080641500155878e+02 -2.439802962040328680e+02 5.862708851731178328e+01 -1.197149722815180155e+02 -3.456013749683804548e+01 4.020109637700760352e+00 1.262654046366974399e+02 -1.224666579975562684e+02 -1.359762446215499665e+01 7.708337381347898543e+01 1.729898749046385831e+02 7.110193075764230741e+01 -6.817192995177090609e+01 4.107240411472950825e+01 -2.828468549229492979e+01 -6.583285620523308523e+01 1.560423474431696320e+02 -7.031111309512911589e+01 -5.192888720234726918e+01 -1.388470206162238298e+02 5.741601624198803933e+00 -5.035929379791983962e+01 3.853386370762624580e+01 -8.842144094631424878e+01 -4.988634874266372776e+01 -1.010595099446197764e+02 -1.549137204156466510e+02 1.938443086679609806e+01 4.520850432746376413e+01 -1.227050297493219801e+02 1.281286282922174458e+01 -7.902045479633920877e+01 4.895356632057842461e+01 1.660683820747404980e+02 -1.437775323135119550e+02 -4.316222694467005283e+01 7.174586947335842346e+00 2.920892532258389185e+00 4.224072798910867022e+01 8.370134612932537266e+01 8.652441880166348298e-01 -8.776175759702478985e+00 -6.979141739486165363e+01 7.799884929884505880e+01 -3.265209774838710644e+01 2.620902517683149568e+01 1.036707990884481205e+02 8.792838325373178066e+01 -4.261582479359706355e+01 5.760591535271758090e+01 1.469474579357756170e+02 1.158259388634018734e+02 -4.006051064605468781e+00 1.736308722852210451e+02 -1.111513966254890136e+02 4.181463962917564281e+00 -4.180036985826912854e+01 2.061537375357556243e+02 -2.115359519525421206e+01 2.874957094278925318e+00 -7.653120052448569766e+01 -7.115187809088553195e+00 -6.363137137139818833e+01 6.755128988120345923e+01 -9.424222727842577285e+01 6.835794309424336745e+01 -4.759546938486720791e+01 -4.959661961120858820e+01 -9.136148043079263914e+01 5.291308555099422506e+01 -5.453203595316385588e+01 -1.488450070020617488e+02 -7.920757793704572691e+01 -1.042716555365331175e+02 -1.567169396614286541e+02 1.354962795731561584e+02 -2.739874442553520950e+01 3.192903846114798228e+01 8.937579467321961602e+01 -1.037280408156391047e+02 5.678003345231425669e+01 -4.317950303303123150e+01 -6.912113184293367851e+01 -8.980255668572132777e+01 2.026003452769952844e+02 -5.655767578017228203e+01 -4.933736027521878498e+01 -4.705131831398918507e+01 8.014001740756110337e+01 -4.127691659181095929e+01 1.375359685159031642e+02 -4.972352303541244112e+01 5.492380256973995500e+01 4.527821822552177800e+00 -8.086521826252287326e+01 6.858768526246602448e+01 2.764963425543047038e+02 -9.173831652327214670e+01 4.733683323674443955e+01 -7.600381587424358543e+01 4.509658188901964593e+01 1.307856191627989517e+02 -5.123292986943837946e+01 1.455205095408686589e+01 -2.684824851639639220e+01 -1.016357568283791579e+02 -1.725881345644522469e+01 4.271001349244296641e+00 -7.794647860191381561e+00 -1.490645614642706995e+01 1.178845737692689539e+02 1.299892025851244455e+02 1.859352791933036997e+02 -3.034873029014927965e+02 3.810492446372488473e+01 -1.571519262602671319e+01 -6.218421013485192361e+01 1.798774228952258625e+02 7.599923076475961636e+01 -2.584072961668519408e+00 -1.156736864314234907e+02 -1.087039969059091682e+01 9.985744252971967683e+01 -1.340823185582697477e+02 -1.682500285710797243e+02 1.071296623654226821e+01 4.233909709136784727e+01 -6.089728025371006481e+01 4.195268800042669000e+01 -1.068725152687353273e+02 -1.510332108561594850e+02 2.106760162461094765e+01 4.849432219921209963e+01 4.801543959568924436e+00 -8.333979064529626157e+01 -9.344831182443934381e+01 -8.419162274605470486e+01 -8.743370554544337381e+01 1.262434756310155137e+01 5.676946376905029723e+01 1.163932376357097098e+02 7.936260487832137756e+01 8.944649032477764194e+01 1.073987895881043215e+02 -7.475676601021811507e+01 -8.248600115962175039e+01 7.050916283818600050e+01 6.848957498278029732e+01 5.923815275162505856e+01 -9.391750655864324671e+00 -9.111775550517629085e+01 5.402216931937386590e+01 -1.791604452321565759e+02 6.723371903582894049e+01 -4.458792090551659015e+01 -9.656964678366234978e+01 7.432313836865903056e+01 -1.717269976976192680e+01 -7.727308038951682079e+01 -5.758179170008807546e+01 -9.176764619664719902e+00 2.432971578346830483e+02 7.707386890467743967e+01 5.499933793043080499e+01 -1.042156924672321736e+02 1.487648899792917518e+02 1.055715877865719854e+00 -9.071969606754652204e+01 1.564256454179015066e+02 -1.547819938571873308e+02 1.584427954610243638e+01 -3.268517965735598096e+01 -2.231975105342020527e+02 -1.354722129193524722e+02 -8.859662627033345927e+01 -2.977882956736365472e+01 -1.210961333630636858e+02 5.855582976239260518e+01 6.600622127667911343e+01 -2.801233322168747009e+01 -1.013024439488848714e+02 1.148665847486029605e+02 1.200552562271430048e+02 4.694115424018391991e+01 1.775387041353576478e+01 2.655498125121348494e+02 4.436651740433846669e+01 -1.213802208026884273e+02 -4.579260481775231995e+01 -1.716071153762316612e+02 3.239443852102834143e+01 1.558394201736774392e+02 -1.508127813718530206e+02 1.339299325755035568e+02 -9.248804400051477614e+01 -1.923041699847560793e+01 -7.830397863234753730e-01 5.376176526707835279e+01 -1.179048753108827796e+01 -2.319097667926149953e+01 -1.920207196341230826e+01 -1.288949371985805783e+02 4.721503636886399846e+01 -3.087870622670321197e+01 -1.318688112611017438e+01 -1.090315994291117718e+01 2.299094314936483556e+02 1.772694804728377278e+02 2.367072537199320550e+02 1.341153659727603724e+02 -8.809716743431241071e+01 7.650696088767499248e+01 2.149892487974367583e+01 4.841178656974629035e+01 -4.041296854621255363e+01 2.599540420907623570e+02 -2.371958587214149361e+01 -1.391707202547634097e+02 -1.521864482141694630e+01 -4.665153846141188154e+01 -7.878427127224350102e+01 4.393369357172709755e+01 -1.192365547085932853e+01 1.851942252184643678e+02 9.405529341339608607e+01 4.162284080903334882e+01 9.979514759616576214e+01 9.625637662415965679e+01 -2.340599323663138520e+01 1.421809564390612479e+02 2.698681202348377539e+01 9.122514549630878378e+01 4.853749091415312478e+01 7.058800322157824603e+00 -1.178899116175035147e+02 -1.179757601267892397e+02 -9.168391018936291914e+01 -1.585754094551528048e+01 8.828848859443201036e+01 -3.121494662204554515e+01 1.007157775812379867e+02 4.462338509053222424e+01 -7.406902724617718548e+01 -3.051364344294659148e+01 -5.967715069593204902e+01 1.789003031112966369e+01 -4.717698054914579586e+01 -1.141183165516118549e+02 1.237763078015317149e+02 1.235859589517579735e+02 -8.041892361616454821e+01 5.534630394128292608e+00 -4.615577838664008681e+01 -3.319957017029346247e+01 -1.155193348764406025e+01 -3.180586927471865977e+01 4.528787655520208233e+01 -1.431376576299066130e+02 -5.381553677858395446e+01 -1.546563169983361377e+02 1.772911988161080217e+02 -2.058392989145323426e+01 5.999556088818158628e+01 1.213630278349846314e+01 1.469738721368331369e+02 4.542592801852334361e+01 3.635514327862872364e+01 1.570695823990572819e+02 -5.012379671633968314e+01 -9.930133133474905094e+01 2.765274429282940361e+01 -1.607274134238378736e+02 -5.431488605997844132e+01 1.040499312699381846e+02 -1.298213407104087480e+02 -3.697591620431244053e+01 9.282536367941114008e+01 -9.605490249390616952e+01 -9.098038013739265750e+01 -8.401832434637017855e+01 -6.487260479456725193e+01 2.531666921693270069e+02 2.014467481410338792e+02 1.046777313282638033e+02 -1.038612740817473679e+02 7.606366547821382085e+01 -6.722539934551818419e+01 -3.180318583368031682e+01 1.687159771115131690e+01 -3.272801999582446797e+01 -9.521011567522674568e+01 -2.795547364567421145e+00 1.500809182647076945e+01 1.104379689693162874e+02 -1.304193744054497301e+02 4.254018313737513779e+01 6.469967024535645805e+01 3.503974621519681421e+01 -9.191958099717375319e+01 -1.506321638989448672e+02 1.959181787170090843e+02 -1.806017391478792788e+01 2.553886441001263918e+01 1.586959175884415743e+02 2.702857380568565304e+01 2.811286567661338509e+01 -4.513160161889638999e+01 8.976951204961906683e+01 -1.381264660734980794e+02 -3.120418485440642442e+01 -6.215086099890937632e+00 -5.409081035148222583e+01 6.310428194584130068e+00 2.155485435917550063e+01 -3.623782164909675174e+01 1.383685620009584838e+01 2.163651549126039129e+02 -2.773086968101488026e+01 -2.832458735515266213e+01 -1.028971969114002718e+02 -1.667133577199775063e+00 -8.172417118263095404e+01 6.471088020768580584e+00 1.134161475061536066e+02 -5.264638158481178465e+01 6.118626564671842516e+00 -5.495968321111627120e+01 3.365141079001013669e+00 8.822929733813603548e+01 -1.172103958721873482e+02 -9.795099963758541151e+01 -1.037610093049560476e+02 7.220646851303440883e+01 8.756317849390872254e+01 -9.334273205810539764e+01 6.334182612743959595e+01 2.612021560980167223e+01 3.913281406938009610e+01 -1.795544388731308416e+01 9.239206305490095872e+01 8.063145465542206125e+01 -7.815128000659002794e+01 1.196840456746479653e+01 8.181036752152331815e+01 7.368281128145952152e+01 -2.011691700618157697e+01 2.526009094287710255e+01 -1.340910617351371457e+02 4.907108670647279780e+01 -3.314243371182902820e+01 -3.302931053816059404e+01 1.751358845672613143e+02 4.796632996443176467e+01 1.215628127486447454e+02 1.931019481506557440e+02 -1.392348615946490042e+02 1.507491918154742052e+02 -6.412089641665393458e+01 -1.366515179616239379e+02 8.324181891198263372e+01 -1.355726549973425961e+02 -2.902931601653209626e+01 5.704468810574310567e+01 8.163313542331197326e+00 -1.700128738294377513e+02 8.518251068887609279e+01 2.550514114790289355e+01 6.986707228744134568e+01 3.669106756573305717e+01 9.578379377293238406e+00 -6.786679525466854557e+01 1.170209008949658482e+02 5.509683402914515682e+01 -6.281607534854447294e+01 -1.023705112929407051e+02 3.937141142486893841e+01 2.597436675647737303e+01 8.330922112742257468e+01 1.858016212143103019e+02 -2.490520087678247663e+01 -1.113753793643491150e+02 -8.566241294522652083e+01 -5.188999767969565369e+01 -4.485731878216150648e+01 -1.483580898073640526e+02 -2.275758006726995575e+01 1.309348648368837758e+02 7.536505048451915911e+01 -1.237238060155645059e+02 -1.515208041285902425e+02 -6.885180129746100874e+01 -7.719489711735792525e+01 1.483874238246072821e+02 -1.723369490344398116e+02 8.749559860742721185e+01 -4.658341511169274973e+00 -4.349929213226684510e+01 1.344670289756419912e+01 9.216732315867460557e+01 5.012870206144079788e+01 1.397192790447361403e+02 -1.608740592771825959e+02 -8.185593636819228891e+01 2.562473505069919710e+01 4.239140003379137767e+01 2.083867781752481392e+02 1.470384413551809928e+02 6.624351711874227533e+01 7.288929598647291641e+01 -3.453775998117173174e+01 1.534715524252150374e+02 -1.812850998538394549e+02 -6.409232599284376874e+01 -5.426708917030156698e+01 -5.235482911258995387e+01 -1.043975798483471351e+02 -1.514913313066931089e+01 -6.938206388930493063e+01 7.194652489162631070e+01 -9.256043767557789792e+00 -5.871766528727850698e+01 -6.295451681276664857e+01 1.821308100038276905e+02 5.963968849021330243e+01 -1.385897228736201114e+01 2.111216757239131141e+02 -1.094940966098858866e+02 -3.571263546780604514e+01 6.767469787266433912e+01 -1.329977313288021323e-01 1.510816395375548460e+01 -1.264072498662665254e+02 1.780551250474867686e+02 -4.950020456909552280e+01 -2.721799105744737091e+01 -1.108478618220109126e+02 1.271488247340080164e+02 9.686192835244300170e+01 -7.830960735739590461e+01 -3.796146802133698372e+01 3.933732085165586767e+01 -1.529072109595317670e+02 -1.596423662193722226e-01 -7.543914299029539450e+01 7.775515169077101163e+00 -1.091678640631240427e+02 -1.600661655369186747e+02 -7.135781520260893274e+01 1.495798479203681666e+02 5.711006544265024587e+01 -9.045845087408567053e+01 9.000450526476676316e+01 3.454855901190330059e+01 8.911782689330000551e+01 -4.249597153223569279e+01 -8.484174584935058760e+01 1.725367806315446160e+02 4.201967622038750960e+01 2.920402576830252528e+01 -7.363090337975994260e+01 -4.267031885590665041e+01 9.627658661527441097e+00 -7.222497542204621368e+00 -1.742586442067028258e+02 -3.489095549821834652e+01 6.493791799710398038e+01 1.125023774081019781e+02 1.569458672688254808e+02 -1.337647144137443611e+01 9.030992902406346445e+01 1.589159247289071288e+02 6.389365850742505870e+01 1.488427847031874762e+02 1.617953093160139844e+01 1.322292702366846981e+02 -8.452105670323302888e+01 5.371814519101904750e+01 2.952517030705757151e+01 7.634829917354680617e+01 -1.068633545748480316e+02 1.992147905928065086e+02 -1.295119693786733706e+02 8.879839370125591813e+01 -1.080068507965730902e+02 4.638994165146878146e+01 1.387143268178247446e+01 9.115459160953375317e+01 -7.402146095844793194e+01 -7.586043105062442748e+01 -1.120866190619400093e+01 8.947593405232268537e+01 -2.970987653923784677e+01 -1.637277674804866479e+01 -1.970775891003436087e+01 4.754308074981405063e+00 9.846967757015669065e+01 -6.275781546543355915e+01 -2.720355634472693129e+00 -1.942023626109601366e+02 1.220903139501615868e+02 -1.249430826192710526e+02 -7.391735203164748214e+01 -2.355063520217794704e+01 -1.079847388857269976e+02 -5.318222544745330538e+01 -5.859817061215702694e+01 -1.968296158103005666e+01 1.363086161769776368e+02 5.407929124853627911e+01 1.004624966208635186e+02 -1.361399130582209978e+02 -1.386222897929797853e+02 -2.866652503804509706e+02 1.021901160144407612e+02 1.042947462602117099e+02 4.230270037680840289e+01 -4.244759342509049560e+01 -3.721710676515333205e+01 -1.837096280447522645e+02 1.461750774743511272e+02 -1.074567727063892733e+02 1.070010889694864460e+02 -1.592782337195120306e+02 -1.431732550917032221e+01 -5.539949640787600060e+01 -1.193055050702893851e+02 -4.611989821199089334e+01 -1.251026589004632328e+01 -9.270778109589903693e+01 -1.035440453005360411e+02 -1.236274185806027148e+01 7.123728957351247004e+01 -1.246994178904014490e+02 -1.567307529157804780e+01 -7.380135762915185182e+01 -1.315004410915038022e+02 6.656392415610902447e+00 9.522657151426481903e+01 1.656475526435848451e+02 -1.908463787980747028e+01 -4.609545927482942318e+01 -1.242685504517975943e+02 -1.637575902027355710e+02 1.038897798245894677e+02 -7.282634767842962731e+01 7.910537395273725281e+01 9.414282729125510230e+00 2.927928341431375614e+01 7.394897868513359640e+01 -8.485807821701840226e+01 8.279237629954232602e+01 1.154506892853436852e+02 1.576934251198600521e+02 -1.167562612629411376e+02 1.041170948109211167e+02 -4.784897303654972944e+01 -9.095016641890093467e+01 2.149391082177791077e+02 4.932871726846349247e+01 8.361269703285913124e+01 2.130447859843489766e+01 -6.331969409021738926e+01 -3.499774908125685613e+01 -2.107462607349785912e+02 1.058182704860684851e+02 8.164525205967365196e+01 -7.583341564219102793e+01 -7.327330614141806109e+01 1.454517138739966526e+02 1.012449654754568371e+02 5.120612224005403590e+01 7.621504818323346342e+01 -7.899557183778054714e+00 1.033799265846819964e+02 -1.037332103446639593e+02 1.867270692033033299e+02 -3.955383899638110989e+01 -1.222138385316693245e+02 -3.774441044349496366e+01 7.187436781686136555e+01 1.476075528420993805e+02 1.292811904098929432e+01 1.741396833143648450e+02 5.229655312411264845e+01 3.368190726784803957e+01 -1.115206413371887777e+02 4.488760058888534132e+01 -1.252560518049730121e+02 4.778652096291013152e+01 3.869659208130797623e+01 -1.235784039491570780e+02 -8.519367551019317375e+01 3.991463579173589693e+01 8.742019846075505640e+00 -2.327246653225996198e+01 4.193951447151650314e+01 -2.143947063152012333e+01 -6.320892163979128497e+01 -2.621766275128310753e+01 -2.248931582018020947e+01 -3.990103085596376786e+01 1.881046489563771118e+01 -8.065196199307762015e+01 1.191703417287927067e+02 -7.445338877578925008e+01 -4.274049004319331324e+00 6.566844299383768657e+01 3.900220798460308114e+00 1.597887192499388043e+01 1.599004646311679068e+01 -1.173472225442514940e+02 -4.424088602608420295e+00 6.517032948507586809e+01 -2.318581391521932460e+02 -8.501514535308152176e+01 -1.129214242937194825e+02 4.387100917530121791e+01 9.639343502608544156e+01 -9.191609682668378412e+01 -1.681852308344253402e+02 -1.854792498687028228e+02 2.000334629315894475e+01 -1.451742940941139466e+02 -6.330741896062344942e+00 1.477853574612452974e+02 -7.108297695429381946e+00 3.717007103394043810e+01 -9.893996052384223105e+01 7.982571267985200336e+01 -1.184635890014728830e+02 -1.539799546053318835e+01 -3.026419992868306963e+01 5.748242185753411349e+01 -8.853955402645560468e+00 1.054485864545192868e+02 -1.217595373588870729e+02 -4.994473596828736106e+01 8.631569873837646867e+01 6.593248843713577401e+01 -8.205636276539102880e+01 -5.419784294067805774e+01 -4.916590736140631890e+01 -2.881434408920276269e+02 1.926592515730086177e+02 7.574281959617827908e+01 -2.347759901842646713e+01 -2.951356462370880251e+01 4.130934050068594132e+01 -8.368008074734758850e+01 9.895898481317513529e+01 6.009951755693786168e+01 8.148794789624666635e+01 -8.356226346139771977e+01 -2.637914623191620933e+01 3.312054041782998581e+01 1.726439067155153850e+01 -4.252964612613923379e+01 1.568160422516311883e+02 -1.716804457416333562e+01 3.513748052555386892e+01 -2.281474545218730441e+02 -8.405350273624324586e+01 -7.260990404140835608e+01 2.284567494323698256e+01 1.083504858129775101e+02 -2.299102523678383818e+02 -1.855882325742055059e+02 2.199378004283312009e+02 -1.048607090074144388e+01 9.531490481840454265e+01 6.220910789794929485e+01 -5.492880173880271855e+01 -1.299741455149663238e+02 -9.441448948429520271e+01 -4.986461258363545568e+01 -3.713745109707156189e+01 -3.884918011608379373e+01 1.603553355550102211e+01 3.686820895831981204e+01 1.655140628707938788e+02 1.222412709793281493e+02 6.891643304181209295e+00 -4.356910595047853718e+00 -1.575319929511650514e+02 1.187071336492945619e+02 1.580609166633773555e+02 -1.026116997094021883e+02 7.314791371776217943e+01 1.737912559539951607e+00 5.447120223120624871e+01 1.244343043999251961e+02 7.038391952530569995e+01 -1.329790051182159516e+02 1.601341249154851454e+01 -2.915699305411454034e+01 1.105501455295781277e+01 -2.297216955711910913e+01 4.500365645057667052e+01 -2.586024874654366954e+02 1.798543837451252898e+02 7.247462862298463371e+00 1.582838211575601690e+02 -1.047693010900869304e+01 1.054512291546917595e+02 7.115078980384681984e+01 -4.172223661688450136e+01 2.971808036753188631e+01 -7.234438671608951665e+01 -8.843121435341052461e+01 -7.163771543926077356e+01 -3.186333951109777729e+01 4.491990370792607479e+01 1.095527678057346748e+02 2.833324857181825962e+01 6.178269617184291462e+01 -1.042707608088990412e+02 -1.364318007658208387e+02 -1.341581773474140071e+01 4.616746886679261053e+01 -4.527431527266290345e+01 9.410000011163647571e+01 5.526346555136462513e+01 -2.752032176991579604e+01 2.981236555184031900e+01 6.109865446827700453e+01 -7.179032788120461817e+01 -1.331380497283151669e+02 1.414717759568517863e+02 7.782205451351298819e+00 4.994171687810138138e+01 -1.487235111122896001e+02 -5.321010178744884911e+01 -4.547793645367429471e-01 -6.552076924890502596e+01 4.255394970930817422e+00 5.611091523629627886e+01 1.858852635645691009e+02 3.901612886136238956e+01 -1.093275447223642338e+01 7.202802142000271601e+01 -4.536973502002705771e+01 -1.087275196499638383e+02 -1.378964932049033791e+02 9.352424090991668493e+00 2.506575658201604284e+01 2.376372430272477487e+01 -5.678994505566639361e+01 1.206542148230821851e+02 -8.073243858364816106e+01 1.281812059264868253e+02 8.721037810107735311e+01 -6.498634969480072243e+01 -8.464740956139284833e+01 8.414960956168282280e+01 2.045532106961137231e+01 -5.247962108952773974e+01 -5.383382750231498903e+01 1.366849982890211095e+02 5.731330967088354100e+01 7.990609514328244245e+01 2.615413504047273108e+01 -4.209132199907618599e+01 1.075139673982793340e+02 -5.460379212636161128e+01 5.443860874678496664e-01 7.663564848136130081e+01 9.969381899178097228e+01 2.557934270768139697e+02 -1.753988070470209664e+02 1.611798269345717642e+02 -6.769647063407390419e+01 -1.525375028051817239e+01 -2.512072793711034535e+01 -2.077570065155721579e+01 -5.528482914711756280e+01 9.317913664406442820e+01 1.845629638070252838e+02 -1.191470505034863407e+02 3.103087864977350918e+01 -1.273443092059399788e+02 7.045430616577473870e+01 -4.466949318924331891e+01 -8.134440677777651274e+01 -5.413730737836680618e+01 4.138225635896026233e+01 1.948484938160450142e+01 -8.222976809265882991e+01 -1.418653269418560967e+02 2.089466113340459330e+01 1.586029467272025215e+02 1.437943481958382286e+01 1.837191754828423029e+02 7.515508379454245436e+00 1.355965848453951992e+02 -3.485563602093483127e+01 9.142403364688694012e+01 -7.201198982315581532e+01 -1.138349132156931205e+02 4.985291579470884926e+01 -5.851867872096006096e+01 -7.922420779659586287e+01 7.356287508021031840e+01 6.510358943516181718e+00 -9.520209447027716010e+01 -1.520439208883430524e+02 1.494068713782243663e+02 -9.010259523166041618e+01 -2.372879808285369041e+00 1.213886753906350435e+02 5.867454150765514953e+01 -9.931399389187075144e+01 1.074995904278374326e+01 2.853513116879614131e+02 5.395741586565311820e+01 -1.596592956372149956e+02 -4.830867228742941677e+01 -6.229840174145653720e+01 9.752612811475755095e+00 1.089589803263559418e+02 -1.048391035677986594e+02 2.185659159452997358e+01 1.322544235834389781e+02 1.903327467408091067e+01 -2.141728999242180009e+02 4.900722682202728464e+01 7.653721214909576531e+01 -1.376963975695904452e+01 3.326192241915678238e+01 1.455791072211052306e-01 2.282915523018044013e+01 2.812997730461614765e+01 1.174704612509847834e+02 9.942137841561579137e+01 1.578398793140190826e+01 1.511573325463165816e+02 -6.493837101701038250e+01 2.501899549558171429e+02 6.596529937384897835e+01 1.437459698032829465e+02 -2.229056743088824177e+01 9.137363133726128694e+01 -4.973090400513199683e+01 -1.485139295217183815e+02 2.656989806742950577e+01 9.645670412100707836e+01 -8.889365490266034442e+01 -1.062845400319533127e+02 -6.752138505117464717e+01 3.713791499254303119e+01 -1.159196803541991159e+02 7.583372088794132537e+01 2.848538123816858203e+01 -9.906582102793495892e+01 1.927707399281399034e+02 -1.193864261509511593e+01 -1.032716709619555644e+02 -1.358603136795716004e+01 -2.074088263297939605e+01 -1.423306061633421109e+02 -4.063388587090142323e+01 6.242673921484036725e+01 1.337545699904140974e+02 2.945836875892834783e+01 2.716486808269912245e+01 4.546278068480538792e+01 -3.628807001123860232e+01 -1.477873293814508600e+02 1.609785349800258203e+01 3.145482617322323904e+01 1.351064773382286148e+02 -1.008068420506974405e+01 -7.729022348701988676e+01 7.431481142058872535e+01 1.008899785568109442e+00 3.239578957877622400e+01 1.413847665458856966e+02 -1.802263641332568795e+02 -9.426272993411079426e+01 1.266258951652726239e+02 -2.128212387918358672e+02 -1.814219659898965915e+02 8.976459439923623052e+01 1.519123882306326720e+02 6.253116056805610867e+01 -4.393213817595399640e+00 1.536598938356443398e+02 -2.165246188844438961e+02 1.057067682568832225e+02 4.180706438194064845e+01 1.253583366116927920e+02 -1.860408471589988437e+02 1.051162441275243964e+02 -2.789111067209802641e+01 -1.318896325698449914e+02 -5.253601331021541476e+00 -9.115409247341382581e+01 -1.607617445526874889e+01 -4.237314106210499531e+00 -1.215256419613650394e+02 -1.216501016913312156e+02 -6.172784526034611474e+01 -1.271793119449485658e+02 1.982755744276749965e+02 -1.588628718848895858e+02 -4.949130799615896592e+01 1.702034635914533283e+02 3.346741530818076171e+01 -2.919810747243424771e+02 -1.253713778060988915e+02 3.503921743791762822e+01 5.390939370106443107e+01 8.475554426130615937e+00 -1.525314841471593752e+02 3.520428229710827850e+01 7.372863958800977890e+00 -7.332201581425972847e+01 1.999703538760731476e+02 1.998510372321352975e+02 4.275167370429862501e+00 -2.057087111952172052e+02 1.242832471169447217e+02 3.035140826331379671e+01 3.712900020736708662e+00 7.558430913858356348e+01 -2.046605485865664207e+02 -1.361647241939760988e+02 1.391289314541234603e+02 1.081584638252521984e+02 5.221039598029564388e+01 1.412793033187406309e+02 -1.758469604245300388e+02 -2.016206567543914829e+01 -1.286596083796898426e+02 4.301045589695888793e+01 -1.024574821965651239e+02 8.586984297967995872e+01 -3.342510697114985163e+01 1.221484340034799132e+01 1.750230256576737418e+02 2.811703976198712951e+01 -2.599926319841320606e+02 -1.246484006265465467e+02 -8.222093325823873045e+01 1.559594724468283289e+02 1.236550824192209319e+01 -5.309724252377541376e+01 2.995982459488118721e+01 6.166415317787864581e+01 -3.903896555095631271e+01 1.060535747152634087e+02 -9.936957889745585248e+01 4.854450757288250173e+01 1.104077645171941526e+02 -3.497671868713428012e+01 -9.679090978762988584e+01 -1.118823142936413717e+02 1.181320535160892859e+02 -4.898873476073698896e+01 1.938804646612893805e+02 5.642740716656603439e+01 1.094464068378559176e+02 1.819227734757705264e+02 8.444140603482527041e+00 -1.225936873991134632e+02 -1.635062992988676740e+02 -1.126342977799539966e+02 4.190210725915513734e+01
-1.311910320767327320e+01 -4.644441960608658881e+00 9.978126231068731045e+01 -2.206651860684581834e+02 1.497447635737083829e+02 6.119765436980414108e+01 1.465844474770967452e+02 -1.244418051891352093e+02 -2.678459747345096620e+00 -2.319351285107527971e+01 -2.114665776470080516e+02 3.153559301604114395e+01 -1.765451036242333771e+01 1.178305641866467397e+02 -1.204994833442157756e+02 5.945498797695524473e+01 1.207183904063503093e+02 -4.426640463383957780e+01 -4.782945140059259614e+01 -2.604591028353025806e+01 5.945246779457313835e+01 6.079567120902536459e+01 3.123455616855269312e+01 -2.240165334812411970e+02 -4.972074348671610977e+01 8.816040037164555088e+01 9.543252926973652350e+00 -9.979347435548335810e+00 -6.409586601835248132e+01 -1.490194826565643460e+01 7.065231538073555839e+01 -1.400791462000507863e+02 -5.965000019699817102e+01 8.658843900026175433e+00 1.999230700925741644e+02 2.042732932601377911e+02 -3.091344753255209099e+01 5.383710620641329569e+01 -2.617740751008810207e-01 -1.345366166284511280e+02 9.245973650974106306e+01 1.033024558917512508e+02 1.045364956422247076e+02 1.125957773913580517e+01 5.962200496117277027e+01 4.635737178583568152e+01 3.745668452609407240e+01 2.825883545125811480e+01 1.062378172470017006e+02 8.642427714676993844e+01 6.318864704398096421e+01 1.569990374302975908e+02 2.386172014717411969e+02 1.883951473915450947e+02 -5.696064627155561055e+01 4.745740763681278196e+01 -6.192461253093079421e+01 5.433837504407425456e+01 -1.851063661763421067e+02 5.442577241778774066e+01 -1.972485001193710730e+02 -1.625182780330947878e+02 1.247020873591011458e+01 -8.906331348956223692e+00 1.633104320572100221e+02 -2.003136348981898891e+02 7.251879167936174042e+01 2.213901804045354140e+02 -7.078007621967483232e+00 -1.875993088518349055e+02 3.426698266724287123e+01 1.899836860433622121e+02 -5.886631468024184244e+01 -2.567531039098230963e+02 -9.881325523448401782e+01 8.533858223800407927e+00 -2.216875987644419581e+02 3.087312602545040008e+01 -1.729238847164159552e+02 -1.788383226974468130e+02 -5.505590255746673733e+01 1.469509232113998678e+02 6.698238859401574530e+01 1.022631232746067731e+01 -8.545282463810019635e+01 -4.107592693715072585e+01 6.146594730497941583e+01 -2.238176396957877330e+02 5.217678841700007553e+01 -7.232428397852112312e+01 -7.534250666386341777e+01 -1.705327313845902779e+02 6.276813147089102074e+01 8.946273396672931710e+01 -1.565982731550998324e+02 1.666878554196449045e+02 -3.849090088412594213e+01 -1.632354118037384794e+01 8.451737450873653756e+01 1.508441177476882160e+02 2.094482245779218132e+01 1.461567646730472347e+02 -1.783394633631692372e+01 -8.754421921771275095e+01 -1.893194218399835194e+01 9.756164653547054399e+01 4.462950367558566711e+01 9.708342602310719371e+01 9.367905956771849674e+01 -8.243509580574465190e+01 -1.686298445884725083e+02 1.221277144211298236e+02 5.384404493089833466e+01 1.606400120378182805e+01 3.034928725592171261e+01 -6.742120198619043947e+01 9.532626105633210045e+01 8.918550936108256622e+01 -1.358952539185003872e+01 -7.072892861719982704e+01 3.052634411003251813e+01 6.232334474142431802e+00 -6.108201891701791197e+01 1.683586627808569460e+02 -3.269376144217743274e+01 1.207637747289944343e+02 -6.962761983444384839e+01 3.812642432897773404e+01 -3.585889969562830260e+01 8.887421742249532031e+01 2.332744292205909531e+01 1.148259632288764607e+02 -1.152587343383164722e+02 7.387238915184855159e+01 1.227072318712369707e+02 -4.443181251805314247e+01 7.558317668533311107e+00 -1.262363158289325682e+01 1.160859147471421124e+02 3.555669469409678207e+00 1.676747247423588476e+02 -1.406006236566925622e+02 1.160123348251064499e+02 -9.081531051674913613e+01 9.524726564786381289e+01 -1.363190911035289616e+02 2.936196748245928845e+01 2.461656544564483085e+01 1.797397218005113206e+00 3.613031509420002152e+01 4.570617422084717418e+01 -1.235500471794311750e+01 1.077776234907735997e+01 1.075762782848321564e+02 1.266618153952440906e+02 -8.628512662211694817e+01 -5.396159571906658670e+01 4.714435504307422065e+01 1.527371258129536891e+00 -1.363726173604416942e+02 -5.487071516778860314e+01 -3.529948826452584854e+01 4.871414515649880173e+01 -6.529066263905060907e+01 2.283728227824015633e+01 1.597756976627546806e+02 -7.918120786734054661e+01 8.052542038146947334e+01 8.380585604052947701e+01 1.120601031230590472e+01 1.230646073773966265e+02 6.270479816567712561e+01 1.675916821829897856e+02 -3.448048818241112912e+01 1.121917763467227758e+02 5.542540814561309048e+01 -1.604013382290929357e+01 2.037444825941354338e+02 -1.385654937211685080e+02 4.880987852758759971e+01 -1.873257089405954616e+02 -8.408264605313843276e+01 4.098941680722128211e+01 -7.214992086225309720e+01 -1.557298604728922555e+02 1.992246299973283215e+02 -8.574871241149566004e+01 -4.747966413685362852e+01 -4.627226154530018931e+01 1.217374320013188225e+02 1.947775474415245753e+02 6.475741986280095830e+01 1.462677328985435281e+02 2.194990975971661555e+02 -1.618831981934781616e+00 1.629446614036621099e+02 7.090954356749465148e+01 1.904561438359626209e+02 -1.258271916101245722e+02 -1.186531168236560063e+01 6.344579005714850339e+00 1.900188840226556124e+02 -9.092128896546499561e+01 -6.050516871381749695e+01 -5.296672353287017643e+01 -1.340264120902577929e+02 4.667530018670563940e+00 -1.009747900989638651e+02 1.541833113897505712e+02 2.357322216589926356e+01 1.200996586749803718e+01 7.233690942391592671e+01 -4.932815251759667952e+00 1.170112553883804480e+02 -1.589193817726443001e+02 4.542881769597092756e+01 -1.709067439479984216e+02 1.174733319411404153e+02 9.608345910166028148e+01 -6.733580645321954705e+01 4.679307682273940117e+01 2.382383641787966440e+02 -3.047266114760958544e+01 4.167500622941334143e+01 -3.268809999683394807e+01 5.796275531177251139e+01 6.430747016703291763e+01 -6.277630146094002939e+00 1.019562525637385875e+02 1.015345466226023348e+02 -1.939370629390662089e+02 -1.532884995393716849e+02 -1.198558253580130355e+02 -9.449511531797789132e+00 -1.498252581156471024e+02 1.155757810733396553e+02 1.103731251938458087e+02 5.899268333769585837e+01 1.116398087104473902e+01 1.577105621792811689e+02 8.397355998978271430e+01 6.750741097007559688e+01 -1.016389866846997734e+02 1.523757735896016072e+02 -3.583678203886484059e+00 1.093376438005981441e+02 8.817301565254856754e+00 3.674327569842681385e+01 -7.569483499118007330e+01 -9.073687330824428443e+01 7.156960328307789609e+01 -3.840639920366228477e+00 1.461929526107657864e+02 -1.256561907899070718e+01 -2.852512342537969037e+00 4.583166970686789909e+01 2.262551067947162053e+01 1.413228897861978339e+02 1.463811522901149864e+01 3.581485980173016515e+01 -1.545598992822526441e+02 6.577449850007553778e+01 1.335046907705109902e+02 -1.762919966635086411e+01 -2.276757318354222832e+02 8.426340912831069829e+01 1.358162094955191321e+02 2.027101125417263461e+01 1.883476256003772278e+02 -4.168863991311148709e+00 4.271297421778136538e+01 -4.339781411933591215e+01 -1.379614917218330845e+02 5.570360425784732428e+01 -4.720716992558730851e+01 -8.056874707939152813e+01 4.096609390321006572e+01 -1.836224238456783837e+02 7.123689141054317986e+01 1.632924349709087437e+02 -1.005263191373944665e+02 1.717464431287168054e+02 -9.693641666855812389e+01 -5.934854676608366297e+00 -1.044577946992274953e+01 7.602157987911590453e+01 -4.621831241772353138e+01 -1.069240745738292730e+02 -8.781502737417739013e+01 1.445298482882016344e+02 5.858842459600088404e+01 -1.305809470220714843e+02 4.394791625969531879e+00 4.302815771927982524e+01 8.178550156061133691e+01 -3.994691704917106279e+01 5.939696479172236820e+01 -6.829577351537093932e+01 -1.607445558307109650e+02 -3.428645592252478735e+01 1.395509584586592098e+02 -1.122223823769685538e+02 -6.345082218875560010e+00 -1.612142130801605902e+02 -4.744979281073875121e+00 -1.443408913817377481e+02 3.255961966217029158e+01 5.952456514030514967e+01 -4.978422220853381930e+01 -8.148692816506213887e+01 5.571755967612649130e+00 7.356616215186164709e+01 -6.700791215707468496e+01 1.331656593605487728e+02 1.043104480632481881e+02 -1.261599666972423961e+02 -1.042159683080110284e+02 1.334752586739015214e+02 7.047443642725409063e+01 1.483694863099470069e+02 9.892092311974467123e+01 8.015005598471125836e+01 -5.950629926587698293e+01 -8.072194939508840150e+01 -7.606888382572556395e+01 2.018170598704375038e+02 3.014759858942587556e+01 -2.456944323597781477e+01 -6.759151608668416600e+01 -4.930259471461894094e+01 -1.293816372571453712e+02 -1.625696818007453359e+01 -1.723771190760102456e+02 1.228408982388325796e+02 4.519891707652833190e+01 -1.132067500616209941e+02 -4.753863545554217751e+01 1.176331540508147100e+02 -9.524827094207655875e+01 1.010095534725795119e+02 -1.163621117334350572e+02 -1.156074017253358122e+01 -9.380672023586896557e+01 8.812354320984265144e+01 -4.172165095449213368e+01 1.012554804886267767e+01 2.880971527571522728e+01 -1.243775325371154707e+02 1.227613010134944815e+01 4.747284628955451780e+01 -2.198421959267487580e+01 -6.749994005032381494e+01 1.988566811130084204e+02 8.487804456037056866e+01 4.626453521923640722e+01 -3.084305873730959036e+01 7.876060094549872304e+01 1.645302398569389197e+02 -9.057602898444301331e+01 2.056134330822559946e+02 -1.306544205955399889e+02 -1.805373658170053943e+02 1.490342016492573691e+02 -2.296438308602147060e+02 -9.615288385234711521e-01 -2.404025632809997717e+02 -1.500852686072345819e+02 7.043501367007576164e+01 -1.429341352736508952e+02 5.729884600765129221e+01 1.078793867887106188e+02 -1.573954748944360347e+02 -2.956568270393261955e+01 7.401103846820348053e+01 1.314437445955538806e+02 -1.826513516148290819e+02 8.585242709951067752e+01 -9.614349719732283006e+01 -9.684467373057142225e+00 -1.361938156970255598e+01 -7.810204100613610478e+01 -8.863201933311971459e+01 1.780066262149233580e+02 -2.128559173908884716e+01 1.313409451389948357e+00 1.278332402246982298e+02 -8.511187278579684801e+01 -3.379981033467717566e+01 -1.057212159208531546e+02 -4.796088635877232065e+01 5.078759072964780685e+00 5.833226626883350718e+01 -1.327795620038534707e+02 2.332579343939276839e+02 -5.303018271778849879e+01 1.207255430845860360e+02 -4.807077976041897927e+01 1.179632194946865411e+02 1.370211912332413533e+02 4.727197434606178206e+01 1.202993240562386603e+02 -4.259573793562071131e+01 1.379436767836026263e+02 -1.542168642857222380e+02 -6.446311375201781857e+01 -6.208075696761439843e+01 2.518566735309351756e+01 -1.600248694420489528e+02 7.153486395134322606e+01 -3.040910918106050431e+01 -8.149285353795987419e+01 8.835668547966371023e+01 -1.490109489087739973e+02 -8.995723236068776885e+01 -5.189222347803420377e+01 3.262322723085549825e+01 1.280275572353369000e+02 1.152477960380487048e+02 6.816617282593085747e+01 -1.570720087889581507e+00 1.724643514923095609e+02 1.208363240874059414e+02 -9.314759374350860810e+01 -7.706367412127377747e+01 5.456199025954656179e+01 9.835072709491724297e+00 9.662178053753162033e+01 1.643829813110517648e+02 6.960808141994054665e+01 2.406757427320200904e+01 -1.007767157391533885e+02 1.693953696617413414e+02 -1.120807875072714523e+02 -1.629465469053903632e+02 6.479082189385378854e+01 1.099011976100593699e+02 1.935569733813971993e+01 -1.368492422249203173e+02 2.929818577176763839e+01 4.180515723467106426e+01 -3.267865831176320346e-01 1.290025254582376988e+02 9.620846293620731160e+01 1.685431601537580093e+01 7.717594483602255195e+01 -1.053939945023815312e+02 -6.232568177113028796e+00 9.684847420362147830e+01 2.923680668491687484e+01 -6.404229286857560055e+01 1.950090112387016745e+02 2.275529966785228169e+02 -1.235661386981745693e+02 -2.718561992576034925e+01 -2.069174619420868169e+02 -7.105007145031825644e+01 1.541340475099518983e+02 3.339942680921960338e+00 -6.986141153454185826e+01 1.611811769225901685e+02 -6.150750839363256972e+01 -1.580289667578391004e+02 1.343566299705365168e+02 -6.612333398636475579e+01 3.391777429779256892e+01 8.494437849831068377e+01 1.355832293126275800e+01 -2.343290845815832881e+02 4.160488228948266709e+01 -6.044192204645832511e+00 8.860673698067152770e+01 -2.317378882602902834e+01 9.946719568350681584e+01 1.669554095601360189e+01 -8.332932866102007097e+01 -2.013874762413648867e+01 -1.723131991537576937e+02 1.130729410278043758e+02 2.485310469663932409e+01 -4.093036778358768402e+01 -5.094367236164190871e+01 -6.183725332251287909e+01 4.042358658231944446e+01 1.580052434544511470e+02 1.304806185725372245e+02 4.234100563492857106e+01 -1.945510583207160664e+02 -3.814435492016956886e+01 4.308175565764274495e+01 1.153717402918904185e+02 8.575467963883686195e+01 1.519034728263650713e+01 -1.829168887363718454e+02 1.294962721486549526e+02 -2.200063541736064678e+02 -2.023636391840697684e+02 -1.810597879753542250e+00 -7.253814764051124087e+01 -2.369118445252178518e+01 8.566759909354169622e+01 5.498450839122838829e+01 -1.093411552877276023e+02 -1.489179286082097917e+02 1.434605767131586518e+01 1.216192814536559865e+02 2.034719423183990017e+01 -5.576016207072272124e+01 -5.076345793539551465e+01 -1.155772250048232586e+01 1.586726183046195331e+02 2.199747739115112211e+01 -1.738441598585367274e+02 1.284258934429912813e+02 -6.687384295097417919e+01 -4.179454759679718023e+00 1.541459103360826930e+02 -5.235096274524548221e+01 -1.960489191170748668e+01 -1.099600275181861377e+02 -6.012484229667278690e+00 -2.387905728325865340e+01 1.318334158210363114e+02 1.202062522828402251e+02 6.764927785079498790e+01 6.549059542412966550e+01 -1.872997033259531463e+01 1.353408825479059772e+02 -1.128682650344105838e+02 -4.264976660542205700e+00 -9.114415578696822706e+01 1.572830399948130662e+02 7.301387049666621465e+01 5.173957085954694435e+01 8.279002970421775132e+00 -5.333869396682045760e+01 3.441634189315870884e+01 6.750486064090171823e+00 3.619686929423197252e+00 2.413537648941961322e+01 5.983131328863042597e+01 1.704103151254424233e+02 -3.887207979656274404e+01 -5.203133590831899369e+01 6.684534699037180872e+01 1.157711197301218959e+02 -1.282167812940248020e+01 9.200973797301269030e+01 1.041353800173247919e+02 2.109340077395556534e+02 -8.661390948800490719e+01 -1.227818851045121278e+02 -2.866072482213054684e+01 6.219218698026040215e+01 -1.015430014612293164e+01 1.074864354652626730e+02 3.726112802735823237e+01 -1.627214611060890661e+02 4.508305207733906883e+01 -8.950260197792619010e+01 -1.353552556667532087e+02 1.345506163419769337e+02 -7.605240485569758846e+01 5.916699549682066106e+01 1.112107761893753235e+02 -9.902930702681928210e+01 2.348139681447175775e+01 -7.213994937431910159e+01 4.026086177159174184e+01 -1.145722190717906983e+02 6.155681703787286096e+01 5.464770750525613607e+01 3.907158171968225346e+00 8.400997353608933338e+01 -1.528191879564036526e+02 7.632025190469978781e+01 -2.924400597051619499e+01 -1.676026438581239972e+02 9.373607799059784895e+01 2.433378635094465992e+01 -1.945963244317719898e+02 2.333893423988058373e+02 -5.286680061326211044e-01 1.043347339758443439e+02 -1.196417584517465400e+02 -1.926589090566627362e+02 -9.257581753172839001e+01 2.462418207218119548e+00 1.417604309264450251e+02 3.966088002595259177e+00 -9.481129095764249826e+01 4.999437874419259487e+01 1.359564892119151125e+02 6.446554946361105465e+01 -5.132955677450873821e+01 -5.867188950676859349e+01 8.383582630206724673e+01 3.050002116657015350e+01 -1.940029977683182949e+02 -2.056822340257310699e+01 1.676914680250114884e+02 9.803947962533163718e+01 -5.686976426608837443e+01 -1.109160433987917713e+02 -4.233978855480476966e+01 -4.769889128431980652e+01 -1.135418686298665705e+02 -1.832705876259121780e+01 -4.529947790003516417e+01 -1.127136920058936767e+02 -1.308442243639927938e+02 -2.672045192471583519e+01 -1.246668847790278107e+02 -1.327320591509104304e+02 -3.802704445370899577e+01 -5.490736737849312732e+01 -1.101237582363428942e+02 1.913402283054735733e+02 1.082226224730153774e+01 -2.891754403672824125e+01 -1.748135522177990708e+01 8.086077841083307760e+01 1.607587854873305844e+01 2.574609655587697432e+01 -2.187221687250390545e+01 -4.753193302413266963e+01 2.150130077140976326e+01 -1.494198032724273446e+02 -1.636334965047273045e+02 -9.294418062463208230e+01 -1.961656353112798570e+02 -9.211978647784063412e+01 8.819009694722171844e+01 6.309498973816159406e+01 -2.678686451606023411e+01 6.246349227069666910e+01 -1.609246680700469483e+02 -4.197007043782996760e+01 -1.193686070209076462e+02 -6.861326481451169457e+01 2.168293606062480592e+02 -2.110103051037621640e+02 2.109898257183751582e+02 2.568791308705154819e+01 -5.804494792169468553e+01 9.481464221506132617e+01 1.275435185876828115e+02 -5.333706867049549771e+01 -2.094161151424285663e+02 -1.532564657263716015e+02 1.051224098152456463e+02 8.609740150704033113e+01 -1.393641326553379258e+02 3.284604023236389025e+01 -4.077476170549628876e+01 -7.955950270955344195e+01 -2.921757398717877408e+01 -5.635624157542302015e+01 -8.884974033519353043e+01 -3.498992859381433362e+01 4.609574867823430289e+00 -3.361331533188010212e+01 -4.030398904290677931e-01 -1.475397647680877711e+01 9.453979760582406300e+01 1.306333155631001546e+02 1.353496404038057577e+01 1.725960678468488041e+01 -6.487420092119663195e+01 -2.014990102174728577e+02 3.479770994413362928e+01 -9.429262356034151082e+01 2.655134763762309902e+01 -8.401783430599035540e+00 1.052336776645659500e+00 7.430320205667192113e+01 1.252824649097207725e+02 -7.243211975909522948e+01 3.905931992334255654e+01 -1.982312194806393109e+02 9.941442240630397720e+00 7.185664786501190449e+00 -1.259705308191389150e+02 -3.466620839726103753e+01 -4.556444714772352000e+01 4.904190999270293894e+00 -1.051048545019312712e+02 2.781038578872849243e+01 -1.003753143692969871e+02 5.767489983299791589e+01 6.974297382267575074e+01 3.791139713227578056e+01 -2.982712847012382795e+01 1.104467980526762574e+02 6.277184038332885763e+01 8.221833211763787119e+01 -6.885175937853985317e+01 2.085420310972996560e+01 1.314241130900181247e+02 -6.008720300578117701e+01 -7.104039556341693817e+00 3.287053358535114711e+01 -1.319272659319447598e+02 1.004972576059715266e+02 9.202029425628576575e+01 -1.038945570621372809e+02 -8.459094181191041173e+01 -5.702806081538422234e+01 -4.680066969103034324e+01 -1.645906429269934392e+02 -1.395804704482705461e+02 -1.360294020920611331e+02 1.084890038470719418e+02 6.137050007773207483e+01 1.637597745833361387e+02 7.388116712615335757e+00 -8.800278067720380193e+01 1.922748316176997818e+01 1.419526209670910610e+01 -6.517840642710159216e+01 7.598047807817384580e+01 1.211290145040137247e+02 1.024773315681443542e+01 1.471088010525909340e+02 2.308894679989767695e+01 1.138083567216707337e+02 1.548036413308950898e+01 -2.130853470722494194e+02 2.239354650922500127e+02 -5.017923528476272566e+01 -1.528908416594215396e+02 -6.888527316840324488e+01 -4.399429810358459036e+01 4.220881096669324961e+01 2.610624344626551974e+01 4.665124551570241351e+01 -7.556400714770154536e+01 1.247421335166473710e+02 -8.790757968013197399e+01 -7.143084792865464827e+00 1.451061658821741673e+02 1.116315864646003178e+02 5.904805881728094619e+01 -1.801627251021812413e+02 2.587661101388002649e+01 1.428204342817219299e+02 2.383018107577192524e+01 9.919148736543998268e+01 1.081379821356294428e+02 -2.147206379427019556e+02 7.810147823403782752e+01 -5.862181656784226647e+01 -2.282099350960429263e+02 8.974347546084176486e+01 2.490305695055168300e+01 -1.231109047627095663e+02 -5.900139858629980694e+01 1.396606699866748045e+02 1.482368061755556710e+02 -7.608870396123060686e+01 -1.281017182940689452e+02 -8.354855797145097540e+01 -1.659123524860857799e+02 1.955117119229146638e+01 3.786915023934196967e+01 -1.691153605124376114e+01 -1.233599133838219153e+01 -8.911832086340444903e+01 -8.790539180037198719e+01 -2.449941582187193845e+01 1.327148239413727708e+02 1.348844156835291130e+02 8.025431161284406301e+01 9.596326531415836314e+01 -7.760272290390646788e+01 -1.781397682967756282e+02 -1.304088666836265809e+01 -2.281626100122784706e+01 -6.991591484710669135e+01 1.473370077738298978e+00 7.193007794854980830e+01 -5.209799797540149768e+01 2.426468202594279333e+01 7.794308297463281576e+01 6.900180188120720004e+01 1.087977288518205228e+02 -1.468448172626084727e+02 3.902015404790193998e+01 8.200723614019359786e+01 9.327427675866694301e+01 5.814287138006133659e+01 -1.016210372088609972e+02 1.347894494685940572e+02 1.254654094808649631e+02 9.433593386374707279e+01 9.994034535925838725e+01 -8.290373637392453077e+01 -1.463805522064502895e+01 -1.272698395597663001e+01 7.585011902927652727e+01 6.395042595939012386e+01 5.509699305421476367e+01 9.605274006525201003e+01 1.146548558966790239e+02 1.219463799451721826e+02 -6.388036623590277685e+01 7.933476235052536651e+01 6.422296595581356371e+01 -1.158160903302699865e+02 1.295442818653726249e+02 -9.880556027356821147e+00 -2.748659153363399810e+01 1.962143589884520622e+02 8.712547269124048910e+01 1.222257362725125773e+02 -1.421766313670084116e+02 -1.554490626509494859e+02 -1.514865179831612920e+02 -1.203996069383426857e+02 -4.364989344787596082e+01 1.082568990675521832e+02 -1.663088851518976981e+02 3.208022763224417417e+01 1.423986424713329484e+02 -5.855293184228482772e+01 -9.014942818491307719e+01 -3.466119525487240338e+01 1.341448947265390643e+02 2.244421736379076151e+02 -6.582569384832054027e+01 1.957307641884771598e+01 -2.736011040368013880e+01 6.767156704159754099e+01 5.954540755543659714e+01 -2.107424157927316912e+02 -8.764175613064492154e+01 1.360106606014419697e+02 1.382240043120480664e+02 9.348224339292917762e+01 -4.926165764542820824e+01 -7.497802668410466254e+01 -4.491470035894611357e+01 -1.746458156353268407e+02 7.040108519872920567e+01 -2.539783951811996587e+01 1.646485350976717257e+02 -2.764026951053340397e+01 -3.113496372617269685e+02 1.434084521905216718e+02 4.978222515880927546e+01 -1.167873002037683818e+02 -2.192987556885831779e+01 3.496333246365782799e+01 -2.056434469474096147e+02 -1.131716063585602399e+02 -1.085465729178316252e+02 -5.588916374457628677e+01 6.220609810572651099e+01 -1.632654568605034058e+02 1.069112392350715481e+02 -5.380859792598081270e+01 2.885333533441069687e+00 -1.321828772778795837e+02 -1.026563009411967045e+02 1.742498170607781844e+02 8.587679314605283309e+01 -4.185489948333021459e+01 3.683932069318873204e+01 -2.780819441915282653e+01 4.286282767826354956e+01 -1.037046153538148019e+02 9.799848882669014927e+01 5.007332881717593409e+01 -1.178891594403921488e+02 1.157647703566276647e+02 -4.872082760420519065e+01 9.907392872800360806e+01 -4.899615758467732007e+01 8.765426212150215690e+01 -1.521495837941948821e+02 1.415422379079120674e+02 2.456991720256314338e+01 9.983989741808235863e+01 1.293793556705127230e+02 -1.454946342635394956e+02 -8.522729415869596892e+01 -1.048122467370608177e+02 6.636249908744878212e+01 -1.700404831538332644e+02 1.503483096645331045e+02 1.413198191777009356e+02 5.258776787053349722e+01 -8.426830968075704220e+01 5.663742832619010414e+01 -1.065226005980625956e+02 -1.086998462125403186e+01 3.473160628264521677e+01 -1.824267696561666128e+02 -8.100880420473816912e+01 -1.343957654191745377e+01 1.014935737917692222e+02 -4.986213650547583853e+01 1.079685081355015797e+02 -6.390142588212889763e+01 -2.094017936963885518e+02 -1.063891296982941270e+02 -3.384584599620617240e+01 -5.979976818364833946e+01 2.990470756915215489e+01 5.106226106238121787e+01 6.307936805267853941e+00 2.516673965300131854e+01 -1.166009058372786598e+02 5.352170707232562563e+01 3.243805558432885761e+01 -7.176153791586132513e+01 9.211308000101285032e+00 5.601319407023892438e+01 -9.488125215672522472e+01 -5.477778829775175495e+01 -2.401712936350019589e+01 9.707416491188493524e+01 -1.703949623910541433e+01 4.171966267641151305e+00 -2.269038897520576370e+02 -9.455769483532806419e+01 9.843854709294245708e+01 -8.878148042088562875e+01 3.118658946843379809e+01 3.091391842205017326e+01 3.775070591130435105e+01 6.576961078443271447e+01 -1.766208016532662270e+02 1.432991858302563628e+02 8.111140187648743449e+01 -7.484880726457024736e+00 -8.043762277096432456e+01 1.114032498366941013e+02 6.181635463443891609e+01 -2.001980547309389351e+02 -5.016054318091983077e+01 -8.133159640918115940e+01 -5.160858199773750954e+01 -6.166437146111833556e+01 -9.861789160129454501e+01 -6.010837491075714922e+01 1.906734912186363431e+02 -1.700483803891911521e+02 6.520259725290611641e+01 2.762514274884105347e+01 -7.486217684992183763e+01 1.034137766040090867e+01 -3.925457269083638323e+01 3.415039020550137749e+00 -9.573526768474319226e+01 -1.967418305205643208e+02 1.831820153517245231e+01 4.173918860754719162e+01 -1.274637971733933206e+01 -8.975308768976463014e+00 -3.962006194030998074e+01 -1.891651068600143901e+02 -3.052538273296915960e+01 -6.510587659847158193e+01 1.390816827310237258e+01 -1.554992785216053974e+01 9.020305740545235551e+01 -6.278994566246795728e+01 -1.032975178488530901e+02 -3.559921621478760301e+01 -8.973933062872228916e+00 4.532261225808927207e+01 -2.205453360360029436e+01 -7.347439516757259526e+01 -1.581538559457352200e+01 1.998814751893375430e+01 4.732737644386556042e+01 -1.135921756875043798e+02 -1.385280432386549592e+02 2.295178925300247101e+02 -2.175030463143656903e+02 -7.568132438232733250e+01 -4.617828767204819229e+01 1.393745605561929324e+02 6.306294106760983453e+01 2.280944688972806489e+02 2.439192663985767240e+02 -6.212869193371282961e+01 1.290323970332098611e+02 -5.578013839725974776e+01 -4.067612661882304792e+01 -1.003087603057662278e+02 -7.957779154798487298e+01 -6.933698090110424062e+01 -8.870616636144150391e+01 -2.429742274693666388e+02 -2.699795229774835548e+02 1.342538903043380003e+02 -2.644450913551585458e+01 5.309252687705834006e+01 1.304500121041620844e+02
