# 
#                 ----------------------------------------------------
#                 Data from a 3D direct N-body simulation. 
# 
#                 rows are i-particle; 
#                 coumns are :mass, tag, x ,y, z, vx, vy, vz, ax, ay, az
# 
#                 NTHU, Computational Physics Lab
# 
#                 ----------------------------------------------------
#                 Time = 6.199999999999912
1.000000000000000000e+00 2.000000000000000000e+00 3.000000000000000000e+00 4.000000000000000000e+00 5.000000000000000000e+00 6.000000000000000000e+00 7.000000000000000000e+00 8.000000000000000000e+00 9.000000000000000000e+00 1.000000000000000000e+01 1.100000000000000000e+01 1.200000000000000000e+01 1.300000000000000000e+01 1.400000000000000000e+01 1.500000000000000000e+01 1.600000000000000000e+01 1.700000000000000000e+01 1.800000000000000000e+01 1.900000000000000000e+01 2.000000000000000000e+01 2.100000000000000000e+01 2.200000000000000000e+01 2.300000000000000000e+01 2.400000000000000000e+01 2.500000000000000000e+01 2.600000000000000000e+01 2.700000000000000000e+01 2.800000000000000000e+01 2.900000000000000000e+01 3.000000000000000000e+01 3.100000000000000000e+01 3.200000000000000000e+01 3.300000000000000000e+01 3.400000000000000000e+01 3.500000000000000000e+01 3.600000000000000000e+01 3.700000000000000000e+01 3.800000000000000000e+01 3.900000000000000000e+01 4.000000000000000000e+01 4.100000000000000000e+01 4.200000000000000000e+01 4.300000000000000000e+01 4.400000000000000000e+01 4.500000000000000000e+01 4.600000000000000000e+01 4.700000000000000000e+01 4.800000000000000000e+01 4.900000000000000000e+01 5.000000000000000000e+01 5.100000000000000000e+01 5.200000000000000000e+01 5.300000000000000000e+01 5.400000000000000000e+01 5.500000000000000000e+01 5.600000000000000000e+01 5.700000000000000000e+01 5.800000000000000000e+01 5.900000000000000000e+01 6.000000000000000000e+01 6.100000000000000000e+01 6.200000000000000000e+01 6.300000000000000000e+01 6.400000000000000000e+01 6.500000000000000000e+01 6.600000000000000000e+01 6.700000000000000000e+01 6.800000000000000000e+01 6.900000000000000000e+01 7.000000000000000000e+01 7.100000000000000000e+01 7.200000000000000000e+01 7.300000000000000000e+01 7.400000000000000000e+01 7.500000000000000000e+01 7.600000000000000000e+01 7.700000000000000000e+01 7.800000000000000000e+01 7.900000000000000000e+01 8.000000000000000000e+01 8.100000000000000000e+01 8.200000000000000000e+01 8.300000000000000000e+01 8.400000000000000000e+01 8.500000000000000000e+01 8.600000000000000000e+01 8.700000000000000000e+01 8.800000000000000000e+01 8.900000000000000000e+01 9.000000000000000000e+01 9.100000000000000000e+01 9.200000000000000000e+01 9.300000000000000000e+01 9.400000000000000000e+01 9.500000000000000000e+01 9.600000000000000000e+01 9.700000000000000000e+01 9.800000000000000000e+01 9.900000000000000000e+01 1.000000000000000000e+02 1.010000000000000000e+02 1.020000000000000000e+02 1.030000000000000000e+02 1.040000000000000000e+02 1.050000000000000000e+02 1.060000000000000000e+02 1.070000000000000000e+02 1.080000000000000000e+02 1.090000000000000000e+02 1.100000000000000000e+02 1.110000000000000000e+02 1.120000000000000000e+02 1.130000000000000000e+02 1.140000000000000000e+02 1.150000000000000000e+02 1.160000000000000000e+02 1.170000000000000000e+02 1.180000000000000000e+02 1.190000000000000000e+02 1.200000000000000000e+02 1.210000000000000000e+02 1.220000000000000000e+02 1.230000000000000000e+02 1.240000000000000000e+02 1.250000000000000000e+02 1.260000000000000000e+02 1.270000000000000000e+02 1.280000000000000000e+02 1.290000000000000000e+02 1.300000000000000000e+02 1.310000000000000000e+02 1.320000000000000000e+02 1.330000000000000000e+02 1.340000000000000000e+02 1.350000000000000000e+02 1.360000000000000000e+02 1.370000000000000000e+02 1.380000000000000000e+02 1.390000000000000000e+02 1.400000000000000000e+02 1.410000000000000000e+02 1.420000000000000000e+02 1.430000000000000000e+02 1.440000000000000000e+02 1.450000000000000000e+02 1.460000000000000000e+02 1.470000000000000000e+02 1.480000000000000000e+02 1.490000000000000000e+02 1.500000000000000000e+02 1.510000000000000000e+02 1.520000000000000000e+02 1.530000000000000000e+02 1.540000000000000000e+02 1.550000000000000000e+02 1.560000000000000000e+02 1.570000000000000000e+02 1.580000000000000000e+02 1.590000000000000000e+02 1.600000000000000000e+02 1.610000000000000000e+02 1.620000000000000000e+02 1.630000000000000000e+02 1.640000000000000000e+02 1.650000000000000000e+02 1.660000000000000000e+02 1.670000000000000000e+02 1.680000000000000000e+02 1.690000000000000000e+02 1.700000000000000000e+02 1.710000000000000000e+02 1.720000000000000000e+02 1.730000000000000000e+02 1.740000000000000000e+02 1.750000000000000000e+02 1.760000000000000000e+02 1.770000000000000000e+02 1.780000000000000000e+02 1.790000000000000000e+02 1.800000000000000000e+02 1.810000000000000000e+02 1.820000000000000000e+02 1.830000000000000000e+02 1.840000000000000000e+02 1.850000000000000000e+02 1.860000000000000000e+02 1.870000000000000000e+02 1.880000000000000000e+02 1.890000000000000000e+02 1.900000000000000000e+02 1.910000000000000000e+02 1.920000000000000000e+02 1.930000000000000000e+02 1.940000000000000000e+02 1.950000000000000000e+02 1.960000000000000000e+02 1.970000000000000000e+02 1.980000000000000000e+02 1.990000000000000000e+02 2.000000000000000000e+02 2.010000000000000000e+02 2.020000000000000000e+02 2.030000000000000000e+02 2.040000000000000000e+02 2.050000000000000000e+02 2.060000000000000000e+02 2.070000000000000000e+02 2.080000000000000000e+02 2.090000000000000000e+02 2.100000000000000000e+02 2.110000000000000000e+02 2.120000000000000000e+02 2.130000000000000000e+02 2.140000000000000000e+02 2.150000000000000000e+02 2.160000000000000000e+02 2.170000000000000000e+02 2.180000000000000000e+02 2.190000000000000000e+02 2.200000000000000000e+02 2.210000000000000000e+02 2.220000000000000000e+02 2.230000000000000000e+02 2.240000000000000000e+02 2.250000000000000000e+02 2.260000000000000000e+02 2.270000000000000000e+02 2.280000000000000000e+02 2.290000000000000000e+02 2.300000000000000000e+02 2.310000000000000000e+02 2.320000000000000000e+02 2.330000000000000000e+02 2.340000000000000000e+02 2.350000000000000000e+02 2.360000000000000000e+02 2.370000000000000000e+02 2.380000000000000000e+02 2.390000000000000000e+02 2.400000000000000000e+02 2.410000000000000000e+02 2.420000000000000000e+02 2.430000000000000000e+02 2.440000000000000000e+02 2.450000000000000000e+02 2.460000000000000000e+02 2.470000000000000000e+02 2.480000000000000000e+02 2.490000000000000000e+02 2.500000000000000000e+02 2.510000000000000000e+02 2.520000000000000000e+02 2.530000000000000000e+02 2.540000000000000000e+02 2.550000000000000000e+02 2.560000000000000000e+02 2.570000000000000000e+02 2.580000000000000000e+02 2.590000000000000000e+02 2.600000000000000000e+02 2.610000000000000000e+02 2.620000000000000000e+02 2.630000000000000000e+02 2.640000000000000000e+02 2.650000000000000000e+02 2.660000000000000000e+02 2.670000000000000000e+02 2.680000000000000000e+02 2.690000000000000000e+02 2.700000000000000000e+02 2.710000000000000000e+02 2.720000000000000000e+02 2.730000000000000000e+02 2.740000000000000000e+02 2.750000000000000000e+02 2.760000000000000000e+02 2.770000000000000000e+02 2.780000000000000000e+02 2.790000000000000000e+02 2.800000000000000000e+02 2.810000000000000000e+02 2.820000000000000000e+02 2.830000000000000000e+02 2.840000000000000000e+02 2.850000000000000000e+02 2.860000000000000000e+02 2.870000000000000000e+02 2.880000000000000000e+02 2.890000000000000000e+02 2.900000000000000000e+02 2.910000000000000000e+02 2.920000000000000000e+02 2.930000000000000000e+02 2.940000000000000000e+02 2.950000000000000000e+02 2.960000000000000000e+02 2.970000000000000000e+02 2.980000000000000000e+02 2.990000000000000000e+02 3.000000000000000000e+02 3.010000000000000000e+02 3.020000000000000000e+02 3.030000000000000000e+02 3.040000000000000000e+02 3.050000000000000000e+02 3.060000000000000000e+02 3.070000000000000000e+02 3.080000000000000000e+02 3.090000000000000000e+02 3.100000000000000000e+02 3.110000000000000000e+02 3.120000000000000000e+02 3.130000000000000000e+02 3.140000000000000000e+02 3.150000000000000000e+02 3.160000000000000000e+02 3.170000000000000000e+02 3.180000000000000000e+02 3.190000000000000000e+02 3.200000000000000000e+02 3.210000000000000000e+02 3.220000000000000000e+02 3.230000000000000000e+02 3.240000000000000000e+02 3.250000000000000000e+02 3.260000000000000000e+02 3.270000000000000000e+02 3.280000000000000000e+02 3.290000000000000000e+02 3.300000000000000000e+02 3.310000000000000000e+02 3.320000000000000000e+02 3.330000000000000000e+02 3.340000000000000000e+02 3.350000000000000000e+02 3.360000000000000000e+02 3.370000000000000000e+02 3.380000000000000000e+02 3.390000000000000000e+02 3.400000000000000000e+02 3.410000000000000000e+02 3.420000000000000000e+02 3.430000000000000000e+02 3.440000000000000000e+02 3.450000000000000000e+02 3.460000000000000000e+02 3.470000000000000000e+02 3.480000000000000000e+02 3.490000000000000000e+02 3.500000000000000000e+02 3.510000000000000000e+02 3.520000000000000000e+02 3.530000000000000000e+02 3.540000000000000000e+02 3.550000000000000000e+02 3.560000000000000000e+02 3.570000000000000000e+02 3.580000000000000000e+02 3.590000000000000000e+02 3.600000000000000000e+02 3.610000000000000000e+02 3.620000000000000000e+02 3.630000000000000000e+02 3.640000000000000000e+02 3.650000000000000000e+02 3.660000000000000000e+02 3.670000000000000000e+02 3.680000000000000000e+02 3.690000000000000000e+02 3.700000000000000000e+02 3.710000000000000000e+02 3.720000000000000000e+02 3.730000000000000000e+02 3.740000000000000000e+02 3.750000000000000000e+02 3.760000000000000000e+02 3.770000000000000000e+02 3.780000000000000000e+02 3.790000000000000000e+02 3.800000000000000000e+02 3.810000000000000000e+02 3.820000000000000000e+02 3.830000000000000000e+02 3.840000000000000000e+02 3.850000000000000000e+02 3.860000000000000000e+02 3.870000000000000000e+02 3.880000000000000000e+02 3.890000000000000000e+02 3.900000000000000000e+02 3.910000000000000000e+02 3.920000000000000000e+02 3.930000000000000000e+02 3.940000000000000000e+02 3.950000000000000000e+02 3.960000000000000000e+02 3.970000000000000000e+02 3.980000000000000000e+02 3.990000000000000000e+02 4.000000000000000000e+02 4.010000000000000000e+02 4.020000000000000000e+02 4.030000000000000000e+02 4.040000000000000000e+02 4.050000000000000000e+02 4.060000000000000000e+02 4.070000000000000000e+02 4.080000000000000000e+02 4.090000000000000000e+02 4.100000000000000000e+02 4.110000000000000000e+02 4.120000000000000000e+02 4.130000000000000000e+02 4.140000000000000000e+02 4.150000000000000000e+02 4.160000000000000000e+02 4.170000000000000000e+02 4.180000000000000000e+02 4.190000000000000000e+02 4.200000000000000000e+02 4.210000000000000000e+02 4.220000000000000000e+02 4.230000000000000000e+02 4.240000000000000000e+02 4.250000000000000000e+02 4.260000000000000000e+02 4.270000000000000000e+02 4.280000000000000000e+02 4.290000000000000000e+02 4.300000000000000000e+02 4.310000000000000000e+02 4.320000000000000000e+02 4.330000000000000000e+02 4.340000000000000000e+02 4.350000000000000000e+02 4.360000000000000000e+02 4.370000000000000000e+02 4.380000000000000000e+02 4.390000000000000000e+02 4.400000000000000000e+02 4.410000000000000000e+02 4.420000000000000000e+02 4.430000000000000000e+02 4.440000000000000000e+02 4.450000000000000000e+02 4.460000000000000000e+02 4.470000000000000000e+02 4.480000000000000000e+02 4.490000000000000000e+02 4.500000000000000000e+02 4.510000000000000000e+02 4.520000000000000000e+02 4.530000000000000000e+02 4.540000000000000000e+02 4.550000000000000000e+02 4.560000000000000000e+02 4.570000000000000000e+02 4.580000000000000000e+02 4.590000000000000000e+02 4.600000000000000000e+02 4.610000000000000000e+02 4.620000000000000000e+02 4.630000000000000000e+02 4.640000000000000000e+02 4.650000000000000000e+02 4.660000000000000000e+02 4.670000000000000000e+02 4.680000000000000000e+02 4.690000000000000000e+02 4.700000000000000000e+02 4.710000000000000000e+02 4.720000000000000000e+02 4.730000000000000000e+02 4.740000000000000000e+02 4.750000000000000000e+02 4.760000000000000000e+02 4.770000000000000000e+02 4.780000000000000000e+02 4.790000000000000000e+02 4.800000000000000000e+02 4.810000000000000000e+02 4.820000000000000000e+02 4.830000000000000000e+02 4.840000000000000000e+02 4.850000000000000000e+02 4.860000000000000000e+02 4.870000000000000000e+02 4.880000000000000000e+02 4.890000000000000000e+02 4.900000000000000000e+02 4.910000000000000000e+02 4.920000000000000000e+02 4.930000000000000000e+02 4.940000000000000000e+02 4.950000000000000000e+02 4.960000000000000000e+02 4.970000000000000000e+02 4.980000000000000000e+02 4.990000000000000000e+02 5.000000000000000000e+02 5.010000000000000000e+02 5.020000000000000000e+02 5.030000000000000000e+02 5.040000000000000000e+02 5.050000000000000000e+02 5.060000000000000000e+02 5.070000000000000000e+02 5.080000000000000000e+02 5.090000000000000000e+02 5.100000000000000000e+02 5.110000000000000000e+02 5.120000000000000000e+02 5.130000000000000000e+02 5.140000000000000000e+02 5.150000000000000000e+02 5.160000000000000000e+02 5.170000000000000000e+02 5.180000000000000000e+02 5.190000000000000000e+02 5.200000000000000000e+02 5.210000000000000000e+02 5.220000000000000000e+02 5.230000000000000000e+02 5.240000000000000000e+02 5.250000000000000000e+02 5.260000000000000000e+02 5.270000000000000000e+02 5.280000000000000000e+02 5.290000000000000000e+02 5.300000000000000000e+02 5.310000000000000000e+02 5.320000000000000000e+02 5.330000000000000000e+02 5.340000000000000000e+02 5.350000000000000000e+02 5.360000000000000000e+02 5.370000000000000000e+02 5.380000000000000000e+02 5.390000000000000000e+02 5.400000000000000000e+02 5.410000000000000000e+02 5.420000000000000000e+02 5.430000000000000000e+02 5.440000000000000000e+02 5.450000000000000000e+02 5.460000000000000000e+02 5.470000000000000000e+02 5.480000000000000000e+02 5.490000000000000000e+02 5.500000000000000000e+02 5.510000000000000000e+02 5.520000000000000000e+02 5.530000000000000000e+02 5.540000000000000000e+02 5.550000000000000000e+02 5.560000000000000000e+02 5.570000000000000000e+02 5.580000000000000000e+02 5.590000000000000000e+02 5.600000000000000000e+02 5.610000000000000000e+02 5.620000000000000000e+02 5.630000000000000000e+02 5.640000000000000000e+02 5.650000000000000000e+02 5.660000000000000000e+02 5.670000000000000000e+02 5.680000000000000000e+02 5.690000000000000000e+02 5.700000000000000000e+02 5.710000000000000000e+02 5.720000000000000000e+02 5.730000000000000000e+02 5.740000000000000000e+02 5.750000000000000000e+02 5.760000000000000000e+02 5.770000000000000000e+02 5.780000000000000000e+02 5.790000000000000000e+02 5.800000000000000000e+02 5.810000000000000000e+02 5.820000000000000000e+02 5.830000000000000000e+02 5.840000000000000000e+02 5.850000000000000000e+02 5.860000000000000000e+02 5.870000000000000000e+02 5.880000000000000000e+02 5.890000000000000000e+02 5.900000000000000000e+02 5.910000000000000000e+02 5.920000000000000000e+02 5.930000000000000000e+02 5.940000000000000000e+02 5.950000000000000000e+02 5.960000000000000000e+02 5.970000000000000000e+02 5.980000000000000000e+02 5.990000000000000000e+02 6.000000000000000000e+02 6.010000000000000000e+02 6.020000000000000000e+02 6.030000000000000000e+02 6.040000000000000000e+02 6.050000000000000000e+02 6.060000000000000000e+02 6.070000000000000000e+02 6.080000000000000000e+02 6.090000000000000000e+02 6.100000000000000000e+02 6.110000000000000000e+02 6.120000000000000000e+02 6.130000000000000000e+02 6.140000000000000000e+02 6.150000000000000000e+02 6.160000000000000000e+02 6.170000000000000000e+02 6.180000000000000000e+02 6.190000000000000000e+02 6.200000000000000000e+02 6.210000000000000000e+02 6.220000000000000000e+02 6.230000000000000000e+02 6.240000000000000000e+02 6.250000000000000000e+02 6.260000000000000000e+02 6.270000000000000000e+02 6.280000000000000000e+02 6.290000000000000000e+02 6.300000000000000000e+02 6.310000000000000000e+02 6.320000000000000000e+02 6.330000000000000000e+02 6.340000000000000000e+02 6.350000000000000000e+02 6.360000000000000000e+02 6.370000000000000000e+02 6.380000000000000000e+02 6.390000000000000000e+02 6.400000000000000000e+02 6.410000000000000000e+02 6.420000000000000000e+02 6.430000000000000000e+02 6.440000000000000000e+02 6.450000000000000000e+02 6.460000000000000000e+02 6.470000000000000000e+02 6.480000000000000000e+02 6.490000000000000000e+02 6.500000000000000000e+02 6.510000000000000000e+02 6.520000000000000000e+02 6.530000000000000000e+02 6.540000000000000000e+02 6.550000000000000000e+02 6.560000000000000000e+02 6.570000000000000000e+02 6.580000000000000000e+02 6.590000000000000000e+02 6.600000000000000000e+02 6.610000000000000000e+02 6.620000000000000000e+02 6.630000000000000000e+02 6.640000000000000000e+02 6.650000000000000000e+02 6.660000000000000000e+02 6.670000000000000000e+02 6.680000000000000000e+02 6.690000000000000000e+02 6.700000000000000000e+02 6.710000000000000000e+02 6.720000000000000000e+02 6.730000000000000000e+02 6.740000000000000000e+02 6.750000000000000000e+02 6.760000000000000000e+02 6.770000000000000000e+02 6.780000000000000000e+02 6.790000000000000000e+02 6.800000000000000000e+02 6.810000000000000000e+02 6.820000000000000000e+02 6.830000000000000000e+02 6.840000000000000000e+02 6.850000000000000000e+02 6.860000000000000000e+02 6.870000000000000000e+02 6.880000000000000000e+02 6.890000000000000000e+02 6.900000000000000000e+02 6.910000000000000000e+02 6.920000000000000000e+02 6.930000000000000000e+02 6.940000000000000000e+02 6.950000000000000000e+02 6.960000000000000000e+02 6.970000000000000000e+02 6.980000000000000000e+02 6.990000000000000000e+02 7.000000000000000000e+02 7.010000000000000000e+02 7.020000000000000000e+02 7.030000000000000000e+02 7.040000000000000000e+02 7.050000000000000000e+02 7.060000000000000000e+02 7.070000000000000000e+02 7.080000000000000000e+02 7.090000000000000000e+02 7.100000000000000000e+02 7.110000000000000000e+02 7.120000000000000000e+02 7.130000000000000000e+02 7.140000000000000000e+02 7.150000000000000000e+02 7.160000000000000000e+02 7.170000000000000000e+02 7.180000000000000000e+02 7.190000000000000000e+02 7.200000000000000000e+02 7.210000000000000000e+02 7.220000000000000000e+02 7.230000000000000000e+02 7.240000000000000000e+02 7.250000000000000000e+02 7.260000000000000000e+02 7.270000000000000000e+02 7.280000000000000000e+02 7.290000000000000000e+02 7.300000000000000000e+02 7.310000000000000000e+02 7.320000000000000000e+02 7.330000000000000000e+02 7.340000000000000000e+02 7.350000000000000000e+02 7.360000000000000000e+02 7.370000000000000000e+02 7.380000000000000000e+02 7.390000000000000000e+02 7.400000000000000000e+02 7.410000000000000000e+02 7.420000000000000000e+02 7.430000000000000000e+02 7.440000000000000000e+02 7.450000000000000000e+02 7.460000000000000000e+02 7.470000000000000000e+02 7.480000000000000000e+02 7.490000000000000000e+02 7.500000000000000000e+02 7.510000000000000000e+02 7.520000000000000000e+02 7.530000000000000000e+02 7.540000000000000000e+02 7.550000000000000000e+02 7.560000000000000000e+02 7.570000000000000000e+02 7.580000000000000000e+02 7.590000000000000000e+02 7.600000000000000000e+02 7.610000000000000000e+02 7.620000000000000000e+02 7.630000000000000000e+02 7.640000000000000000e+02 7.650000000000000000e+02 7.660000000000000000e+02 7.670000000000000000e+02 7.680000000000000000e+02 7.690000000000000000e+02 7.700000000000000000e+02 7.710000000000000000e+02 7.720000000000000000e+02 7.730000000000000000e+02 7.740000000000000000e+02 7.750000000000000000e+02 7.760000000000000000e+02 7.770000000000000000e+02 7.780000000000000000e+02 7.790000000000000000e+02 7.800000000000000000e+02 7.810000000000000000e+02 7.820000000000000000e+02 7.830000000000000000e+02 7.840000000000000000e+02 7.850000000000000000e+02 7.860000000000000000e+02 7.870000000000000000e+02 7.880000000000000000e+02 7.890000000000000000e+02 7.900000000000000000e+02 7.910000000000000000e+02 7.920000000000000000e+02 7.930000000000000000e+02 7.940000000000000000e+02 7.950000000000000000e+02 7.960000000000000000e+02 7.970000000000000000e+02 7.980000000000000000e+02 7.990000000000000000e+02 8.000000000000000000e+02 8.010000000000000000e+02 8.020000000000000000e+02 8.030000000000000000e+02 8.040000000000000000e+02 8.050000000000000000e+02 8.060000000000000000e+02 8.070000000000000000e+02 8.080000000000000000e+02 8.090000000000000000e+02 8.100000000000000000e+02 8.110000000000000000e+02 8.120000000000000000e+02 8.130000000000000000e+02 8.140000000000000000e+02 8.150000000000000000e+02 8.160000000000000000e+02 8.170000000000000000e+02 8.180000000000000000e+02 8.190000000000000000e+02 8.200000000000000000e+02 8.210000000000000000e+02 8.220000000000000000e+02 8.230000000000000000e+02 8.240000000000000000e+02 8.250000000000000000e+02 8.260000000000000000e+02 8.270000000000000000e+02 8.280000000000000000e+02 8.290000000000000000e+02 8.300000000000000000e+02 8.310000000000000000e+02 8.320000000000000000e+02 8.330000000000000000e+02 8.340000000000000000e+02 8.350000000000000000e+02 8.360000000000000000e+02 8.370000000000000000e+02 8.380000000000000000e+02 8.390000000000000000e+02 8.400000000000000000e+02 8.410000000000000000e+02 8.420000000000000000e+02 8.430000000000000000e+02 8.440000000000000000e+02 8.450000000000000000e+02 8.460000000000000000e+02 8.470000000000000000e+02 8.480000000000000000e+02 8.490000000000000000e+02 8.500000000000000000e+02 8.510000000000000000e+02 8.520000000000000000e+02 8.530000000000000000e+02 8.540000000000000000e+02 8.550000000000000000e+02 8.560000000000000000e+02 8.570000000000000000e+02 8.580000000000000000e+02 8.590000000000000000e+02 8.600000000000000000e+02 8.610000000000000000e+02 8.620000000000000000e+02 8.630000000000000000e+02 8.640000000000000000e+02 8.650000000000000000e+02 8.660000000000000000e+02 8.670000000000000000e+02 8.680000000000000000e+02 8.690000000000000000e+02 8.700000000000000000e+02 8.710000000000000000e+02 8.720000000000000000e+02 8.730000000000000000e+02 8.740000000000000000e+02 8.750000000000000000e+02 8.760000000000000000e+02 8.770000000000000000e+02 8.780000000000000000e+02 8.790000000000000000e+02 8.800000000000000000e+02 8.810000000000000000e+02 8.820000000000000000e+02 8.830000000000000000e+02 8.840000000000000000e+02 8.850000000000000000e+02 8.860000000000000000e+02 8.870000000000000000e+02 8.880000000000000000e+02 8.890000000000000000e+02 8.900000000000000000e+02 8.910000000000000000e+02 8.920000000000000000e+02 8.930000000000000000e+02 8.940000000000000000e+02 8.950000000000000000e+02 8.960000000000000000e+02 8.970000000000000000e+02 8.980000000000000000e+02 8.990000000000000000e+02 9.000000000000000000e+02 9.010000000000000000e+02 9.020000000000000000e+02 9.030000000000000000e+02 9.040000000000000000e+02 9.050000000000000000e+02 9.060000000000000000e+02 9.070000000000000000e+02 9.080000000000000000e+02 9.090000000000000000e+02 9.100000000000000000e+02 9.110000000000000000e+02 9.120000000000000000e+02 9.130000000000000000e+02 9.140000000000000000e+02 9.150000000000000000e+02 9.160000000000000000e+02 9.170000000000000000e+02 9.180000000000000000e+02 9.190000000000000000e+02 9.200000000000000000e+02 9.210000000000000000e+02 9.220000000000000000e+02 9.230000000000000000e+02 9.240000000000000000e+02 9.250000000000000000e+02 9.260000000000000000e+02 9.270000000000000000e+02 9.280000000000000000e+02 9.290000000000000000e+02 9.300000000000000000e+02 9.310000000000000000e+02 9.320000000000000000e+02 9.330000000000000000e+02 9.340000000000000000e+02 9.350000000000000000e+02 9.360000000000000000e+02 9.370000000000000000e+02 9.380000000000000000e+02 9.390000000000000000e+02 9.400000000000000000e+02 9.410000000000000000e+02 9.420000000000000000e+02 9.430000000000000000e+02 9.440000000000000000e+02 9.450000000000000000e+02 9.460000000000000000e+02 9.470000000000000000e+02 9.480000000000000000e+02 9.490000000000000000e+02 9.500000000000000000e+02 9.510000000000000000e+02 9.520000000000000000e+02 9.530000000000000000e+02 9.540000000000000000e+02 9.550000000000000000e+02 9.560000000000000000e+02 9.570000000000000000e+02 9.580000000000000000e+02 9.590000000000000000e+02 9.600000000000000000e+02 9.610000000000000000e+02 9.620000000000000000e+02 9.630000000000000000e+02 9.640000000000000000e+02 9.650000000000000000e+02 9.660000000000000000e+02 9.670000000000000000e+02 9.680000000000000000e+02 9.690000000000000000e+02 9.700000000000000000e+02 9.710000000000000000e+02 9.720000000000000000e+02 9.730000000000000000e+02 9.740000000000000000e+02 9.750000000000000000e+02 9.760000000000000000e+02 9.770000000000000000e+02 9.780000000000000000e+02 9.790000000000000000e+02 9.800000000000000000e+02 9.810000000000000000e+02 9.820000000000000000e+02 9.830000000000000000e+02 9.840000000000000000e+02 9.850000000000000000e+02 9.860000000000000000e+02 9.870000000000000000e+02 9.880000000000000000e+02 9.890000000000000000e+02 9.900000000000000000e+02 9.910000000000000000e+02 9.920000000000000000e+02 9.930000000000000000e+02 9.940000000000000000e+02 9.950000000000000000e+02 9.960000000000000000e+02 9.970000000000000000e+02 9.980000000000000000e+02 9.990000000000000000e+02 1.000000000000000000e+03
1.000000000000000021e-02 1.000000000000000021e-02 1.000000000000000021e-02 1.000000000000000021e-02 1.000000000000000021e-02 1.000000000000000021e-02 1.000000000000000021e-02 1.000000000000000021e-02 1.000000000000000021e-02 1.000000000000000021e-02 1.000000000000000021e-02 1.000000000000000021e-02 1.000000000000000021e-02 1.000000000000000021e-02 1.000000000000000021e-02 1.000000000000000021e-02 1.000000000000000021e-02 1.000000000000000021e-02 1.000000000000000021e-02 1.000000000000000021e-02 1.000000000000000021e-02 1.000000000000000021e-02 1.000000000000000021e-02 1.000000000000000021e-02 1.000000000000000021e-02 1.000000000000000021e-02 1.000000000000000021e-02 1.000000000000000021e-02 1.000000000000000021e-02 1.000000000000000021e-02 1.000000000000000021e-02 1.000000000000000021e-02 1.000000000000000021e-02 1.000000000000000021e-02 1.000000000000000021e-02 1.000000000000000021e-02 1.000000000000000021e-02 1.000000000000000021e-02 1.000000000000000021e-02 1.000000000000000021e-02 1.000000000000000021e-02 1.000000000000000021e-02 1.000000000000000021e-02 1.000000000000000021e-02 1.000000000000000021e-02 1.000000000000000021e-02 1.000000000000000021e-02 1.000000000000000021e-02 1.000000000000000021e-02 1.000000000000000021e-02 1.000000000000000021e-02 1.000000000000000021e-02 1.000000000000000021e-02 1.000000000000000021e-02 1.000000000000000021e-02 1.000000000000000021e-02 1.000000000000000021e-02 1.000000000000000021e-02 1.000000000000000021e-02 1.000000000000000021e-02 1.000000000000000021e-02 1.000000000000000021e-02 1.000000000000000021e-02 1.000000000000000021e-02 1.000000000000000021e-02 1.000000000000000021e-02 1.000000000000000021e-02 1.000000000000000021e-02 1.000000000000000021e-02 1.000000000000000021e-02 1.000000000000000021e-02 1.000000000000000021e-02 1.000000000000000021e-02 1.000000000000000021e-02 1.000000000000000021e-02 1.000000000000000021e-02 1.000000000000000021e-02 1.000000000000000021e-02 1.000000000000000021e-02 1.000000000000000021e-02 1.000000000000000021e-02 1.000000000000000021e-02 1.000000000000000021e-02 1.000000000000000021e-02 1.000000000000000021e-02 1.000000000000000021e-02 1.000000000000000021e-02 1.000000000000000021e-02 1.000000000000000021e-02 1.000000000000000021e-02 1.000000000000000021e-02 1.000000000000000021e-02 1.000000000000000021e-02 1.000000000000000021e-02 1.000000000000000021e-02 1.000000000000000021e-02 1.000000000000000021e-02 1.000000000000000021e-02 1.000000000000000021e-02 1.000000000000000021e-02 1.000000000000000021e-02 1.000000000000000021e-02 1.000000000000000021e-02 1.000000000000000021e-02 1.000000000000000021e-02 1.000000000000000021e-02 1.000000000000000021e-02 1.000000000000000021e-02 1.000000000000000021e-02 1.000000000000000021e-02 1.000000000000000021e-02 1.000000000000000021e-02 1.000000000000000021e-02 1.000000000000000021e-02 1.000000000000000021e-02 1.000000000000000021e-02 1.000000000000000021e-02 1.000000000000000021e-02 1.000000000000000021e-02 1.000000000000000021e-02 1.000000000000000021e-02 1.000000000000000021e-02 1.000000000000000021e-02 1.000000000000000021e-02 1.000000000000000021e-02 1.000000000000000021e-02 1.000000000000000021e-02 1.000000000000000021e-02 1.000000000000000021e-02 1.000000000000000021e-02 1.000000000000000021e-02 1.000000000000000021e-02 1.000000000000000021e-02 1.000000000000000021e-02 1.000000000000000021e-02 1.000000000000000021e-02 1.000000000000000021e-02 1.000000000000000021e-02 1.000000000000000021e-02 1.000000000000000021e-02 1.000000000000000021e-02 1.000000000000000021e-02 1.000000000000000021e-02 1.000000000000000021e-02 1.000000000000000021e-02 1.000000000000000021e-02 1.000000000000000021e-02 1.000000000000000021e-02 1.000000000000000021e-02 1.000000000000000021e-02 1.000000000000000021e-02 1.000000000000000021e-02 1.000000000000000021e-02 1.000000000000000021e-02 1.000000000000000021e-02 1.000000000000000021e-02 1.000000000000000021e-02 1.000000000000000021e-02 1.000000000000000021e-02 1.000000000000000021e-02 1.000000000000000021e-02 1.000000000000000021e-02 1.000000000000000021e-02 1.000000000000000021e-02 1.000000000000000021e-02 1.000000000000000021e-02 1.000000000000000021e-02 1.000000000000000021e-02 1.000000000000000021e-02 1.000000000000000021e-02 1.000000000000000021e-02 1.000000000000000021e-02 1.000000000000000021e-02 1.000000000000000021e-02 1.000000000000000021e-02 1.000000000000000021e-02 1.000000000000000021e-02 1.000000000000000021e-02 1.000000000000000021e-02 1.000000000000000021e-02 1.000000000000000021e-02 1.000000000000000021e-02 1.000000000000000021e-02 1.000000000000000021e-02 1.000000000000000021e-02 1.000000000000000021e-02 1.000000000000000021e-02 1.000000000000000021e-02 1.000000000000000021e-02 1.000000000000000021e-02 1.000000000000000021e-02 1.000000000000000021e-02 1.000000000000000021e-02 1.000000000000000021e-02 1.000000000000000021e-02 1.000000000000000021e-02 1.000000000000000021e-02 1.000000000000000021e-02 1.000000000000000021e-02 1.000000000000000021e-02 1.000000000000000021e-02 1.000000000000000021e-02 1.000000000000000021e-02 1.000000000000000021e-02 1.000000000000000021e-02 1.000000000000000021e-02 1.000000000000000021e-02 1.000000000000000021e-02 1.000000000000000021e-02 1.000000000000000021e-02 1.000000000000000021e-02 1.000000000000000021e-02 1.000000000000000021e-02 1.000000000000000021e-02 1.000000000000000021e-02 1.000000000000000021e-02 1.000000000000000021e-02 1.000000000000000021e-02 1.000000000000000021e-02 1.000000000000000021e-02 1.000000000000000021e-02 1.000000000000000021e-02 1.000000000000000021e-02 1.000000000000000021e-02 1.000000000000000021e-02 1.000000000000000021e-02 1.000000000000000021e-02 1.000000000000000021e-02 1.000000000000000021e-02 1.000000000000000021e-02 1.000000000000000021e-02 1.000000000000000021e-02 1.000000000000000021e-02 1.000000000000000021e-02 1.000000000000000021e-02 1.000000000000000021e-02 1.000000000000000021e-02 1.000000000000000021e-02 1.000000000000000021e-02 1.000000000000000021e-02 1.000000000000000021e-02 1.000000000000000021e-02 1.000000000000000021e-02 1.000000000000000021e-02 1.000000000000000021e-02 1.000000000000000021e-02 1.000000000000000021e-02 1.000000000000000021e-02 1.000000000000000021e-02 1.000000000000000021e-02 1.000000000000000021e-02 1.000000000000000021e-02 1.000000000000000021e-02 1.000000000000000021e-02 1.000000000000000021e-02 1.000000000000000021e-02 1.000000000000000021e-02 1.000000000000000021e-02 1.000000000000000021e-02 1.000000000000000021e-02 1.000000000000000021e-02 1.000000000000000021e-02 1.000000000000000021e-02 1.000000000000000021e-02 1.000000000000000021e-02 1.000000000000000021e-02 1.000000000000000021e-02 1.000000000000000021e-02 1.000000000000000021e-02 1.000000000000000021e-02 1.000000000000000021e-02 1.000000000000000021e-02 1.000000000000000021e-02 1.000000000000000021e-02 1.000000000000000021e-02 1.000000000000000021e-02 1.000000000000000021e-02 1.000000000000000021e-02 1.000000000000000021e-02 1.000000000000000021e-02 1.000000000000000021e-02 1.000000000000000021e-02 1.000000000000000021e-02 1.000000000000000021e-02 1.000000000000000021e-02 1.000000000000000021e-02 1.000000000000000021e-02 1.000000000000000021e-02 1.000000000000000021e-02 1.000000000000000021e-02 1.000000000000000021e-02 1.000000000000000021e-02 1.000000000000000021e-02 1.000000000000000021e-02 1.000000000000000021e-02 1.000000000000000021e-02 1.000000000000000021e-02 1.000000000000000021e-02 1.000000000000000021e-02 1.000000000000000021e-02 1.000000000000000021e-02 1.000000000000000021e-02 1.000000000000000021e-02 1.000000000000000021e-02 1.000000000000000021e-02 1.000000000000000021e-02 1.000000000000000021e-02 1.000000000000000021e-02 1.000000000000000021e-02 1.000000000000000021e-02 1.000000000000000021e-02 1.000000000000000021e-02 1.000000000000000021e-02 1.000000000000000021e-02 1.000000000000000021e-02 1.000000000000000021e-02 1.000000000000000021e-02 1.000000000000000021e-02 1.000000000000000021e-02 1.000000000000000021e-02 1.000000000000000021e-02 1.000000000000000021e-02 1.000000000000000021e-02 1.000000000000000021e-02 1.000000000000000021e-02 1.000000000000000021e-02 1.000000000000000021e-02 1.000000000000000021e-02 1.000000000000000021e-02 1.000000000000000021e-02 1.000000000000000021e-02 1.000000000000000021e-02 1.000000000000000021e-02 1.000000000000000021e-02 1.000000000000000021e-02 1.000000000000000021e-02 1.000000000000000021e-02 1.000000000000000021e-02 1.000000000000000021e-02 1.000000000000000021e-02 1.000000000000000021e-02 1.000000000000000021e-02 1.000000000000000021e-02 1.000000000000000021e-02 1.000000000000000021e-02 1.000000000000000021e-02 1.000000000000000021e-02 1.000000000000000021e-02 1.000000000000000021e-02 1.000000000000000021e-02 1.000000000000000021e-02 1.000000000000000021e-02 1.000000000000000021e-02 1.000000000000000021e-02 1.000000000000000021e-02 1.000000000000000021e-02 1.000000000000000021e-02 1.000000000000000021e-02 1.000000000000000021e-02 1.000000000000000021e-02 1.000000000000000021e-02 1.000000000000000021e-02 1.000000000000000021e-02 1.000000000000000021e-02 1.000000000000000021e-02 1.000000000000000021e-02 1.000000000000000021e-02 1.000000000000000021e-02 1.000000000000000021e-02 1.000000000000000021e-02 1.000000000000000021e-02 1.000000000000000021e-02 1.000000000000000021e-02 1.000000000000000021e-02 1.000000000000000021e-02 1.000000000000000021e-02 1.000000000000000021e-02 1.000000000000000021e-02 1.000000000000000021e-02 1.000000000000000021e-02 1.000000000000000021e-02 1.000000000000000021e-02 1.000000000000000021e-02 1.000000000000000021e-02 1.000000000000000021e-02 1.000000000000000021e-02 1.000000000000000021e-02 1.000000000000000021e-02 1.000000000000000021e-02 1.000000000000000021e-02 1.000000000000000021e-02 1.000000000000000021e-02 1.000000000000000021e-02 1.000000000000000021e-02 1.000000000000000021e-02 1.000000000000000021e-02 1.000000000000000021e-02 1.000000000000000021e-02 1.000000000000000021e-02 1.000000000000000021e-02 1.000000000000000021e-02 1.000000000000000021e-02 1.000000000000000021e-02 1.000000000000000021e-02 1.000000000000000021e-02 1.000000000000000021e-02 1.000000000000000021e-02 1.000000000000000021e-02 1.000000000000000021e-02 1.000000000000000021e-02 1.000000000000000021e-02 1.000000000000000021e-02 1.000000000000000021e-02 1.000000000000000021e-02 1.000000000000000021e-02 1.000000000000000021e-02 1.000000000000000021e-02 1.000000000000000021e-02 1.000000000000000021e-02 1.000000000000000021e-02 1.000000000000000021e-02 1.000000000000000021e-02 1.000000000000000021e-02 1.000000000000000021e-02 1.000000000000000021e-02 1.000000000000000021e-02 1.000000000000000021e-02 1.000000000000000021e-02 1.000000000000000021e-02 1.000000000000000021e-02 1.000000000000000021e-02 1.000000000000000021e-02 1.000000000000000021e-02 1.000000000000000021e-02 1.000000000000000021e-02 1.000000000000000021e-02 1.000000000000000021e-02 1.000000000000000021e-02 1.000000000000000021e-02 1.000000000000000021e-02 1.000000000000000021e-02 1.000000000000000021e-02 1.000000000000000021e-02 1.000000000000000021e-02 1.000000000000000021e-02 1.000000000000000021e-02 1.000000000000000021e-02 1.000000000000000021e-02 1.000000000000000021e-02 1.000000000000000021e-02 1.000000000000000021e-02 1.000000000000000021e-02 1.000000000000000021e-02 1.000000000000000021e-02 1.000000000000000021e-02 1.000000000000000021e-02 1.000000000000000021e-02 1.000000000000000021e-02 1.000000000000000021e-02 1.000000000000000021e-02 1.000000000000000021e-02 1.000000000000000021e-02 1.000000000000000021e-02 1.000000000000000021e-02 1.000000000000000021e-02 1.000000000000000021e-02 1.000000000000000021e-02 1.000000000000000021e-02 1.000000000000000021e-02 1.000000000000000021e-02 1.000000000000000021e-02 1.000000000000000021e-02 1.000000000000000021e-02 1.000000000000000021e-02 1.000000000000000021e-02 1.000000000000000021e-02 1.000000000000000021e-02 1.000000000000000021e-02 1.000000000000000021e-02 1.000000000000000021e-02 1.000000000000000021e-02 1.000000000000000021e-02 1.000000000000000021e-02 1.000000000000000021e-02 1.000000000000000021e-02 1.000000000000000021e-02 1.000000000000000021e-02 1.000000000000000021e-02 1.000000000000000021e-02 1.000000000000000021e-02 1.000000000000000021e-02 1.000000000000000021e-02 1.000000000000000021e-02 1.000000000000000021e-02 1.000000000000000021e-02 1.000000000000000021e-02 1.000000000000000021e-02 1.000000000000000021e-02 1.000000000000000021e-02 1.000000000000000021e-02 1.000000000000000021e-02 1.000000000000000021e-02 1.000000000000000021e-02 1.000000000000000021e-02 1.000000000000000021e-02 1.000000000000000021e-02 1.000000000000000021e-02 1.000000000000000021e-02 1.000000000000000021e-02 1.000000000000000021e-02 1.000000000000000021e-02 1.000000000000000021e-02 1.000000000000000021e-02 1.000000000000000021e-02 1.000000000000000021e-02 1.000000000000000021e-02 1.000000000000000021e-02 1.000000000000000021e-02 1.000000000000000021e-02 1.000000000000000021e-02 1.000000000000000021e-02 1.000000000000000021e-02 1.000000000000000021e-02 1.000000000000000021e-02 1.000000000000000021e-02 1.000000000000000021e-02 1.000000000000000021e-02 1.000000000000000021e-02 1.000000000000000021e-02 1.000000000000000021e-02 1.000000000000000021e-02 1.000000000000000021e-02 1.000000000000000021e-02 1.000000000000000021e-02 1.000000000000000021e-02 1.000000000000000021e-02 1.000000000000000021e-02 1.000000000000000021e-02 1.000000000000000021e-02 1.000000000000000021e-02 1.000000000000000021e-02 1.000000000000000021e-02 1.000000000000000021e-02 1.000000000000000021e-02 1.000000000000000021e-02 1.000000000000000021e-02 1.000000000000000021e-02 1.000000000000000021e-02 1.000000000000000021e-02 1.000000000000000021e-02 1.000000000000000021e-02 1.000000000000000021e-02 1.000000000000000021e-02 1.000000000000000021e-02 1.000000000000000021e-02 1.000000000000000021e-02 1.000000000000000021e-02 1.000000000000000021e-02 1.000000000000000021e-02 1.000000000000000021e-02 1.000000000000000021e-02 1.000000000000000021e-02 1.000000000000000021e-02 1.000000000000000021e-02 1.000000000000000021e-02 1.000000000000000021e-02 1.000000000000000021e-02 1.000000000000000021e-02 1.000000000000000021e-02 1.000000000000000021e-02 1.000000000000000021e-02 1.000000000000000021e-02 1.000000000000000021e-02 1.000000000000000021e-02 1.000000000000000021e-02 1.000000000000000021e-02 1.000000000000000021e-02 1.000000000000000021e-02 1.000000000000000021e-02 1.000000000000000021e-02 1.000000000000000021e-02 1.000000000000000021e-02 1.000000000000000021e-02 1.000000000000000021e-02 1.000000000000000021e-02 1.000000000000000021e-02 1.000000000000000021e-02 1.000000000000000021e-02 1.000000000000000021e-02 1.000000000000000021e-02 1.000000000000000021e-02 1.000000000000000021e-02 1.000000000000000021e-02 1.000000000000000021e-02 1.000000000000000021e-02 1.000000000000000021e-02 1.000000000000000021e-02 1.000000000000000021e-02 1.000000000000000021e-02 1.000000000000000021e-02 1.000000000000000021e-02 1.000000000000000021e-02 1.000000000000000021e-02 1.000000000000000021e-02 1.000000000000000021e-02 1.000000000000000021e-02 1.000000000000000021e-02 1.000000000000000021e-02 1.000000000000000021e-02 1.000000000000000021e-02 1.000000000000000021e-02 1.000000000000000021e-02 1.000000000000000021e-02 1.000000000000000021e-02 1.000000000000000021e-02 1.000000000000000021e-02 1.000000000000000021e-02 1.000000000000000021e-02 1.000000000000000021e-02 1.000000000000000021e-02 1.000000000000000021e-02 1.000000000000000021e-02 1.000000000000000021e-02 1.000000000000000021e-02 1.000000000000000021e-02 1.000000000000000021e-02 1.000000000000000021e-02 1.000000000000000021e-02 1.000000000000000021e-02 1.000000000000000021e-02 1.000000000000000021e-02 1.000000000000000021e-02 1.000000000000000021e-02 1.000000000000000021e-02 1.000000000000000021e-02 1.000000000000000021e-02 1.000000000000000021e-02 1.000000000000000021e-02 1.000000000000000021e-02 1.000000000000000021e-02 1.000000000000000021e-02 1.000000000000000021e-02 1.000000000000000021e-02 1.000000000000000021e-02 1.000000000000000021e-02 1.000000000000000021e-02 1.000000000000000021e-02 1.000000000000000021e-02 1.000000000000000021e-02 1.000000000000000021e-02 1.000000000000000021e-02 1.000000000000000021e-02 1.000000000000000021e-02 1.000000000000000021e-02 1.000000000000000021e-02 1.000000000000000021e-02 1.000000000000000021e-02 1.000000000000000021e-02 1.000000000000000021e-02 1.000000000000000021e-02 1.000000000000000021e-02 1.000000000000000021e-02 1.000000000000000021e-02 1.000000000000000021e-02 1.000000000000000021e-02 1.000000000000000021e-02 1.000000000000000021e-02 1.000000000000000021e-02 1.000000000000000021e-02 1.000000000000000021e-02 1.000000000000000021e-02 1.000000000000000021e-02 1.000000000000000021e-02 1.000000000000000021e-02 1.000000000000000021e-02 1.000000000000000021e-02 1.000000000000000021e-02 1.000000000000000021e-02 1.000000000000000021e-02 1.000000000000000021e-02 1.000000000000000021e-02 1.000000000000000021e-02 1.000000000000000021e-02 1.000000000000000021e-02 1.000000000000000021e-02 1.000000000000000021e-02 1.000000000000000021e-02 1.000000000000000021e-02 1.000000000000000021e-02 1.000000000000000021e-02 1.000000000000000021e-02 1.000000000000000021e-02 1.000000000000000021e-02 1.000000000000000021e-02 1.000000000000000021e-02 1.000000000000000021e-02 1.000000000000000021e-02 1.000000000000000021e-02 1.000000000000000021e-02 1.000000000000000021e-02 1.000000000000000021e-02 1.000000000000000021e-02 1.000000000000000021e-02 1.000000000000000021e-02 1.000000000000000021e-02 1.000000000000000021e-02 1.000000000000000021e-02 1.000000000000000021e-02 1.000000000000000021e-02 1.000000000000000021e-02 1.000000000000000021e-02 1.000000000000000021e-02 1.000000000000000021e-02 1.000000000000000021e-02 1.000000000000000021e-02 1.000000000000000021e-02 1.000000000000000021e-02 1.000000000000000021e-02 1.000000000000000021e-02 1.000000000000000021e-02 1.000000000000000021e-02 1.000000000000000021e-02 1.000000000000000021e-02 1.000000000000000021e-02 1.000000000000000021e-02 1.000000000000000021e-02 1.000000000000000021e-02 1.000000000000000021e-02 1.000000000000000021e-02 1.000000000000000021e-02 1.000000000000000021e-02 1.000000000000000021e-02 1.000000000000000021e-02 1.000000000000000021e-02 1.000000000000000021e-02 1.000000000000000021e-02 1.000000000000000021e-02 1.000000000000000021e-02 1.000000000000000021e-02 1.000000000000000021e-02 1.000000000000000021e-02 1.000000000000000021e-02 1.000000000000000021e-02 1.000000000000000021e-02 1.000000000000000021e-02 1.000000000000000021e-02 1.000000000000000021e-02 1.000000000000000021e-02 1.000000000000000021e-02 1.000000000000000021e-02 1.000000000000000021e-02 1.000000000000000021e-02 1.000000000000000021e-02 1.000000000000000021e-02 1.000000000000000021e-02 1.000000000000000021e-02 1.000000000000000021e-02 1.000000000000000021e-02 1.000000000000000021e-02 1.000000000000000021e-02 1.000000000000000021e-02 1.000000000000000021e-02 1.000000000000000021e-02 1.000000000000000021e-02 1.000000000000000021e-02 1.000000000000000021e-02 1.000000000000000021e-02 1.000000000000000021e-02 1.000000000000000021e-02 1.000000000000000021e-02 1.000000000000000021e-02 1.000000000000000021e-02 1.000000000000000021e-02 1.000000000000000021e-02 1.000000000000000021e-02 1.000000000000000021e-02 1.000000000000000021e-02 1.000000000000000021e-02 1.000000000000000021e-02 1.000000000000000021e-02 1.000000000000000021e-02 1.000000000000000021e-02 1.000000000000000021e-02 1.000000000000000021e-02 1.000000000000000021e-02 1.000000000000000021e-02 1.000000000000000021e-02 1.000000000000000021e-02 1.000000000000000021e-02 1.000000000000000021e-02 1.000000000000000021e-02 1.000000000000000021e-02 1.000000000000000021e-02 1.000000000000000021e-02 1.000000000000000021e-02 1.000000000000000021e-02 1.000000000000000021e-02 1.000000000000000021e-02 1.000000000000000021e-02 1.000000000000000021e-02 1.000000000000000021e-02 1.000000000000000021e-02 1.000000000000000021e-02 1.000000000000000021e-02 1.000000000000000021e-02 1.000000000000000021e-02 1.000000000000000021e-02 1.000000000000000021e-02 1.000000000000000021e-02 1.000000000000000021e-02 1.000000000000000021e-02 1.000000000000000021e-02 1.000000000000000021e-02 1.000000000000000021e-02 1.000000000000000021e-02 1.000000000000000021e-02 1.000000000000000021e-02 1.000000000000000021e-02 1.000000000000000021e-02 1.000000000000000021e-02 1.000000000000000021e-02 1.000000000000000021e-02 1.000000000000000021e-02 1.000000000000000021e-02 1.000000000000000021e-02 1.000000000000000021e-02 1.000000000000000021e-02 1.000000000000000021e-02 1.000000000000000021e-02 1.000000000000000021e-02 1.000000000000000021e-02 1.000000000000000021e-02 1.000000000000000021e-02 1.000000000000000021e-02 1.000000000000000021e-02 1.000000000000000021e-02 1.000000000000000021e-02 1.000000000000000021e-02 1.000000000000000021e-02 1.000000000000000021e-02 1.000000000000000021e-02 1.000000000000000021e-02 1.000000000000000021e-02 1.000000000000000021e-02 1.000000000000000021e-02 1.000000000000000021e-02 1.000000000000000021e-02 1.000000000000000021e-02 1.000000000000000021e-02 1.000000000000000021e-02 1.000000000000000021e-02 1.000000000000000021e-02 1.000000000000000021e-02 1.000000000000000021e-02 1.000000000000000021e-02 1.000000000000000021e-02 1.000000000000000021e-02 1.000000000000000021e-02 1.000000000000000021e-02 1.000000000000000021e-02 1.000000000000000021e-02 1.000000000000000021e-02 1.000000000000000021e-02 1.000000000000000021e-02 1.000000000000000021e-02 1.000000000000000021e-02 1.000000000000000021e-02 1.000000000000000021e-02 1.000000000000000021e-02 1.000000000000000021e-02 1.000000000000000021e-02 1.000000000000000021e-02 1.000000000000000021e-02 1.000000000000000021e-02 1.000000000000000021e-02 1.000000000000000021e-02 1.000000000000000021e-02 1.000000000000000021e-02 1.000000000000000021e-02 1.000000000000000021e-02 1.000000000000000021e-02 1.000000000000000021e-02 1.000000000000000021e-02 1.000000000000000021e-02 1.000000000000000021e-02 1.000000000000000021e-02 1.000000000000000021e-02 1.000000000000000021e-02 1.000000000000000021e-02 1.000000000000000021e-02 1.000000000000000021e-02 1.000000000000000021e-02 1.000000000000000021e-02 1.000000000000000021e-02 1.000000000000000021e-02 1.000000000000000021e-02 1.000000000000000021e-02 1.000000000000000021e-02 1.000000000000000021e-02 1.000000000000000021e-02 1.000000000000000021e-02 1.000000000000000021e-02 1.000000000000000021e-02 1.000000000000000021e-02 1.000000000000000021e-02 1.000000000000000021e-02 1.000000000000000021e-02 1.000000000000000021e-02 1.000000000000000021e-02 1.000000000000000021e-02 1.000000000000000021e-02 1.000000000000000021e-02 1.000000000000000021e-02 1.000000000000000021e-02 1.000000000000000021e-02 1.000000000000000021e-02 1.000000000000000021e-02 1.000000000000000021e-02 1.000000000000000021e-02 1.000000000000000021e-02 1.000000000000000021e-02 1.000000000000000021e-02 1.000000000000000021e-02 1.000000000000000021e-02 1.000000000000000021e-02 1.000000000000000021e-02 1.000000000000000021e-02 1.000000000000000021e-02 1.000000000000000021e-02 1.000000000000000021e-02 1.000000000000000021e-02 1.000000000000000021e-02 1.000000000000000021e-02 1.000000000000000021e-02 1.000000000000000021e-02 1.000000000000000021e-02 1.000000000000000021e-02 1.000000000000000021e-02 1.000000000000000021e-02 1.000000000000000021e-02 1.000000000000000021e-02 1.000000000000000021e-02 1.000000000000000021e-02 1.000000000000000021e-02 1.000000000000000021e-02 1.000000000000000021e-02 1.000000000000000021e-02 1.000000000000000021e-02 1.000000000000000021e-02 1.000000000000000021e-02 1.000000000000000021e-02 1.000000000000000021e-02 1.000000000000000021e-02 1.000000000000000021e-02 1.000000000000000021e-02 1.000000000000000021e-02 1.000000000000000021e-02 1.000000000000000021e-02 1.000000000000000021e-02 1.000000000000000021e-02 1.000000000000000021e-02 1.000000000000000021e-02 1.000000000000000021e-02 1.000000000000000021e-02 1.000000000000000021e-02 1.000000000000000021e-02 1.000000000000000021e-02 1.000000000000000021e-02 1.000000000000000021e-02 1.000000000000000021e-02 1.000000000000000021e-02 1.000000000000000021e-02 1.000000000000000021e-02 1.000000000000000021e-02 1.000000000000000021e-02 1.000000000000000021e-02 1.000000000000000021e-02 1.000000000000000021e-02 1.000000000000000021e-02 1.000000000000000021e-02 1.000000000000000021e-02 1.000000000000000021e-02 1.000000000000000021e-02 1.000000000000000021e-02 1.000000000000000021e-02 1.000000000000000021e-02 1.000000000000000021e-02 1.000000000000000021e-02 1.000000000000000021e-02 1.000000000000000021e-02 1.000000000000000021e-02 1.000000000000000021e-02 1.000000000000000021e-02 1.000000000000000021e-02 1.000000000000000021e-02 1.000000000000000021e-02 1.000000000000000021e-02 1.000000000000000021e-02 1.000000000000000021e-02 1.000000000000000021e-02
-1.119560245547599919e+02 1.701638379607638285e+02 3.947362482142512619e+01 -8.872605964408618817e+00 -8.817714416234748853e+01 -1.343673618059538910e+01 -2.086084614897783922e+02 6.885296742464046549e-01 -8.501525057665375584e+01 -1.408254032097156028e+01 -1.989894311346833433e+01 6.538599726667873924e+00 -1.787393041315679998e+00 1.683655637780374548e+02 8.490949486920317213e+01 -3.891099597247998076e+01 -5.297111895454971631e+01 7.949021557978178976e+01 3.293467766166811117e+01 -2.545654397739324182e+01 -7.912328610305749521e+01 -7.406563786414753281e+01 -1.385475990494560428e+01 2.903337312942542425e+01 -1.955964129524285227e+02 -9.907745391536295188e+01 -2.617835822988865502e+01 2.023347232050151376e+02 7.100887844108228819e+01 7.698533747033521024e+01 8.057174889222028469e+01 1.189292502572005139e+00 -7.950272889321412606e+01 2.081529193638463084e+02 -2.456897831101073280e+02 5.902904908357545111e+01 -1.205716680022319025e+02 -3.480166983239084288e+01 4.047426782826549108e+00 1.271555883783514389e+02 -1.233348113918254398e+02 -1.369952580361255023e+01 7.763343278940679681e+01 1.742067934578876134e+02 7.160977956457513471e+01 -6.866281540896997626e+01 4.137355550739707155e+01 -2.848051523179371713e+01 -6.629767354620591391e+01 1.571455632948292589e+02 -7.082332415802022751e+01 -5.230057991974411635e+01 -1.398134293615242143e+02 5.767705023191814107e+00 -5.071926465657163163e+01 3.880287441077785360e+01 -8.904430978677699215e+01 -5.024124329371549891e+01 -1.017723796678615713e+02 -1.560037687489873690e+02 1.952951026921571298e+01 4.551722169390487949e+01 -1.235687036402758139e+02 1.290509749413793017e+01 -7.958557104994419262e+01 4.929773169671129551e+01 1.672281868759347105e+02 -1.447879922652928997e+02 -4.347083047896524732e+01 7.219579111202351740e+00 2.939174997670213951e+00 4.253628541386714090e+01 8.429202019936444401e+01 8.880046471995038937e-01 -8.830472605200469616e+00 -7.028817283138789662e+01 7.855277601769616069e+01 -3.289293126896910024e+01 2.639066148604512918e+01 1.043994543856135238e+02 8.855537625505422739e+01 -4.291278031796232995e+01 5.802253694099829318e+01 1.479862323689347647e+02 1.166409611822199679e+02 -4.040457676867702297e+00 1.748617096741321291e+02 -1.119328566783075587e+02 4.217965895612261207e+00 -4.209519261872872420e+01 2.076133708285616137e+02 -2.130281145850961266e+01 2.891147267143852950e+00 -7.707120082847893627e+01 -7.162255036407752407e+00 -6.408711360262532253e+01 6.802450695025544292e+01 -9.490502918148358447e+01 6.882702103568205132e+01 -4.792636536283785631e+01 -4.995047956778623899e+01 -9.200451582727880862e+01 5.329351660602518592e+01 -5.492490414955270950e+01 -1.498971910203590880e+02 -7.977115931944494776e+01 -1.050105160254760364e+02 -1.578245387916480809e+02 1.364571028669151929e+02 -2.760291997277774456e+01 3.215141523412958691e+01 9.000743779265080491e+01 -1.044682625334539097e+02 5.718614647864492895e+01 -4.348579379965076441e+01 -6.959358044962866074e+01 -9.042623185402086960e+01 2.040462267945475787e+02 -5.695855436621838663e+01 -4.967965442812372601e+01 -4.739358718430356987e+01 8.070803619092592385e+01 -4.156541343394621890e+01 1.385141280716142091e+02 -5.006314187171744123e+01 5.530284894257186323e+01 4.559600813695077193e+00 -8.144871533528038299e+01 6.908029881993618915e+01 2.784463537558293069e+02 -9.237701417406724147e+01 4.767613864484538766e+01 -7.653193290276489336e+01 4.541329592881376698e+01 1.317058873736105227e+02 -5.158429127002060000e+01 1.464883628731974419e+01 -2.703283855555255499e+01 -1.023479097075249626e+02 -1.736833859233939137e+01 4.294435539010906133e+00 -7.852001774667394685e+00 -1.501452854549606997e+01 1.187238773478261749e+02 1.308956666224239882e+02 1.872390597564514962e+02 -3.056124143186431183e+02 3.837531250747132816e+01 -1.582098705916340897e+01 -6.262424831030607919e+01 1.811401357378171042e+02 7.654679569002142614e+01 -2.594563182355407616e+00 -1.164929964017401716e+02 -1.095222925484788412e+01 1.005590096269651497e+02 -1.350334993445595160e+02 -1.694391337133560569e+02 1.078803446686087675e+01 4.264098979429943626e+01 -6.132230987872502226e+01 4.224722838567458183e+01 -1.076271361316016169e+02 -1.521023665439788317e+02 2.122143545059827474e+01 4.883706500651247495e+01 4.831217734692382137e+00 -8.393818105105870586e+01 -9.410987058362636049e+01 -8.479550882492374342e+01 -8.805008550096347619e+01 1.270671001404883071e+01 5.717444366680140178e+01 1.172128934603566961e+02 7.992686617391397874e+01 9.007551353064248190e+01 1.081493230013406475e+02 -7.528754509913450477e+01 -8.307146753405280037e+01 7.100713344407552086e+01 6.895644074918138244e+01 5.965709304467322482e+01 -9.460214353857207215e+00 -9.176225705601207494e+01 5.440133589557262184e+01 -1.804044370313117440e+02 6.770325575504089954e+01 -4.490900747681460814e+01 -9.725487709449771501e+01 7.484646998982775301e+01 -1.728771513361141743e+01 -7.782494099058291681e+01 -5.799438198922557319e+01 -9.236623123627772713e+00 2.450057849542124870e+02 7.759879055389454550e+01 5.538484576575851293e+01 -1.049572019710049204e+02 1.498095464872043863e+02 1.058019206007337676e+00 -9.136357733064362208e+01 1.575209223642559380e+02 -1.558738914867651602e+02 1.595507924007642409e+01 -3.292159114127573361e+01 -2.247647717943580119e+02 -1.364397580374041183e+02 -8.922553295230930814e+01 -2.997098463916048772e+01 -1.219584603938121603e+02 5.897391993735393356e+01 6.646943394838470454e+01 -2.820378437011245509e+01 -1.020067566774420413e+02 1.156783711413595483e+02 1.209124455161995684e+02 4.727387782227483370e+01 1.787122371365018125e+01 2.674136571390905601e+02 4.468349118939067210e+01 -1.222202829495807919e+02 -4.610924455737438166e+01 -1.728245911712972145e+02 3.262247739311609962e+01 1.569466050942011748e+02 -1.518949699977052319e+02 1.348752980898574947e+02 -9.314076417067215630e+01 -1.935980888118550425e+01 -7.781681787968206532e-01 5.413703647259488605e+01 -1.187915328995815578e+01 -2.334812109162405847e+01 -1.935426074042885602e+01 -1.297883311206666974e+02 4.755307447442648083e+01 -3.110091397400685054e+01 -1.329057604859192665e+01 -1.097829158315979825e+01 2.315271009418786150e+02 1.785070196574131103e+02 2.383735494899682692e+02 1.350596836479389822e+02 -8.871714878283282246e+01 7.705307971914467657e+01 2.164427650208468634e+01 4.876560304008173574e+01 -4.070905418598711378e+01 2.617887482520391700e+02 -2.388267988654314777e+01 -1.401501184880780215e+02 -1.532887799824951713e+01 -4.697709688374892778e+01 -7.934458074845645115e+01 4.424465205249166644e+01 -1.200798204204705399e+01 1.865008336508466584e+02 9.473239084204118399e+01 4.191866884451322761e+01 1.005085499895995440e+02 9.691321598498424805e+01 -2.357177723212720011e+01 1.431855709278564746e+02 2.716927610841450758e+01 9.186217795486508919e+01 4.887328667590972486e+01 7.110692040486560117e+00 -1.187250760150659517e+02 -1.188008610030288423e+02 -9.232557858150845220e+01 -1.597128541893664533e+01 8.890817575486140356e+01 -3.144145914390962560e+01 1.014268620446292033e+02 4.493454018173022746e+01 -7.459130776937585949e+01 -3.073317822473552141e+01 -6.010000160388847945e+01 1.801496602594461294e+01 -4.751681340696215727e+01 -1.149229941314956704e+02 1.246539930641925054e+02 1.244547195351585458e+02 -8.098009349435201898e+01 5.583441889255197133e+00 -4.647757875835147701e+01 -3.344288984030303880e+01 -1.163353452179521774e+01 -3.202565236658661263e+01 4.559824124201401219e+01 -1.441365163470948687e+02 -5.418992548658206232e+01 -1.557520563246229131e+02 1.785418702354111815e+02 -2.073863286026402974e+01 6.042622263929527548e+01 1.222626335398545017e+01 1.480134247381439820e+02 4.575454934369626159e+01 3.661884957899661686e+01 1.581727461508116335e+02 -5.047827788184365261e+01 -9.999492534443804459e+01 2.783821013337017192e+01 -1.618617356720054943e+02 -5.469628122470074771e+01 1.047775609614471364e+02 -1.307644523603289883e+02 -3.723854993005733860e+01 9.348327537089758721e+01 -9.674332479648411720e+01 -9.163246761959427999e+01 -8.461651228429523997e+01 -6.534100493375403573e+01 2.549482769026732569e+02 2.028704271768336866e+02 1.054250058178478326e+02 -1.045974518129240778e+02 7.660694193915774974e+01 -6.768775856215881959e+01 -3.199754690660230239e+01 1.698818688438677427e+01 -3.294536244670766223e+01 -9.588740435889938851e+01 -2.800766979614888630e+00 1.512216560061870396e+01 1.112115636556226406e+02 -1.313376778982231770e+02 4.282526828077666892e+01 6.515306632810607823e+01 3.529408108889129636e+01 -9.256580156829217287e+01 -1.516863486888591979e+02 1.973090198544819032e+02 -1.818987944078530106e+01 2.571942363705355561e+01 1.598024376008442573e+02 2.722041727986741222e+01 2.831371749839078689e+01 -4.544644726267543433e+01 9.039847084117486986e+01 -1.391026874567304219e+02 -3.142649667628212384e+01 -6.258301079220699670e+00 -5.447692808152115163e+01 6.335454746028151618e+00 2.171613967957627978e+01 -3.649354697558913330e+01 1.393458356417870547e+01 2.178905427433816726e+02 -2.792397234913712367e+01 -2.851759674951650325e+01 -1.036234477153473534e+02 -1.682087778467681316e+00 -8.230453685576732425e+01 6.522231582926309557e+00 1.142136728191088082e+02 -5.302024332185811772e+01 6.163397575399263140e+00 -5.535156675291106865e+01 3.392384047548815396e+00 8.885645532830693583e+01 -1.180407834091531498e+02 -9.863800441441709665e+01 -1.044895735353790229e+02 7.272509055242663578e+01 8.818335939173481108e+01 -9.401553374899316395e+01 6.378255248351731410e+01 2.630060683666115651e+01 3.940956990720390962e+01 -1.808504530702102642e+01 9.304179938859843446e+01 8.120851007522348652e+01 -7.870962430978441660e+01 1.206351848955454287e+01 8.239440709043142874e+01 7.420865025918804747e+01 -2.025418182204703754e+01 2.544304316445208514e+01 -1.350391260738066705e+02 4.941383100332879508e+01 -3.337462606271374455e+01 -3.325643576967499371e+01 1.763762388463158004e+02 4.831013967851998103e+01 1.224272507223692372e+02 1.944641110312882688e+02 -1.402244042590243396e+02 1.518105904236026049e+02 -6.456331066318828960e+01 -1.376159186342004261e+02 8.383245790388518515e+01 -1.365381773045122884e+02 -2.923274848905724710e+01 5.745267232945005276e+01 8.228244379054524771e+00 -1.712035213015649333e+02 8.577714056037970636e+01 2.568134421130194056e+01 7.036365954474896967e+01 3.694477978532940199e+01 9.647963451131417401e+00 -6.834792609259592666e+01 1.178554852901273335e+02 5.548540144750453607e+01 -6.326253111699395504e+01 -1.030943772167555608e+02 3.965760133970896106e+01 2.614714220074474937e+01 8.389491866574176981e+01 1.871043819157299879e+02 -2.508556760676797737e+01 -1.121604992581823694e+02 -8.627983782482907316e+01 -5.225817220661753026e+01 -4.518517063507171372e+01 -1.494113266650869889e+02 -2.291369066046868497e+01 1.318544309051348478e+02 7.590181007945857061e+01 -1.246003155505914322e+02 -1.525761935466790362e+02 -6.934430323537198149e+01 -7.775211000778780601e+01 1.494239071866333290e+02 -1.735537050506938499e+02 8.810724274631374442e+01 -4.691538624256141432e+00 -4.380368904409991870e+01 1.354547633448505195e+01 9.282618138112279382e+01 5.049200804981815338e+01 1.407079605661355970e+02 -1.620099304464995100e+02 -8.243525956537689581e+01 2.579855994073142256e+01 4.269295093003626818e+01 2.098678082697652201e+02 1.480750501858445318e+02 6.670661959126067586e+01 7.340510768101891870e+01 -3.480974895867601049e+01 1.545638599876779153e+02 -1.825574200624176626e+02 -6.453963775720677631e+01 -5.465215935083882925e+01 -5.272547169823847213e+01 -1.051424700387515543e+02 -1.525360011827763529e+01 -6.987541763354177249e+01 7.245994431441519623e+01 -9.325412338247645039e+00 -5.914234185118280607e+01 -6.341515089320824217e+01 1.834205661864353090e+02 6.005193768538606491e+01 -1.395025009783305947e+01 2.126125744801431949e+02 -1.102626760594941828e+02 -3.596750289297501268e+01 6.815175535901349235e+01 -1.324441339803126283e-01 1.520763839606575019e+01 -1.272885063753913499e+02 1.793122751726485546e+02 -4.985907287191855630e+01 -2.741952255541323780e+01 -1.116337958358007540e+02 1.280484232800795326e+02 9.755652189613736880e+01 -7.886726032287745625e+01 -3.821822508960413245e+01 3.961063495116475508e+01 -1.539931107253453035e+02 -1.516776793348379171e-01 -7.597272648613217427e+01 7.834647740774701496e+00 -1.099458619012348635e+02 -1.611991838289736165e+02 -7.186057056285103783e+01 1.506343238158182771e+02 5.752197007704222642e+01 -9.109325959816335683e+01 9.064630574294470478e+01 3.479925606166690955e+01 8.973831300533828426e+01 -4.279552048424594091e+01 -8.544647987265554434e+01 1.737526033966794614e+02 4.232244080638923833e+01 2.941240334439100579e+01 -7.415605227966430846e+01 -4.297119487979617247e+01 9.703674364699132582e+00 -7.270715421842284698e+00 -1.754867958588120871e+02 -3.513399686568669722e+01 6.539924290999742595e+01 1.133038519625725655e+02 1.580481089851738261e+02 -1.346736663329982520e+01 9.094656000045743838e+01 1.600315806331608428e+02 6.434761666182507156e+01 1.499112711653258430e+02 1.629305807544027473e+01 1.331601963796444466e+02 -8.511684252960461095e+01 5.410310199428958100e+01 2.974061736058711247e+01 7.689017298095647845e+01 -1.076165366451673293e+02 2.006125986142575925e+02 -1.304433135541071636e+02 8.941996693476816915e+01 -1.087816645984392068e+02 4.671237450463429042e+01 1.396758249277544373e+01 9.180335079759636585e+01 -7.455073074906343322e+01 -7.639798323768333432e+01 -1.129375360776250581e+01 9.010998430667847003e+01 -2.991920867591558064e+01 -1.649147075644026472e+01 -1.984786624072487626e+01 4.788414071493456881e+00 9.917151461988476058e+01 -6.320934548999520075e+01 -2.741731195974031365e+00 -1.955769811066831210e+02 1.229408054962749333e+02 -1.258253612444469098e+02 -7.444343089410571679e+01 -2.372131034070071465e+01 -1.087448809865876740e+02 -5.356139300536460013e+01 -5.900912524063934939e+01 -1.981772936882650527e+01 1.372808062181103423e+02 5.446222998188316211e+01 1.011781603072449371e+02 -1.371043592457888280e+02 -1.396071684775766357e+02 -2.886727092760699520e+02 1.029066286309329570e+02 1.050427549136559122e+02 4.259445502509136361e+01 -4.273902123248120688e+01 -3.748993963640882043e+01 -1.850055381535315746e+02 1.472210204734183776e+02 -1.082217756251908156e+02 1.077601553382050099e+02 -1.604155605280683403e+02 -1.441676193723133892e+01 -5.579261280151410318e+01 -1.201501918172848349e+02 -4.644568032629041454e+01 -1.258953395399613484e+01 -9.336205794754684462e+01 -1.042859273256719348e+02 -1.244921941144715127e+01 7.174656020518266075e+01 -1.255894307096069724e+02 -1.578813338467025673e+01 -7.432729381792724155e+01 -1.324361993022430397e+02 6.717094975616641150e+00 9.591789153304833349e+01 1.668189720497390738e+02 -1.922319726925758943e+01 -4.642475201416571196e+01 -1.251447479168941470e+02 -1.649088599565129698e+02 1.046197480936938433e+02 -7.334429531158019699e+01 7.967168599225783510e+01 9.482147697786729168e+00 2.949354865598345654e+01 7.447462611765885754e+01 -8.545231763515975842e+01 8.337451745406656300e+01 1.162653108314385690e+02 1.587939155181378510e+02 -1.175931184665025455e+02 1.048494430729573992e+02 -4.818250947382327354e+01 -9.159105737733148089e+01 2.164485664506639750e+02 4.968484806290111067e+01 8.420213135778881508e+01 2.146800015971092890e+01 -6.375009105240896190e+01 -3.524521337701805379e+01 -2.122301167625154790e+02 1.065627450211497091e+02 8.222560481299757384e+01 -7.636921901575826155e+01 -7.379792778757673943e+01 1.464798402529446548e+02 1.019597199578020650e+02 5.156624738756483595e+01 7.675674822339574632e+01 -7.964085886200761522e+00 1.041112855184910444e+02 -1.044569406221892933e+02 1.880559227417848263e+02 -3.983308727564457286e+01 -1.230734361658587943e+02 -3.800313901150466478e+01 7.238296776944342525e+01 1.486527674530919114e+02 1.303220361477541012e+01 1.753700850390966934e+02 5.267004530530609685e+01 3.391610507736398006e+01 -1.123116879621814945e+02 4.521090589236264634e+01 -1.261507051265054145e+02 4.811978905914243398e+01 3.898157278275138538e+01 -1.244452667064303171e+02 -8.579528832656319537e+01 4.019238516811554263e+01 8.804024696637252845e+00 -2.344208326556082156e+01 4.223039571215182519e+01 -2.159035019903867436e+01 -6.365660791041261035e+01 -2.638724299896313852e+01 -2.265520796083139032e+01 -4.018520238969828284e+01 1.894639992885289459e+01 -8.121553715880888547e+01 1.200155353245308305e+02 -7.498982271556504031e+01 -4.318508399060732472e+00 6.611525427491136497e+01 3.932197101977095155e+00 1.608810150248240589e+01 1.610069482864485479e+01 -1.181822425284934610e+02 -4.457562021600154800e+00 6.563322291021451349e+01 -2.335020269161002489e+02 -8.561032008835795182e+01 -1.137271988682655177e+02 4.417986105366350102e+01 9.707820680473200525e+01 -9.256379926320721552e+01 -1.693777129485740716e+02 -1.867846015848176080e+02 2.014841253788775788e+01 -1.462071718997401888e+02 -6.373917600213153456e+00 1.488320793861659865e+02 -7.165411879570665832e+00 3.743763444002748741e+01 -9.965160086151431074e+01 8.039096901175366838e+01 -1.193071073449592205e+02 -1.550250804613000888e+01 -3.048505277196595031e+01 5.788613857127143092e+01 -8.924428113065001611e+00 1.061982172954165264e+02 -1.226163131006757254e+02 -5.029767379275380534e+01 8.690646555323864675e+01 6.639840368067001464e+01 -8.264368329800686297e+01 -5.457726057492512695e+01 -4.950802972002674096e+01 -2.901715641409567752e+02 1.940180912859104296e+02 7.628575596466082231e+01 -2.364942283727145877e+01 -2.972063806047634316e+01 4.160128448271589008e+01 -8.428279428738586887e+01 9.966634690436534072e+01 6.051855812529651502e+01 8.208211653799735075e+01 -8.415492777122261714e+01 -2.657876581582471687e+01 3.336185161631544105e+01 1.738698946281011715e+01 -4.282463566812192113e+01 1.579148350798491265e+02 -1.729203005300200857e+01 3.538087553030429433e+01 -2.297501374090439299e+02 -8.465344993481215852e+01 -7.312772159752360324e+01 2.300524439058445125e+01 1.091176328302397138e+02 -2.315181744544503886e+02 -1.868964720290313153e+02 2.214979845614518297e+02 -1.056103391136379166e+01 9.599370820648269387e+01 6.266228065443023354e+01 -5.532226196290603326e+01 -1.308931822626705639e+02 -9.508192921313435875e+01 -5.021965650471393872e+01 -3.740486797442761713e+01 -3.912260635703916734e+01 1.615588454153224873e+01 3.711707816684122463e+01 1.666740026238349230e+02 1.230949545405514129e+02 6.929521316620609106e+00 -4.383473519184289735e+00 -1.586538078688262203e+02 1.195448934296064607e+02 1.591817914912413130e+02 -1.033278361962053964e+02 7.366632862108872359e+01 1.763019596060718897e+00 5.484754880819786393e+01 1.253236433801728253e+02 7.088075744017926638e+01 -1.339127990208751271e+02 1.613191099089813108e+01 -2.936233324997150262e+01 1.113190798685002392e+01 -2.314617842438092765e+01 4.532508874512152630e+01 -2.604087125189067251e+02 1.811315483163942588e+02 7.307464588387231785e+00 1.594057871508117614e+02 -1.055815598724741733e+01 1.062031143611747410e+02 7.165507808039205884e+01 -4.202433646999813988e+01 2.991947758819056702e+01 -7.284893745271992316e+01 -8.905055999419738555e+01 -7.215032886874686824e+01 -3.208697535256607125e+01 4.524066453973214408e+01 1.103315612077213927e+02 2.853953299216651374e+01 6.220735743194488521e+01 -1.050058585472795016e+02 -1.373972622256132752e+02 -1.351090575982372677e+01 4.649868780335071961e+01 -4.560786853388039930e+01 9.475570491329743561e+01 5.564895374425512387e+01 -2.771734952609069680e+01 3.002495152185111138e+01 6.152624837623942256e+01 -7.230247665159924964e+01 -1.340808668528730436e+02 1.424784975179767912e+02 7.837919865971825217e+00 5.029651053192911547e+01 -1.497716038090071322e+02 -5.358567680639620079e+01 -4.630005799621340068e-01 -6.596903110522002578e+01 4.287638971695329815e+00 5.650409575224379211e+01 1.871952670190222818e+02 3.929025886360770414e+01 -1.101103350599941777e+01 7.252661932863881589e+01 -4.569313506223539179e+01 -1.094953938963752194e+02 -1.388734072699910769e+02 9.420561336211079606e+00 2.524295945411557796e+01 2.392440518116887205e+01 -5.718992217034919179e+01 1.215087581862848793e+02 -8.130501896182354926e+01 1.290871528020103369e+02 8.782780175783055654e+01 -6.544597975951495528e+01 -8.523197855693422298e+01 8.473964607308650443e+01 2.061008051037473621e+01 -5.284333290944487516e+01 -5.421552539464436649e+01 1.376346417471660857e+02 5.771102005058976658e+01 8.046115084521234451e+01 2.633800269910011238e+01 -4.239388854452737831e+01 1.082798103893196213e+02 -5.498685493971132132e+01 5.423666434038607598e-01 7.718108907638847427e+01 1.003924774024194591e+02 2.575802769880592678e+02 -1.766217495168646110e+02 1.623169780910218662e+02 -6.818151605607822319e+01 -1.535942326370476252e+01 -2.528517460340934164e+01 -2.092231863286501437e+01 -5.568446235494724306e+01 9.382349800574665721e+01 1.858697503865887484e+02 -1.199917787655149226e+02 3.124945508448594111e+01 -1.282422726054489317e+02 7.095045400914506217e+01 -4.499012101257844165e+01 -8.190967729375488204e+01 -5.451354180886865208e+01 4.166949444001275538e+01 1.962644566632707566e+01 -8.281570792229858569e+01 -1.428701996205803368e+02 2.104396154589672108e+01 1.597233757329411787e+02 1.448067555540087703e+01 1.850171912425619212e+02 7.570315820273345153e+00 1.365519757210178398e+02 -3.510391461212594066e+01 9.206206056734178844e+01 -7.252195209634781747e+01 -1.146398077341577135e+02 5.020505208469279523e+01 -5.893563251947470860e+01 -7.978082030762259080e+01 7.409156229078834599e+01 6.550893855873916038e+00 -9.588064202754237897e+01 -1.531122512973682603e+02 1.504575469772125871e+02 -9.073936044991064875e+01 -2.384412243795366315e+00 1.222427104093086001e+02 5.909387895841931737e+01 -1.000119714747792870e+02 1.081991027380398052e+01 2.873649727426063691e+02 5.434351362980969213e+01 -1.607914562151778455e+02 -4.864713853722998493e+01 -6.274534897813681056e+01 9.824658205571576985e+00 1.097279430911683988e+02 -1.055742735729811272e+02 2.200575448110847177e+01 1.331923532272448654e+02 1.916871334168849828e+01 -2.156821635534330142e+02 4.936308560924830147e+01 7.707620111402070506e+01 -1.386329945135556407e+01 3.349969465590596229e+01 1.400383088785809860e-01 2.297936210682523139e+01 2.832851965653215842e+01 1.182939568907064825e+02 1.001154624407755307e+02 1.588034717996430700e+01 1.522233366530293779e+02 -6.539577872990257390e+01 2.519502284525397897e+02 6.642663147324226713e+01 1.447495094893345140e+02 -2.244935648738664113e+01 9.201336212620924471e+01 -5.009894027831350627e+01 -1.495581887044365033e+02 2.676237347300797254e+01 9.715179878583111872e+01 -8.952778344959919821e+01 -1.070318989126901528e+02 -6.799626534016947232e+01 3.739443735602843333e+01 -1.167443924048071437e+02 7.637340054249811772e+01 2.869228558756076453e+01 -9.976388598546566300e+01 1.941347549147059510e+02 -1.202328469839308589e+01 -1.039943033152784295e+02 -1.367553128622223113e+01 -2.088687953986827495e+01 -1.433365458183394878e+02 -4.092367392149053984e+01 6.286473541081608829e+01 1.346928944788712386e+02 2.966117878452769929e+01 2.736092672406004667e+01 4.578371488870343597e+01 -3.655161496847415492e+01 -1.488240331013944342e+02 1.620384220289154342e+01 3.168408439571513568e+01 1.360538821259793281e+02 -1.016094191842230998e+01 -7.783850517865113261e+01 7.484067414261184581e+01 1.020062047793184989e+00 3.264570866884177036e+01 1.423945180591532846e+02 -1.815099566845415211e+02 -9.492583487795211283e+01 1.275179428738809122e+02 -2.143235287404229723e+02 -1.827025291948853294e+02 9.039062222866687080e+01 1.529842178469586713e+02 6.296519704575723608e+01 -4.419138130579173485e+00 1.547530167418874782e+02 -2.180435993517789086e+02 1.064527037515794206e+02 4.210274949098924679e+01 1.262436479016284352e+02 -1.873536611035725912e+02 1.058717784339037991e+02 -2.809766139543292951e+01 -1.328219495569135233e+02 -5.291480340123881909e+00 -9.180053911414402990e+01 -1.620562906040780859e+01 -4.256069320486609797e+00 -1.223825458081870181e+02 -1.225083238541512145e+02 -6.216539106853024776e+01 -1.280806614119033213e+02 1.996780256083252425e+02 -1.599673854851628789e+02 -4.983799843782032468e+01 1.714032938048541439e+02 3.370232914478255992e+01 -2.940387877196242812e+02 -1.262466970313581243e+02 3.529053343354652128e+01 5.428654917016753956e+01 8.546283478936519629e+00 -1.536145405737885596e+02 3.545302431997177450e+01 7.417978632936234717e+00 -7.383882454364943726e+01 2.013758416683532460e+02 2.012659669369013500e+02 4.302179271355324630e+00 -2.071555116020127230e+02 1.251623429929119595e+02 3.056956698939679740e+01 3.728665480382150399e+00 7.612569958558786709e+01 -2.060998654362180389e+02 -1.371288842432671515e+02 1.401155873758291648e+02 1.089190157260221241e+02 5.258416873187974261e+01 1.422849901027969395e+02 -1.770870843531868104e+02 -2.029852441047455613e+01 -1.295730655464539325e+02 4.330002862440598221e+01 -1.031781717604349922e+02 8.647066189882632159e+01 -3.365281965055478963e+01 1.230041712369757789e+01 1.762545977890713118e+02 2.830551735845442707e+01 -2.618252729264868890e+02 -1.255210719370103050e+02 -8.280297803641730070e+01 1.570582593547687793e+02 1.245170196183209832e+01 -5.345836081054051192e+01 3.018197494352991583e+01 6.210499974284956437e+01 -3.932061013721572351e+01 1.068017932002508417e+02 -1.000681325683138425e+02 4.888660887742210548e+01 1.111849549256304783e+02 -3.520963176818977303e+01 -9.747275021130874961e+01 -1.126625831617243705e+02 1.189640629231411850e+02 -4.932951548131705266e+01 1.952470484416688805e+02 5.682497755693457719e+01 1.102200816848912837e+02 1.831877422757171416e+02 8.504693710756791702e+00 -1.234512198595465833e+02 -1.646661520050418801e+02 -1.134328935593838281e+02 4.219080371121235373e+01
-1.321711194762912989e+01 -4.671599190756306363e+00 1.004892297678789390e+02 -2.222169817290087792e+02 1.507998798273569321e+02 6.163535014535138146e+01 1.476161523672767260e+02 -1.253168311192177526e+02 -2.700548969528411725e+00 -2.335998804848539123e+01 -2.129551518850234686e+02 3.176348660451359152e+01 -1.778044417268689870e+01 1.186584190582137808e+02 -1.213401426196034834e+02 5.987328051616287183e+01 1.215750026676484765e+02 -4.457619488111785699e+01 -4.818004281757452389e+01 -2.624175430188014246e+01 5.986654113547800193e+01 6.123343761450108502e+01 3.145110340997153386e+01 -2.256019948460262015e+02 -5.008293926670049245e+01 8.877216085763147646e+01 9.608708796931866303e+00 -1.004476401181634060e+01 -6.455095027699893251e+01 -1.499953871338940026e+01 7.115117927949691534e+01 -1.410690560911629916e+02 -6.006244669829265348e+01 8.724351474983961907e+00 2.013220509359499317e+02 2.057120740737368862e+02 -3.111914337476765269e+01 5.421770894366100180e+01 -2.664921158698903558e-01 -1.354906649641698380e+02 9.311583044014875554e+01 1.040366786099492060e+02 1.052769802795830998e+02 1.134231358895408448e+01 6.004673438206254588e+01 4.668649918423708556e+01 3.772320726557406090e+01 2.845198716779948001e+01 1.069908074388025625e+02 8.703849936251624797e+01 6.364051564238895509e+01 1.581055820874749998e+02 2.402801562964480127e+02 1.897239196429661092e+02 -5.736138677380864692e+01 4.779257734923289291e+01 -6.236775535587864994e+01 5.472818537769996539e+01 -1.864057167483960882e+02 5.481101380733232276e+01 -1.986488166821059167e+02 -1.636655684044354473e+02 1.255653356963669331e+01 -8.964501066370848648e+00 1.644689578133231862e+02 -2.017208997784826181e+02 7.303361069597697508e+01 2.229471576996968452e+02 -7.117323694754824182e+00 -1.889088210370283889e+02 3.451894635122917521e+01 1.913329097436149198e+02 -5.928030347632583386e+01 -2.585518269264862852e+02 -9.951081243511795549e+01 8.581810493080080704e+00 -2.232532233291265982e+02 3.107936769507744046e+01 -1.741455231104308723e+02 -1.801072206470111894e+02 -5.543219502566439871e+01 1.479980422400728628e+02 6.746552168622656609e+01 1.029617164274529628e+01 -8.604791745201170272e+01 -4.136744852697252384e+01 6.190405719058264822e+01 -2.253886131400255408e+02 5.254675918853523342e+01 -7.284811429314913767e+01 -7.586792237953511631e+01 -1.717379313724860594e+02 6.322156782371968831e+01 9.010515382295605491e+01 -1.577092688029580643e+02 1.678612622201254680e+02 -3.876747775446231259e+01 -1.643823846774705189e+01 8.510114044704127423e+01 1.519046779506163318e+02 2.108266330179818482e+01 1.471869778033091336e+02 -1.795286005542881114e+01 -8.816327732898204772e+01 -1.906799584093036870e+01 9.825475196426525315e+01 4.494330189792997743e+01 9.776578763497968794e+01 9.434133852713516433e+01 -8.300716267873833942e+01 -1.698154909187449562e+02 1.229881871088251160e+02 5.422522547110195035e+01 1.616449146302807449e+01 3.056427154548070746e+01 -6.789568337084106986e+01 9.599891680421481510e+01 8.980805240962870073e+01 -1.367565294526129449e+01 -7.122363800837645442e+01 3.075272800423856978e+01 6.274155125415171952e+00 -6.152094720323397326e+01 1.695369977341045740e+02 -3.295141915923593956e+01 1.216155728973090788e+02 -7.012214742125911471e+01 3.839469161998624713e+01 -3.611978222576797037e+01 8.949630223135046947e+01 2.349465824460844487e+01 1.156345066795635290e+02 -1.160653826577602530e+02 7.439303123012609831e+01 1.235778643503456209e+02 -4.475021075959547545e+01 7.600678352135752824e+00 -1.269405039323593698e+01 1.168979368137739527e+02 3.562555220122285871e+00 1.688705743987394783e+02 -1.415940377821794698e+02 1.168391205742266550e+02 -9.146946858591246610e+01 9.591211922286451852e+01 -1.372823580998744717e+02 2.957197496760717570e+01 2.478801071343151818e+01 1.816784832192710697e+00 3.638580211288613242e+01 4.601327089376950141e+01 -1.245103794345833492e+01 1.083805946378253715e+01 1.083368717078403165e+02 1.275629938633740039e+02 -8.688909226961170873e+01 -5.435262645651617675e+01 4.748560584711223242e+01 1.542571658333862228e+00 -1.373324102095055821e+02 -5.525007293742031322e+01 -3.555845823234365355e+01 4.906423273161354359e+01 -6.576069316796615283e+01 2.300286063421953386e+01 1.609056137270219438e+02 -7.974613021930322532e+01 8.108708947502066167e+01 8.440506761120478529e+01 1.127651537579633612e+01 1.239336270099504560e+02 6.314906173767009534e+01 1.687785726670358315e+02 -3.471272693566304923e+01 1.129905081030752143e+02 5.581383219195710410e+01 -1.615647384739202508e+01 2.051826913738498774e+02 -1.395489260144144339e+02 4.915154307287070168e+01 -1.886449860191058860e+02 -8.467783704688545754e+01 4.127412503333579252e+01 -7.265610936945213894e+01 -1.568332774266198442e+02 2.006242958954379674e+02 -8.635245784308391137e+01 -4.781291253049964496e+01 -4.659889186858193710e+01 1.225933939420387446e+02 1.961506097514325688e+02 6.521459783821880762e+01 1.472978578254138995e+02 2.210400076724017424e+02 -1.635439886293937439e+00 1.640985139335842291e+02 7.140999519714800670e+01 1.917972066427536788e+02 -1.267073684776822802e+02 -1.195551267805526585e+01 6.385413499869336817e+00 1.913609884013368969e+02 -9.157037004604664787e+01 -6.092069237958170902e+01 -5.334324522557093218e+01 -1.349575315242200872e+02 4.698740963039111485e+00 -1.016884683164838208e+02 1.552561189451275823e+02 2.374409159753865595e+01 1.209859000511854177e+01 7.284725797412519910e+01 -4.972459275457228323e+00 1.178253410459320349e+02 -1.600320032883759040e+02 4.574416409325811372e+01 -1.721218515075827327e+02 1.183006958136627418e+02 9.674548684079722705e+01 -6.781620402194788255e+01 4.711542027189155135e+01 2.399148222312034306e+02 -3.068329842810613783e+01 4.197036903052447343e+01 -3.291664567355659443e+01 5.836931734585222387e+01 6.476540053163850530e+01 -6.319136768445502206e+00 1.026808304305902197e+02 1.022615201925878949e+02 -1.953049596955432321e+02 -1.543699678138457330e+02 -1.206943040946266450e+02 -9.521175519597059989e+00 -1.508872598298231935e+02 1.163894163165463169e+02 1.111564916628569222e+02 5.940200266110465321e+01 1.124179675462312922e+01 1.588250801048392304e+02 8.456599956928174322e+01 6.797983468077623570e+01 -1.023640874713076983e+02 1.534339930254766671e+02 -3.603498078224737444e+00 1.101019171651616091e+02 8.878178695501317108e+00 3.700285385513775793e+01 -7.623357432734515271e+01 -9.138049750467843069e+01 7.207325023658584939e+01 -3.861647820519613639e+00 1.472358572099115008e+02 -1.265790798266780470e+01 -2.875240611142658498e+00 4.615485249677536217e+01 2.278859467555391305e+01 1.423200017766843928e+02 1.473018377403860768e+01 3.606466091422983311e+01 -1.556558720032747658e+02 6.624499188346317169e+01 1.344509449641367951e+02 -1.776907771463378793e+01 -2.292865290726652461e+02 8.486035283447768052e+01 1.367709898543374436e+02 2.040274219422737190e+01 1.896672597966721696e+02 -4.178102184758753168e+00 4.301896076879009456e+01 -4.369648004716540157e+01 -1.389428392217177759e+02 5.608972246871595502e+01 -4.753746018422040009e+01 -8.114923442526836084e+01 4.125262867625527718e+01 -1.849231213953401323e+02 7.175309488019071580e+01 1.644320741643962549e+02 -1.012371115791564335e+02 1.729487444756145180e+02 -9.763172249791182367e+01 -5.980866914748259155e+00 -1.051439154939482989e+01 7.654989200095899093e+01 -4.653565410791069468e+01 -1.076848611824720052e+02 -8.842434682007943536e+01 1.455449863828910111e+02 5.899978502891709553e+01 -1.314847561191411955e+02 4.429981524696752437e+00 4.333678424022725295e+01 8.236460448713906146e+01 -4.022971517988465706e+01 5.982331437033107591e+01 -6.877739433826481275e+01 -1.618881706801462883e+02 -3.453040909901307032e+01 1.405400913285860440e+02 -1.130068211099599012e+02 -6.396005709881317003e+00 -1.623646670563590533e+02 -4.766147109481078559e+00 -1.453592598291237152e+02 3.278099751124974404e+01 5.993130451654256063e+01 -5.013706755866385123e+01 -8.206804164534779034e+01 5.609098012055079963e+00 7.408407266745084030e+01 -6.748162174386280299e+01 1.341127771489727536e+02 1.050374761766983482e+02 -1.270526999278383755e+02 -1.049507625238748290e+02 1.344201535119971709e+02 7.097974441278961422e+01 1.494168241764501204e+02 9.965600531135116569e+01 8.072446371611863469e+01 -5.992523873902756293e+01 -8.130025753650022580e+01 -7.661274487531633781e+01 2.032504087701761648e+02 3.034901861906410758e+01 -2.474021960767166206e+01 -6.808004304594501832e+01 -4.966805284127539011e+01 -1.302945132879599726e+02 -1.637882976060208051e+01 -1.735931667534468659e+02 1.237124349112482804e+02 4.552644823284597919e+01 -1.140137788231810845e+02 -4.787158235161101061e+01 1.184687502649192368e+02 -9.593413341920103221e+01 1.017224191564818909e+02 -1.171813181214681805e+02 -1.164027512360548222e+01 -9.447045965511655652e+01 8.874082951582872170e+01 -4.201878187568125611e+01 1.020893797542758108e+01 2.900875119894980259e+01 -1.252611632835736231e+02 1.236383391992921155e+01 4.780140353777746753e+01 -2.215040798337912165e+01 -6.797822813375982776e+01 2.002487803341992390e+02 8.547612247289981724e+01 4.659792059653081964e+01 -3.106321270878225604e+01 7.932410669481366483e+01 1.656920649962853247e+02 -9.122686324845118122e+01 2.070625698973161377e+02 -1.315771516115728161e+02 -1.818193087287291689e+02 1.501011278203500297e+02 -2.312642942862048301e+02 -9.768938131430069394e-01 -2.421005322107997131e+02 -1.511542367903630293e+02 7.092970006413541739e+01 -1.439524495116118317e+02 5.770702591679715709e+01 1.086298796818602455e+02 -1.585177144989065710e+02 -2.978314585496608657e+01 7.453114712327857205e+01 1.323765764407461063e+02 -1.839350909789192769e+02 8.645221867936713522e+01 -9.681989105857520883e+01 -9.757766106729587108e+00 -1.372209961911870124e+01 -7.865780813866852839e+01 -8.926375494554470436e+01 1.792635021822683541e+02 -2.142916171322339025e+01 1.319062670945547300e+00 1.287323893378624859e+02 -8.570197284084721900e+01 -3.403745033154429933e+01 -1.064593012965113417e+02 -4.830246642550305580e+01 5.120857359581989954e+00 5.874957079992321241e+01 -1.337172050831393619e+02 2.349030577614852291e+02 -5.340893569307567645e+01 1.215896157769224430e+02 -4.841174582109717761e+01 1.188045540176023991e+02 1.379772212350814300e+02 4.761799640047414783e+01 1.211587793296894944e+02 -4.289717617563095331e+01 1.389201027117794638e+02 -1.552985116066249418e+02 -6.491801410361810554e+01 -6.252015844723098326e+01 2.535512850656170869e+01 -1.611593049595162199e+02 7.204351677464288173e+01 -3.062303642624879885e+01 -8.206941974282584340e+01 8.898698953813375567e+01 -1.500634171661574499e+02 -9.058943082271301250e+01 -5.224940251679572611e+01 3.285601549546615985e+01 1.289363795866258897e+02 1.160710618371376484e+02 6.865590969073221572e+01 -1.591165012335098883e+00 1.736732409276210092e+02 1.216902234976494555e+02 -9.379603655369116666e+01 -7.761747546488457772e+01 5.499637217451955706e+01 9.912425796334609629e+00 9.730414776382389164e+01 1.655285683600629056e+02 7.009618566578869547e+01 2.422630852482715724e+01 -1.014811548400396077e+02 1.705970082024902297e+02 -1.128742574526012419e+02 -1.640972591147966000e+02 6.524513508853803501e+01 1.106712553143687785e+02 1.948755880563523846e+01 -1.378124125713772798e+02 2.950984216590415343e+01 4.210414469438782703e+01 -3.200125854066546149e-01 1.299077034392652763e+02 9.685283084577865509e+01 1.697162854196207249e+01 7.771987773350556949e+01 -1.061517795980617791e+02 -6.265388114878359893e+00 9.752689192342300828e+01 2.944057289251219345e+01 -6.449492281930710647e+01 1.963755798392116958e+02 2.291527453410174928e+02 -1.244480022359763751e+02 -2.737180180276223140e+01 -2.083857926733607542e+02 -7.155124095954052166e+01 1.552326820007056938e+02 3.371817420015707167e+00 -7.035364710129823607e+01 1.623263952880454042e+02 -6.194813620095959550e+01 -1.591417084372652937e+02 1.353031531917007442e+02 -6.659758551604298304e+01 3.414524483910542330e+01 8.555019848382281111e+01 1.365121217366821682e+01 -2.359782015611712325e+02 4.189139220275358610e+01 -6.078224612945579253e+00 8.922453589493355253e+01 -2.333626444291163082e+01 1.001815194327771366e+02 1.680702037693237116e+01 -8.393223225447678715e+01 -2.027865188212383529e+01 -1.735242810181791526e+02 1.138739087010248454e+02 2.502567761464239737e+01 -4.122222061441316043e+01 -5.130604871696385061e+01 -6.226386533770669729e+01 4.070311141662356391e+01 1.591178949602282557e+02 1.314031852487347010e+02 4.264554214060588322e+01 -1.959224054102344894e+02 -3.841296934548159925e+01 4.338312166428210048e+01 1.161909192746890227e+02 8.636872046709218864e+01 1.530155678559891008e+01 -1.842135428094303222e+02 1.304212000311460429e+02 -2.215640934867911085e+02 -2.037937902413567883e+02 -1.827690014009706543e+00 -7.305279754872837827e+01 -2.384968509412373905e+01 8.627605918096499238e+01 5.537418097820442853e+01 -1.101197450907567656e+02 -1.499658990692048803e+02 1.445057097888606101e+01 1.224802746770189827e+02 2.049887883336082339e+01 -5.615485055936318304e+01 -5.111388019154324525e+01 -1.165392555811670050e+01 1.597947900736296560e+02 2.215569783152904293e+01 -1.750589695538089643e+02 1.293187027787054149e+02 -6.733726861286540100e+01 -4.209548965332735371e+00 1.552340624696738018e+02 -5.272696561334177545e+01 -1.974050274689735218e+01 -1.107359933011452995e+02 -6.056971902077131098e+00 -2.405044198317985504e+01 1.327726951799144786e+02 1.210620524298745124e+02 6.812709279058199741e+01 6.594528309572808666e+01 -1.886370559337031949e+01 1.363090388086118594e+02 -1.136604970422669396e+02 -4.297214285562453107e+00 -9.178853931499325824e+01 1.584069825288809454e+02 7.353307066034489026e+01 5.211191735464278452e+01 8.343601994915228914e+00 -5.371002801410318739e+01 3.466035987314538858e+01 6.804162141381587148e+00 3.632903946234299131e+00 2.431022151009883459e+01 6.025483586938871383e+01 1.716142050738585567e+02 -3.913907372770283644e+01 -5.240311053027824784e+01 6.731605197794948481e+01 1.165918670736947433e+02 -1.291074526670762346e+01 9.265286521573855794e+01 1.048564379039356851e+02 2.124147765642370018e+02 -8.722785685443194836e+01 -1.236544912436353911e+02 -2.886099695854932534e+01 6.262533366753151398e+01 -1.022557642643148590e+01 1.082466841123745667e+02 3.752049678657873244e+01 -1.638716187151898964e+02 4.540299109133642474e+01 -9.013487673915426512e+01 -1.363124808394686056e+02 1.354996580761058453e+02 -7.658269640563332814e+01 5.957613744551962753e+01 1.120052117303492167e+02 -9.973777653049894809e+01 2.364054664600905653e+01 -7.265114371067890886e+01 4.053893367006153170e+01 -1.153674930900123314e+02 6.198381883553665261e+01 5.502856581375037592e+01 3.945798081110731381e+00 8.461098764248376369e+01 -1.539082804935774504e+02 7.686117357733442645e+01 -2.943641849553242906e+01 -1.687841032302421240e+02 9.438905702394369257e+01 2.449876626055963769e+01 -1.959790812723979343e+02 2.350258410830152513e+02 -5.306962130623941176e-01 1.050730918101238842e+02 -1.204871239768261830e+02 -1.940191702393349544e+02 -9.322820322900871304e+01 2.474288266045962636e+00 1.427677105256028085e+02 4.003448614783114756e+00 -9.547787730101519799e+01 5.035879494169213189e+01 1.369163543684431090e+02 6.492537934163735258e+01 -5.169727810859714623e+01 -5.908414069625884935e+01 8.442841931245156673e+01 3.072267731656585354e+01 -1.953628828385097620e+02 -2.071409495045588400e+01 1.688777918194586789e+02 9.873986277404459599e+01 -5.726676531742722887e+01 -1.116988485197900758e+02 -4.264087497772872126e+01 -4.803524275965014567e+01 -1.143439884711945354e+02 -1.846656758569988810e+01 -4.562030608000127785e+01 -1.135080455669001083e+02 -1.317576837792054505e+02 -2.690224818649128125e+01 -1.255424345417360996e+02 -1.336562094419715550e+02 -3.829525713346119176e+01 -5.530039251922742949e+01 -1.108934567512957585e+02 1.926962913599697629e+02 1.090099956636269063e+01 -2.912427920117726643e+01 -1.760786432279774871e+01 8.143364512235210384e+01 1.618739300417045257e+01 2.592881538063550195e+01 -2.203785726787203103e+01 -4.785670734355000633e+01 2.165610071285871996e+01 -1.504748029671557106e+02 -1.647972618360019794e+02 -9.361534894694328557e+01 -1.975569390136998607e+02 -9.277691645353314698e+01 8.882533193743137190e+01 6.354086466224904228e+01 -2.698000944523144895e+01 6.290740737389850068e+01 -1.620595917809866933e+02 -4.225404870509741784e+01 -1.202113007025085665e+02 -6.910163189120973470e+01 2.183549647248022438e+02 -2.125075468623682866e+02 2.124880776619447715e+02 2.587767803745382977e+01 -5.846353696620670348e+01 9.549806113678005204e+01 1.284498093972431434e+02 -5.371667047446622689e+01 -2.108933755499403162e+02 -1.543450277886158517e+02 1.058647121789884977e+02 8.670941202531531644e+01 -1.403578905831878103e+02 3.308476623249658388e+01 -4.105849481630969677e+01 -8.012370755060243255e+01 -2.942416058238947585e+01 -5.675979465323414530e+01 -8.948523179515487413e+01 -3.523234152987745915e+01 4.631985475707540267e+00 -3.386249797715454690e+01 -4.117987244685275550e-01 -1.486815621927036801e+01 9.521996073868638177e+01 1.315526903453374814e+02 1.363326326330840743e+01 1.737893416659693102e+01 -6.532625726382606501e+01 -2.029187550715651014e+02 3.504597195090185124e+01 -9.496631680630578387e+01 2.673671104501614693e+01 -8.474158443531562668e+00 1.050649544912030331e+00 7.480818100888937749e+01 1.261680817654986555e+02 -7.294016765266216851e+01 3.933631022557021595e+01 -1.996227411367655122e+02 1.000793600013732210e+01 7.250842425227882693e+00 -1.268602827443017702e+02 -3.491585990991004707e+01 -4.588725400653095221e+01 4.940932660579621327e+00 -1.058525604795934498e+02 2.800884337173977556e+01 -1.010893626828718226e+02 5.809766307262232488e+01 7.023162468162946936e+01 3.817613042900941167e+01 -3.003935545046101296e+01 1.112231306492417247e+02 6.321007700826451270e+01 8.279800671647025467e+01 -6.933509298407484778e+01 2.101149731630874129e+01 1.323570053796710511e+02 -6.050706178858410311e+01 -7.153051202171795353e+00 3.310444770852105023e+01 -1.328541984218974221e+02 1.012112301724282162e+02 9.267028929108668933e+01 -1.046188907908258727e+02 -8.518969566477774435e+01 -5.742698425073984936e+01 -4.711506747265109141e+01 -1.657631450507984141e+02 -1.405710798492258675e+02 -1.369853701826212102e+02 1.092537454953878893e+02 6.179558969581550798e+01 1.649095741776174862e+02 7.437780928988320106e+00 -8.863482684247931331e+01 1.935715926222357197e+01 1.429646195988622814e+01 -6.562604716808809258e+01 7.651537337895818780e+01 1.219830158999787386e+02 1.032700246091745022e+01 1.481570460587188052e+02 2.325635003102688358e+01 1.146137273685881155e+02 1.559533372768706982e+01 -2.145860268188615976e+02 2.255134865105377742e+02 -5.053322336573403106e+01 -1.539805230938090119e+02 -6.937120807370546061e+01 -4.431823933525988224e+01 4.249488053593987047e+01 2.628694692357941776e+01 4.697203483724039330e+01 -7.610064169029925552e+01 1.256147264001160266e+02 -8.852288918116630612e+01 -7.192591450227856065e+00 1.461344587028313811e+02 1.124249663969130495e+02 5.945594840391583347e+01 -1.814295075714060772e+02 2.605905311251170886e+01 1.438326659532966403e+02 2.400050230051689937e+01 9.989103471898751252e+01 1.089037415972231315e+02 -2.162202104497613959e+02 7.865283789161600225e+01 -5.903617011369207290e+01 -2.298156745025062833e+02 9.037623369481734414e+01 2.508176968226087311e+01 -1.239831853838905715e+02 -5.942058771819510810e+01 1.406585881692533349e+02 1.492799556894709099e+02 -7.661765957592004384e+01 -1.290051734911933181e+02 -8.414162496198588315e+01 -1.670892049572367739e+02 1.968697043506778854e+01 3.813043308667771925e+01 -1.702033922480515926e+01 -1.242120828925727594e+01 -8.973845080522728779e+01 -8.853620417754166283e+01 -2.466860998100214530e+01 1.336498592283118114e+02 1.358488136690186536e+02 8.082605281063041502e+01 9.663776714452765759e+01 -7.816613143886245041e+01 -1.793902898613038701e+02 -1.314084479856403931e+01 -2.298815935715364134e+01 -7.040514853389026939e+01 1.486526363756399238e+00 7.244467685060139672e+01 -5.247083898434856053e+01 2.442463785103268492e+01 7.849463714350308408e+01 6.948987743850919685e+01 1.095650243898089684e+02 -1.478918936018683610e+02 3.929880657238751951e+01 8.258943700319376546e+01 9.393694507503839475e+01 5.856057326599083268e+01 -1.023437458443782759e+02 1.357496714421908734e+02 1.263517034891041817e+02 9.500288419314414057e+01 1.006488630394334933e+02 -8.349576170410442444e+01 -1.474471489935051238e+01 -1.281287861789423488e+01 7.639336644368277973e+01 6.440339934079547390e+01 5.547859386342797450e+01 9.673956205407344555e+01 1.154629269244206853e+02 1.227977309581663548e+02 -6.434744562375057342e+01 7.989489422326633417e+01 6.468253723592928850e+01 -1.166375700436302338e+02 1.304632057844104622e+02 -9.953696263199073968e+00 -2.767940190065883144e+01 1.975970741029928490e+02 8.773481495339761693e+01 1.230841901132344418e+02 -1.431762706889450669e+02 -1.565425932386195029e+02 -1.525689063747502132e+02 -1.212536242968343458e+02 -4.395782232542151036e+01 1.090307703657168474e+02 -1.674777364670728161e+02 3.231160948112673736e+01 1.434043215713894597e+02 -5.896295415375641369e+01 -9.078733987311851195e+01 -3.490116454688459413e+01 1.350968126681457306e+02 2.260288147350179884e+02 -6.627864989865541645e+01 1.970904331507452767e+01 -2.755690286614891349e+01 6.814665685974171083e+01 5.996962052702863843e+01 -2.122247316283961140e+02 -8.825676154360405690e+01 1.369640835392348208e+02 1.391978152889980151e+02 9.414038030455610340e+01 -4.960141260625310622e+01 -7.550967502342570015e+01 -4.523725796424527346e+01 -1.758645691633396382e+02 7.090169869204629549e+01 -2.558108015949208536e+01 1.658092978220716702e+02 -2.783128363798719818e+01 -3.135288482890350679e+02 1.444203856965726231e+02 5.014754021879099355e+01 -1.176141775188421974e+02 -2.207701884621295108e+01 3.521228353993950577e+01 -2.070881692642647636e+02 -1.139734897376109473e+02 -1.093014941481433482e+02 -5.629178807443222610e+01 6.264955895013572729e+01 -1.644098669186972472e+02 1.076731177681388942e+02 -5.418672467925323843e+01 2.902193602334673272e+00 -1.331148355157464778e+02 -1.033661808031438625e+02 1.754812690957719497e+02 8.648164087658894061e+01 -4.215081254279152034e+01 3.710527150058493362e+01 -2.800717790369393256e+01 4.315114307786985393e+01 -1.044356930043056764e+02 9.867447525102789996e+01 5.043101906076046959e+01 -1.187240753825715274e+02 1.165841693597218693e+02 -4.907124311123953220e+01 9.977658691204568697e+01 -4.934533448294953928e+01 8.827837414941555494e+01 -1.532294248087047777e+02 1.425380179591741410e+02 2.474593781156379535e+01 1.005416522284492942e+02 1.302918782074791864e+02 -1.465214843895595891e+02 -8.582850957577410611e+01 -1.055522592564204842e+02 6.683454511928054842e+01 -1.712421221534268909e+02 1.513992339147341966e+02 1.423283872737630134e+02 5.296235136921819731e+01 -8.486438192558807714e+01 5.703592359682469493e+01 -1.072687928153871155e+02 -1.095256119058899458e+01 3.498136159773318354e+01 -1.837188844509975354e+02 -8.158824113491134256e+01 -1.353499168154692889e+01 1.022179457071777620e+02 -5.021309506326664263e+01 1.087243501531447407e+02 -6.435822425129371993e+01 -2.108920400626647336e+02 -1.071445750090408069e+02 -3.409520988100874206e+01 -6.022673521453114631e+01 3.012006219926675499e+01 5.141496665199444749e+01 6.355757926246973000e+00 2.532893379048891802e+01 -1.174150826530373450e+02 5.389055980571105664e+01 3.266577135882518235e+01 -7.227614326922913790e+01 9.271741574584570600e+00 5.639624854260007680e+01 -9.555407988844254419e+01 -5.516000275905221883e+01 -2.418028691449750767e+01 9.776488120703172058e+01 -1.715915825329800271e+01 4.200874463777981127e+00 -2.284901866754247806e+02 -9.522885191199891608e+01 9.912972955368583428e+01 -8.942106277693579841e+01 3.140765395323780140e+01 3.113379475757050940e+01 3.802446770295816236e+01 6.623460096724562618e+01 -1.778668286121802566e+02 1.443062820738178971e+02 8.166855224180973494e+01 -7.532673225623030433e+00 -8.100552736641419926e+01 1.121996670996613972e+02 6.225145529371519615e+01 -2.016017514277980922e+02 -5.051695102718389307e+01 -8.189973322416032886e+01 -5.198027563966756048e+01 -6.210628112248651433e+01 -9.932354155535050211e+01 -6.053506143315809851e+01 1.920097228177399700e+02 -1.712560902067853590e+02 6.566617128103264633e+01 2.781900166952383913e+01 -7.538700228826452587e+01 1.041108148764856267e+01 -3.952683408256073960e+01 3.436719213358286673e+00 -9.640561954041429260e+01 -1.981233373051450428e+02 1.844678779392044277e+01 4.203727402016802017e+01 -1.283704026438658197e+01 -9.050699902163650279e+00 -3.989978160179163780e+01 -1.905045734777656321e+02 -3.074444313523560623e+01 -6.556723879653283404e+01 1.401278309244451492e+01 -1.565812163216460462e+01 9.082977162471773624e+01 -6.323158297633290914e+01 -1.040289362381973177e+02 -3.586010015014383612e+01 -9.044560420172164328e+00 4.565590648707326693e+01 -2.221510214663812022e+01 -7.397568154047864653e+01 -1.592503295220502224e+01 2.013399396393113605e+01 4.766131854928175215e+01 -1.143992961665005339e+02 -1.395076076401234388e+02 2.311339534714028332e+02 -2.190331415555867238e+02 -7.622074767061755551e+01 -4.650916732155743460e+01 1.403605499198023097e+02 6.350912408167523893e+01 2.296892666017191118e+02 2.456357421816225326e+02 -6.256093394122765261e+01 1.299482872472022450e+02 -5.615720954065764658e+01 -4.096035076408747244e+01 -1.010227488206096496e+02 -8.013995946743723664e+01 -6.983230189301370672e+01 -8.932541208196253990e+01 -2.446848709745286783e+02 -2.718900045017020943e+02 1.352047394497504911e+02 -2.662810979848291026e+01 5.346562966781900883e+01 1.313596322448305216e+02
