# 
#                 ----------------------------------------------------
#                 Data from a 3D direct N-body simulation. 
# 
#                 rows are i-particle; 
#                 coumns are :mass, tag, x ,y, z, vx, vy, vz, ax, ay, az
# 
#                 NTHU, Computational Physics Lab
# 
#                 ----------------------------------------------------
#                 Time = 2.299999999999995
1.000000000000000000e+00 2.000000000000000000e+00 3.000000000000000000e+00 4.000000000000000000e+00 5.000000000000000000e+00 6.000000000000000000e+00 7.000000000000000000e+00 8.000000000000000000e+00 9.000000000000000000e+00 1.000000000000000000e+01 1.100000000000000000e+01 1.200000000000000000e+01 1.300000000000000000e+01 1.400000000000000000e+01 1.500000000000000000e+01 1.600000000000000000e+01 1.700000000000000000e+01 1.800000000000000000e+01 1.900000000000000000e+01 2.000000000000000000e+01 2.100000000000000000e+01 2.200000000000000000e+01 2.300000000000000000e+01 2.400000000000000000e+01 2.500000000000000000e+01 2.600000000000000000e+01 2.700000000000000000e+01 2.800000000000000000e+01 2.900000000000000000e+01 3.000000000000000000e+01 3.100000000000000000e+01 3.200000000000000000e+01 3.300000000000000000e+01 3.400000000000000000e+01 3.500000000000000000e+01 3.600000000000000000e+01 3.700000000000000000e+01 3.800000000000000000e+01 3.900000000000000000e+01 4.000000000000000000e+01 4.100000000000000000e+01 4.200000000000000000e+01 4.300000000000000000e+01 4.400000000000000000e+01 4.500000000000000000e+01 4.600000000000000000e+01 4.700000000000000000e+01 4.800000000000000000e+01 4.900000000000000000e+01 5.000000000000000000e+01 5.100000000000000000e+01 5.200000000000000000e+01 5.300000000000000000e+01 5.400000000000000000e+01 5.500000000000000000e+01 5.600000000000000000e+01 5.700000000000000000e+01 5.800000000000000000e+01 5.900000000000000000e+01 6.000000000000000000e+01 6.100000000000000000e+01 6.200000000000000000e+01 6.300000000000000000e+01 6.400000000000000000e+01 6.500000000000000000e+01 6.600000000000000000e+01 6.700000000000000000e+01 6.800000000000000000e+01 6.900000000000000000e+01 7.000000000000000000e+01 7.100000000000000000e+01 7.200000000000000000e+01 7.300000000000000000e+01 7.400000000000000000e+01 7.500000000000000000e+01 7.600000000000000000e+01 7.700000000000000000e+01 7.800000000000000000e+01 7.900000000000000000e+01 8.000000000000000000e+01 8.100000000000000000e+01 8.200000000000000000e+01 8.300000000000000000e+01 8.400000000000000000e+01 8.500000000000000000e+01 8.600000000000000000e+01 8.700000000000000000e+01 8.800000000000000000e+01 8.900000000000000000e+01 9.000000000000000000e+01 9.100000000000000000e+01 9.200000000000000000e+01 9.300000000000000000e+01 9.400000000000000000e+01 9.500000000000000000e+01 9.600000000000000000e+01 9.700000000000000000e+01 9.800000000000000000e+01 9.900000000000000000e+01 1.000000000000000000e+02 1.010000000000000000e+02 1.020000000000000000e+02 1.030000000000000000e+02 1.040000000000000000e+02 1.050000000000000000e+02 1.060000000000000000e+02 1.070000000000000000e+02 1.080000000000000000e+02 1.090000000000000000e+02 1.100000000000000000e+02 1.110000000000000000e+02 1.120000000000000000e+02 1.130000000000000000e+02 1.140000000000000000e+02 1.150000000000000000e+02 1.160000000000000000e+02 1.170000000000000000e+02 1.180000000000000000e+02 1.190000000000000000e+02 1.200000000000000000e+02 1.210000000000000000e+02 1.220000000000000000e+02 1.230000000000000000e+02 1.240000000000000000e+02 1.250000000000000000e+02 1.260000000000000000e+02 1.270000000000000000e+02 1.280000000000000000e+02 1.290000000000000000e+02 1.300000000000000000e+02 1.310000000000000000e+02 1.320000000000000000e+02 1.330000000000000000e+02 1.340000000000000000e+02 1.350000000000000000e+02 1.360000000000000000e+02 1.370000000000000000e+02 1.380000000000000000e+02 1.390000000000000000e+02 1.400000000000000000e+02 1.410000000000000000e+02 1.420000000000000000e+02 1.430000000000000000e+02 1.440000000000000000e+02 1.450000000000000000e+02 1.460000000000000000e+02 1.470000000000000000e+02 1.480000000000000000e+02 1.490000000000000000e+02 1.500000000000000000e+02 1.510000000000000000e+02 1.520000000000000000e+02 1.530000000000000000e+02 1.540000000000000000e+02 1.550000000000000000e+02 1.560000000000000000e+02 1.570000000000000000e+02 1.580000000000000000e+02 1.590000000000000000e+02 1.600000000000000000e+02 1.610000000000000000e+02 1.620000000000000000e+02 1.630000000000000000e+02 1.640000000000000000e+02 1.650000000000000000e+02 1.660000000000000000e+02 1.670000000000000000e+02 1.680000000000000000e+02 1.690000000000000000e+02 1.700000000000000000e+02 1.710000000000000000e+02 1.720000000000000000e+02 1.730000000000000000e+02 1.740000000000000000e+02 1.750000000000000000e+02 1.760000000000000000e+02 1.770000000000000000e+02 1.780000000000000000e+02 1.790000000000000000e+02 1.800000000000000000e+02 1.810000000000000000e+02 1.820000000000000000e+02 1.830000000000000000e+02 1.840000000000000000e+02 1.850000000000000000e+02 1.860000000000000000e+02 1.870000000000000000e+02 1.880000000000000000e+02 1.890000000000000000e+02 1.900000000000000000e+02 1.910000000000000000e+02 1.920000000000000000e+02 1.930000000000000000e+02 1.940000000000000000e+02 1.950000000000000000e+02 1.960000000000000000e+02 1.970000000000000000e+02 1.980000000000000000e+02 1.990000000000000000e+02 2.000000000000000000e+02 2.010000000000000000e+02 2.020000000000000000e+02 2.030000000000000000e+02 2.040000000000000000e+02 2.050000000000000000e+02 2.060000000000000000e+02 2.070000000000000000e+02 2.080000000000000000e+02 2.090000000000000000e+02 2.100000000000000000e+02 2.110000000000000000e+02 2.120000000000000000e+02 2.130000000000000000e+02 2.140000000000000000e+02 2.150000000000000000e+02 2.160000000000000000e+02 2.170000000000000000e+02 2.180000000000000000e+02 2.190000000000000000e+02 2.200000000000000000e+02 2.210000000000000000e+02 2.220000000000000000e+02 2.230000000000000000e+02 2.240000000000000000e+02 2.250000000000000000e+02 2.260000000000000000e+02 2.270000000000000000e+02 2.280000000000000000e+02 2.290000000000000000e+02 2.300000000000000000e+02 2.310000000000000000e+02 2.320000000000000000e+02 2.330000000000000000e+02 2.340000000000000000e+02 2.350000000000000000e+02 2.360000000000000000e+02 2.370000000000000000e+02 2.380000000000000000e+02 2.390000000000000000e+02 2.400000000000000000e+02 2.410000000000000000e+02 2.420000000000000000e+02 2.430000000000000000e+02 2.440000000000000000e+02 2.450000000000000000e+02 2.460000000000000000e+02 2.470000000000000000e+02 2.480000000000000000e+02 2.490000000000000000e+02 2.500000000000000000e+02 2.510000000000000000e+02 2.520000000000000000e+02 2.530000000000000000e+02 2.540000000000000000e+02 2.550000000000000000e+02 2.560000000000000000e+02 2.570000000000000000e+02 2.580000000000000000e+02 2.590000000000000000e+02 2.600000000000000000e+02 2.610000000000000000e+02 2.620000000000000000e+02 2.630000000000000000e+02 2.640000000000000000e+02 2.650000000000000000e+02 2.660000000000000000e+02 2.670000000000000000e+02 2.680000000000000000e+02 2.690000000000000000e+02 2.700000000000000000e+02 2.710000000000000000e+02 2.720000000000000000e+02 2.730000000000000000e+02 2.740000000000000000e+02 2.750000000000000000e+02 2.760000000000000000e+02 2.770000000000000000e+02 2.780000000000000000e+02 2.790000000000000000e+02 2.800000000000000000e+02 2.810000000000000000e+02 2.820000000000000000e+02 2.830000000000000000e+02 2.840000000000000000e+02 2.850000000000000000e+02 2.860000000000000000e+02 2.870000000000000000e+02 2.880000000000000000e+02 2.890000000000000000e+02 2.900000000000000000e+02 2.910000000000000000e+02 2.920000000000000000e+02 2.930000000000000000e+02 2.940000000000000000e+02 2.950000000000000000e+02 2.960000000000000000e+02 2.970000000000000000e+02 2.980000000000000000e+02 2.990000000000000000e+02 3.000000000000000000e+02 3.010000000000000000e+02 3.020000000000000000e+02 3.030000000000000000e+02 3.040000000000000000e+02 3.050000000000000000e+02 3.060000000000000000e+02 3.070000000000000000e+02 3.080000000000000000e+02 3.090000000000000000e+02 3.100000000000000000e+02 3.110000000000000000e+02 3.120000000000000000e+02 3.130000000000000000e+02 3.140000000000000000e+02 3.150000000000000000e+02 3.160000000000000000e+02 3.170000000000000000e+02 3.180000000000000000e+02 3.190000000000000000e+02 3.200000000000000000e+02 3.210000000000000000e+02 3.220000000000000000e+02 3.230000000000000000e+02 3.240000000000000000e+02 3.250000000000000000e+02 3.260000000000000000e+02 3.270000000000000000e+02 3.280000000000000000e+02 3.290000000000000000e+02 3.300000000000000000e+02 3.310000000000000000e+02 3.320000000000000000e+02 3.330000000000000000e+02 3.340000000000000000e+02 3.350000000000000000e+02 3.360000000000000000e+02 3.370000000000000000e+02 3.380000000000000000e+02 3.390000000000000000e+02 3.400000000000000000e+02 3.410000000000000000e+02 3.420000000000000000e+02 3.430000000000000000e+02 3.440000000000000000e+02 3.450000000000000000e+02 3.460000000000000000e+02 3.470000000000000000e+02 3.480000000000000000e+02 3.490000000000000000e+02 3.500000000000000000e+02 3.510000000000000000e+02 3.520000000000000000e+02 3.530000000000000000e+02 3.540000000000000000e+02 3.550000000000000000e+02 3.560000000000000000e+02 3.570000000000000000e+02 3.580000000000000000e+02 3.590000000000000000e+02 3.600000000000000000e+02 3.610000000000000000e+02 3.620000000000000000e+02 3.630000000000000000e+02 3.640000000000000000e+02 3.650000000000000000e+02 3.660000000000000000e+02 3.670000000000000000e+02 3.680000000000000000e+02 3.690000000000000000e+02 3.700000000000000000e+02 3.710000000000000000e+02 3.720000000000000000e+02 3.730000000000000000e+02 3.740000000000000000e+02 3.750000000000000000e+02 3.760000000000000000e+02 3.770000000000000000e+02 3.780000000000000000e+02 3.790000000000000000e+02 3.800000000000000000e+02 3.810000000000000000e+02 3.820000000000000000e+02 3.830000000000000000e+02 3.840000000000000000e+02 3.850000000000000000e+02 3.860000000000000000e+02 3.870000000000000000e+02 3.880000000000000000e+02 3.890000000000000000e+02 3.900000000000000000e+02 3.910000000000000000e+02 3.920000000000000000e+02 3.930000000000000000e+02 3.940000000000000000e+02 3.950000000000000000e+02 3.960000000000000000e+02 3.970000000000000000e+02 3.980000000000000000e+02 3.990000000000000000e+02 4.000000000000000000e+02 4.010000000000000000e+02 4.020000000000000000e+02 4.030000000000000000e+02 4.040000000000000000e+02 4.050000000000000000e+02 4.060000000000000000e+02 4.070000000000000000e+02 4.080000000000000000e+02 4.090000000000000000e+02 4.100000000000000000e+02 4.110000000000000000e+02 4.120000000000000000e+02 4.130000000000000000e+02 4.140000000000000000e+02 4.150000000000000000e+02 4.160000000000000000e+02 4.170000000000000000e+02 4.180000000000000000e+02 4.190000000000000000e+02 4.200000000000000000e+02 4.210000000000000000e+02 4.220000000000000000e+02 4.230000000000000000e+02 4.240000000000000000e+02 4.250000000000000000e+02 4.260000000000000000e+02 4.270000000000000000e+02 4.280000000000000000e+02 4.290000000000000000e+02 4.300000000000000000e+02 4.310000000000000000e+02 4.320000000000000000e+02 4.330000000000000000e+02 4.340000000000000000e+02 4.350000000000000000e+02 4.360000000000000000e+02 4.370000000000000000e+02 4.380000000000000000e+02 4.390000000000000000e+02 4.400000000000000000e+02 4.410000000000000000e+02 4.420000000000000000e+02 4.430000000000000000e+02 4.440000000000000000e+02 4.450000000000000000e+02 4.460000000000000000e+02 4.470000000000000000e+02 4.480000000000000000e+02 4.490000000000000000e+02 4.500000000000000000e+02 4.510000000000000000e+02 4.520000000000000000e+02 4.530000000000000000e+02 4.540000000000000000e+02 4.550000000000000000e+02 4.560000000000000000e+02 4.570000000000000000e+02 4.580000000000000000e+02 4.590000000000000000e+02 4.600000000000000000e+02 4.610000000000000000e+02 4.620000000000000000e+02 4.630000000000000000e+02 4.640000000000000000e+02 4.650000000000000000e+02 4.660000000000000000e+02 4.670000000000000000e+02 4.680000000000000000e+02 4.690000000000000000e+02 4.700000000000000000e+02 4.710000000000000000e+02 4.720000000000000000e+02 4.730000000000000000e+02 4.740000000000000000e+02 4.750000000000000000e+02 4.760000000000000000e+02 4.770000000000000000e+02 4.780000000000000000e+02 4.790000000000000000e+02 4.800000000000000000e+02 4.810000000000000000e+02 4.820000000000000000e+02 4.830000000000000000e+02 4.840000000000000000e+02 4.850000000000000000e+02 4.860000000000000000e+02 4.870000000000000000e+02 4.880000000000000000e+02 4.890000000000000000e+02 4.900000000000000000e+02 4.910000000000000000e+02 4.920000000000000000e+02 4.930000000000000000e+02 4.940000000000000000e+02 4.950000000000000000e+02 4.960000000000000000e+02 4.970000000000000000e+02 4.980000000000000000e+02 4.990000000000000000e+02 5.000000000000000000e+02 5.010000000000000000e+02 5.020000000000000000e+02 5.030000000000000000e+02 5.040000000000000000e+02 5.050000000000000000e+02 5.060000000000000000e+02 5.070000000000000000e+02 5.080000000000000000e+02 5.090000000000000000e+02 5.100000000000000000e+02 5.110000000000000000e+02 5.120000000000000000e+02 5.130000000000000000e+02 5.140000000000000000e+02 5.150000000000000000e+02 5.160000000000000000e+02 5.170000000000000000e+02 5.180000000000000000e+02 5.190000000000000000e+02 5.200000000000000000e+02 5.210000000000000000e+02 5.220000000000000000e+02 5.230000000000000000e+02 5.240000000000000000e+02 5.250000000000000000e+02 5.260000000000000000e+02 5.270000000000000000e+02 5.280000000000000000e+02 5.290000000000000000e+02 5.300000000000000000e+02 5.310000000000000000e+02 5.320000000000000000e+02 5.330000000000000000e+02 5.340000000000000000e+02 5.350000000000000000e+02 5.360000000000000000e+02 5.370000000000000000e+02 5.380000000000000000e+02 5.390000000000000000e+02 5.400000000000000000e+02 5.410000000000000000e+02 5.420000000000000000e+02 5.430000000000000000e+02 5.440000000000000000e+02 5.450000000000000000e+02 5.460000000000000000e+02 5.470000000000000000e+02 5.480000000000000000e+02 5.490000000000000000e+02 5.500000000000000000e+02 5.510000000000000000e+02 5.520000000000000000e+02 5.530000000000000000e+02 5.540000000000000000e+02 5.550000000000000000e+02 5.560000000000000000e+02 5.570000000000000000e+02 5.580000000000000000e+02 5.590000000000000000e+02 5.600000000000000000e+02 5.610000000000000000e+02 5.620000000000000000e+02 5.630000000000000000e+02 5.640000000000000000e+02 5.650000000000000000e+02 5.660000000000000000e+02 5.670000000000000000e+02 5.680000000000000000e+02 5.690000000000000000e+02 5.700000000000000000e+02 5.710000000000000000e+02 5.720000000000000000e+02 5.730000000000000000e+02 5.740000000000000000e+02 5.750000000000000000e+02 5.760000000000000000e+02 5.770000000000000000e+02 5.780000000000000000e+02 5.790000000000000000e+02 5.800000000000000000e+02 5.810000000000000000e+02 5.820000000000000000e+02 5.830000000000000000e+02 5.840000000000000000e+02 5.850000000000000000e+02 5.860000000000000000e+02 5.870000000000000000e+02 5.880000000000000000e+02 5.890000000000000000e+02 5.900000000000000000e+02 5.910000000000000000e+02 5.920000000000000000e+02 5.930000000000000000e+02 5.940000000000000000e+02 5.950000000000000000e+02 5.960000000000000000e+02 5.970000000000000000e+02 5.980000000000000000e+02 5.990000000000000000e+02 6.000000000000000000e+02 6.010000000000000000e+02 6.020000000000000000e+02 6.030000000000000000e+02 6.040000000000000000e+02 6.050000000000000000e+02 6.060000000000000000e+02 6.070000000000000000e+02 6.080000000000000000e+02 6.090000000000000000e+02 6.100000000000000000e+02 6.110000000000000000e+02 6.120000000000000000e+02 6.130000000000000000e+02 6.140000000000000000e+02 6.150000000000000000e+02 6.160000000000000000e+02 6.170000000000000000e+02 6.180000000000000000e+02 6.190000000000000000e+02 6.200000000000000000e+02 6.210000000000000000e+02 6.220000000000000000e+02 6.230000000000000000e+02 6.240000000000000000e+02 6.250000000000000000e+02 6.260000000000000000e+02 6.270000000000000000e+02 6.280000000000000000e+02 6.290000000000000000e+02 6.300000000000000000e+02 6.310000000000000000e+02 6.320000000000000000e+02 6.330000000000000000e+02 6.340000000000000000e+02 6.350000000000000000e+02 6.360000000000000000e+02 6.370000000000000000e+02 6.380000000000000000e+02 6.390000000000000000e+02 6.400000000000000000e+02 6.410000000000000000e+02 6.420000000000000000e+02 6.430000000000000000e+02 6.440000000000000000e+02 6.450000000000000000e+02 6.460000000000000000e+02 6.470000000000000000e+02 6.480000000000000000e+02 6.490000000000000000e+02 6.500000000000000000e+02 6.510000000000000000e+02 6.520000000000000000e+02 6.530000000000000000e+02 6.540000000000000000e+02 6.550000000000000000e+02 6.560000000000000000e+02 6.570000000000000000e+02 6.580000000000000000e+02 6.590000000000000000e+02 6.600000000000000000e+02 6.610000000000000000e+02 6.620000000000000000e+02 6.630000000000000000e+02 6.640000000000000000e+02 6.650000000000000000e+02 6.660000000000000000e+02 6.670000000000000000e+02 6.680000000000000000e+02 6.690000000000000000e+02 6.700000000000000000e+02 6.710000000000000000e+02 6.720000000000000000e+02 6.730000000000000000e+02 6.740000000000000000e+02 6.750000000000000000e+02 6.760000000000000000e+02 6.770000000000000000e+02 6.780000000000000000e+02 6.790000000000000000e+02 6.800000000000000000e+02 6.810000000000000000e+02 6.820000000000000000e+02 6.830000000000000000e+02 6.840000000000000000e+02 6.850000000000000000e+02 6.860000000000000000e+02 6.870000000000000000e+02 6.880000000000000000e+02 6.890000000000000000e+02 6.900000000000000000e+02 6.910000000000000000e+02 6.920000000000000000e+02 6.930000000000000000e+02 6.940000000000000000e+02 6.950000000000000000e+02 6.960000000000000000e+02 6.970000000000000000e+02 6.980000000000000000e+02 6.990000000000000000e+02 7.000000000000000000e+02 7.010000000000000000e+02 7.020000000000000000e+02 7.030000000000000000e+02 7.040000000000000000e+02 7.050000000000000000e+02 7.060000000000000000e+02 7.070000000000000000e+02 7.080000000000000000e+02 7.090000000000000000e+02 7.100000000000000000e+02 7.110000000000000000e+02 7.120000000000000000e+02 7.130000000000000000e+02 7.140000000000000000e+02 7.150000000000000000e+02 7.160000000000000000e+02 7.170000000000000000e+02 7.180000000000000000e+02 7.190000000000000000e+02 7.200000000000000000e+02 7.210000000000000000e+02 7.220000000000000000e+02 7.230000000000000000e+02 7.240000000000000000e+02 7.250000000000000000e+02 7.260000000000000000e+02 7.270000000000000000e+02 7.280000000000000000e+02 7.290000000000000000e+02 7.300000000000000000e+02 7.310000000000000000e+02 7.320000000000000000e+02 7.330000000000000000e+02 7.340000000000000000e+02 7.350000000000000000e+02 7.360000000000000000e+02 7.370000000000000000e+02 7.380000000000000000e+02 7.390000000000000000e+02 7.400000000000000000e+02 7.410000000000000000e+02 7.420000000000000000e+02 7.430000000000000000e+02 7.440000000000000000e+02 7.450000000000000000e+02 7.460000000000000000e+02 7.470000000000000000e+02 7.480000000000000000e+02 7.490000000000000000e+02 7.500000000000000000e+02 7.510000000000000000e+02 7.520000000000000000e+02 7.530000000000000000e+02 7.540000000000000000e+02 7.550000000000000000e+02 7.560000000000000000e+02 7.570000000000000000e+02 7.580000000000000000e+02 7.590000000000000000e+02 7.600000000000000000e+02 7.610000000000000000e+02 7.620000000000000000e+02 7.630000000000000000e+02 7.640000000000000000e+02 7.650000000000000000e+02 7.660000000000000000e+02 7.670000000000000000e+02 7.680000000000000000e+02 7.690000000000000000e+02 7.700000000000000000e+02 7.710000000000000000e+02 7.720000000000000000e+02 7.730000000000000000e+02 7.740000000000000000e+02 7.750000000000000000e+02 7.760000000000000000e+02 7.770000000000000000e+02 7.780000000000000000e+02 7.790000000000000000e+02 7.800000000000000000e+02 7.810000000000000000e+02 7.820000000000000000e+02 7.830000000000000000e+02 7.840000000000000000e+02 7.850000000000000000e+02 7.860000000000000000e+02 7.870000000000000000e+02 7.880000000000000000e+02 7.890000000000000000e+02 7.900000000000000000e+02 7.910000000000000000e+02 7.920000000000000000e+02 7.930000000000000000e+02 7.940000000000000000e+02 7.950000000000000000e+02 7.960000000000000000e+02 7.970000000000000000e+02 7.980000000000000000e+02 7.990000000000000000e+02 8.000000000000000000e+02 8.010000000000000000e+02 8.020000000000000000e+02 8.030000000000000000e+02 8.040000000000000000e+02 8.050000000000000000e+02 8.060000000000000000e+02 8.070000000000000000e+02 8.080000000000000000e+02 8.090000000000000000e+02 8.100000000000000000e+02 8.110000000000000000e+02 8.120000000000000000e+02 8.130000000000000000e+02 8.140000000000000000e+02 8.150000000000000000e+02 8.160000000000000000e+02 8.170000000000000000e+02 8.180000000000000000e+02 8.190000000000000000e+02 8.200000000000000000e+02 8.210000000000000000e+02 8.220000000000000000e+02 8.230000000000000000e+02 8.240000000000000000e+02 8.250000000000000000e+02 8.260000000000000000e+02 8.270000000000000000e+02 8.280000000000000000e+02 8.290000000000000000e+02 8.300000000000000000e+02 8.310000000000000000e+02 8.320000000000000000e+02 8.330000000000000000e+02 8.340000000000000000e+02 8.350000000000000000e+02 8.360000000000000000e+02 8.370000000000000000e+02 8.380000000000000000e+02 8.390000000000000000e+02 8.400000000000000000e+02 8.410000000000000000e+02 8.420000000000000000e+02 8.430000000000000000e+02 8.440000000000000000e+02 8.450000000000000000e+02 8.460000000000000000e+02 8.470000000000000000e+02 8.480000000000000000e+02 8.490000000000000000e+02 8.500000000000000000e+02 8.510000000000000000e+02 8.520000000000000000e+02 8.530000000000000000e+02 8.540000000000000000e+02 8.550000000000000000e+02 8.560000000000000000e+02 8.570000000000000000e+02 8.580000000000000000e+02 8.590000000000000000e+02 8.600000000000000000e+02 8.610000000000000000e+02 8.620000000000000000e+02 8.630000000000000000e+02 8.640000000000000000e+02 8.650000000000000000e+02 8.660000000000000000e+02 8.670000000000000000e+02 8.680000000000000000e+02 8.690000000000000000e+02 8.700000000000000000e+02 8.710000000000000000e+02 8.720000000000000000e+02 8.730000000000000000e+02 8.740000000000000000e+02 8.750000000000000000e+02 8.760000000000000000e+02 8.770000000000000000e+02 8.780000000000000000e+02 8.790000000000000000e+02 8.800000000000000000e+02 8.810000000000000000e+02 8.820000000000000000e+02 8.830000000000000000e+02 8.840000000000000000e+02 8.850000000000000000e+02 8.860000000000000000e+02 8.870000000000000000e+02 8.880000000000000000e+02 8.890000000000000000e+02 8.900000000000000000e+02 8.910000000000000000e+02 8.920000000000000000e+02 8.930000000000000000e+02 8.940000000000000000e+02 8.950000000000000000e+02 8.960000000000000000e+02 8.970000000000000000e+02 8.980000000000000000e+02 8.990000000000000000e+02 9.000000000000000000e+02 9.010000000000000000e+02 9.020000000000000000e+02 9.030000000000000000e+02 9.040000000000000000e+02 9.050000000000000000e+02 9.060000000000000000e+02 9.070000000000000000e+02 9.080000000000000000e+02 9.090000000000000000e+02 9.100000000000000000e+02 9.110000000000000000e+02 9.120000000000000000e+02 9.130000000000000000e+02 9.140000000000000000e+02 9.150000000000000000e+02 9.160000000000000000e+02 9.170000000000000000e+02 9.180000000000000000e+02 9.190000000000000000e+02 9.200000000000000000e+02 9.210000000000000000e+02 9.220000000000000000e+02 9.230000000000000000e+02 9.240000000000000000e+02 9.250000000000000000e+02 9.260000000000000000e+02 9.270000000000000000e+02 9.280000000000000000e+02 9.290000000000000000e+02 9.300000000000000000e+02 9.310000000000000000e+02 9.320000000000000000e+02 9.330000000000000000e+02 9.340000000000000000e+02 9.350000000000000000e+02 9.360000000000000000e+02 9.370000000000000000e+02 9.380000000000000000e+02 9.390000000000000000e+02 9.400000000000000000e+02 9.410000000000000000e+02 9.420000000000000000e+02 9.430000000000000000e+02 9.440000000000000000e+02 9.450000000000000000e+02 9.460000000000000000e+02 9.470000000000000000e+02 9.480000000000000000e+02 9.490000000000000000e+02 9.500000000000000000e+02 9.510000000000000000e+02 9.520000000000000000e+02 9.530000000000000000e+02 9.540000000000000000e+02 9.550000000000000000e+02 9.560000000000000000e+02 9.570000000000000000e+02 9.580000000000000000e+02 9.590000000000000000e+02 9.600000000000000000e+02 9.610000000000000000e+02 9.620000000000000000e+02 9.630000000000000000e+02 9.640000000000000000e+02 9.650000000000000000e+02 9.660000000000000000e+02 9.670000000000000000e+02 9.680000000000000000e+02 9.690000000000000000e+02 9.700000000000000000e+02 9.710000000000000000e+02 9.720000000000000000e+02 9.730000000000000000e+02 9.740000000000000000e+02 9.750000000000000000e+02 9.760000000000000000e+02 9.770000000000000000e+02 9.780000000000000000e+02 9.790000000000000000e+02 9.800000000000000000e+02 9.810000000000000000e+02 9.820000000000000000e+02 9.830000000000000000e+02 9.840000000000000000e+02 9.850000000000000000e+02 9.860000000000000000e+02 9.870000000000000000e+02 9.880000000000000000e+02 9.890000000000000000e+02 9.900000000000000000e+02 9.910000000000000000e+02 9.920000000000000000e+02 9.930000000000000000e+02 9.940000000000000000e+02 9.950000000000000000e+02 9.960000000000000000e+02 9.970000000000000000e+02 9.980000000000000000e+02 9.990000000000000000e+02 1.000000000000000000e+03
1.000000000000000021e-02 1.000000000000000021e-02 1.000000000000000021e-02 1.000000000000000021e-02 1.000000000000000021e-02 1.000000000000000021e-02 1.000000000000000021e-02 1.000000000000000021e-02 1.000000000000000021e-02 1.000000000000000021e-02 1.000000000000000021e-02 1.000000000000000021e-02 1.000000000000000021e-02 1.000000000000000021e-02 1.000000000000000021e-02 1.000000000000000021e-02 1.000000000000000021e-02 1.000000000000000021e-02 1.000000000000000021e-02 1.000000000000000021e-02 1.000000000000000021e-02 1.000000000000000021e-02 1.000000000000000021e-02 1.000000000000000021e-02 1.000000000000000021e-02 1.000000000000000021e-02 1.000000000000000021e-02 1.000000000000000021e-02 1.000000000000000021e-02 1.000000000000000021e-02 1.000000000000000021e-02 1.000000000000000021e-02 1.000000000000000021e-02 1.000000000000000021e-02 1.000000000000000021e-02 1.000000000000000021e-02 1.000000000000000021e-02 1.000000000000000021e-02 1.000000000000000021e-02 1.000000000000000021e-02 1.000000000000000021e-02 1.000000000000000021e-02 1.000000000000000021e-02 1.000000000000000021e-02 1.000000000000000021e-02 1.000000000000000021e-02 1.000000000000000021e-02 1.000000000000000021e-02 1.000000000000000021e-02 1.000000000000000021e-02 1.000000000000000021e-02 1.000000000000000021e-02 1.000000000000000021e-02 1.000000000000000021e-02 1.000000000000000021e-02 1.000000000000000021e-02 1.000000000000000021e-02 1.000000000000000021e-02 1.000000000000000021e-02 1.000000000000000021e-02 1.000000000000000021e-02 1.000000000000000021e-02 1.000000000000000021e-02 1.000000000000000021e-02 1.000000000000000021e-02 1.000000000000000021e-02 1.000000000000000021e-02 1.000000000000000021e-02 1.000000000000000021e-02 1.000000000000000021e-02 1.000000000000000021e-02 1.000000000000000021e-02 1.000000000000000021e-02 1.000000000000000021e-02 1.000000000000000021e-02 1.000000000000000021e-02 1.000000000000000021e-02 1.000000000000000021e-02 1.000000000000000021e-02 1.000000000000000021e-02 1.000000000000000021e-02 1.000000000000000021e-02 1.000000000000000021e-02 1.000000000000000021e-02 1.000000000000000021e-02 1.000000000000000021e-02 1.000000000000000021e-02 1.000000000000000021e-02 1.000000000000000021e-02 1.000000000000000021e-02 1.000000000000000021e-02 1.000000000000000021e-02 1.000000000000000021e-02 1.000000000000000021e-02 1.000000000000000021e-02 1.000000000000000021e-02 1.000000000000000021e-02 1.000000000000000021e-02 1.000000000000000021e-02 1.000000000000000021e-02 1.000000000000000021e-02 1.000000000000000021e-02 1.000000000000000021e-02 1.000000000000000021e-02 1.000000000000000021e-02 1.000000000000000021e-02 1.000000000000000021e-02 1.000000000000000021e-02 1.000000000000000021e-02 1.000000000000000021e-02 1.000000000000000021e-02 1.000000000000000021e-02 1.000000000000000021e-02 1.000000000000000021e-02 1.000000000000000021e-02 1.000000000000000021e-02 1.000000000000000021e-02 1.000000000000000021e-02 1.000000000000000021e-02 1.000000000000000021e-02 1.000000000000000021e-02 1.000000000000000021e-02 1.000000000000000021e-02 1.000000000000000021e-02 1.000000000000000021e-02 1.000000000000000021e-02 1.000000000000000021e-02 1.000000000000000021e-02 1.000000000000000021e-02 1.000000000000000021e-02 1.000000000000000021e-02 1.000000000000000021e-02 1.000000000000000021e-02 1.000000000000000021e-02 1.000000000000000021e-02 1.000000000000000021e-02 1.000000000000000021e-02 1.000000000000000021e-02 1.000000000000000021e-02 1.000000000000000021e-02 1.000000000000000021e-02 1.000000000000000021e-02 1.000000000000000021e-02 1.000000000000000021e-02 1.000000000000000021e-02 1.000000000000000021e-02 1.000000000000000021e-02 1.000000000000000021e-02 1.000000000000000021e-02 1.000000000000000021e-02 1.000000000000000021e-02 1.000000000000000021e-02 1.000000000000000021e-02 1.000000000000000021e-02 1.000000000000000021e-02 1.000000000000000021e-02 1.000000000000000021e-02 1.000000000000000021e-02 1.000000000000000021e-02 1.000000000000000021e-02 1.000000000000000021e-02 1.000000000000000021e-02 1.000000000000000021e-02 1.000000000000000021e-02 1.000000000000000021e-02 1.000000000000000021e-02 1.000000000000000021e-02 1.000000000000000021e-02 1.000000000000000021e-02 1.000000000000000021e-02 1.000000000000000021e-02 1.000000000000000021e-02 1.000000000000000021e-02 1.000000000000000021e-02 1.000000000000000021e-02 1.000000000000000021e-02 1.000000000000000021e-02 1.000000000000000021e-02 1.000000000000000021e-02 1.000000000000000021e-02 1.000000000000000021e-02 1.000000000000000021e-02 1.000000000000000021e-02 1.000000000000000021e-02 1.000000000000000021e-02 1.000000000000000021e-02 1.000000000000000021e-02 1.000000000000000021e-02 1.000000000000000021e-02 1.000000000000000021e-02 1.000000000000000021e-02 1.000000000000000021e-02 1.000000000000000021e-02 1.000000000000000021e-02 1.000000000000000021e-02 1.000000000000000021e-02 1.000000000000000021e-02 1.000000000000000021e-02 1.000000000000000021e-02 1.000000000000000021e-02 1.000000000000000021e-02 1.000000000000000021e-02 1.000000000000000021e-02 1.000000000000000021e-02 1.000000000000000021e-02 1.000000000000000021e-02 1.000000000000000021e-02 1.000000000000000021e-02 1.000000000000000021e-02 1.000000000000000021e-02 1.000000000000000021e-02 1.000000000000000021e-02 1.000000000000000021e-02 1.000000000000000021e-02 1.000000000000000021e-02 1.000000000000000021e-02 1.000000000000000021e-02 1.000000000000000021e-02 1.000000000000000021e-02 1.000000000000000021e-02 1.000000000000000021e-02 1.000000000000000021e-02 1.000000000000000021e-02 1.000000000000000021e-02 1.000000000000000021e-02 1.000000000000000021e-02 1.000000000000000021e-02 1.000000000000000021e-02 1.000000000000000021e-02 1.000000000000000021e-02 1.000000000000000021e-02 1.000000000000000021e-02 1.000000000000000021e-02 1.000000000000000021e-02 1.000000000000000021e-02 1.000000000000000021e-02 1.000000000000000021e-02 1.000000000000000021e-02 1.000000000000000021e-02 1.000000000000000021e-02 1.000000000000000021e-02 1.000000000000000021e-02 1.000000000000000021e-02 1.000000000000000021e-02 1.000000000000000021e-02 1.000000000000000021e-02 1.000000000000000021e-02 1.000000000000000021e-02 1.000000000000000021e-02 1.000000000000000021e-02 1.000000000000000021e-02 1.000000000000000021e-02 1.000000000000000021e-02 1.000000000000000021e-02 1.000000000000000021e-02 1.000000000000000021e-02 1.000000000000000021e-02 1.000000000000000021e-02 1.000000000000000021e-02 1.000000000000000021e-02 1.000000000000000021e-02 1.000000000000000021e-02 1.000000000000000021e-02 1.000000000000000021e-02 1.000000000000000021e-02 1.000000000000000021e-02 1.000000000000000021e-02 1.000000000000000021e-02 1.000000000000000021e-02 1.000000000000000021e-02 1.000000000000000021e-02 1.000000000000000021e-02 1.000000000000000021e-02 1.000000000000000021e-02 1.000000000000000021e-02 1.000000000000000021e-02 1.000000000000000021e-02 1.000000000000000021e-02 1.000000000000000021e-02 1.000000000000000021e-02 1.000000000000000021e-02 1.000000000000000021e-02 1.000000000000000021e-02 1.000000000000000021e-02 1.000000000000000021e-02 1.000000000000000021e-02 1.000000000000000021e-02 1.000000000000000021e-02 1.000000000000000021e-02 1.000000000000000021e-02 1.000000000000000021e-02 1.000000000000000021e-02 1.000000000000000021e-02 1.000000000000000021e-02 1.000000000000000021e-02 1.000000000000000021e-02 1.000000000000000021e-02 1.000000000000000021e-02 1.000000000000000021e-02 1.000000000000000021e-02 1.000000000000000021e-02 1.000000000000000021e-02 1.000000000000000021e-02 1.000000000000000021e-02 1.000000000000000021e-02 1.000000000000000021e-02 1.000000000000000021e-02 1.000000000000000021e-02 1.000000000000000021e-02 1.000000000000000021e-02 1.000000000000000021e-02 1.000000000000000021e-02 1.000000000000000021e-02 1.000000000000000021e-02 1.000000000000000021e-02 1.000000000000000021e-02 1.000000000000000021e-02 1.000000000000000021e-02 1.000000000000000021e-02 1.000000000000000021e-02 1.000000000000000021e-02 1.000000000000000021e-02 1.000000000000000021e-02 1.000000000000000021e-02 1.000000000000000021e-02 1.000000000000000021e-02 1.000000000000000021e-02 1.000000000000000021e-02 1.000000000000000021e-02 1.000000000000000021e-02 1.000000000000000021e-02 1.000000000000000021e-02 1.000000000000000021e-02 1.000000000000000021e-02 1.000000000000000021e-02 1.000000000000000021e-02 1.000000000000000021e-02 1.000000000000000021e-02 1.000000000000000021e-02 1.000000000000000021e-02 1.000000000000000021e-02 1.000000000000000021e-02 1.000000000000000021e-02 1.000000000000000021e-02 1.000000000000000021e-02 1.000000000000000021e-02 1.000000000000000021e-02 1.000000000000000021e-02 1.000000000000000021e-02 1.000000000000000021e-02 1.000000000000000021e-02 1.000000000000000021e-02 1.000000000000000021e-02 1.000000000000000021e-02 1.000000000000000021e-02 1.000000000000000021e-02 1.000000000000000021e-02 1.000000000000000021e-02 1.000000000000000021e-02 1.000000000000000021e-02 1.000000000000000021e-02 1.000000000000000021e-02 1.000000000000000021e-02 1.000000000000000021e-02 1.000000000000000021e-02 1.000000000000000021e-02 1.000000000000000021e-02 1.000000000000000021e-02 1.000000000000000021e-02 1.000000000000000021e-02 1.000000000000000021e-02 1.000000000000000021e-02 1.000000000000000021e-02 1.000000000000000021e-02 1.000000000000000021e-02 1.000000000000000021e-02 1.000000000000000021e-02 1.000000000000000021e-02 1.000000000000000021e-02 1.000000000000000021e-02 1.000000000000000021e-02 1.000000000000000021e-02 1.000000000000000021e-02 1.000000000000000021e-02 1.000000000000000021e-02 1.000000000000000021e-02 1.000000000000000021e-02 1.000000000000000021e-02 1.000000000000000021e-02 1.000000000000000021e-02 1.000000000000000021e-02 1.000000000000000021e-02 1.000000000000000021e-02 1.000000000000000021e-02 1.000000000000000021e-02 1.000000000000000021e-02 1.000000000000000021e-02 1.000000000000000021e-02 1.000000000000000021e-02 1.000000000000000021e-02 1.000000000000000021e-02 1.000000000000000021e-02 1.000000000000000021e-02 1.000000000000000021e-02 1.000000000000000021e-02 1.000000000000000021e-02 1.000000000000000021e-02 1.000000000000000021e-02 1.000000000000000021e-02 1.000000000000000021e-02 1.000000000000000021e-02 1.000000000000000021e-02 1.000000000000000021e-02 1.000000000000000021e-02 1.000000000000000021e-02 1.000000000000000021e-02 1.000000000000000021e-02 1.000000000000000021e-02 1.000000000000000021e-02 1.000000000000000021e-02 1.000000000000000021e-02 1.000000000000000021e-02 1.000000000000000021e-02 1.000000000000000021e-02 1.000000000000000021e-02 1.000000000000000021e-02 1.000000000000000021e-02 1.000000000000000021e-02 1.000000000000000021e-02 1.000000000000000021e-02 1.000000000000000021e-02 1.000000000000000021e-02 1.000000000000000021e-02 1.000000000000000021e-02 1.000000000000000021e-02 1.000000000000000021e-02 1.000000000000000021e-02 1.000000000000000021e-02 1.000000000000000021e-02 1.000000000000000021e-02 1.000000000000000021e-02 1.000000000000000021e-02 1.000000000000000021e-02 1.000000000000000021e-02 1.000000000000000021e-02 1.000000000000000021e-02 1.000000000000000021e-02 1.000000000000000021e-02 1.000000000000000021e-02 1.000000000000000021e-02 1.000000000000000021e-02 1.000000000000000021e-02 1.000000000000000021e-02 1.000000000000000021e-02 1.000000000000000021e-02 1.000000000000000021e-02 1.000000000000000021e-02 1.000000000000000021e-02 1.000000000000000021e-02 1.000000000000000021e-02 1.000000000000000021e-02 1.000000000000000021e-02 1.000000000000000021e-02 1.000000000000000021e-02 1.000000000000000021e-02 1.000000000000000021e-02 1.000000000000000021e-02 1.000000000000000021e-02 1.000000000000000021e-02 1.000000000000000021e-02 1.000000000000000021e-02 1.000000000000000021e-02 1.000000000000000021e-02 1.000000000000000021e-02 1.000000000000000021e-02 1.000000000000000021e-02 1.000000000000000021e-02 1.000000000000000021e-02 1.000000000000000021e-02 1.000000000000000021e-02 1.000000000000000021e-02 1.000000000000000021e-02 1.000000000000000021e-02 1.000000000000000021e-02 1.000000000000000021e-02 1.000000000000000021e-02 1.000000000000000021e-02 1.000000000000000021e-02 1.000000000000000021e-02 1.000000000000000021e-02 1.000000000000000021e-02 1.000000000000000021e-02 1.000000000000000021e-02 1.000000000000000021e-02 1.000000000000000021e-02 1.000000000000000021e-02 1.000000000000000021e-02 1.000000000000000021e-02 1.000000000000000021e-02 1.000000000000000021e-02 1.000000000000000021e-02 1.000000000000000021e-02 1.000000000000000021e-02 1.000000000000000021e-02 1.000000000000000021e-02 1.000000000000000021e-02 1.000000000000000021e-02 1.000000000000000021e-02 1.000000000000000021e-02 1.000000000000000021e-02 1.000000000000000021e-02 1.000000000000000021e-02 1.000000000000000021e-02 1.000000000000000021e-02 1.000000000000000021e-02 1.000000000000000021e-02 1.000000000000000021e-02 1.000000000000000021e-02 1.000000000000000021e-02 1.000000000000000021e-02 1.000000000000000021e-02 1.000000000000000021e-02 1.000000000000000021e-02 1.000000000000000021e-02 1.000000000000000021e-02 1.000000000000000021e-02 1.000000000000000021e-02 1.000000000000000021e-02 1.000000000000000021e-02 1.000000000000000021e-02 1.000000000000000021e-02 1.000000000000000021e-02 1.000000000000000021e-02 1.000000000000000021e-02 1.000000000000000021e-02 1.000000000000000021e-02 1.000000000000000021e-02 1.000000000000000021e-02 1.000000000000000021e-02 1.000000000000000021e-02 1.000000000000000021e-02 1.000000000000000021e-02 1.000000000000000021e-02 1.000000000000000021e-02 1.000000000000000021e-02 1.000000000000000021e-02 1.000000000000000021e-02 1.000000000000000021e-02 1.000000000000000021e-02 1.000000000000000021e-02 1.000000000000000021e-02 1.000000000000000021e-02 1.000000000000000021e-02 1.000000000000000021e-02 1.000000000000000021e-02 1.000000000000000021e-02 1.000000000000000021e-02 1.000000000000000021e-02 1.000000000000000021e-02 1.000000000000000021e-02 1.000000000000000021e-02 1.000000000000000021e-02 1.000000000000000021e-02 1.000000000000000021e-02 1.000000000000000021e-02 1.000000000000000021e-02 1.000000000000000021e-02 1.000000000000000021e-02 1.000000000000000021e-02 1.000000000000000021e-02 1.000000000000000021e-02 1.000000000000000021e-02 1.000000000000000021e-02 1.000000000000000021e-02 1.000000000000000021e-02 1.000000000000000021e-02 1.000000000000000021e-02 1.000000000000000021e-02 1.000000000000000021e-02 1.000000000000000021e-02 1.000000000000000021e-02 1.000000000000000021e-02 1.000000000000000021e-02 1.000000000000000021e-02 1.000000000000000021e-02 1.000000000000000021e-02 1.000000000000000021e-02 1.000000000000000021e-02 1.000000000000000021e-02 1.000000000000000021e-02 1.000000000000000021e-02 1.000000000000000021e-02 1.000000000000000021e-02 1.000000000000000021e-02 1.000000000000000021e-02 1.000000000000000021e-02 1.000000000000000021e-02 1.000000000000000021e-02 1.000000000000000021e-02 1.000000000000000021e-02 1.000000000000000021e-02 1.000000000000000021e-02 1.000000000000000021e-02 1.000000000000000021e-02 1.000000000000000021e-02 1.000000000000000021e-02 1.000000000000000021e-02 1.000000000000000021e-02 1.000000000000000021e-02 1.000000000000000021e-02 1.000000000000000021e-02 1.000000000000000021e-02 1.000000000000000021e-02 1.000000000000000021e-02 1.000000000000000021e-02 1.000000000000000021e-02 1.000000000000000021e-02 1.000000000000000021e-02 1.000000000000000021e-02 1.000000000000000021e-02 1.000000000000000021e-02 1.000000000000000021e-02 1.000000000000000021e-02 1.000000000000000021e-02 1.000000000000000021e-02 1.000000000000000021e-02 1.000000000000000021e-02 1.000000000000000021e-02 1.000000000000000021e-02 1.000000000000000021e-02 1.000000000000000021e-02 1.000000000000000021e-02 1.000000000000000021e-02 1.000000000000000021e-02 1.000000000000000021e-02 1.000000000000000021e-02 1.000000000000000021e-02 1.000000000000000021e-02 1.000000000000000021e-02 1.000000000000000021e-02 1.000000000000000021e-02 1.000000000000000021e-02 1.000000000000000021e-02 1.000000000000000021e-02 1.000000000000000021e-02 1.000000000000000021e-02 1.000000000000000021e-02 1.000000000000000021e-02 1.000000000000000021e-02 1.000000000000000021e-02 1.000000000000000021e-02 1.000000000000000021e-02 1.000000000000000021e-02 1.000000000000000021e-02 1.000000000000000021e-02 1.000000000000000021e-02 1.000000000000000021e-02 1.000000000000000021e-02 1.000000000000000021e-02 1.000000000000000021e-02 1.000000000000000021e-02 1.000000000000000021e-02 1.000000000000000021e-02 1.000000000000000021e-02 1.000000000000000021e-02 1.000000000000000021e-02 1.000000000000000021e-02 1.000000000000000021e-02 1.000000000000000021e-02 1.000000000000000021e-02 1.000000000000000021e-02 1.000000000000000021e-02 1.000000000000000021e-02 1.000000000000000021e-02 1.000000000000000021e-02 1.000000000000000021e-02 1.000000000000000021e-02 1.000000000000000021e-02 1.000000000000000021e-02 1.000000000000000021e-02 1.000000000000000021e-02 1.000000000000000021e-02 1.000000000000000021e-02 1.000000000000000021e-02 1.000000000000000021e-02 1.000000000000000021e-02 1.000000000000000021e-02 1.000000000000000021e-02 1.000000000000000021e-02 1.000000000000000021e-02 1.000000000000000021e-02 1.000000000000000021e-02 1.000000000000000021e-02 1.000000000000000021e-02 1.000000000000000021e-02 1.000000000000000021e-02 1.000000000000000021e-02 1.000000000000000021e-02 1.000000000000000021e-02 1.000000000000000021e-02 1.000000000000000021e-02 1.000000000000000021e-02 1.000000000000000021e-02 1.000000000000000021e-02 1.000000000000000021e-02 1.000000000000000021e-02 1.000000000000000021e-02 1.000000000000000021e-02 1.000000000000000021e-02 1.000000000000000021e-02 1.000000000000000021e-02 1.000000000000000021e-02 1.000000000000000021e-02 1.000000000000000021e-02 1.000000000000000021e-02 1.000000000000000021e-02 1.000000000000000021e-02 1.000000000000000021e-02 1.000000000000000021e-02 1.000000000000000021e-02 1.000000000000000021e-02 1.000000000000000021e-02 1.000000000000000021e-02 1.000000000000000021e-02 1.000000000000000021e-02 1.000000000000000021e-02 1.000000000000000021e-02 1.000000000000000021e-02 1.000000000000000021e-02 1.000000000000000021e-02 1.000000000000000021e-02 1.000000000000000021e-02 1.000000000000000021e-02 1.000000000000000021e-02 1.000000000000000021e-02 1.000000000000000021e-02 1.000000000000000021e-02 1.000000000000000021e-02 1.000000000000000021e-02 1.000000000000000021e-02 1.000000000000000021e-02 1.000000000000000021e-02 1.000000000000000021e-02 1.000000000000000021e-02 1.000000000000000021e-02 1.000000000000000021e-02 1.000000000000000021e-02 1.000000000000000021e-02 1.000000000000000021e-02 1.000000000000000021e-02 1.000000000000000021e-02 1.000000000000000021e-02 1.000000000000000021e-02 1.000000000000000021e-02 1.000000000000000021e-02 1.000000000000000021e-02 1.000000000000000021e-02 1.000000000000000021e-02 1.000000000000000021e-02 1.000000000000000021e-02 1.000000000000000021e-02 1.000000000000000021e-02 1.000000000000000021e-02 1.000000000000000021e-02 1.000000000000000021e-02 1.000000000000000021e-02 1.000000000000000021e-02 1.000000000000000021e-02 1.000000000000000021e-02 1.000000000000000021e-02 1.000000000000000021e-02 1.000000000000000021e-02 1.000000000000000021e-02 1.000000000000000021e-02 1.000000000000000021e-02 1.000000000000000021e-02 1.000000000000000021e-02 1.000000000000000021e-02 1.000000000000000021e-02 1.000000000000000021e-02 1.000000000000000021e-02 1.000000000000000021e-02 1.000000000000000021e-02 1.000000000000000021e-02 1.000000000000000021e-02 1.000000000000000021e-02 1.000000000000000021e-02 1.000000000000000021e-02 1.000000000000000021e-02 1.000000000000000021e-02 1.000000000000000021e-02 1.000000000000000021e-02 1.000000000000000021e-02 1.000000000000000021e-02 1.000000000000000021e-02 1.000000000000000021e-02 1.000000000000000021e-02 1.000000000000000021e-02 1.000000000000000021e-02 1.000000000000000021e-02 1.000000000000000021e-02 1.000000000000000021e-02 1.000000000000000021e-02 1.000000000000000021e-02 1.000000000000000021e-02 1.000000000000000021e-02 1.000000000000000021e-02 1.000000000000000021e-02 1.000000000000000021e-02 1.000000000000000021e-02 1.000000000000000021e-02 1.000000000000000021e-02 1.000000000000000021e-02 1.000000000000000021e-02 1.000000000000000021e-02 1.000000000000000021e-02 1.000000000000000021e-02 1.000000000000000021e-02 1.000000000000000021e-02 1.000000000000000021e-02 1.000000000000000021e-02 1.000000000000000021e-02 1.000000000000000021e-02 1.000000000000000021e-02 1.000000000000000021e-02 1.000000000000000021e-02 1.000000000000000021e-02 1.000000000000000021e-02 1.000000000000000021e-02 1.000000000000000021e-02 1.000000000000000021e-02 1.000000000000000021e-02 1.000000000000000021e-02 1.000000000000000021e-02 1.000000000000000021e-02 1.000000000000000021e-02 1.000000000000000021e-02 1.000000000000000021e-02 1.000000000000000021e-02 1.000000000000000021e-02 1.000000000000000021e-02 1.000000000000000021e-02 1.000000000000000021e-02 1.000000000000000021e-02 1.000000000000000021e-02 1.000000000000000021e-02 1.000000000000000021e-02 1.000000000000000021e-02 1.000000000000000021e-02 1.000000000000000021e-02 1.000000000000000021e-02 1.000000000000000021e-02 1.000000000000000021e-02 1.000000000000000021e-02 1.000000000000000021e-02 1.000000000000000021e-02 1.000000000000000021e-02 1.000000000000000021e-02 1.000000000000000021e-02 1.000000000000000021e-02 1.000000000000000021e-02 1.000000000000000021e-02 1.000000000000000021e-02 1.000000000000000021e-02 1.000000000000000021e-02 1.000000000000000021e-02 1.000000000000000021e-02 1.000000000000000021e-02 1.000000000000000021e-02 1.000000000000000021e-02 1.000000000000000021e-02 1.000000000000000021e-02 1.000000000000000021e-02 1.000000000000000021e-02 1.000000000000000021e-02 1.000000000000000021e-02 1.000000000000000021e-02 1.000000000000000021e-02 1.000000000000000021e-02 1.000000000000000021e-02 1.000000000000000021e-02 1.000000000000000021e-02 1.000000000000000021e-02 1.000000000000000021e-02 1.000000000000000021e-02 1.000000000000000021e-02 1.000000000000000021e-02 1.000000000000000021e-02 1.000000000000000021e-02 1.000000000000000021e-02 1.000000000000000021e-02 1.000000000000000021e-02 1.000000000000000021e-02 1.000000000000000021e-02 1.000000000000000021e-02 1.000000000000000021e-02 1.000000000000000021e-02 1.000000000000000021e-02 1.000000000000000021e-02 1.000000000000000021e-02 1.000000000000000021e-02 1.000000000000000021e-02 1.000000000000000021e-02 1.000000000000000021e-02 1.000000000000000021e-02 1.000000000000000021e-02 1.000000000000000021e-02 1.000000000000000021e-02 1.000000000000000021e-02 1.000000000000000021e-02 1.000000000000000021e-02 1.000000000000000021e-02 1.000000000000000021e-02 1.000000000000000021e-02 1.000000000000000021e-02 1.000000000000000021e-02 1.000000000000000021e-02 1.000000000000000021e-02 1.000000000000000021e-02 1.000000000000000021e-02 1.000000000000000021e-02 1.000000000000000021e-02 1.000000000000000021e-02 1.000000000000000021e-02 1.000000000000000021e-02 1.000000000000000021e-02 1.000000000000000021e-02 1.000000000000000021e-02 1.000000000000000021e-02 1.000000000000000021e-02 1.000000000000000021e-02 1.000000000000000021e-02 1.000000000000000021e-02 1.000000000000000021e-02 1.000000000000000021e-02 1.000000000000000021e-02 1.000000000000000021e-02 1.000000000000000021e-02 1.000000000000000021e-02 1.000000000000000021e-02 1.000000000000000021e-02 1.000000000000000021e-02 1.000000000000000021e-02 1.000000000000000021e-02 1.000000000000000021e-02 1.000000000000000021e-02 1.000000000000000021e-02 1.000000000000000021e-02 1.000000000000000021e-02 1.000000000000000021e-02 1.000000000000000021e-02 1.000000000000000021e-02 1.000000000000000021e-02 1.000000000000000021e-02 1.000000000000000021e-02 1.000000000000000021e-02 1.000000000000000021e-02 1.000000000000000021e-02 1.000000000000000021e-02 1.000000000000000021e-02 1.000000000000000021e-02 1.000000000000000021e-02 1.000000000000000021e-02 1.000000000000000021e-02 1.000000000000000021e-02 1.000000000000000021e-02 1.000000000000000021e-02 1.000000000000000021e-02 1.000000000000000021e-02 1.000000000000000021e-02 1.000000000000000021e-02 1.000000000000000021e-02 1.000000000000000021e-02 1.000000000000000021e-02 1.000000000000000021e-02 1.000000000000000021e-02 1.000000000000000021e-02 1.000000000000000021e-02 1.000000000000000021e-02 1.000000000000000021e-02 1.000000000000000021e-02 1.000000000000000021e-02 1.000000000000000021e-02 1.000000000000000021e-02 1.000000000000000021e-02 1.000000000000000021e-02 1.000000000000000021e-02 1.000000000000000021e-02 1.000000000000000021e-02 1.000000000000000021e-02 1.000000000000000021e-02 1.000000000000000021e-02 1.000000000000000021e-02 1.000000000000000021e-02 1.000000000000000021e-02 1.000000000000000021e-02 1.000000000000000021e-02 1.000000000000000021e-02 1.000000000000000021e-02 1.000000000000000021e-02
-1.068010511461396987e+02 1.624904839118605366e+02 3.761814227602506833e+01 -8.446387027660771096e+00 -8.414168337360271721e+01 -1.281906810764543891e+01 -1.991521169991214606e+02 6.843697575961796842e-01 -8.109679660408110635e+01 -1.358678090231119739e+01 -1.901518603684068509e+01 6.282320446944114067e+00 -1.707808342875267282e+00 1.606843273001733223e+02 8.104963077883127198e+01 -3.719018897358402143e+01 -5.062420257852846817e+01 7.586532975807342893e+01 3.144643260982015676e+01 -2.431563630203861237e+01 -7.549243850921934040e+01 -7.065605403006971130e+01 -1.320318355728193715e+01 2.770982594703607305e+01 -1.866636181442602549e+02 -9.452948721473768501e+01 -2.499377317036366719e+01 1.930799631881103267e+02 6.777046550353027499e+01 7.352805935759158729e+01 7.691224127947127442e+01 1.128622613028471555e+00 -7.600199784000605518e+01 1.987615560412914988e+02 -2.345782363181194228e+02 5.641635297464225829e+01 -1.150033845093724665e+02 -3.323173365809670798e+01 3.869891208275914263e+00 1.213695586193651650e+02 -1.176919995974571265e+02 -1.303715570715149674e+01 7.405824541652719972e+01 1.662970110275035722e+02 6.830887182773018651e+01 -6.547209488923267884e+01 3.941632738515342282e+01 -2.720773269852325882e+01 -6.327649122891647693e+01 1.499748104434973186e+02 -6.749402214010316925e+01 -4.988450669202729415e+01 -1.335318330939724660e+02 5.598048936385391805e+00 -4.837962527842070415e+01 3.705436096778535671e+01 -8.499579370385728794e+01 -4.793442316140014015e+01 -9.713886571387561730e+01 -1.489188422993244671e+02 1.858647256295040862e+01 4.351065092072884255e+01 -1.179550940023488010e+02 1.230559801897911854e+01 -7.591243833915847006e+01 4.706073477278701489e+01 1.596896576101877656e+02 -1.382201338016186014e+02 -4.146520038221020599e+01 6.927224685298264184e+00 2.820415870347379173e+00 4.061522515544088918e+01 8.045277022224129837e+01 7.400546540377899163e-01 -8.477547401599371923e+00 -6.705928097242525610e+01 7.495231502593588857e+01 -3.132782223228486984e+01 2.521001824938498004e+01 9.966331852665997815e+01 8.447999413413569414e+01 -4.098267086322657349e+01 5.531455305045719939e+01 1.412344201169597682e+02 1.113434209845764968e+02 -3.816790701138458086e+00 1.668615149849681245e+02 -1.068534702436512305e+02 3.980774198784028162e+00 -4.017902147424541681e+01 1.981259833408584257e+02 -2.033293074817764179e+01 2.785923604241498541e+00 -7.356122659196037716e+01 -6.856325237269506268e+00 -6.112497728961774612e+01 6.494878493117460039e+01 -9.059703642492951303e+01 6.577806435129022589e+01 -4.577558615438703526e+01 -4.765053244211035377e+01 -8.782496719958216147e+01 5.082086444205678788e+01 -5.237143374388666928e+01 -1.430582377216092027e+02 -7.610795827389414114e+01 -1.002081860740274522e+02 -1.506253173673003687e+02 1.302118955029240510e+02 -2.627593544952168969e+01 3.070594492511239437e+01 8.590204752161783119e+01 -9.965717259369102976e+01 5.454656269321371553e+01 -4.149495711764564732e+01 -6.652278060068620391e+01 -8.637247423446787309e+01 1.946482433015355582e+02 -5.435296320533852565e+01 -4.745468363447310622e+01 -4.516892251036592398e+01 7.701604982475383565e+01 -3.969025701080227719e+01 1.321562353186698431e+02 -4.785580529004616324e+01 5.283915936869659902e+01 4.353038115597399837e+00 -7.765617590228299605e+01 6.587829276067657247e+01 2.657714580379816312e+02 -8.822569916361278786e+01 4.547086582691024148e+01 -7.309935768022786817e+01 4.335476960536932722e+01 1.257243130709316006e+02 -4.930057325364924736e+01 1.401981268703622696e+01 -2.583296973128880936e+01 -9.771903091765855720e+01 -1.665570579745964253e+01 4.142143143353290036e+00 -7.479206188650658227e+00 -1.431209546940396393e+01 1.132686419312207562e+02 1.250038599098047030e+02 1.787646881778032650e+02 -2.917993655172896297e+02 3.661779379095526821e+01 -1.513392587639581244e+01 -5.976422746478451131e+01 1.729322053358673941e+02 7.298785187232707017e+01 -2.526536603336353437e+00 -1.111677117415546263e+02 -1.042029903183348871e+01 9.599900319018991013e+01 -1.288510906098111093e+02 -1.617101238840364488e+02 1.030016333105234061e+01 4.067896659168523144e+01 -5.855973106150413088e+01 4.033280662200154154e+01 -1.027222322428705468e+02 -1.451531571440629875e+02 2.022160031167071992e+01 4.660937911806001921e+01 4.638402141197059514e+00 -8.004879125428686848e+01 -8.980999601260852216e+01 -8.087062832090038000e+01 -8.404378605712625472e+01 1.217138496576577111e+01 5.454214831580591749e+01 1.118853311895229012e+02 7.625932096762889500e+01 8.598712474531838268e+01 1.032711193210656688e+02 -7.183756173269247824e+01 -7.926609007271227370e+01 6.777056721382568583e+01 6.592189229622960056e+01 5.693417814817021139e+01 -9.015029626299474685e+00 -8.757317652887999770e+01 5.193685968721899116e+01 -1.723186255557963591e+02 6.465137983947471412e+01 -4.282194079845677237e+01 -9.280113488549811507e+01 7.144486923053909777e+01 -1.654018185332498803e+01 -7.423809299389472471e+01 -5.531267593644417957e+01 -8.847573382438623568e+00 2.338999546233964679e+02 7.418688079514824096e+01 5.287925231239735524e+01 -1.001375807571608334e+02 1.430194831555032238e+02 1.043122638436466021e+00 -8.717840932300632062e+01 1.504018206433141245e+02 -1.487768712157109974e+02 1.523486004557911322e+01 -3.138508271988278153e+01 -2.145777606224720842e+02 -1.301511136877640240e+02 -8.513790146860549157e+01 -2.872200762344316871e+01 -1.163535257943726435e+02 5.625674144778025720e+01 6.345871205834828288e+01 -2.695897497131171505e+01 -9.742883513286435004e+01 1.104019522262387767e+02 1.153409371055309265e+02 4.511125046371092395e+01 1.710830222711643955e+01 2.552987618442456892e+02 4.262337806627845538e+01 -1.167601296405586879e+02 -4.405110948010538152e+01 -1.649113539748291259e+02 3.114037902046471018e+01 1.497502428143733937e+02 -1.448610561565370176e+02 1.287307044893491934e+02 -8.889836831740136347e+01 -1.851882215371017182e+01 -8.096997504253742317e-01 5.169786648567808385e+01 -1.130296199743296981e+01 -2.232668203071233037e+01 -1.836523199051997679e+01 -1.239814486485693692e+02 4.535602195357172661e+01 -2.965660154329198761e+01 -1.261661003416181792e+01 -1.048964823306142158e+01 2.210124421987729022e+02 1.704631379777455038e+02 2.275428804377764322e+02 1.289219181396042870e+02 -8.468744654608454425e+01 7.350359052620802913e+01 2.069948416134691627e+01 4.646588033788134453e+01 -3.878463065615803629e+01 2.498633756965999453e+02 -2.282258789479796945e+01 -1.337844050134736165e+02 -1.461237760337248837e+01 -4.486099914762544216e+01 -7.570296221511812007e+01 4.222361094950297655e+01 -1.145980217633615617e+01 1.780082652781874799e+02 9.033146919037588418e+01 3.999607271854422663e+01 9.587164768575573248e+01 9.264390057148783342e+01 -2.249420683332245474e+01 1.366559176439806151e+02 2.598340243067262989e+01 8.772155620683007271e+01 4.669078408621159326e+01 6.773557811380133131e+00 -1.132969731272342102e+02 -1.134378991218158177e+02 -8.815479085894169486e+01 -1.523217263192011650e+01 8.488043595367433625e+01 -2.996925111555851728e+01 9.680511684336431699e+01 4.291213598458961798e+01 -7.119677553950883464e+01 -2.930629275633246422e+01 -5.735150866624525889e+01 1.720312638045567866e+01 -4.530799271119025207e+01 -1.096928112680694198e+02 1.189492592726198268e+02 1.188080229376452621e+02 -7.733270097752875927e+01 5.266241001598968907e+00 -4.438612166454902308e+01 -3.186136694787427359e+01 -1.110320907566183912e+01 -3.059702849077435260e+01 4.358097304134574301e+01 -1.376444082317111111e+02 -5.175643087637877926e+01 -1.486300787273530375e+02 1.704133916718610351e+02 -1.973313088835749340e+01 5.762736804566142723e+01 1.164161386935463760e+01 1.412566355001683576e+02 4.361873235876949906e+01 3.490501094827373407e+01 1.510023024082415475e+02 -4.817419384826254003e+01 -9.548703100924238640e+01 2.663266327752060292e+01 -1.544888162457795886e+02 -5.221730313268433576e+01 1.000482844536861933e+02 -1.246346289541489369e+02 -3.553157971387955882e+01 8.920704178274623075e+01 -9.226889119535493933e+01 -8.739416629865932862e+01 -8.072861771678441301e+01 -6.229664094046855638e+01 2.433682185734961365e+02 1.936167466717590742e+02 1.005679071387228873e+02 -9.981242550634956956e+01 7.307593840567976429e+01 -6.468249658905494925e+01 -3.073388398923805553e+01 1.623051782853589131e+01 -3.153272356261004816e+01 -9.148519310443742825e+01 -2.766761208370735581e+00 1.438074850297811835e+01 1.061834942744106058e+02 -1.253688699883471429e+02 4.097222213194574891e+01 6.220626071832678861e+01 3.364086211713002683e+01 -8.836556863314518750e+01 -1.448342881571556973e+02 1.882688274971635849e+02 -1.734675429131920410e+01 2.454591007125666380e+01 1.526102290211923105e+02 2.597372440667571780e+01 2.700825339952493209e+01 -4.340015492888144166e+01 8.631050924908836919e+01 -1.327576669682993611e+02 -2.998147999861754798e+01 -5.977405786977192825e+00 -5.196740949678314081e+01 6.172748768940717667e+00 2.066786431809322977e+01 -3.483132915429483489e+01 1.329941037134394577e+01 2.079757450644245296e+02 -2.666882800881177928e+01 -2.726303781526332060e+01 -9.890289699703700421e+01 -1.584837317623279507e+00 -7.853230207471844437e+01 6.189975016671269259e+00 1.090300962626281631e+02 -5.059017187287451378e+01 5.872459103437739358e+00 -5.280436807344882055e+01 3.215370321206427295e+00 8.478012394846689403e+01 -1.126436078975751656e+02 -9.417260575393248700e+01 -9.975400880878152066e+01 6.935411749431106898e+01 8.415238822552987585e+01 -8.964265668951023258e+01 6.091790707153486295e+01 2.512821073031865993e+01 3.761061022142187937e+01 -1.724265877401574443e+01 8.881886365096256952e+01 7.745791331483839315e+01 -7.508065677239562774e+01 1.144528564429127115e+01 7.859832758769393024e+01 7.079100449188700850e+01 -1.936189288363741667e+01 2.425365556762645980e+01 -1.288770425676479192e+02 4.718612628645723817e+01 -3.186545816522896146e+01 -3.178023199741542015e+01 1.683142386560489285e+02 4.607559223082569844e+01 1.168088316522472638e+02 1.856103486041524775e+02 -1.337926587370982645e+02 1.449120527515446213e+02 -6.168790919832525788e+01 -1.313475769564311690e+02 7.999352669765906398e+01 -1.302624029710233060e+02 -2.791030199001471246e+01 5.480078818742463653e+01 7.806294915399358381e+00 -1.634645732804619627e+02 8.191239237620042957e+01 2.453609202217574747e+01 6.713602802861026930e+01 3.529579744203361003e+01 9.195608619177203735e+00 -6.522081286468618089e+01 1.124310018327462473e+02 5.296000640138244364e+01 -6.036077099876752072e+01 -9.838950400941546093e+01 3.779752800545654168e+01 2.502416943367478197e+01 8.008816679137964911e+01 1.786367079895105405e+02 -2.391309695921519562e+01 -1.070575418875245362e+02 -8.226687500186008606e+01 -4.986521325524151393e+01 -4.305430105607249658e+01 -1.425656591030539460e+02 -2.189896996206529778e+01 1.258772041081281117e+02 7.241311451306228264e+01 -1.189032999702443334e+02 -1.457165701387490060e+02 -6.614331235364269901e+01 -7.413038733737785435e+01 1.426870397665799999e+02 -1.656450414592414973e+02 8.413170005079872737e+01 -4.475822174995597535e+00 -4.182526769765746621e+01 1.290360382511041770e+01 8.854379101922862105e+01 4.813068349611829433e+01 1.342817809446808610e+02 -1.546272252718588334e+02 -7.866985510607712229e+01 2.466881392157861086e+01 4.073296693407196756e+01 2.002414884845993583e+02 1.413373514914939904e+02 6.369673607755365197e+01 7.005253837249418325e+01 -3.304268965409085723e+01 1.474641923749988734e+02 -1.742877131124808727e+02 -6.163243702061797080e+01 -5.214944459570281765e+01 -5.031632211956145539e+01 -1.003012984330227226e+02 -1.457448266658584579e+01 -6.666876635294407549e+01 6.912280863853658275e+01 -8.874591912068463984e+00 -5.638225513303104464e+01 -6.042110927150298494e+01 1.750374639562787138e+02 5.737217811553203717e+01 -1.335684081355729091e+01 2.029222011293709613e+02 -1.052671272489228329e+02 -3.431102113188547520e+01 6.505104104030510825e+01 -1.361359651056006648e-01 1.456106755023652788e+01 -1.215607957794456553e+02 1.711412432288332752e+02 -4.752662988116237130e+01 -2.610960861048883785e+01 -1.065255268308216046e+02 1.222018136671811561e+02 9.304201217137467950e+01 -7.524268248912653689e+01 -3.654944467036494871e+01 3.783408398084293367e+01 -1.469351641447853467e+02 -2.032623268687122620e-01 -7.250459174716729649e+01 7.450293228319879724e+00 -1.048889675377246675e+02 -1.538349891554542808e+02 -6.859214123501872962e+01 1.437805482054246227e+02 5.484497659104747669e+01 -8.696728280514913934e+01 8.647473477060155744e+01 3.316996495669057055e+01 8.570532632762797220e+01 -4.084868906077463890e+01 -8.151604917975818410e+01 1.658500562223301529e+02 4.035453477825646473e+01 2.805802833598727730e+01 -7.074274488062479804e+01 -4.101559524523999301e+01 9.209627052974189709e+00 -6.957357255636413385e+00 -1.675042343819782786e+02 -3.355442927487840876e+01 6.240087729714503695e+01 1.080945764645173597e+02 1.508838991897421238e+02 -1.287658746083088168e+01 8.680869717217578341e+01 1.527803429006416138e+02 6.139705501206314864e+01 1.429664052219746395e+02 1.555515786438689041e+01 1.271094629820940156e+02 -8.124449686769844448e+01 5.160124838916582490e+01 2.834024515921391796e+01 7.336801473351935954e+01 -1.027210382588038016e+02 1.915270763304352215e+02 -1.243900345071830316e+02 8.537992152921503930e+01 -1.037457088332880346e+02 4.461688491132844803e+01 1.334264823856366711e+01 8.758666256183769860e+01 -7.111078889332232222e+01 -7.290398390164618547e+01 -1.074072923189187456e+01 8.598890655999259991e+01 -2.855866239180686961e+01 -1.571999482499023593e+01 -1.893715209231522678e+01 4.566620987515420893e+00 9.460990961330453786e+01 -6.027460516593182405e+01 -2.602824137612870459e+00 -1.866423851341576210e+02 1.174129550474442283e+02 -1.200907961402205757e+02 -7.102524840023005481e+01 -2.261205157431525237e+01 -1.038042331509224141e+02 -5.109700186104253561e+01 -5.633816029180314899e+01 -1.894182228760444531e+01 1.309619334761943321e+02 5.197329881310585620e+01 9.652659626386521552e+01 -1.308358666179861132e+02 -1.332058317974354225e+02 -2.756243690095781744e+02 9.824942949509404855e+01 1.001806158552919896e+02 4.069810641588912858e+01 -4.084491425000684472e+01 -3.571664849194832669e+01 -1.765823683446083407e+02 1.404227260082864746e+02 -1.032496055277915588e+02 1.028269630746569163e+02 -1.530234559919933020e+02 -1.377044991530441642e+01 -5.323751811087054620e+01 -1.146599010505329090e+02 -4.432821367814278091e+01 -1.207438745430325966e+01 -8.910958040078342890e+01 -9.946391185107158606e+01 -1.188712404825569635e+01 6.843652373941898759e+01 -1.198047350892537537e+02 -1.504031653789793843e+01 -7.090903901045670921e+01 -1.263540703996416710e+02 6.322623579930536586e+00 9.142447113859226704e+01 1.592051717272852329e+02 -1.832259724302722859e+01 -4.428446155833285047e+01 -1.194497725893794495e+02 -1.574259676673019044e+02 9.987516088121959967e+01 -6.997788446134707385e+01 7.599092915244861501e+01 9.041114530395331528e+00 2.810082988707880958e+01 7.105827644769345852e+01 -8.158996470805050194e+01 7.959085764141011055e+01 1.109704880749222440e+02 1.516410741034312935e+02 -1.121541174101460570e+02 1.000894276750294836e+02 -4.601469430746588785e+01 -8.742556908127235715e+01 2.066372338809577514e+02 4.737001215295271805e+01 8.037113611204645736e+01 2.040521652558714649e+01 -6.095262370453616541e+01 -3.363676650362405951e+01 -2.025853459959903660e+02 1.017237750344408909e+02 7.845362105117342821e+01 -7.288667037224821854e+01 -7.038818910871837886e+01 1.397972169798349000e+02 9.731410258115394640e+01 4.922568866317899960e+01 7.323595301414246705e+01 -7.544701493415528759e+00 9.935792028192183523e+01 -9.975305504011446089e+01 1.794186787956375895e+02 -3.801812671407908795e+01 -1.174861996997201032e+02 -3.632145835464327632e+01 6.907726021436479868e+01 1.418591712395001423e+02 1.235560650129061955e+01 1.673727119131471568e+02 5.024245808923061674e+01 3.239390880309291987e+01 -1.071701500658188309e+02 4.310964085234250120e+01 -1.203357004445540781e+02 4.595366535604615166e+01 3.712951402700809211e+01 -1.188109019236285633e+02 -8.188479239889103667e+01 3.838745898634878984e+01 8.401033281893374394e+00 -2.233962725898178903e+01 4.033988905327041152e+01 -2.060981153089898754e+01 -6.074679532093342260e+01 -2.528479288672309622e+01 -2.157700759390819556e+01 -3.833831145981891098e+01 1.806296500601881050e+01 -7.755249110150739966e+01 1.145221503544493658e+02 -7.150322132135850950e+01 -4.029524024391325732e+00 6.321107312388930666e+01 3.724323225122067704e+00 1.537810007766544018e+01 1.538144662241916016e+01 -1.127549148077273742e+02 -4.240006984229431453e+00 6.262441015327050309e+01 -2.228170422286963230e+02 -8.174185926379917078e+01 -1.084899089094895999e+02 4.217210243767432587e+01 9.262765459723351569e+01 -8.835405069907409370e+01 -1.616267868376507124e+02 -1.783001506950788837e+02 1.920557497373174627e+01 -1.394938329813545010e+02 -6.093243805768022270e+00 1.420286753183021347e+02 -6.794223006896087824e+00 3.569944767885732517e+01 -9.502640649258799499e+01 7.671706024764056053e+01 -1.138243922255601319e+02 -1.482320363009040243e+01 -2.904960316012803645e+01 5.526220797586584865e+01 -8.466381838599996712e+00 1.013259106573239734e+02 -1.170474492124824764e+02 -4.800369607988116627e+01 8.306666328168040536e+01 6.337017576729384416e+01 -7.882636914222285895e+01 -5.211116129722748269e+01 -4.728443466463548361e+01 -2.769889211944530985e+02 1.851859337017511393e+02 7.275725836345436903e+01 -2.253250879130738227e+01 -2.837469028993071518e+01 3.970295725732176351e+01 -8.036533401071081073e+01 9.506865984880707288e+01 5.779490551308842328e+01 7.822020466955636664e+01 -8.030289382468860993e+01 -2.528205470488906670e+01 3.179340365468661389e+01 1.659010795586680942e+01 -4.090734197217680901e+01 1.507730648343517714e+02 -1.648627117433324685e+01 3.379891401300194786e+01 -2.193329867877309596e+02 -8.075413153041297676e+01 -6.976218791696443589e+01 2.196803772875772864e+01 1.041314187833722400e+02 -2.210669557373062730e+02 -1.783931086825240300e+02 2.113570424257945888e+02 -1.007385311482855172e+01 9.158175417098985349e+01 5.971697681058803653e+01 -5.276506785825004897e+01 -1.249198860641388791e+02 -9.074391041252745538e+01 -4.791208731696399070e+01 -3.566670254967109344e+01 -3.734537823190296990e+01 1.537367213406173150e+01 3.549968399578419564e+01 1.591346927194419152e+02 1.175461414670788400e+02 6.682945911326614308e+00 -4.210897076065483802e+00 -1.513624680487991156e+02 1.140997862860571246e+02 1.518965555887691323e+02 -9.867312133940427543e+01 7.029673450408490964e+01 1.600066640710743782e+00 5.240145132413293538e+01 1.195432886772302936e+02 6.765133119747214607e+01 -1.278435492070270101e+02 1.536168012794012760e+01 -2.802764242397139682e+01 1.063138972866265952e+01 -2.201531225625306476e+01 4.323598532361486235e+01 -2.486683932891430118e+02 1.728303457391961899e+02 6.917310823847500068e+00 1.521133744570468593e+02 -1.003026211874252382e+01 1.013161339135522496e+02 6.837737428129094042e+01 -4.006090772702484770e+01 2.861049249001684203e+01 -6.956909930525129937e+01 -8.502510094872113200e+01 -6.881848922925155421e+01 -3.063276417117694095e+01 4.315561976492222840e+01 1.052694321224099667e+02 2.719884861259319209e+01 5.944716729385434206e+01 -1.002278197151417913e+02 -1.311219602854606592e+02 -1.289299115601194679e+01 4.434583542894581143e+01 -4.343985222467357943e+01 9.049376522271354872e+01 5.314342980197595523e+01 -2.643672986998107532e+01 2.864320463064642297e+01 5.874691887959263426e+01 -6.897366657952871094e+01 -1.279528024411279574e+02 1.359349051490774229e+02 7.475796939053639178e+00 4.799060266114801010e+01 -1.429593131812521278e+02 -5.114462419224905432e+01 -4.096344797454571918e-01 -6.305534621645455218e+01 4.078133837035871068e+00 5.394847148636679179e+01 1.786804544952953506e+02 3.750855903699785898e+01 -1.050224635505097837e+01 6.928583604652061467e+01 -4.359113648650311745e+01 -1.045043397243597383e+02 -1.325237893672118616e+02 8.977618156151230266e+00 2.409115771396901096e+01 2.287995295324619960e+01 -5.459022034671924928e+01 1.159544919355959394e+02 -7.758350381519058203e+01 1.231987945666656827e+02 8.381476057523558154e+01 -6.245895592839922728e+01 -8.143239631206076012e+01 8.090427374827633855e+01 1.960411966636539560e+01 -5.047925858215781858e+01 -5.173458683535949376e+01 1.314622259157104622e+02 5.512626983855725626e+01 7.685335307623847712e+01 2.514288304033587451e+01 -4.042740428819860909e+01 1.033021096699274040e+02 -5.249710329203095682e+01 5.553895591092151696e-01 7.363594908485573853e+01 9.585144484683172550e+01 2.459660024476692115e+02 -1.686728354639058409e+02 1.549257794647002413e+02 -6.502891954130741681e+01 -1.467266536548636680e+01 -2.421631739006515716e+01 -1.996943627412586153e+01 -5.308696894398925537e+01 8.963523975445272640e+01 1.773758822866931553e+02 -1.145012651705591509e+02 2.982872536199157665e+01 -1.224056767535608117e+02 6.772578519208830983e+01 -4.290623110887685243e+01 -7.823555326894249617e+01 -5.206797066470041102e+01 3.980256147651251553e+01 1.870602193941112645e+01 -7.900731044160082206e+01 -1.363387624765330202e+02 2.007366162581350011e+01 1.524407726281478119e+02 1.382247081961549107e+01 1.765802783780806351e+02 7.214150511468176319e+00 1.303421890446237512e+02 -3.349015518226212862e+01 8.791518834836476515e+01 -6.920734229624068234e+01 -1.094081702682754127e+02 4.791629741667206588e+01 -5.622547362394875847e+01 -7.616295212084750688e+01 7.065531470253139901e+01 6.287431549613673454e+00 -9.147019306131207372e+01 -1.461684045476678762e+02 1.436284242625820298e+02 -8.660059910180547149e+01 -2.309536110444268875e+00 1.166916949015214726e+02 5.636829597472941344e+01 -9.547535693410387125e+01 1.036528552887686772e+01 2.742763651617589176e+02 5.183390773992053369e+01 -1.534325831632964707e+02 -4.644731744265385487e+01 -5.984030463582267600e+01 9.356507749881446401e+00 1.047299337590598469e+02 -1.007957840956467663e+02 2.103627717416869913e+01 1.270960320221089859e+02 1.828857107949664851e+01 -2.058722103440753699e+02 4.705005028833269165e+01 7.357293154299142657e+01 -1.325447829227063856e+01 3.195429670046035042e+01 1.761040960800114574e-01 2.200290498568591246e+01 2.703802019812447099e+01 1.129415268241287436e+02 9.560417191243297452e+01 1.525407149684145480e+01 1.452946240461363061e+02 -6.242268584103688056e+01 2.405085874514791442e+02 6.342796055647737319e+01 1.382241114958559365e+02 -2.141726053425421483e+01 8.785535617040328304e+01 -4.770682259159027438e+01 -1.427706816667202077e+02 2.551138463509322918e+01 9.263385005056393595e+01 -8.540608735824170594e+01 -1.021741191074220723e+02 -6.490971820703688877e+01 3.572704540389117511e+01 -1.113841952016307744e+02 7.286563546879911257e+01 2.734757970677272354e+01 -9.522663371806500265e+01 1.852689072871845042e+02 -1.147311170385957446e+01 -9.929729220505485898e+01 -1.309385601383848829e+01 -1.993803399559192258e+01 -1.367980299044291996e+02 -3.904009011542166263e+01 6.001784922451016513e+01 1.285940336148236440e+02 2.834304423058652489e+01 2.608657967200117866e+01 4.369768692610441008e+01 -3.483876816824388811e+01 -1.420858092130942794e+02 1.551560102380295270e+01 3.019390684354089061e+01 1.298959289491846789e+02 -9.639264101261316497e+00 -7.427476701230450828e+01 7.142286620328449942e+01 9.475336266293722387e-01 3.102126060939063379e+01 1.358339236902335472e+02 -1.731668900414946108e+02 -9.061589480932877905e+01 1.217198238875959930e+02 -2.045588782333322797e+02 -1.743790482569417577e+02 8.632155978941008811e+01 1.460175432325117981e+02 6.014402355052590110e+01 -4.250669479619735291e+00 1.476480034416674698e+02 -2.081705351128525194e+02 1.016043639986991138e+02 4.018089609136148255e+01 1.204894190644235437e+02 -1.788204983695216868e+02 1.009610061543206285e+02 -2.675515592907795082e+01 -1.267622804299829511e+02 -5.045438206923742896e+00 -8.759890497511240426e+01 -1.536421396040375775e+01 -4.134182950900529008e+00 -1.168128278638964872e+02 -1.169300769988826687e+02 -5.932149364544720527e+01 -1.222220694517073269e+02 1.905622466222590674e+02 -1.527881990841740389e+02 -4.758465264577826304e+01 1.636045472613347727e+02 3.217544923605098006e+01 -2.806638094033417588e+02 -1.205573272019975803e+02 3.365715433297166470e+01 5.183515946203138469e+01 8.086665157304322449e+00 -1.465748095861637523e+02 3.383625757284178093e+01 7.124753329132170521e+00 -7.047973424376947094e+01 1.922404098747232410e+02 1.920691754315854780e+02 4.126588774592207187e+00 -1.977516297907138210e+02 1.194483828765031888e+02 2.915162438711441339e+01 3.626202162320688593e+00 7.260680260021050003e+01 -1.967444754159443505e+02 -1.308620691195038148e+02 1.337025788358665466e+02 1.039755183195580912e+02 5.015478884376821611e+01 1.357482020300342924e+02 -1.690265248679401680e+02 -1.941161380874853037e+01 -1.236358125467306337e+02 4.141766808074083883e+01 -9.849383779152849172e+01 8.256550089385474678e+01 -3.217266891282598351e+01 1.174424791344267760e+01 1.682496308294340110e+02 2.708044216836952600e+01 -2.499131622195610021e+02 -1.198488880234814928e+02 -7.901985149265017583e+01 1.499163674837299709e+02 1.189146351707557692e+01 -5.111114004361402152e+01 2.873804380445155360e+01 5.923959079903912794e+01 -3.749003599950644627e+01 1.019385546135179368e+02 -9.552774837031937238e+01 4.666298939615978014e+01 1.061333074319481682e+02 -3.369560386807427221e+01 -9.304093236961739422e+01 -1.075910472416747865e+02 1.135561388767962967e+02 -4.711453370832422394e+01 1.863645053842150787e+02 5.424093366028585450e+01 1.051913958222808958e+02 1.749655277758665193e+02 8.111102674146492220e+00 -1.178772503600705477e+02 -1.571273259170827714e+02 -1.082422075553464396e+02 4.031422436814855814e+01
-1.258011169884380465e+01 -4.495083462318542722e+00 9.588762827545092193e+01 -2.121304945524391599e+02 1.439418524773731178e+02 5.879049370129109064e+01 1.409101747208721349e+02 -1.196293490775602919e+02 -2.556992176808857931e+00 -2.227791509012964610e+01 -2.032796519215762601e+02 3.028226551562362090e+01 -1.696195476660468060e+01 1.132774855600649033e+02 -1.158760510148016749e+02 5.715454475181248739e+01 1.160071999777533449e+02 -4.256268333701993356e+01 -4.590135435562636701e+01 -2.496889175739997313e+01 5.717513662724832102e+01 5.838814144214407520e+01 3.004363603493346346e+01 -2.152966920753416389e+02 -4.772873770431065310e+01 8.479590350948258504e+01 9.183264712959346099e+00 -9.619580564475855411e+00 -6.159299652420741467e+01 -1.436507762884397543e+01 6.790867907032867379e+01 -1.346347987575783520e+02 -5.738157173946819967e+01 8.298553722035013180e+00 1.922287685545061890e+02 1.963602022295500547e+02 -2.978216140807803924e+01 5.174388949246714731e+01 -2.358924071425918256e-01 -1.292894839364689119e+02 8.885135874275626122e+01 9.926434475169116922e+01 1.004639629543880943e+02 1.080453872333894338e+01 5.728606519948638010e+01 4.454718907751598778e+01 3.599102692944804716e+01 2.719661670862281255e+01 1.020965368967227249e+02 8.304612254579916453e+01 6.070357230777936763e+01 1.509131782513717042e+02 2.294710549260711332e+02 1.810871153670456977e+02 -5.475668892873196825e+01 4.561403465189913931e+01 -5.948742519419821662e+01 5.219449724623945741e+01 -1.779601555493024136e+02 5.230700554734096386e+01 -1.895470382200538495e+02 -1.562084786435058845e+02 1.199544884903196795e+01 -8.586405280975624166e+00 1.569387833387357034e+02 -1.925739830369223569e+02 6.968736094042240836e+01 2.128269838699314960e+02 -6.861874172588370513e+00 -1.803970131302468758e+02 3.288134943926696252e+01 1.825632717156940430e+02 -5.658941516824023665e+01 -2.468602002965407110e+02 -9.497693988059695869e+01 8.270143881612684211e+00 -2.130768480503190290e+02 2.973891031263878304e+01 -1.662051554535258333e+02 -1.718595837574650886e+02 -5.298635360769930713e+01 1.411920687136183119e+02 6.432532643840133346e+01 9.842081700707181469e+00 -8.217988170304077755e+01 -3.947261820763487350e+01 5.905641513640050988e+01 -2.151775004474055777e+02 5.014178163220852014e+01 -6.944349800231913150e+01 -7.245279594685170821e+01 -1.639044334631014408e+02 6.027458305387050785e+01 8.592967345297843451e+01 -1.504880398151201462e+02 1.602344695637942777e+02 -3.696977203925364819e+01 -1.569273875954038822e+01 8.130673049456572699e+01 1.450112557593230918e+02 2.018660238062071599e+01 1.404907898677940921e+02 -1.717998077465419726e+01 -8.413951849839465069e+01 -1.818370374131312417e+01 9.374968821963550170e+01 4.290373988700802954e+01 9.333054445232616558e+01 9.003660865533088042e+01 -7.928879776041461014e+01 -1.621090131573542692e+02 1.173953348531004650e+02 5.174740477722871645e+01 1.551137409327164463e+01 2.916691584327966069e+01 -6.481173540409864131e+01 9.162682980638672348e+01 8.576161555614700660e+01 -1.311590067727077269e+01 -6.800821738978224573e+01 2.928135800429156888e+01 6.002314187147391067e+00 -5.866798005730824883e+01 1.618780211244186091e+02 -3.127661849247488846e+01 1.160790885386205531e+02 -6.690779000027039558e+01 3.665091268389300438e+01 -3.442424838215812599e+01 8.545280353897915404e+01 2.240782277959221958e+01 1.103793995715461875e+02 -1.108224793788134832e+02 7.100892207992757221e+01 1.179189451124274797e+02 -4.268075960540674885e+01 7.325263987239201136e+00 -1.223620833796274709e+01 1.116199795191739383e+02 3.517065740337500745e+00 1.610978385365362158e+02 -1.351371475619271791e+02 1.114652521936343845e+02 -8.721756198337995158e+01 9.159071577161348898e+01 -1.310212813472162452e+02 2.820693922162779543e+01 2.367352809702735073e+01 1.691481847126488969e+00 3.472519217341576336e+01 4.401659783054566333e+01 -1.182689475724948558e+01 1.044593305501380165e+01 1.033931969055541487e+02 1.217056477538855290e+02 -8.296340622786763674e+01 -5.181106303844966732e+01 4.526756364843798508e+01 1.443750418537158797e+00 -1.310941091042494691e+02 -5.278435485265184468e+01 -3.387525792394065149e+01 4.678881238955626998e+01 -6.270560697414120455e+01 2.192661229729491268e+01 1.535614495569825237e+02 -7.607426420582491744e+01 7.743637856905270667e+01 8.051041021072087744e+01 1.081828005094482847e+01 1.182852316490511271e+02 6.026128940044551285e+01 1.610640012779579422e+02 -3.320319342705484189e+01 1.077989818585386814e+02 5.328916192350752112e+01 -1.540033913113896880e+01 1.958346089023499133e+02 -1.331568496759193181e+02 4.693075915700877232e+01 -1.800698945112422962e+02 -8.080926523772613734e+01 3.942349285517348534e+01 -6.936603810206224807e+01 -1.496612150953464777e+02 1.915266351964282876e+02 -8.242824290375315854e+01 -4.564709793245476988e+01 -4.447592710211399947e+01 1.170298742136117340e+02 1.872260150719280887e+02 6.224304336685294459e+01 1.406024380704856185e+02 2.110244535890732323e+02 -1.527506105821836657e+00 1.565986997287192821e+02 6.815714006615235121e+01 1.830805448124857548e+02 -1.209863940355048726e+02 -1.136917767992969175e+01 6.119990254698897125e+00 1.826375317771928053e+02 -8.735155012995488732e+01 -5.821983744621162060e+01 -5.089584850182327358e+01 -1.289053711251304435e+02 4.495928541062618855e+00 -9.704978094493553442e+01 1.482831495110362994e+02 2.263344333687160059e+01 1.152262440220432538e+01 6.953010446881222606e+01 -4.714951561446435235e+00 1.125339846259430061e+02 -1.528001356955893186e+02 4.369445192417632740e+01 -1.642238429434681279e+02 1.129230358299333119e+02 9.244235176110825591e+01 -6.469377439585312572e+01 4.502023930075054636e+01 2.290181123991445133e+02 -2.931420313460034421e+01 4.005057756056772433e+01 -3.143101927364043746e+01 5.572680405606156029e+01 6.178898569734712254e+01 -6.049333138789041442e+00 9.797145065891169224e+01 9.753653804097253044e+01 -1.864138671807345986e+02 -1.473406950460910991e+02 -1.152444254729394686e+02 -9.055289855847869163e+00 -1.439844715757602671e+02 1.111009593658525461e+02 1.060648094067431231e+02 5.674157107662836808e+01 1.073596079110593138e+01 1.515808523414015099e+02 8.071509872709735589e+01 6.490914057722345376e+01 -9.765109525897599951e+01 1.465558349540089296e+02 -3.474779307053274202e+00 1.051343801890651548e+02 8.482385097700879228e+00 3.531582322007878361e+01 -7.273181980186690510e+01 -8.719719949907755563e+01 6.879964063643021177e+01 -3.725129935025127459e+00 1.404573076577533186e+02 -1.205808394564071229e+01 -2.727534785679812224e+00 4.405464211868056879e+01 2.172857203147185601e+01 1.358391314872140754e+02 1.413168313764415274e+01 3.444090096994423078e+01 -1.485323968875202354e+02 6.318688616835309801e+01 1.283005185891200597e+02 -1.686061149833952655e+01 -2.188165828272007900e+02 8.098055761046188650e+01 1.305653537653327874e+02 1.954652514484172343e+01 1.810898692605817359e+02 -4.118031359737818420e+00 4.103004178036371030e+01 -4.175523608348658655e+01 -1.325642740759746800e+02 5.358006246195383682e+01 -4.539075497789279012e+01 -7.737639487989663678e+01 3.939018090616823997e+01 -1.764687199048513264e+02 6.839816774191368154e+01 1.570248312946688429e+02 -9.661720414368956256e+01 1.651340480422618668e+02 -9.311265457035383974e+01 -5.681944050187142992e+00 -1.006841586492563856e+01 7.311597075386421807e+01 -4.447305402555123521e+01 -1.027401345059713549e+02 -8.446392621523401090e+01 1.389469495078566297e+02 5.632610982657374166e+01 -1.256100681189259376e+02 4.201217309359201124e+00 4.133136080462488593e+01 7.860058883844958189e+01 -3.839148483236979814e+01 5.705217671082013453e+01 -6.564697349132742943e+01 -1.544550200751337741e+02 -3.294485450394272874e+01 1.341108830337307154e+02 -1.079083633492584937e+02 -6.064795717842163647e+00 -1.548870641187803585e+02 -4.628554860778105073e+00 -1.387401748553268135e+02 3.134210630967215394e+01 5.728775171267123767e+01 -4.784378100150311042e+01 -7.829108490265790010e+01 5.366406261313937165e+00 7.071796704940067002e+01 -6.440276877807168887e+01 1.279567904448345530e+02 1.003118932535072787e+02 -1.212500661849244494e+02 -1.001748956532967014e+02 1.282785299909596404e+02 6.769552257079834590e+01 1.426093813598734243e+02 9.487871717913640168e+01 7.699114074806942654e+01 -5.720246878658443279e+01 -7.754145718115969999e+01 -7.307797739862722608e+01 1.939339904706520770e+02 2.903981924649736612e+01 -2.363019256335667606e+01 -6.490480056470411796e+01 -4.729279925149893415e+01 -1.243609918585353284e+02 -1.558683366997344599e+01 -1.656889792431454680e+02 1.180475819706121001e+02 4.339780259358793302e+01 -1.087683272618935604e+02 -4.570758806228348448e+01 1.130376687152731137e+02 -9.147626711243093212e+01 9.708908710264883268e+01 -1.118567037273450069e+02 -1.112338570556774719e+01 -9.015674666374000878e+01 8.472861906344893157e+01 -4.008768936627742363e+01 9.666895077332871011e+00 2.771482868290026147e+01 -1.195177832512557501e+02 1.179378126817878325e+01 4.566581773450040060e+01 -2.107038796454663654e+01 -6.486976374354730979e+01 1.912004488792013319e+02 8.158897851788407252e+01 4.443098066983467476e+01 -2.963238015887394639e+01 7.566145550289633093e+01 1.581403485830026057e+02 -8.699669356871159209e+01 1.976435905089510925e+02 -1.255798015987488441e+02 -1.734869373357946074e+02 1.431664336489465938e+02 -2.207315575588015122e+02 -8.773259262746314624e-01 -2.310638995133694209e+02 -1.442063053903330285e+02 6.771448573928202563e+01 -1.373335908824945477e+02 5.505401439722123769e+01 1.037518250983336685e+02 -1.512234940110468244e+02 -2.836975058639545821e+01 7.115058807051376277e+01 1.263134554445151849e+02 -1.755911014727469137e+02 8.255364346434294021e+01 -9.242360145238916402e+01 -9.281196652998167096e+00 -1.305403644939449315e+01 -7.504546445201897598e+01 -8.515782453102742977e+01 1.710941804761373817e+02 -2.049603677368683563e+01 1.282270986482243691e+00 1.228881464188436183e+02 -8.186636334218444233e+01 -3.249280833251450673e+01 -1.016620319644089108e+02 -4.608236636740276282e+01 4.847270014027722063e+00 5.603725739566614550e+01 -1.276227787035436023e+02 2.242099665935808730e+02 -5.094711745899615352e+01 1.159734863004336489e+02 -4.619564843240302565e+01 1.133360257766925656e+02 1.317632523685090291e+02 4.536908785814255651e+01 1.155726269879606889e+02 -4.093801859163767176e+01 1.325736624333411271e+02 -1.482681523511800208e+02 -6.196132222051605964e+01 -5.966420023944621676e+01 2.425371814603387932e+01 -1.537857618578018730e+02 6.873749672845819703e+01 -2.923241194822715272e+01 -7.832197742432751397e+01 8.489013544747366780e+01 -1.432225454778878770e+02 -8.648036814832406094e+01 -4.992790215526454745e+01 3.134299270233860213e+01 1.230294120548493026e+02 1.107200265198166989e+02 6.547282985437301761e+01 -1.458757876308725887e+00 1.658159056700651206e+02 1.161401584310938659e+02 -8.958132043244826548e+01 -7.401802985510623500e+01 5.217307719611709871e+01 9.409592959099303044e+00 9.286898258088487523e+01 1.580824868839556530e+02 6.692368725752319847e+01 2.319474052224685323e+01 -9.690257617031099358e+01 1.627868052599112616e+02 -1.077168889466428539e+02 -1.566178879501890435e+02 6.229224411337382605e+01 1.056660873106424106e+02 1.863056086758092533e+01 -1.315521676083164095e+02 2.813412362622071328e+01 4.016079186201858420e+01 -3.640457373007207620e-01 1.240243677963745910e+02 9.266428330168560024e+01 1.620910550524110860e+01 7.418443636300645494e+01 -1.012264541112200504e+02 -6.052056801386999751e+00 9.311749484406117006e+01 2.811587549241130191e+01 -6.155293456038004507e+01 1.874931990330830160e+02 2.187546150493801349e+02 -1.187161713359304258e+02 -2.616171429107406610e+01 -1.988420065624897859e+02 -6.829374630516049649e+01 1.480922297766746283e+02 3.164694614608646539e+00 -6.715424684174308823e+01 1.548828240938955503e+02 -5.908429837149235908e+01 -1.519093286917227488e+02 1.291509878958642901e+02 -6.351503675617767897e+01 3.266667025449311978e+01 8.161268536184928735e+01 1.304767662294029229e+01 -2.252592815092028218e+02 4.002913837695795962e+01 -5.856527520769580164e+00 8.520905685149310216e+01 -2.228019858454903357e+01 9.553875550772036718e+01 1.608243588516566192e+01 -8.001348472611135776e+01 -1.936929527694100273e+01 -1.656525758054262099e+02 1.086680250495473103e+02 2.390435744770509885e+01 -3.932529743808681388e+01 -4.894981470076164243e+01 -5.949102307386820598e+01 3.888636374841694732e+01 1.518860059220043865e+02 1.254068498168727785e+02 4.066629376838338317e+01 -1.870089722231108738e+02 -3.666709254560776543e+01 4.142435122643534129e+01 1.108663734277492807e+02 8.237765882594015920e+01 1.457879482276584504e+01 -1.757856058047474335e+02 1.244095656004481754e+02 -2.114391906221547970e+02 -1.944982134553794424e+02 -1.716649959073468068e+00 -6.970791991332347948e+01 -2.281950910122605336e+01 8.232127554375691147e+01 5.284152146848958864e+01 -1.050592500214393539e+02 -1.431543711179475906e+02 1.377119177778379289e+01 1.168841464808828334e+02 1.951300872933853725e+01 -5.358973310227622022e+01 -4.883621830046605083e+01 -1.102883923799504551e+01 1.525009463935086274e+02 2.112723837909395286e+01 -1.671627729284239763e+02 1.235156562025616864e+02 -6.432508456039407463e+01 -4.014046947553903344e+00 1.481614392999917129e+02 -5.028311624751815145e+01 -1.885914926655894419e+01 -1.056925635028751600e+02 -5.767781016865350274e+00 -2.293655513528247525e+01 1.266677625027835319e+02 1.154998426948586854e+02 6.502133088529907923e+01 6.299009995756735947e+01 -1.799455452957253954e+01 1.300163260165460883e+02 -1.085112934895641530e+02 -4.087698348442562413e+00 -8.760026020559000415e+01 1.511018277274704644e+02 7.015836562559762513e+01 4.969174910392635525e+01 7.923765116046514123e+00 -5.129737187874383153e+01 3.307435815284758718e+01 6.455156964331587588e+00 3.546918156674604639e+00 2.317378765101628346e+01 5.750201721121628395e+01 1.637892719733715978e+02 -3.740377716055033375e+01 -4.998673353133600727e+01 6.425664306266654080e+01 1.112572462329322036e+02 -1.233182502201728781e+01 8.847234914867611622e+01 1.001694028361739157e+02 2.027901070320162091e+02 -8.323739408049365807e+01 -1.179829608181456990e+02 -2.755926910920550910e+01 5.981001426287264167e+01 -9.762382189848276326e+00 1.033058449241481327e+02 3.583448108481107397e+01 -1.563959119543208374e+02 4.332351327099966198e+01 -8.602539690463449062e+01 -1.300907573310747694e+02 1.293312141630731844e+02 -7.313594199314508160e+01 5.691682180094425547e+01 1.068417604894992365e+02 -9.513311202963301128e+01 2.260603361447311954e+01 -6.932876041748788509e+01 3.873163632151919700e+01 -1.101984400836607847e+02 5.920845594712401549e+01 5.255321022060104497e+01 3.694588077725464714e+00 8.070473762507906201e+01 -1.468295691886783061e+02 7.334512753667500817e+01 -2.818582213195784192e+01 -1.611049037820060050e+02 9.014496046420364905e+01 2.342651395152544325e+01 -1.869914417897548162e+02 2.243888308107404441e+02 -5.174118113570964628e-01 1.002739755677764748e+02 -1.149924127095459312e+02 -1.851777721513186634e+02 -8.898792840223656242e+01 2.397179006018175684e+00 1.362207568274648395e+02 3.760415014248576160e+00 -9.114529781634882966e+01 4.799008079215501965e+01 1.306774525759988137e+02 6.193658626542594448e+01 -4.930719080030978319e+01 -5.640472833179554613e+01 8.057701136766337413e+01 2.927544873728925978e+01 -1.865238738567941539e+02 -1.976601549707998018e+01 1.611670167817109984e+02 9.418761562217075323e+01 -5.468627823954172840e+01 -1.066109308193181278e+02 -4.068393998334602202e+01 -4.584909743714307950e+01 -1.091304228197844139e+02 -1.755989968191688888e+01 -4.353500485958821287e+01 -1.083449641530230991e+02 -1.258202021104277719e+02 -2.572066361176713301e+01 -1.198515844112732225e+02 -1.276495315545172389e+02 -3.655191069390588865e+01 -5.274586272341220194e+01 -1.058905499516895219e+02 1.838823317779444153e+02 1.038910142048777097e+01 -2.778069024194883951e+01 -1.678568962989786328e+01 7.771020585918753909e+01 1.546299726350679116e+01 2.474125017987541852e+01 -2.096119984913485723e+01 -4.574589561611524147e+01 2.065015827952823102e+01 -1.436176737387670244e+02 -1.572332221972414459e+02 -8.925287005919467731e+01 -1.885139792387898012e+02 -8.850589643112348881e+01 8.469640955473249733e+01 6.064292836193293823e+01 -2.572480877221178019e+01 6.002216998761085875e+01 -1.546826646751515568e+02 -4.040820041620987269e+01 -1.147341129978517102e+02 -6.592755890867535129e+01 2.084388722938092826e+02 -2.027758366944278237e+02 2.027498536569391376e+02 2.464444161888706475e+01 -5.574292219842221385e+01 9.105610661744279355e+01 1.225593406676407540e+02 -5.124937267529526252e+01 -2.012915088777036487e+02 -1.472696320738603788e+02 1.010400011777197022e+02 8.273169176661178881e+01 -1.338987377856466594e+02 3.153311301928300026e+01 -3.921434566464289162e+01 -7.645668587279313044e+01 -2.808153034396274705e+01 -5.413684742394631400e+01 -8.535472981005885629e+01 -3.365668986012515518e+01 4.486699071026356123e+00 -3.224291065283592417e+01 -3.548308096666827893e-01 -1.412594461550451719e+01 9.079905768665044263e+01 1.255770986660405129e+02 1.299434467606289623e+01 1.660334396177498917e+01 -6.238806181090772895e+01 -1.936906484783595488e+02 3.343239021630381558e+01 -9.058760223809835566e+01 2.553191842752111995e+01 -8.003772782079979109e+00 1.061512981265513300e+00 7.152592654148583051e+01 1.204116286289171995e+02 -6.963795797637187945e+01 3.753599328650039979e+01 -1.905780173047051846e+02 9.575776635157980721e+00 6.826409093873898826e+00 -1.210770545540340919e+02 -3.329309570031229271e+01 -4.378917920740159531e+01 4.702080928566504170e+00 -1.009927580458155774e+02 2.671869279977569178e+01 -9.644842188950464390e+01 5.534985111547103998e+01 6.705555450698095399e+01 3.645575381515730840e+01 -2.866000748264051268e+01 1.061772151015967864e+02 6.036158054756995028e+01 7.903031759179739879e+01 -6.619352325340086907e+01 1.998911377219705443e+01 1.262933545647510982e+02 -5.777797839318698436e+01 -6.834514449168652916e+00 3.158407914581179909e+01 -1.268293209530125125e+02 9.657059639272380025e+01 8.844573337478662722e+01 -9.991074942545702697e+01 -8.129788976487552077e+01 -5.483421815779919228e+01 -4.507159638216472075e+01 -1.581421603920847758e+02 -1.341326144643076361e+02 -1.307719068314322897e+02 1.042829877955523870e+02 5.903257666691454375e+01 1.574360509880674215e+02 7.115153421300272285e+00 -8.452684905603086918e+01 1.851438081779550515e+01 1.363871174667170472e+01 -6.271653806379437412e+01 7.303875843981164451e+01 1.164322371780403103e+02 9.811681392623698983e+00 1.413438109903508746e+02 2.216824878400565524e+01 1.093789751813102527e+02 1.484805397916449543e+01 -2.048319132536785219e+02 2.152566464504165253e+02 -4.823250969133152211e+01 -1.468979807164042484e+02 -6.621282574944450516e+01 -4.221266675791628842e+01 4.063547418550289336e+01 2.511253482607851595e+01 4.488669509972419291e+01 -7.261262526660588890e+01 1.199431831403170605e+02 -8.452367454443617589e+01 -6.870822194001922512e+00 1.394508811461673474e+02 1.072682028587309730e+02 5.680481196765830987e+01 -1.731956578237222573e+02 2.487352228771459295e+01 1.372535492567194808e+02 2.289350009955970577e+01 9.534428160467413704e+01 1.039264861359110341e+02 -2.064732570330082808e+02 7.506908595332734535e+01 -5.634306753179291150e+01 -2.193786581241279805e+02 8.626352030430209084e+01 2.392020999013100635e+01 -1.183137621797641259e+02 -5.669597728439345730e+01 1.341725112005541405e+02 1.424996489328640337e+02 -7.317969537237912903e+01 -1.231329181518793234e+02 -8.028680972551964601e+01 -1.594400309212356888e+02 1.880432264703370038e+01 3.643215984417541620e+01 -1.631320254566431061e+01 -1.186736240547502597e+01 -8.570775375047192313e+01 -8.443619819399049220e+01 -2.356878881871139342e+01 1.275722696980734980e+02 1.295803806382118921e+02 7.710991869459270731e+01 9.225373797492912331e+01 -7.450413674085172033e+01 -1.712620961826291364e+02 -1.249110375775519621e+01 -2.187085222507133153e+01 -6.722542239101457540e+01 1.400894899831168994e+00 6.909998742688131301e+01 -5.004753745860144676e+01 2.338490009720373308e+01 7.490962423255805902e+01 6.631751181670472306e+01 1.045779843377504932e+02 -1.410863648956257066e+02 3.748763050262960661e+01 7.880505738324890785e+01 8.962988200534040573e+01 5.584558240907679050e+01 -9.764632927110885419e+01 1.295085136113441422e+02 1.205911711950814862e+02 9.066787006417814609e+01 9.604371291292808621e+01 -7.964778893552517047e+01 -1.405140099812288668e+01 -1.225455650857342249e+01 7.286244545371957315e+01 6.145920396611403191e+01 5.299824411920566547e+01 9.227530277822030769e+01 1.102106619514875376e+02 1.172641800133205123e+02 -6.131164456453739575e+01 7.625423102797064701e+01 6.169525925936397215e+01 -1.112983895900319595e+02 1.244905044352570513e+02 -9.478326028926302271e+00 -2.642617963176184048e+01 1.886096579967244224e+02 8.377439793640792232e+01 1.175043537436791610e+02 -1.366789145660186193e+02 -1.494348918561269954e+02 -1.455336646452497860e+02 -1.157027445800233778e+02 -4.195611432978593314e+01 1.040008204075267599e+02 -1.598803911959962250e+02 3.080768611563347292e+01 1.368676058531076194e+02 -5.629800403666158815e+01 -8.664101743179769244e+01 -3.334134772145454662e+01 1.289095867521951959e+02 2.157158641037697748e+02 -6.333449199059133150e+01 1.882532783523621589e+01 -2.627782906275109553e+01 6.505869511994167453e+01 5.721229393674656905e+01 -2.025899002831095288e+02 -8.425934546998114172e+01 1.307671294219837819e+02 1.328682818110275718e+02 8.986265680371596432e+01 -4.739309563456843222e+01 -7.205407257709410374e+01 -4.314074462103737062e+01 -1.679428458454401039e+02 6.764779983680914199e+01 -2.439006240889919397e+01 1.582645647996559717e+02 -2.658969962344769300e+01 -2.993641413068420434e+02 1.378429779041948677e+02 4.777314378316372512e+01 -1.122396636388709652e+02 -2.112090274936334922e+01 3.359423304952187550e+01 -1.976977182690563382e+02 -1.087614281237791545e+02 -1.043946774025994984e+02 -5.367493109595207557e+01 5.976718172157065112e+01 -1.569713970882453395e+02 1.027211927756668501e+02 -5.172901367365020064e+01 2.792548740047726241e+00 -1.270573228435657569e+02 -9.875230159193449708e+01 1.674771913237524359e+02 8.255026569727699837e+01 -4.022756164964864212e+01 3.537656134868147717e+01 -2.671381954591342378e+01 4.127717520520270256e+01 -9.968375281468046012e+01 9.428037838385024827e+01 4.810713230979489907e+01 -1.132972422906274801e+02 1.112581961173274294e+02 -4.679361305112557545e+01 9.520956491365821250e+01 -4.707614228852279581e+01 8.422174037975521799e+01 -1.462106496023046702e+02 1.360657191206776986e+02 2.360185977216223208e+01 9.598041014129728410e+01 1.243608660178277177e+02 -1.398471981494628835e+02 -8.192073515235087200e+01 -1.007423184765823549e+02 6.376636986977046462e+01 -1.634317532150065801e+02 1.445682699582721966e+02 1.357730234400915208e+02 5.052790245282436388e+01 -8.099006725539307183e+01 5.444586896434952905e+01 -1.024188398292918976e+02 -1.041581415231462593e+01 3.335797880829178297e+01 -1.753203091840880177e+02 -7.782215752961748478e+01 -1.291489092936132543e+01 9.750972695110871769e+01 -4.793192865495125687e+01 1.038115932434901367e+02 -6.138912145238731455e+01 -2.012056645571527724e+02 -1.022342978159949354e+02 -3.247440501976642935e+01 -5.745151052540510506e+01 2.872050802319181528e+01 4.912133210201451305e+01 6.044923329023240477e+00 2.427468101134535772e+01 -1.121231968433475856e+02 5.149303701266935462e+01 3.118564252224442512e+01 -6.893144860738327395e+01 8.878983725915054137e+00 5.390657360601323234e+01 -9.118073332928935315e+01 -5.267567448414174436e+01 -2.311983100685771220e+01 9.327538325876854231e+01 -1.638137130630055438e+01 4.012976628805612123e+00 -2.181793925715544731e+02 -9.086656263893669916e+01 9.463732383560014227e+01 -8.526383377233531746e+01 2.997083294280232835e+01 2.970469475164648188e+01 3.624507409084995402e+01 6.321229756850266313e+01 -1.697678252980772697e+02 1.377604437985062589e+02 7.804728085483144184e+01 -7.222026378509156963e+00 -7.731421712722946893e+01 1.070230556570373324e+02 5.942343542989204508e+01 -1.924778938248579152e+02 -4.820038567167441812e+01 -7.820689855326882878e+01 -4.956446650229118234e+01 -5.923399839731216332e+01 -9.473699508676563141e+01 -5.776160276649868308e+01 1.833243797267537047e+02 -1.634061975250980652e+02 6.265305548430719540e+01 2.655893179128653614e+01 -7.197575280896680283e+01 9.958004922005175175e+00 -3.775716768208955187e+01 3.295814918751813316e+00 -9.204852223083537410e+01 -1.891438515701537710e+02 1.761089410496385455e+01 4.009975424780687092e+01 -1.224771618219314462e+01 -8.560661872979151710e+00 -3.808161730050863270e+01 -1.817982690647043853e+02 -2.932062750838905174e+01 -6.256850479698735512e+01 1.333279631660756870e+01 -1.495483850473532073e+01 8.675631978457332139e+01 -6.036095196393782203e+01 -9.927483366415739852e+01 -3.416442529706716158e+01 -8.585501784460051411e+00 4.348963511625939304e+01 -2.117146652273768836e+01 -7.071735521471394748e+01 -1.521232833608430823e+01 1.918602103765975997e+01 4.549077700247686096e+01 -1.091531493594206523e+02 -1.331406780350857275e+02 2.206297417984945071e+02 -2.090877938867589592e+02 -7.271460179607980479e+01 -4.435854436661129796e+01 1.339518556848260005e+02 6.060903073795457630e+01 2.193232868878754402e+02 2.344788335767654246e+02 -5.975142159382930629e+01 1.239951856554014284e+02 -5.370636101833852649e+01 -3.911297854022900822e+01 -9.638202156560099354e+01 -7.648595647855393054e+01 -6.661281998789245051e+01 -8.530034616389278312e+01 -2.335657808638675590e+02 -2.594720920960943999e+02 1.290241744962098949e+02 -2.543474436640007497e+01 5.104055563391621320e+01 1.254473397403155417e+02
