# 
#                 ----------------------------------------------------
#                 Data from a 3D direct N-body simulation. 
# 
#                 rows are i-particle; 
#                 coumns are :mass, tag, x ,y, z, vx, vy, vz, ax, ay, az
# 
#                 NTHU, Computational Physics Lab
# 
#                 ----------------------------------------------------
#                 Time = 0.3000000000000001
1.000000000000000000e+00 2.000000000000000000e+00 3.000000000000000000e+00 4.000000000000000000e+00 5.000000000000000000e+00 6.000000000000000000e+00 7.000000000000000000e+00 8.000000000000000000e+00 9.000000000000000000e+00 1.000000000000000000e+01 1.100000000000000000e+01 1.200000000000000000e+01 1.300000000000000000e+01 1.400000000000000000e+01 1.500000000000000000e+01 1.600000000000000000e+01 1.700000000000000000e+01 1.800000000000000000e+01 1.900000000000000000e+01 2.000000000000000000e+01 2.100000000000000000e+01 2.200000000000000000e+01 2.300000000000000000e+01 2.400000000000000000e+01 2.500000000000000000e+01 2.600000000000000000e+01 2.700000000000000000e+01 2.800000000000000000e+01 2.900000000000000000e+01 3.000000000000000000e+01 3.100000000000000000e+01 3.200000000000000000e+01 3.300000000000000000e+01 3.400000000000000000e+01 3.500000000000000000e+01 3.600000000000000000e+01 3.700000000000000000e+01 3.800000000000000000e+01 3.900000000000000000e+01 4.000000000000000000e+01 4.100000000000000000e+01 4.200000000000000000e+01 4.300000000000000000e+01 4.400000000000000000e+01 4.500000000000000000e+01 4.600000000000000000e+01 4.700000000000000000e+01 4.800000000000000000e+01 4.900000000000000000e+01 5.000000000000000000e+01 5.100000000000000000e+01 5.200000000000000000e+01 5.300000000000000000e+01 5.400000000000000000e+01 5.500000000000000000e+01 5.600000000000000000e+01 5.700000000000000000e+01 5.800000000000000000e+01 5.900000000000000000e+01 6.000000000000000000e+01 6.100000000000000000e+01 6.200000000000000000e+01 6.300000000000000000e+01 6.400000000000000000e+01 6.500000000000000000e+01 6.600000000000000000e+01 6.700000000000000000e+01 6.800000000000000000e+01 6.900000000000000000e+01 7.000000000000000000e+01 7.100000000000000000e+01 7.200000000000000000e+01 7.300000000000000000e+01 7.400000000000000000e+01 7.500000000000000000e+01 7.600000000000000000e+01 7.700000000000000000e+01 7.800000000000000000e+01 7.900000000000000000e+01 8.000000000000000000e+01 8.100000000000000000e+01 8.200000000000000000e+01 8.300000000000000000e+01 8.400000000000000000e+01 8.500000000000000000e+01 8.600000000000000000e+01 8.700000000000000000e+01 8.800000000000000000e+01 8.900000000000000000e+01 9.000000000000000000e+01 9.100000000000000000e+01 9.200000000000000000e+01 9.300000000000000000e+01 9.400000000000000000e+01 9.500000000000000000e+01 9.600000000000000000e+01 9.700000000000000000e+01 9.800000000000000000e+01 9.900000000000000000e+01 1.000000000000000000e+02 1.010000000000000000e+02 1.020000000000000000e+02 1.030000000000000000e+02 1.040000000000000000e+02 1.050000000000000000e+02 1.060000000000000000e+02 1.070000000000000000e+02 1.080000000000000000e+02 1.090000000000000000e+02 1.100000000000000000e+02 1.110000000000000000e+02 1.120000000000000000e+02 1.130000000000000000e+02 1.140000000000000000e+02 1.150000000000000000e+02 1.160000000000000000e+02 1.170000000000000000e+02 1.180000000000000000e+02 1.190000000000000000e+02 1.200000000000000000e+02 1.210000000000000000e+02 1.220000000000000000e+02 1.230000000000000000e+02 1.240000000000000000e+02 1.250000000000000000e+02 1.260000000000000000e+02 1.270000000000000000e+02 1.280000000000000000e+02 1.290000000000000000e+02 1.300000000000000000e+02 1.310000000000000000e+02 1.320000000000000000e+02 1.330000000000000000e+02 1.340000000000000000e+02 1.350000000000000000e+02 1.360000000000000000e+02 1.370000000000000000e+02 1.380000000000000000e+02 1.390000000000000000e+02 1.400000000000000000e+02 1.410000000000000000e+02 1.420000000000000000e+02 1.430000000000000000e+02 1.440000000000000000e+02 1.450000000000000000e+02 1.460000000000000000e+02 1.470000000000000000e+02 1.480000000000000000e+02 1.490000000000000000e+02 1.500000000000000000e+02 1.510000000000000000e+02 1.520000000000000000e+02 1.530000000000000000e+02 1.540000000000000000e+02 1.550000000000000000e+02 1.560000000000000000e+02 1.570000000000000000e+02 1.580000000000000000e+02 1.590000000000000000e+02 1.600000000000000000e+02 1.610000000000000000e+02 1.620000000000000000e+02 1.630000000000000000e+02 1.640000000000000000e+02 1.650000000000000000e+02 1.660000000000000000e+02 1.670000000000000000e+02 1.680000000000000000e+02 1.690000000000000000e+02 1.700000000000000000e+02 1.710000000000000000e+02 1.720000000000000000e+02 1.730000000000000000e+02 1.740000000000000000e+02 1.750000000000000000e+02 1.760000000000000000e+02 1.770000000000000000e+02 1.780000000000000000e+02 1.790000000000000000e+02 1.800000000000000000e+02 1.810000000000000000e+02 1.820000000000000000e+02 1.830000000000000000e+02 1.840000000000000000e+02 1.850000000000000000e+02 1.860000000000000000e+02 1.870000000000000000e+02 1.880000000000000000e+02 1.890000000000000000e+02 1.900000000000000000e+02 1.910000000000000000e+02 1.920000000000000000e+02 1.930000000000000000e+02 1.940000000000000000e+02 1.950000000000000000e+02 1.960000000000000000e+02 1.970000000000000000e+02 1.980000000000000000e+02 1.990000000000000000e+02 2.000000000000000000e+02 2.010000000000000000e+02 2.020000000000000000e+02 2.030000000000000000e+02 2.040000000000000000e+02 2.050000000000000000e+02 2.060000000000000000e+02 2.070000000000000000e+02 2.080000000000000000e+02 2.090000000000000000e+02 2.100000000000000000e+02 2.110000000000000000e+02 2.120000000000000000e+02 2.130000000000000000e+02 2.140000000000000000e+02 2.150000000000000000e+02 2.160000000000000000e+02 2.170000000000000000e+02 2.180000000000000000e+02 2.190000000000000000e+02 2.200000000000000000e+02 2.210000000000000000e+02 2.220000000000000000e+02 2.230000000000000000e+02 2.240000000000000000e+02 2.250000000000000000e+02 2.260000000000000000e+02 2.270000000000000000e+02 2.280000000000000000e+02 2.290000000000000000e+02 2.300000000000000000e+02 2.310000000000000000e+02 2.320000000000000000e+02 2.330000000000000000e+02 2.340000000000000000e+02 2.350000000000000000e+02 2.360000000000000000e+02 2.370000000000000000e+02 2.380000000000000000e+02 2.390000000000000000e+02 2.400000000000000000e+02 2.410000000000000000e+02 2.420000000000000000e+02 2.430000000000000000e+02 2.440000000000000000e+02 2.450000000000000000e+02 2.460000000000000000e+02 2.470000000000000000e+02 2.480000000000000000e+02 2.490000000000000000e+02 2.500000000000000000e+02 2.510000000000000000e+02 2.520000000000000000e+02 2.530000000000000000e+02 2.540000000000000000e+02 2.550000000000000000e+02 2.560000000000000000e+02 2.570000000000000000e+02 2.580000000000000000e+02 2.590000000000000000e+02 2.600000000000000000e+02 2.610000000000000000e+02 2.620000000000000000e+02 2.630000000000000000e+02 2.640000000000000000e+02 2.650000000000000000e+02 2.660000000000000000e+02 2.670000000000000000e+02 2.680000000000000000e+02 2.690000000000000000e+02 2.700000000000000000e+02 2.710000000000000000e+02 2.720000000000000000e+02 2.730000000000000000e+02 2.740000000000000000e+02 2.750000000000000000e+02 2.760000000000000000e+02 2.770000000000000000e+02 2.780000000000000000e+02 2.790000000000000000e+02 2.800000000000000000e+02 2.810000000000000000e+02 2.820000000000000000e+02 2.830000000000000000e+02 2.840000000000000000e+02 2.850000000000000000e+02 2.860000000000000000e+02 2.870000000000000000e+02 2.880000000000000000e+02 2.890000000000000000e+02 2.900000000000000000e+02 2.910000000000000000e+02 2.920000000000000000e+02 2.930000000000000000e+02 2.940000000000000000e+02 2.950000000000000000e+02 2.960000000000000000e+02 2.970000000000000000e+02 2.980000000000000000e+02 2.990000000000000000e+02 3.000000000000000000e+02 3.010000000000000000e+02 3.020000000000000000e+02 3.030000000000000000e+02 3.040000000000000000e+02 3.050000000000000000e+02 3.060000000000000000e+02 3.070000000000000000e+02 3.080000000000000000e+02 3.090000000000000000e+02 3.100000000000000000e+02 3.110000000000000000e+02 3.120000000000000000e+02 3.130000000000000000e+02 3.140000000000000000e+02 3.150000000000000000e+02 3.160000000000000000e+02 3.170000000000000000e+02 3.180000000000000000e+02 3.190000000000000000e+02 3.200000000000000000e+02 3.210000000000000000e+02 3.220000000000000000e+02 3.230000000000000000e+02 3.240000000000000000e+02 3.250000000000000000e+02 3.260000000000000000e+02 3.270000000000000000e+02 3.280000000000000000e+02 3.290000000000000000e+02 3.300000000000000000e+02 3.310000000000000000e+02 3.320000000000000000e+02 3.330000000000000000e+02 3.340000000000000000e+02 3.350000000000000000e+02 3.360000000000000000e+02 3.370000000000000000e+02 3.380000000000000000e+02 3.390000000000000000e+02 3.400000000000000000e+02 3.410000000000000000e+02 3.420000000000000000e+02 3.430000000000000000e+02 3.440000000000000000e+02 3.450000000000000000e+02 3.460000000000000000e+02 3.470000000000000000e+02 3.480000000000000000e+02 3.490000000000000000e+02 3.500000000000000000e+02 3.510000000000000000e+02 3.520000000000000000e+02 3.530000000000000000e+02 3.540000000000000000e+02 3.550000000000000000e+02 3.560000000000000000e+02 3.570000000000000000e+02 3.580000000000000000e+02 3.590000000000000000e+02 3.600000000000000000e+02 3.610000000000000000e+02 3.620000000000000000e+02 3.630000000000000000e+02 3.640000000000000000e+02 3.650000000000000000e+02 3.660000000000000000e+02 3.670000000000000000e+02 3.680000000000000000e+02 3.690000000000000000e+02 3.700000000000000000e+02 3.710000000000000000e+02 3.720000000000000000e+02 3.730000000000000000e+02 3.740000000000000000e+02 3.750000000000000000e+02 3.760000000000000000e+02 3.770000000000000000e+02 3.780000000000000000e+02 3.790000000000000000e+02 3.800000000000000000e+02 3.810000000000000000e+02 3.820000000000000000e+02 3.830000000000000000e+02 3.840000000000000000e+02 3.850000000000000000e+02 3.860000000000000000e+02 3.870000000000000000e+02 3.880000000000000000e+02 3.890000000000000000e+02 3.900000000000000000e+02 3.910000000000000000e+02 3.920000000000000000e+02 3.930000000000000000e+02 3.940000000000000000e+02 3.950000000000000000e+02 3.960000000000000000e+02 3.970000000000000000e+02 3.980000000000000000e+02 3.990000000000000000e+02 4.000000000000000000e+02 4.010000000000000000e+02 4.020000000000000000e+02 4.030000000000000000e+02 4.040000000000000000e+02 4.050000000000000000e+02 4.060000000000000000e+02 4.070000000000000000e+02 4.080000000000000000e+02 4.090000000000000000e+02 4.100000000000000000e+02 4.110000000000000000e+02 4.120000000000000000e+02 4.130000000000000000e+02 4.140000000000000000e+02 4.150000000000000000e+02 4.160000000000000000e+02 4.170000000000000000e+02 4.180000000000000000e+02 4.190000000000000000e+02 4.200000000000000000e+02 4.210000000000000000e+02 4.220000000000000000e+02 4.230000000000000000e+02 4.240000000000000000e+02 4.250000000000000000e+02 4.260000000000000000e+02 4.270000000000000000e+02 4.280000000000000000e+02 4.290000000000000000e+02 4.300000000000000000e+02 4.310000000000000000e+02 4.320000000000000000e+02 4.330000000000000000e+02 4.340000000000000000e+02 4.350000000000000000e+02 4.360000000000000000e+02 4.370000000000000000e+02 4.380000000000000000e+02 4.390000000000000000e+02 4.400000000000000000e+02 4.410000000000000000e+02 4.420000000000000000e+02 4.430000000000000000e+02 4.440000000000000000e+02 4.450000000000000000e+02 4.460000000000000000e+02 4.470000000000000000e+02 4.480000000000000000e+02 4.490000000000000000e+02 4.500000000000000000e+02 4.510000000000000000e+02 4.520000000000000000e+02 4.530000000000000000e+02 4.540000000000000000e+02 4.550000000000000000e+02 4.560000000000000000e+02 4.570000000000000000e+02 4.580000000000000000e+02 4.590000000000000000e+02 4.600000000000000000e+02 4.610000000000000000e+02 4.620000000000000000e+02 4.630000000000000000e+02 4.640000000000000000e+02 4.650000000000000000e+02 4.660000000000000000e+02 4.670000000000000000e+02 4.680000000000000000e+02 4.690000000000000000e+02 4.700000000000000000e+02 4.710000000000000000e+02 4.720000000000000000e+02 4.730000000000000000e+02 4.740000000000000000e+02 4.750000000000000000e+02 4.760000000000000000e+02 4.770000000000000000e+02 4.780000000000000000e+02 4.790000000000000000e+02 4.800000000000000000e+02 4.810000000000000000e+02 4.820000000000000000e+02 4.830000000000000000e+02 4.840000000000000000e+02 4.850000000000000000e+02 4.860000000000000000e+02 4.870000000000000000e+02 4.880000000000000000e+02 4.890000000000000000e+02 4.900000000000000000e+02 4.910000000000000000e+02 4.920000000000000000e+02 4.930000000000000000e+02 4.940000000000000000e+02 4.950000000000000000e+02 4.960000000000000000e+02 4.970000000000000000e+02 4.980000000000000000e+02 4.990000000000000000e+02 5.000000000000000000e+02 5.010000000000000000e+02 5.020000000000000000e+02 5.030000000000000000e+02 5.040000000000000000e+02 5.050000000000000000e+02 5.060000000000000000e+02 5.070000000000000000e+02 5.080000000000000000e+02 5.090000000000000000e+02 5.100000000000000000e+02 5.110000000000000000e+02 5.120000000000000000e+02 5.130000000000000000e+02 5.140000000000000000e+02 5.150000000000000000e+02 5.160000000000000000e+02 5.170000000000000000e+02 5.180000000000000000e+02 5.190000000000000000e+02 5.200000000000000000e+02 5.210000000000000000e+02 5.220000000000000000e+02 5.230000000000000000e+02 5.240000000000000000e+02 5.250000000000000000e+02 5.260000000000000000e+02 5.270000000000000000e+02 5.280000000000000000e+02 5.290000000000000000e+02 5.300000000000000000e+02 5.310000000000000000e+02 5.320000000000000000e+02 5.330000000000000000e+02 5.340000000000000000e+02 5.350000000000000000e+02 5.360000000000000000e+02 5.370000000000000000e+02 5.380000000000000000e+02 5.390000000000000000e+02 5.400000000000000000e+02 5.410000000000000000e+02 5.420000000000000000e+02 5.430000000000000000e+02 5.440000000000000000e+02 5.450000000000000000e+02 5.460000000000000000e+02 5.470000000000000000e+02 5.480000000000000000e+02 5.490000000000000000e+02 5.500000000000000000e+02 5.510000000000000000e+02 5.520000000000000000e+02 5.530000000000000000e+02 5.540000000000000000e+02 5.550000000000000000e+02 5.560000000000000000e+02 5.570000000000000000e+02 5.580000000000000000e+02 5.590000000000000000e+02 5.600000000000000000e+02 5.610000000000000000e+02 5.620000000000000000e+02 5.630000000000000000e+02 5.640000000000000000e+02 5.650000000000000000e+02 5.660000000000000000e+02 5.670000000000000000e+02 5.680000000000000000e+02 5.690000000000000000e+02 5.700000000000000000e+02 5.710000000000000000e+02 5.720000000000000000e+02 5.730000000000000000e+02 5.740000000000000000e+02 5.750000000000000000e+02 5.760000000000000000e+02 5.770000000000000000e+02 5.780000000000000000e+02 5.790000000000000000e+02 5.800000000000000000e+02 5.810000000000000000e+02 5.820000000000000000e+02 5.830000000000000000e+02 5.840000000000000000e+02 5.850000000000000000e+02 5.860000000000000000e+02 5.870000000000000000e+02 5.880000000000000000e+02 5.890000000000000000e+02 5.900000000000000000e+02 5.910000000000000000e+02 5.920000000000000000e+02 5.930000000000000000e+02 5.940000000000000000e+02 5.950000000000000000e+02 5.960000000000000000e+02 5.970000000000000000e+02 5.980000000000000000e+02 5.990000000000000000e+02 6.000000000000000000e+02 6.010000000000000000e+02 6.020000000000000000e+02 6.030000000000000000e+02 6.040000000000000000e+02 6.050000000000000000e+02 6.060000000000000000e+02 6.070000000000000000e+02 6.080000000000000000e+02 6.090000000000000000e+02 6.100000000000000000e+02 6.110000000000000000e+02 6.120000000000000000e+02 6.130000000000000000e+02 6.140000000000000000e+02 6.150000000000000000e+02 6.160000000000000000e+02 6.170000000000000000e+02 6.180000000000000000e+02 6.190000000000000000e+02 6.200000000000000000e+02 6.210000000000000000e+02 6.220000000000000000e+02 6.230000000000000000e+02 6.240000000000000000e+02 6.250000000000000000e+02 6.260000000000000000e+02 6.270000000000000000e+02 6.280000000000000000e+02 6.290000000000000000e+02 6.300000000000000000e+02 6.310000000000000000e+02 6.320000000000000000e+02 6.330000000000000000e+02 6.340000000000000000e+02 6.350000000000000000e+02 6.360000000000000000e+02 6.370000000000000000e+02 6.380000000000000000e+02 6.390000000000000000e+02 6.400000000000000000e+02 6.410000000000000000e+02 6.420000000000000000e+02 6.430000000000000000e+02 6.440000000000000000e+02 6.450000000000000000e+02 6.460000000000000000e+02 6.470000000000000000e+02 6.480000000000000000e+02 6.490000000000000000e+02 6.500000000000000000e+02 6.510000000000000000e+02 6.520000000000000000e+02 6.530000000000000000e+02 6.540000000000000000e+02 6.550000000000000000e+02 6.560000000000000000e+02 6.570000000000000000e+02 6.580000000000000000e+02 6.590000000000000000e+02 6.600000000000000000e+02 6.610000000000000000e+02 6.620000000000000000e+02 6.630000000000000000e+02 6.640000000000000000e+02 6.650000000000000000e+02 6.660000000000000000e+02 6.670000000000000000e+02 6.680000000000000000e+02 6.690000000000000000e+02 6.700000000000000000e+02 6.710000000000000000e+02 6.720000000000000000e+02 6.730000000000000000e+02 6.740000000000000000e+02 6.750000000000000000e+02 6.760000000000000000e+02 6.770000000000000000e+02 6.780000000000000000e+02 6.790000000000000000e+02 6.800000000000000000e+02 6.810000000000000000e+02 6.820000000000000000e+02 6.830000000000000000e+02 6.840000000000000000e+02 6.850000000000000000e+02 6.860000000000000000e+02 6.870000000000000000e+02 6.880000000000000000e+02 6.890000000000000000e+02 6.900000000000000000e+02 6.910000000000000000e+02 6.920000000000000000e+02 6.930000000000000000e+02 6.940000000000000000e+02 6.950000000000000000e+02 6.960000000000000000e+02 6.970000000000000000e+02 6.980000000000000000e+02 6.990000000000000000e+02 7.000000000000000000e+02 7.010000000000000000e+02 7.020000000000000000e+02 7.030000000000000000e+02 7.040000000000000000e+02 7.050000000000000000e+02 7.060000000000000000e+02 7.070000000000000000e+02 7.080000000000000000e+02 7.090000000000000000e+02 7.100000000000000000e+02 7.110000000000000000e+02 7.120000000000000000e+02 7.130000000000000000e+02 7.140000000000000000e+02 7.150000000000000000e+02 7.160000000000000000e+02 7.170000000000000000e+02 7.180000000000000000e+02 7.190000000000000000e+02 7.200000000000000000e+02 7.210000000000000000e+02 7.220000000000000000e+02 7.230000000000000000e+02 7.240000000000000000e+02 7.250000000000000000e+02 7.260000000000000000e+02 7.270000000000000000e+02 7.280000000000000000e+02 7.290000000000000000e+02 7.300000000000000000e+02 7.310000000000000000e+02 7.320000000000000000e+02 7.330000000000000000e+02 7.340000000000000000e+02 7.350000000000000000e+02 7.360000000000000000e+02 7.370000000000000000e+02 7.380000000000000000e+02 7.390000000000000000e+02 7.400000000000000000e+02 7.410000000000000000e+02 7.420000000000000000e+02 7.430000000000000000e+02 7.440000000000000000e+02 7.450000000000000000e+02 7.460000000000000000e+02 7.470000000000000000e+02 7.480000000000000000e+02 7.490000000000000000e+02 7.500000000000000000e+02 7.510000000000000000e+02 7.520000000000000000e+02 7.530000000000000000e+02 7.540000000000000000e+02 7.550000000000000000e+02 7.560000000000000000e+02 7.570000000000000000e+02 7.580000000000000000e+02 7.590000000000000000e+02 7.600000000000000000e+02 7.610000000000000000e+02 7.620000000000000000e+02 7.630000000000000000e+02 7.640000000000000000e+02 7.650000000000000000e+02 7.660000000000000000e+02 7.670000000000000000e+02 7.680000000000000000e+02 7.690000000000000000e+02 7.700000000000000000e+02 7.710000000000000000e+02 7.720000000000000000e+02 7.730000000000000000e+02 7.740000000000000000e+02 7.750000000000000000e+02 7.760000000000000000e+02 7.770000000000000000e+02 7.780000000000000000e+02 7.790000000000000000e+02 7.800000000000000000e+02 7.810000000000000000e+02 7.820000000000000000e+02 7.830000000000000000e+02 7.840000000000000000e+02 7.850000000000000000e+02 7.860000000000000000e+02 7.870000000000000000e+02 7.880000000000000000e+02 7.890000000000000000e+02 7.900000000000000000e+02 7.910000000000000000e+02 7.920000000000000000e+02 7.930000000000000000e+02 7.940000000000000000e+02 7.950000000000000000e+02 7.960000000000000000e+02 7.970000000000000000e+02 7.980000000000000000e+02 7.990000000000000000e+02 8.000000000000000000e+02 8.010000000000000000e+02 8.020000000000000000e+02 8.030000000000000000e+02 8.040000000000000000e+02 8.050000000000000000e+02 8.060000000000000000e+02 8.070000000000000000e+02 8.080000000000000000e+02 8.090000000000000000e+02 8.100000000000000000e+02 8.110000000000000000e+02 8.120000000000000000e+02 8.130000000000000000e+02 8.140000000000000000e+02 8.150000000000000000e+02 8.160000000000000000e+02 8.170000000000000000e+02 8.180000000000000000e+02 8.190000000000000000e+02 8.200000000000000000e+02 8.210000000000000000e+02 8.220000000000000000e+02 8.230000000000000000e+02 8.240000000000000000e+02 8.250000000000000000e+02 8.260000000000000000e+02 8.270000000000000000e+02 8.280000000000000000e+02 8.290000000000000000e+02 8.300000000000000000e+02 8.310000000000000000e+02 8.320000000000000000e+02 8.330000000000000000e+02 8.340000000000000000e+02 8.350000000000000000e+02 8.360000000000000000e+02 8.370000000000000000e+02 8.380000000000000000e+02 8.390000000000000000e+02 8.400000000000000000e+02 8.410000000000000000e+02 8.420000000000000000e+02 8.430000000000000000e+02 8.440000000000000000e+02 8.450000000000000000e+02 8.460000000000000000e+02 8.470000000000000000e+02 8.480000000000000000e+02 8.490000000000000000e+02 8.500000000000000000e+02 8.510000000000000000e+02 8.520000000000000000e+02 8.530000000000000000e+02 8.540000000000000000e+02 8.550000000000000000e+02 8.560000000000000000e+02 8.570000000000000000e+02 8.580000000000000000e+02 8.590000000000000000e+02 8.600000000000000000e+02 8.610000000000000000e+02 8.620000000000000000e+02 8.630000000000000000e+02 8.640000000000000000e+02 8.650000000000000000e+02 8.660000000000000000e+02 8.670000000000000000e+02 8.680000000000000000e+02 8.690000000000000000e+02 8.700000000000000000e+02 8.710000000000000000e+02 8.720000000000000000e+02 8.730000000000000000e+02 8.740000000000000000e+02 8.750000000000000000e+02 8.760000000000000000e+02 8.770000000000000000e+02 8.780000000000000000e+02 8.790000000000000000e+02 8.800000000000000000e+02 8.810000000000000000e+02 8.820000000000000000e+02 8.830000000000000000e+02 8.840000000000000000e+02 8.850000000000000000e+02 8.860000000000000000e+02 8.870000000000000000e+02 8.880000000000000000e+02 8.890000000000000000e+02 8.900000000000000000e+02 8.910000000000000000e+02 8.920000000000000000e+02 8.930000000000000000e+02 8.940000000000000000e+02 8.950000000000000000e+02 8.960000000000000000e+02 8.970000000000000000e+02 8.980000000000000000e+02 8.990000000000000000e+02 9.000000000000000000e+02 9.010000000000000000e+02 9.020000000000000000e+02 9.030000000000000000e+02 9.040000000000000000e+02 9.050000000000000000e+02 9.060000000000000000e+02 9.070000000000000000e+02 9.080000000000000000e+02 9.090000000000000000e+02 9.100000000000000000e+02 9.110000000000000000e+02 9.120000000000000000e+02 9.130000000000000000e+02 9.140000000000000000e+02 9.150000000000000000e+02 9.160000000000000000e+02 9.170000000000000000e+02 9.180000000000000000e+02 9.190000000000000000e+02 9.200000000000000000e+02 9.210000000000000000e+02 9.220000000000000000e+02 9.230000000000000000e+02 9.240000000000000000e+02 9.250000000000000000e+02 9.260000000000000000e+02 9.270000000000000000e+02 9.280000000000000000e+02 9.290000000000000000e+02 9.300000000000000000e+02 9.310000000000000000e+02 9.320000000000000000e+02 9.330000000000000000e+02 9.340000000000000000e+02 9.350000000000000000e+02 9.360000000000000000e+02 9.370000000000000000e+02 9.380000000000000000e+02 9.390000000000000000e+02 9.400000000000000000e+02 9.410000000000000000e+02 9.420000000000000000e+02 9.430000000000000000e+02 9.440000000000000000e+02 9.450000000000000000e+02 9.460000000000000000e+02 9.470000000000000000e+02 9.480000000000000000e+02 9.490000000000000000e+02 9.500000000000000000e+02 9.510000000000000000e+02 9.520000000000000000e+02 9.530000000000000000e+02 9.540000000000000000e+02 9.550000000000000000e+02 9.560000000000000000e+02 9.570000000000000000e+02 9.580000000000000000e+02 9.590000000000000000e+02 9.600000000000000000e+02 9.610000000000000000e+02 9.620000000000000000e+02 9.630000000000000000e+02 9.640000000000000000e+02 9.650000000000000000e+02 9.660000000000000000e+02 9.670000000000000000e+02 9.680000000000000000e+02 9.690000000000000000e+02 9.700000000000000000e+02 9.710000000000000000e+02 9.720000000000000000e+02 9.730000000000000000e+02 9.740000000000000000e+02 9.750000000000000000e+02 9.760000000000000000e+02 9.770000000000000000e+02 9.780000000000000000e+02 9.790000000000000000e+02 9.800000000000000000e+02 9.810000000000000000e+02 9.820000000000000000e+02 9.830000000000000000e+02 9.840000000000000000e+02 9.850000000000000000e+02 9.860000000000000000e+02 9.870000000000000000e+02 9.880000000000000000e+02 9.890000000000000000e+02 9.900000000000000000e+02 9.910000000000000000e+02 9.920000000000000000e+02 9.930000000000000000e+02 9.940000000000000000e+02 9.950000000000000000e+02 9.960000000000000000e+02 9.970000000000000000e+02 9.980000000000000000e+02 9.990000000000000000e+02 1.000000000000000000e+03
1.000000000000000021e-02 1.000000000000000021e-02 1.000000000000000021e-02 1.000000000000000021e-02 1.000000000000000021e-02 1.000000000000000021e-02 1.000000000000000021e-02 1.000000000000000021e-02 1.000000000000000021e-02 1.000000000000000021e-02 1.000000000000000021e-02 1.000000000000000021e-02 1.000000000000000021e-02 1.000000000000000021e-02 1.000000000000000021e-02 1.000000000000000021e-02 1.000000000000000021e-02 1.000000000000000021e-02 1.000000000000000021e-02 1.000000000000000021e-02 1.000000000000000021e-02 1.000000000000000021e-02 1.000000000000000021e-02 1.000000000000000021e-02 1.000000000000000021e-02 1.000000000000000021e-02 1.000000000000000021e-02 1.000000000000000021e-02 1.000000000000000021e-02 1.000000000000000021e-02 1.000000000000000021e-02 1.000000000000000021e-02 1.000000000000000021e-02 1.000000000000000021e-02 1.000000000000000021e-02 1.000000000000000021e-02 1.000000000000000021e-02 1.000000000000000021e-02 1.000000000000000021e-02 1.000000000000000021e-02 1.000000000000000021e-02 1.000000000000000021e-02 1.000000000000000021e-02 1.000000000000000021e-02 1.000000000000000021e-02 1.000000000000000021e-02 1.000000000000000021e-02 1.000000000000000021e-02 1.000000000000000021e-02 1.000000000000000021e-02 1.000000000000000021e-02 1.000000000000000021e-02 1.000000000000000021e-02 1.000000000000000021e-02 1.000000000000000021e-02 1.000000000000000021e-02 1.000000000000000021e-02 1.000000000000000021e-02 1.000000000000000021e-02 1.000000000000000021e-02 1.000000000000000021e-02 1.000000000000000021e-02 1.000000000000000021e-02 1.000000000000000021e-02 1.000000000000000021e-02 1.000000000000000021e-02 1.000000000000000021e-02 1.000000000000000021e-02 1.000000000000000021e-02 1.000000000000000021e-02 1.000000000000000021e-02 1.000000000000000021e-02 1.000000000000000021e-02 1.000000000000000021e-02 1.000000000000000021e-02 1.000000000000000021e-02 1.000000000000000021e-02 1.000000000000000021e-02 1.000000000000000021e-02 1.000000000000000021e-02 1.000000000000000021e-02 1.000000000000000021e-02 1.000000000000000021e-02 1.000000000000000021e-02 1.000000000000000021e-02 1.000000000000000021e-02 1.000000000000000021e-02 1.000000000000000021e-02 1.000000000000000021e-02 1.000000000000000021e-02 1.000000000000000021e-02 1.000000000000000021e-02 1.000000000000000021e-02 1.000000000000000021e-02 1.000000000000000021e-02 1.000000000000000021e-02 1.000000000000000021e-02 1.000000000000000021e-02 1.000000000000000021e-02 1.000000000000000021e-02 1.000000000000000021e-02 1.000000000000000021e-02 1.000000000000000021e-02 1.000000000000000021e-02 1.000000000000000021e-02 1.000000000000000021e-02 1.000000000000000021e-02 1.000000000000000021e-02 1.000000000000000021e-02 1.000000000000000021e-02 1.000000000000000021e-02 1.000000000000000021e-02 1.000000000000000021e-02 1.000000000000000021e-02 1.000000000000000021e-02 1.000000000000000021e-02 1.000000000000000021e-02 1.000000000000000021e-02 1.000000000000000021e-02 1.000000000000000021e-02 1.000000000000000021e-02 1.000000000000000021e-02 1.000000000000000021e-02 1.000000000000000021e-02 1.000000000000000021e-02 1.000000000000000021e-02 1.000000000000000021e-02 1.000000000000000021e-02 1.000000000000000021e-02 1.000000000000000021e-02 1.000000000000000021e-02 1.000000000000000021e-02 1.000000000000000021e-02 1.000000000000000021e-02 1.000000000000000021e-02 1.000000000000000021e-02 1.000000000000000021e-02 1.000000000000000021e-02 1.000000000000000021e-02 1.000000000000000021e-02 1.000000000000000021e-02 1.000000000000000021e-02 1.000000000000000021e-02 1.000000000000000021e-02 1.000000000000000021e-02 1.000000000000000021e-02 1.000000000000000021e-02 1.000000000000000021e-02 1.000000000000000021e-02 1.000000000000000021e-02 1.000000000000000021e-02 1.000000000000000021e-02 1.000000000000000021e-02 1.000000000000000021e-02 1.000000000000000021e-02 1.000000000000000021e-02 1.000000000000000021e-02 1.000000000000000021e-02 1.000000000000000021e-02 1.000000000000000021e-02 1.000000000000000021e-02 1.000000000000000021e-02 1.000000000000000021e-02 1.000000000000000021e-02 1.000000000000000021e-02 1.000000000000000021e-02 1.000000000000000021e-02 1.000000000000000021e-02 1.000000000000000021e-02 1.000000000000000021e-02 1.000000000000000021e-02 1.000000000000000021e-02 1.000000000000000021e-02 1.000000000000000021e-02 1.000000000000000021e-02 1.000000000000000021e-02 1.000000000000000021e-02 1.000000000000000021e-02 1.000000000000000021e-02 1.000000000000000021e-02 1.000000000000000021e-02 1.000000000000000021e-02 1.000000000000000021e-02 1.000000000000000021e-02 1.000000000000000021e-02 1.000000000000000021e-02 1.000000000000000021e-02 1.000000000000000021e-02 1.000000000000000021e-02 1.000000000000000021e-02 1.000000000000000021e-02 1.000000000000000021e-02 1.000000000000000021e-02 1.000000000000000021e-02 1.000000000000000021e-02 1.000000000000000021e-02 1.000000000000000021e-02 1.000000000000000021e-02 1.000000000000000021e-02 1.000000000000000021e-02 1.000000000000000021e-02 1.000000000000000021e-02 1.000000000000000021e-02 1.000000000000000021e-02 1.000000000000000021e-02 1.000000000000000021e-02 1.000000000000000021e-02 1.000000000000000021e-02 1.000000000000000021e-02 1.000000000000000021e-02 1.000000000000000021e-02 1.000000000000000021e-02 1.000000000000000021e-02 1.000000000000000021e-02 1.000000000000000021e-02 1.000000000000000021e-02 1.000000000000000021e-02 1.000000000000000021e-02 1.000000000000000021e-02 1.000000000000000021e-02 1.000000000000000021e-02 1.000000000000000021e-02 1.000000000000000021e-02 1.000000000000000021e-02 1.000000000000000021e-02 1.000000000000000021e-02 1.000000000000000021e-02 1.000000000000000021e-02 1.000000000000000021e-02 1.000000000000000021e-02 1.000000000000000021e-02 1.000000000000000021e-02 1.000000000000000021e-02 1.000000000000000021e-02 1.000000000000000021e-02 1.000000000000000021e-02 1.000000000000000021e-02 1.000000000000000021e-02 1.000000000000000021e-02 1.000000000000000021e-02 1.000000000000000021e-02 1.000000000000000021e-02 1.000000000000000021e-02 1.000000000000000021e-02 1.000000000000000021e-02 1.000000000000000021e-02 1.000000000000000021e-02 1.000000000000000021e-02 1.000000000000000021e-02 1.000000000000000021e-02 1.000000000000000021e-02 1.000000000000000021e-02 1.000000000000000021e-02 1.000000000000000021e-02 1.000000000000000021e-02 1.000000000000000021e-02 1.000000000000000021e-02 1.000000000000000021e-02 1.000000000000000021e-02 1.000000000000000021e-02 1.000000000000000021e-02 1.000000000000000021e-02 1.000000000000000021e-02 1.000000000000000021e-02 1.000000000000000021e-02 1.000000000000000021e-02 1.000000000000000021e-02 1.000000000000000021e-02 1.000000000000000021e-02 1.000000000000000021e-02 1.000000000000000021e-02 1.000000000000000021e-02 1.000000000000000021e-02 1.000000000000000021e-02 1.000000000000000021e-02 1.000000000000000021e-02 1.000000000000000021e-02 1.000000000000000021e-02 1.000000000000000021e-02 1.000000000000000021e-02 1.000000000000000021e-02 1.000000000000000021e-02 1.000000000000000021e-02 1.000000000000000021e-02 1.000000000000000021e-02 1.000000000000000021e-02 1.000000000000000021e-02 1.000000000000000021e-02 1.000000000000000021e-02 1.000000000000000021e-02 1.000000000000000021e-02 1.000000000000000021e-02 1.000000000000000021e-02 1.000000000000000021e-02 1.000000000000000021e-02 1.000000000000000021e-02 1.000000000000000021e-02 1.000000000000000021e-02 1.000000000000000021e-02 1.000000000000000021e-02 1.000000000000000021e-02 1.000000000000000021e-02 1.000000000000000021e-02 1.000000000000000021e-02 1.000000000000000021e-02 1.000000000000000021e-02 1.000000000000000021e-02 1.000000000000000021e-02 1.000000000000000021e-02 1.000000000000000021e-02 1.000000000000000021e-02 1.000000000000000021e-02 1.000000000000000021e-02 1.000000000000000021e-02 1.000000000000000021e-02 1.000000000000000021e-02 1.000000000000000021e-02 1.000000000000000021e-02 1.000000000000000021e-02 1.000000000000000021e-02 1.000000000000000021e-02 1.000000000000000021e-02 1.000000000000000021e-02 1.000000000000000021e-02 1.000000000000000021e-02 1.000000000000000021e-02 1.000000000000000021e-02 1.000000000000000021e-02 1.000000000000000021e-02 1.000000000000000021e-02 1.000000000000000021e-02 1.000000000000000021e-02 1.000000000000000021e-02 1.000000000000000021e-02 1.000000000000000021e-02 1.000000000000000021e-02 1.000000000000000021e-02 1.000000000000000021e-02 1.000000000000000021e-02 1.000000000000000021e-02 1.000000000000000021e-02 1.000000000000000021e-02 1.000000000000000021e-02 1.000000000000000021e-02 1.000000000000000021e-02 1.000000000000000021e-02 1.000000000000000021e-02 1.000000000000000021e-02 1.000000000000000021e-02 1.000000000000000021e-02 1.000000000000000021e-02 1.000000000000000021e-02 1.000000000000000021e-02 1.000000000000000021e-02 1.000000000000000021e-02 1.000000000000000021e-02 1.000000000000000021e-02 1.000000000000000021e-02 1.000000000000000021e-02 1.000000000000000021e-02 1.000000000000000021e-02 1.000000000000000021e-02 1.000000000000000021e-02 1.000000000000000021e-02 1.000000000000000021e-02 1.000000000000000021e-02 1.000000000000000021e-02 1.000000000000000021e-02 1.000000000000000021e-02 1.000000000000000021e-02 1.000000000000000021e-02 1.000000000000000021e-02 1.000000000000000021e-02 1.000000000000000021e-02 1.000000000000000021e-02 1.000000000000000021e-02 1.000000000000000021e-02 1.000000000000000021e-02 1.000000000000000021e-02 1.000000000000000021e-02 1.000000000000000021e-02 1.000000000000000021e-02 1.000000000000000021e-02 1.000000000000000021e-02 1.000000000000000021e-02 1.000000000000000021e-02 1.000000000000000021e-02 1.000000000000000021e-02 1.000000000000000021e-02 1.000000000000000021e-02 1.000000000000000021e-02 1.000000000000000021e-02 1.000000000000000021e-02 1.000000000000000021e-02 1.000000000000000021e-02 1.000000000000000021e-02 1.000000000000000021e-02 1.000000000000000021e-02 1.000000000000000021e-02 1.000000000000000021e-02 1.000000000000000021e-02 1.000000000000000021e-02 1.000000000000000021e-02 1.000000000000000021e-02 1.000000000000000021e-02 1.000000000000000021e-02 1.000000000000000021e-02 1.000000000000000021e-02 1.000000000000000021e-02 1.000000000000000021e-02 1.000000000000000021e-02 1.000000000000000021e-02 1.000000000000000021e-02 1.000000000000000021e-02 1.000000000000000021e-02 1.000000000000000021e-02 1.000000000000000021e-02 1.000000000000000021e-02 1.000000000000000021e-02 1.000000000000000021e-02 1.000000000000000021e-02 1.000000000000000021e-02 1.000000000000000021e-02 1.000000000000000021e-02 1.000000000000000021e-02 1.000000000000000021e-02 1.000000000000000021e-02 1.000000000000000021e-02 1.000000000000000021e-02 1.000000000000000021e-02 1.000000000000000021e-02 1.000000000000000021e-02 1.000000000000000021e-02 1.000000000000000021e-02 1.000000000000000021e-02 1.000000000000000021e-02 1.000000000000000021e-02 1.000000000000000021e-02 1.000000000000000021e-02 1.000000000000000021e-02 1.000000000000000021e-02 1.000000000000000021e-02 1.000000000000000021e-02 1.000000000000000021e-02 1.000000000000000021e-02 1.000000000000000021e-02 1.000000000000000021e-02 1.000000000000000021e-02 1.000000000000000021e-02 1.000000000000000021e-02 1.000000000000000021e-02 1.000000000000000021e-02 1.000000000000000021e-02 1.000000000000000021e-02 1.000000000000000021e-02 1.000000000000000021e-02 1.000000000000000021e-02 1.000000000000000021e-02 1.000000000000000021e-02 1.000000000000000021e-02 1.000000000000000021e-02 1.000000000000000021e-02 1.000000000000000021e-02 1.000000000000000021e-02 1.000000000000000021e-02 1.000000000000000021e-02 1.000000000000000021e-02 1.000000000000000021e-02 1.000000000000000021e-02 1.000000000000000021e-02 1.000000000000000021e-02 1.000000000000000021e-02 1.000000000000000021e-02 1.000000000000000021e-02 1.000000000000000021e-02 1.000000000000000021e-02 1.000000000000000021e-02 1.000000000000000021e-02 1.000000000000000021e-02 1.000000000000000021e-02 1.000000000000000021e-02 1.000000000000000021e-02 1.000000000000000021e-02 1.000000000000000021e-02 1.000000000000000021e-02 1.000000000000000021e-02 1.000000000000000021e-02 1.000000000000000021e-02 1.000000000000000021e-02 1.000000000000000021e-02 1.000000000000000021e-02 1.000000000000000021e-02 1.000000000000000021e-02 1.000000000000000021e-02 1.000000000000000021e-02 1.000000000000000021e-02 1.000000000000000021e-02 1.000000000000000021e-02 1.000000000000000021e-02 1.000000000000000021e-02 1.000000000000000021e-02 1.000000000000000021e-02 1.000000000000000021e-02 1.000000000000000021e-02 1.000000000000000021e-02 1.000000000000000021e-02 1.000000000000000021e-02 1.000000000000000021e-02 1.000000000000000021e-02 1.000000000000000021e-02 1.000000000000000021e-02 1.000000000000000021e-02 1.000000000000000021e-02 1.000000000000000021e-02 1.000000000000000021e-02 1.000000000000000021e-02 1.000000000000000021e-02 1.000000000000000021e-02 1.000000000000000021e-02 1.000000000000000021e-02 1.000000000000000021e-02 1.000000000000000021e-02 1.000000000000000021e-02 1.000000000000000021e-02 1.000000000000000021e-02 1.000000000000000021e-02 1.000000000000000021e-02 1.000000000000000021e-02 1.000000000000000021e-02 1.000000000000000021e-02 1.000000000000000021e-02 1.000000000000000021e-02 1.000000000000000021e-02 1.000000000000000021e-02 1.000000000000000021e-02 1.000000000000000021e-02 1.000000000000000021e-02 1.000000000000000021e-02 1.000000000000000021e-02 1.000000000000000021e-02 1.000000000000000021e-02 1.000000000000000021e-02 1.000000000000000021e-02 1.000000000000000021e-02 1.000000000000000021e-02 1.000000000000000021e-02 1.000000000000000021e-02 1.000000000000000021e-02 1.000000000000000021e-02 1.000000000000000021e-02 1.000000000000000021e-02 1.000000000000000021e-02 1.000000000000000021e-02 1.000000000000000021e-02 1.000000000000000021e-02 1.000000000000000021e-02 1.000000000000000021e-02 1.000000000000000021e-02 1.000000000000000021e-02 1.000000000000000021e-02 1.000000000000000021e-02 1.000000000000000021e-02 1.000000000000000021e-02 1.000000000000000021e-02 1.000000000000000021e-02 1.000000000000000021e-02 1.000000000000000021e-02 1.000000000000000021e-02 1.000000000000000021e-02 1.000000000000000021e-02 1.000000000000000021e-02 1.000000000000000021e-02 1.000000000000000021e-02 1.000000000000000021e-02 1.000000000000000021e-02 1.000000000000000021e-02 1.000000000000000021e-02 1.000000000000000021e-02 1.000000000000000021e-02 1.000000000000000021e-02 1.000000000000000021e-02 1.000000000000000021e-02 1.000000000000000021e-02 1.000000000000000021e-02 1.000000000000000021e-02 1.000000000000000021e-02 1.000000000000000021e-02 1.000000000000000021e-02 1.000000000000000021e-02 1.000000000000000021e-02 1.000000000000000021e-02 1.000000000000000021e-02 1.000000000000000021e-02 1.000000000000000021e-02 1.000000000000000021e-02 1.000000000000000021e-02 1.000000000000000021e-02 1.000000000000000021e-02 1.000000000000000021e-02 1.000000000000000021e-02 1.000000000000000021e-02 1.000000000000000021e-02 1.000000000000000021e-02 1.000000000000000021e-02 1.000000000000000021e-02 1.000000000000000021e-02 1.000000000000000021e-02 1.000000000000000021e-02 1.000000000000000021e-02 1.000000000000000021e-02 1.000000000000000021e-02 1.000000000000000021e-02 1.000000000000000021e-02 1.000000000000000021e-02 1.000000000000000021e-02 1.000000000000000021e-02 1.000000000000000021e-02 1.000000000000000021e-02 1.000000000000000021e-02 1.000000000000000021e-02 1.000000000000000021e-02 1.000000000000000021e-02 1.000000000000000021e-02 1.000000000000000021e-02 1.000000000000000021e-02 1.000000000000000021e-02 1.000000000000000021e-02 1.000000000000000021e-02 1.000000000000000021e-02 1.000000000000000021e-02 1.000000000000000021e-02 1.000000000000000021e-02 1.000000000000000021e-02 1.000000000000000021e-02 1.000000000000000021e-02 1.000000000000000021e-02 1.000000000000000021e-02 1.000000000000000021e-02 1.000000000000000021e-02 1.000000000000000021e-02 1.000000000000000021e-02 1.000000000000000021e-02 1.000000000000000021e-02 1.000000000000000021e-02 1.000000000000000021e-02 1.000000000000000021e-02 1.000000000000000021e-02 1.000000000000000021e-02 1.000000000000000021e-02 1.000000000000000021e-02 1.000000000000000021e-02 1.000000000000000021e-02 1.000000000000000021e-02 1.000000000000000021e-02 1.000000000000000021e-02 1.000000000000000021e-02 1.000000000000000021e-02 1.000000000000000021e-02 1.000000000000000021e-02 1.000000000000000021e-02 1.000000000000000021e-02 1.000000000000000021e-02 1.000000000000000021e-02 1.000000000000000021e-02 1.000000000000000021e-02 1.000000000000000021e-02 1.000000000000000021e-02 1.000000000000000021e-02 1.000000000000000021e-02 1.000000000000000021e-02 1.000000000000000021e-02 1.000000000000000021e-02 1.000000000000000021e-02 1.000000000000000021e-02 1.000000000000000021e-02 1.000000000000000021e-02 1.000000000000000021e-02 1.000000000000000021e-02 1.000000000000000021e-02 1.000000000000000021e-02 1.000000000000000021e-02 1.000000000000000021e-02 1.000000000000000021e-02 1.000000000000000021e-02 1.000000000000000021e-02 1.000000000000000021e-02 1.000000000000000021e-02 1.000000000000000021e-02 1.000000000000000021e-02 1.000000000000000021e-02 1.000000000000000021e-02 1.000000000000000021e-02 1.000000000000000021e-02 1.000000000000000021e-02 1.000000000000000021e-02 1.000000000000000021e-02 1.000000000000000021e-02 1.000000000000000021e-02 1.000000000000000021e-02 1.000000000000000021e-02 1.000000000000000021e-02 1.000000000000000021e-02 1.000000000000000021e-02 1.000000000000000021e-02 1.000000000000000021e-02 1.000000000000000021e-02 1.000000000000000021e-02 1.000000000000000021e-02 1.000000000000000021e-02 1.000000000000000021e-02 1.000000000000000021e-02 1.000000000000000021e-02 1.000000000000000021e-02 1.000000000000000021e-02 1.000000000000000021e-02 1.000000000000000021e-02 1.000000000000000021e-02 1.000000000000000021e-02 1.000000000000000021e-02 1.000000000000000021e-02 1.000000000000000021e-02 1.000000000000000021e-02 1.000000000000000021e-02 1.000000000000000021e-02 1.000000000000000021e-02 1.000000000000000021e-02 1.000000000000000021e-02 1.000000000000000021e-02 1.000000000000000021e-02 1.000000000000000021e-02 1.000000000000000021e-02 1.000000000000000021e-02 1.000000000000000021e-02 1.000000000000000021e-02 1.000000000000000021e-02 1.000000000000000021e-02 1.000000000000000021e-02 1.000000000000000021e-02 1.000000000000000021e-02 1.000000000000000021e-02 1.000000000000000021e-02 1.000000000000000021e-02 1.000000000000000021e-02 1.000000000000000021e-02 1.000000000000000021e-02 1.000000000000000021e-02 1.000000000000000021e-02 1.000000000000000021e-02 1.000000000000000021e-02 1.000000000000000021e-02 1.000000000000000021e-02 1.000000000000000021e-02 1.000000000000000021e-02 1.000000000000000021e-02 1.000000000000000021e-02 1.000000000000000021e-02 1.000000000000000021e-02 1.000000000000000021e-02 1.000000000000000021e-02 1.000000000000000021e-02 1.000000000000000021e-02 1.000000000000000021e-02 1.000000000000000021e-02 1.000000000000000021e-02 1.000000000000000021e-02 1.000000000000000021e-02 1.000000000000000021e-02 1.000000000000000021e-02 1.000000000000000021e-02 1.000000000000000021e-02 1.000000000000000021e-02 1.000000000000000021e-02 1.000000000000000021e-02 1.000000000000000021e-02 1.000000000000000021e-02 1.000000000000000021e-02 1.000000000000000021e-02 1.000000000000000021e-02 1.000000000000000021e-02 1.000000000000000021e-02 1.000000000000000021e-02 1.000000000000000021e-02 1.000000000000000021e-02 1.000000000000000021e-02 1.000000000000000021e-02 1.000000000000000021e-02 1.000000000000000021e-02 1.000000000000000021e-02 1.000000000000000021e-02 1.000000000000000021e-02 1.000000000000000021e-02 1.000000000000000021e-02 1.000000000000000021e-02 1.000000000000000021e-02 1.000000000000000021e-02 1.000000000000000021e-02 1.000000000000000021e-02 1.000000000000000021e-02 1.000000000000000021e-02 1.000000000000000021e-02 1.000000000000000021e-02 1.000000000000000021e-02 1.000000000000000021e-02 1.000000000000000021e-02 1.000000000000000021e-02 1.000000000000000021e-02 1.000000000000000021e-02 1.000000000000000021e-02 1.000000000000000021e-02 1.000000000000000021e-02 1.000000000000000021e-02 1.000000000000000021e-02 1.000000000000000021e-02 1.000000000000000021e-02 1.000000000000000021e-02 1.000000000000000021e-02 1.000000000000000021e-02 1.000000000000000021e-02 1.000000000000000021e-02 1.000000000000000021e-02 1.000000000000000021e-02 1.000000000000000021e-02 1.000000000000000021e-02 1.000000000000000021e-02 1.000000000000000021e-02 1.000000000000000021e-02 1.000000000000000021e-02 1.000000000000000021e-02 1.000000000000000021e-02 1.000000000000000021e-02 1.000000000000000021e-02 1.000000000000000021e-02 1.000000000000000021e-02 1.000000000000000021e-02 1.000000000000000021e-02 1.000000000000000021e-02 1.000000000000000021e-02 1.000000000000000021e-02 1.000000000000000021e-02 1.000000000000000021e-02 1.000000000000000021e-02 1.000000000000000021e-02 1.000000000000000021e-02 1.000000000000000021e-02 1.000000000000000021e-02 1.000000000000000021e-02 1.000000000000000021e-02 1.000000000000000021e-02 1.000000000000000021e-02 1.000000000000000021e-02 1.000000000000000021e-02 1.000000000000000021e-02 1.000000000000000021e-02 1.000000000000000021e-02 1.000000000000000021e-02 1.000000000000000021e-02 1.000000000000000021e-02 1.000000000000000021e-02 1.000000000000000021e-02 1.000000000000000021e-02 1.000000000000000021e-02 1.000000000000000021e-02 1.000000000000000021e-02 1.000000000000000021e-02 1.000000000000000021e-02 1.000000000000000021e-02 1.000000000000000021e-02 1.000000000000000021e-02 1.000000000000000021e-02 1.000000000000000021e-02 1.000000000000000021e-02 1.000000000000000021e-02 1.000000000000000021e-02 1.000000000000000021e-02 1.000000000000000021e-02 1.000000000000000021e-02 1.000000000000000021e-02 1.000000000000000021e-02 1.000000000000000021e-02 1.000000000000000021e-02 1.000000000000000021e-02 1.000000000000000021e-02 1.000000000000000021e-02 1.000000000000000021e-02 1.000000000000000021e-02 1.000000000000000021e-02 1.000000000000000021e-02 1.000000000000000021e-02 1.000000000000000021e-02 1.000000000000000021e-02 1.000000000000000021e-02 1.000000000000000021e-02 1.000000000000000021e-02 1.000000000000000021e-02 1.000000000000000021e-02 1.000000000000000021e-02 1.000000000000000021e-02 1.000000000000000021e-02 1.000000000000000021e-02 1.000000000000000021e-02 1.000000000000000021e-02 1.000000000000000021e-02 1.000000000000000021e-02 1.000000000000000021e-02 1.000000000000000021e-02 1.000000000000000021e-02 1.000000000000000021e-02 1.000000000000000021e-02 1.000000000000000021e-02 1.000000000000000021e-02 1.000000000000000021e-02 1.000000000000000021e-02 1.000000000000000021e-02 1.000000000000000021e-02 1.000000000000000021e-02 1.000000000000000021e-02 1.000000000000000021e-02 1.000000000000000021e-02 1.000000000000000021e-02 1.000000000000000021e-02 1.000000000000000021e-02 1.000000000000000021e-02 1.000000000000000021e-02 1.000000000000000021e-02 1.000000000000000021e-02 1.000000000000000021e-02 1.000000000000000021e-02 1.000000000000000021e-02 1.000000000000000021e-02 1.000000000000000021e-02 1.000000000000000021e-02 1.000000000000000021e-02 1.000000000000000021e-02 1.000000000000000021e-02 1.000000000000000021e-02 1.000000000000000021e-02 1.000000000000000021e-02 1.000000000000000021e-02 1.000000000000000021e-02 1.000000000000000021e-02 1.000000000000000021e-02 1.000000000000000021e-02 1.000000000000000021e-02 1.000000000000000021e-02 1.000000000000000021e-02 1.000000000000000021e-02 1.000000000000000021e-02 1.000000000000000021e-02 1.000000000000000021e-02 1.000000000000000021e-02 1.000000000000000021e-02 1.000000000000000021e-02 1.000000000000000021e-02 1.000000000000000021e-02 1.000000000000000021e-02 1.000000000000000021e-02 1.000000000000000021e-02 1.000000000000000021e-02 1.000000000000000021e-02 1.000000000000000021e-02 1.000000000000000021e-02 1.000000000000000021e-02 1.000000000000000021e-02 1.000000000000000021e-02 1.000000000000000021e-02 1.000000000000000021e-02 1.000000000000000021e-02 1.000000000000000021e-02 1.000000000000000021e-02 1.000000000000000021e-02 1.000000000000000021e-02 1.000000000000000021e-02 1.000000000000000021e-02 1.000000000000000021e-02 1.000000000000000021e-02 1.000000000000000021e-02 1.000000000000000021e-02 1.000000000000000021e-02 1.000000000000000021e-02 1.000000000000000021e-02 1.000000000000000021e-02 1.000000000000000021e-02 1.000000000000000021e-02 1.000000000000000021e-02 1.000000000000000021e-02 1.000000000000000021e-02 1.000000000000000021e-02 1.000000000000000021e-02 1.000000000000000021e-02 1.000000000000000021e-02 1.000000000000000021e-02 1.000000000000000021e-02 1.000000000000000021e-02 1.000000000000000021e-02 1.000000000000000021e-02 1.000000000000000021e-02 1.000000000000000021e-02 1.000000000000000021e-02 1.000000000000000021e-02 1.000000000000000021e-02
-1.041576927830423074e+02 1.585556431067830943e+02 3.666670262208042175e+01 -8.227833224898871478e+00 -8.207237522781959171e+01 -1.250233933601401226e+01 -1.943028754307140957e+02 6.822632339339724794e-01 -7.908746180371038292e+01 -1.333256519297516896e+01 -1.856200132706397454e+01 6.150899361328669102e+00 -1.666936925798900182e+00 1.567454294590545487e+02 7.907035670639947966e+01 -3.630785282725545215e+01 -4.942071553947301510e+01 7.400660182361062311e+01 3.068333378414789436e+01 -2.373057462742951884e+01 -7.363061568567455595e+01 -6.890765157336298330e+01 -1.286900246032649875e+01 2.703109827801628384e+01 -1.820829211548568765e+02 -9.219746617696924318e+01 -2.438636689012914260e+01 1.883341416011154479e+02 6.610986588930613550e+01 7.175515655717528318e+01 7.503580570346842649e+01 1.097524757305178733e+00 -7.420698881493133570e+01 1.939456593593881450e+02 -2.288801201932264178e+02 5.507655436240627722e+01 -1.121480828518984367e+02 -3.242666113081099155e+01 3.778872093855389469e+00 1.184025213631374527e+02 -1.147984273213884308e+02 -1.269746779969466033e+01 7.222500345550226086e+01 1.622408924205158485e+02 6.661620341142571533e+01 -6.383586105768503671e+01 3.841286566007873660e+01 -2.655513093595158125e+01 -6.172729184836545357e+01 1.462976449990646017e+02 -6.578675460761904503e+01 -4.864542741489561450e+01 -1.303105597064375161e+02 5.511061147932294624e+00 -4.717997433553470188e+01 3.615774110899744898e+01 -8.291975735143458337e+01 -4.675143318706043516e+01 -9.476283793923651899e+01 -1.452859181192646645e+02 1.810284277510398354e+01 4.248172840991825439e+01 -1.150765788221779218e+02 1.199818719188568394e+01 -7.402889793256279916e+01 4.591363147106670084e+01 1.558239383487188832e+02 -1.348521268143203429e+02 -4.043694954402897679e+01 6.777389621671340514e+00 2.759587200865780243e+00 3.963012629581550783e+01 7.848404984694835207e+01 6.641761435328843444e-01 -8.296564202737204852e+00 -6.540345633792577473e+01 7.310598476110047272e+01 -3.052549646217272183e+01 2.460455338327649955e+01 9.723464917849261724e+01 8.239012392600814394e+01 -3.999296793385163085e+01 5.392589756037811100e+01 1.377721643219375949e+02 1.086268328197198656e+02 -3.702066595009743999e+00 1.627590887615579334e+02 -1.042487560972352867e+02 3.859204907126538409e+00 -3.919653930691856658e+01 1.932608754926976644e+02 -1.983558004821103893e+01 2.731975077452931000e+00 -7.176126616345599984e+01 -6.699444980128379079e+00 -5.960611317697230760e+01 6.337167314410454821e+01 -8.838801945541088401e+01 6.421454461789761581e+01 -4.467266519195469954e+01 -4.647120944462594139e+01 -8.568178252805454065e+01 4.955298096694812671e+01 -5.106212732369930052e+01 -1.395513145718500709e+02 -7.422946823992008092e+01 -9.774570468242106358e+01 -1.469335743302331423e+02 1.270093629055159283e+02 -2.559558067035633400e+01 2.996465777996006707e+01 8.379699708958956705e+01 -9.719028310376016577e+01 5.319306951459079613e+01 -4.047406634328055475e+01 -6.494812257262893240e+01 -8.429374957515703670e+01 1.898290003482860016e+02 -5.301687702771691590e+01 -4.631361611973255776e+01 -4.402814881740933828e+01 7.512285338326798012e+01 -3.872870817303613222e+01 1.288959156099953134e+02 -4.672401544554499253e+01 5.157583618639680623e+01 4.247109232132273426e+00 -7.571146707660763298e+01 6.423622019852146536e+01 2.592716809611089275e+02 -8.609702863462027267e+01 4.434016021077307812e+01 -7.133924004451803569e+01 4.229922474401623589e+01 1.226570008650821251e+02 -4.812956146509046107e+01 1.369731392745590703e+01 -2.521761969596845177e+01 -9.534535714197457423e+01 -1.628958858046965474e+01 4.064073049605640087e+00 -7.288033470657385493e+00 -1.395190936148094707e+01 1.104713128613751678e+02 1.219826209903516343e+02 1.744190500632497560e+02 -2.847159185480513202e+02 3.571650590456732033e+01 -1.478214113215476111e+01 -5.829776674660976710e+01 1.687227408167744613e+02 7.116297100007705012e+01 -2.491801882503160037e+00 -1.084370165498649783e+02 -1.014747802343971017e+01 9.366071009958147897e+01 -1.256808795738516125e+02 -1.577466947174519873e+02 1.005004264512559509e+01 3.967306885811153450e+01 -5.714313283152995382e+01 3.935113896428727998e+01 -1.002070227123510477e+02 -1.415897495883669706e+02 1.970894519373762677e+01 4.546711232840237926e+01 4.539583570620319364e+00 -7.805437386771460240e+01 -8.760517842758450513e+01 -7.885823209245664600e+01 -8.198943630380060199e+01 1.189688768214343106e+01 5.319232407889337821e+01 1.091534393080988252e+02 7.437867508928498239e+01 8.389076605227634786e+01 1.007697285249589072e+02 -7.006841669367916836e+01 -7.731476180387099362e+01 6.611102184464557752e+01 6.436578926262740197e+01 5.553799999626941997e+01 -8.786564905593616359e+00 -8.542510211402088771e+01 5.067312802568540775e+01 -1.681721849234362480e+02 6.308642318549291872e+01 -4.175164717569741413e+01 -9.051740834655122114e+01 6.970051013948776131e+01 -1.615689507178039364e+01 -7.239891980765005997e+01 -5.393756686620554319e+01 -8.648089888983756524e+00 2.282048922827164574e+02 7.243726085218904132e+01 5.159453089860442532e+01 -9.766616391966665844e+01 1.395375944526877277e+02 1.035554582473957819e+00 -8.503222700967188530e+01 1.467511891390475114e+02 -1.451376743799781082e+02 1.486549647890523396e+01 -3.059728865549403665e+01 -2.093538312181057393e+02 -1.269265496090142449e+02 -8.304193085832666554e+01 -2.808153617664345347e+01 -1.134793833430932040e+02 5.486370463255038743e+01 6.191490572282417304e+01 -2.632025509735590418e+01 -9.508128895990000728e+01 1.076962807054894284e+02 1.124839655985555140e+02 4.400228334981681400e+01 1.671694126413951409e+01 2.490860856786693773e+02 4.156711688756054457e+01 -1.139602913488202063e+02 -4.299567782518234793e+01 -1.608536238414764341e+02 3.038047615884815755e+01 1.460601255512106320e+02 -1.412542189557580627e+02 1.255799009791910947e+02 -8.672305426406275330e+01 -1.808760520628553436e+01 -8.257414952238752992e-01 5.044709893052315408e+01 -1.100760873284932195e+01 -2.180286716124501822e+01 -1.785822655594535391e+01 -1.210037306166790074e+02 4.422951476096910284e+01 -2.891596461196740009e+01 -1.227103525494671210e+01 -1.023878837159573507e+01 2.156204938401370441e+02 1.663381877711710786e+02 2.219889336507280291e+02 1.257746325830000274e+02 -8.262110143673102414e+01 7.168361118595521475e+01 2.021496906541235816e+01 4.528661762013715020e+01 -3.779787420524961306e+01 2.437480081470751827e+02 -2.227896914116616855e+01 -1.305202960809421882e+02 -1.424495647069799986e+01 -4.377585160810876630e+01 -7.383584229717197900e+01 4.118736081863318077e+01 -1.117862710388455483e+01 1.736534717526535303e+02 8.807478881066263909e+01 3.901040461753755295e+01 9.349395287875870508e+01 9.045464273301732305e+01 -2.194163114287382754e+01 1.333077034958369609e+02 2.537541309270836365e+01 8.559824578060340627e+01 4.557171437967132732e+01 6.600822288671855276e+00 -1.105137762109998079e+02 -1.106878459768561100e+02 -8.601597905749581230e+01 -1.485335739004892908e+01 8.281514533230922837e+01 -2.921439091513727249e+01 9.443528186749905728e+01 4.187510500260817281e+01 -6.945626793242962549e+01 -2.857464385673737084e+01 -5.594206142133758419e+01 1.678703103713987943e+01 -4.417535262803205143e+01 -1.070108781454279523e+02 1.160239655470811329e+02 1.159125198324210970e+02 -7.546244616030612917e+01 5.103645256222994142e+00 -4.331381494617683359e+01 -3.105038160429899818e+01 -1.083132475457190580e+01 -2.986436838764968016e+01 4.254657445412426853e+01 -1.343155790511930832e+02 -5.050851556203592452e+01 -1.449780964131365408e+02 1.662457749635744335e+02 -1.921755261508213763e+01 5.619248516224545398e+01 1.134188351015559704e+01 1.377919049103775251e+02 4.252365372238438823e+01 3.402636083403695721e+01 1.473252673824808596e+02 -4.699265413611691855e+01 -9.317573340004399540e+01 2.601441575412499674e+01 -1.507079994380689811e+02 -5.094611872886027015e+01 9.762331724430214308e+01 -1.214915115353575317e+02 -3.465635245642170759e+01 8.701428535980818424e+01 -8.997460783036029852e+01 -8.522093456098289721e+01 -7.873513879407610716e+01 -6.073565547608716031e+01 2.374299590621913865e+02 1.888714926117361301e+02 9.807726401601489385e+01 -9.735868912508587414e+01 7.126544833383452726e+01 -6.314140638575807429e+01 -3.008545484764848155e+01 1.584212313906311209e+01 -3.080837798534922456e+01 -8.922780685212148910e+01 -2.749247107385328626e+00 1.400059426536896368e+01 1.036052803646543907e+02 -1.223081002339736756e+02 4.002194816211905959e+01 6.069533566415724835e+01 3.279301632942296152e+01 -8.621179489749047775e+01 -1.413205454474269516e+02 1.836330945871019935e+02 -1.691434714196727285e+01 2.394422439622415055e+01 1.489220826346347053e+02 2.533467153948512518e+01 2.633885469323329431e+01 -4.235096991810021194e+01 8.421437737007450153e+01 -1.295042108105800764e+02 -2.924045470284557879e+01 -5.833360794385832548e+00 -5.068071246048130263e+01 6.089277318476834289e+00 2.013036393351379161e+01 -3.397890688198265963e+01 1.297373330791314139e+01 2.028914468779069580e+02 -2.602518661836288416e+01 -2.661967685816333784e+01 -9.648217784915993889e+01 -1.534918846183680241e+00 -7.659795878809676140e+01 6.019756466129634553e+00 1.063721753718024559e+02 -4.934401050001925881e+01 5.723329551638074442e+00 -5.149815464769559270e+01 3.124656791108778364e+00 8.268988573028904909e+01 -1.098761543805065486e+02 -9.188278439604953007e+01 -9.732561576633695211e+01 6.762548050042444459e+01 8.208541940002233162e+01 -8.740047451672462842e+01 5.944893093385210392e+01 2.452712282207156136e+01 3.668802161732928369e+01 -1.681068763362352669e+01 8.665359159910484266e+01 7.553478253324730929e+01 -7.321990656077426252e+01 1.112825087112178402e+01 7.665179062527040799e+01 6.903866005616666257e+01 -1.890424481434873627e+01 2.364350951487946872e+01 -1.257173199419363669e+02 4.604384084269372579e+01 -3.109160519741842776e+01 -3.102330899413625076e+01 1.641801691146376641e+02 4.492987497409262687e+01 1.139280004341343187e+02 1.810702411318586087e+02 -1.304945972620570842e+02 1.413748692854871649e+02 -6.021362098795361106e+01 -1.281332938555658814e+02 7.802505645824726344e+01 -1.270441725110352280e+02 -2.723199368832099410e+01 5.344086195353474267e+01 7.590007312399779771e+00 -1.594961314021681460e+02 7.993079943951870803e+01 2.394884827014149309e+01 6.548101009658836347e+01 3.445030618183513127e+01 8.963576667241060392e+00 -6.361739162658720659e+01 1.096495171443395691e+02 5.166521304227295985e+01 -5.887288258517219219e+01 -9.597699272715149732e+01 3.684379806133679836e+01 2.444835046655303401e+01 7.813625609029051589e+01 1.742945704604724995e+02 -2.331174737316559842e+01 -1.044409487294722396e+02 -8.020923188226083766e+01 -4.863822312985727336e+01 -4.196170772102130542e+01 -1.390554160271680644e+02 -2.137859996823193143e+01 1.228119234408615483e+02 7.062427092419966357e+01 -1.159820372591365754e+02 -1.421992048374968078e+02 -6.450203864764797856e+01 -7.227324752395634277e+01 1.392324988455804657e+02 -1.615895562755937647e+02 8.209309815334025018e+01 -4.365259216169390832e+00 -4.081084409410357949e+01 1.257458638235911863e+01 8.634787363588003473e+01 4.691990508487820222e+01 1.309865436635303411e+02 -1.508416601366147347e+02 -7.673906599560034181e+01 2.408956727016723676e+01 3.972793948283609211e+01 1.953052739116502607e+02 1.378823688619487200e+02 6.215347642246164384e+01 6.833347049489451308e+01 -3.213743270636623350e+01 1.438236542860800284e+02 -1.700471959584589854e+02 -6.014187639211032632e+01 -5.086623448708922979e+01 -4.908088407971850842e+01 -9.781923388790450247e+01 -1.422613880120928087e+01 -6.502447148103257746e+01 6.741154360623072250e+01 -8.643474923998857307e+00 -5.496712393787230866e+01 -5.888577977839405264e+01 1.707387366299376765e+02 5.599781251424153083e+01 -1.305242982536651120e+01 1.979532279081301169e+02 -1.027055157770888627e+02 -3.346169194494307675e+01 6.346108349465891507e+01 -1.381184527840807474e-01 1.422950554132957635e+01 -1.186239454163502529e+02 1.669513953035764757e+02 -4.633069525197310412e+01 -2.543789685943746903e+01 -1.039061906649458251e+02 1.192042904662152409e+02 9.072721191856223300e+01 -7.338408399395454751e+01 -3.569379488270902101e+01 3.692302299843025537e+01 -1.433160886735904569e+02 -2.295386686309328073e-01 -7.072621230580722340e+01 7.253195499988255968e+00 -1.022957770329159359e+02 -1.500588847946633280e+02 -6.691547117661053790e+01 1.402660950862663469e+02 5.347252931050164193e+01 -8.485166504261293596e+01 8.433559467776855456e+01 3.233466061224600452e+01 8.363729361261478346e+01 -3.985054049974463908e+01 -7.950076954397147233e+01 1.617977557479142945e+02 3.934541316077094564e+01 2.736355263139864746e+01 -6.899248442645188106e+01 -4.001281413078893934e+01 8.956321716563310886e+00 -6.796716509003727147e+00 -1.634110190386301440e+02 -3.274458800822459636e+01 6.086348970101322919e+01 1.054234485115336497e+02 1.472102911005873693e+02 -1.257366130751775302e+01 8.468694422720847115e+01 1.490622619805884028e+02 5.988410581309428693e+01 1.394052192464223481e+02 1.517677307171381429e+01 1.240067971029623379e+02 -7.925892858444667866e+01 5.031859302768356912e+01 2.762213803024900116e+01 7.156179910119054455e+01 -1.002107034848011153e+02 1.868680536331413862e+02 -1.212862275402130621e+02 8.330827602104878338e+01 -1.011634861775855398e+02 4.354258472646573352e+01 1.302220665181210713e+01 8.542449400386995251e+01 -6.934701467012752119e+01 -7.111227531902510179e+01 -1.045719588934048083e+01 8.387577143265019686e+01 -2.786105372600028929e+01 -1.532439959674484697e+01 -1.847010342324290377e+01 4.452781540030447793e+00 9.227094691817485739e+01 -5.876980586626831382e+01 -2.531622290599394365e+00 -1.820609468849669668e+02 1.145784895292501204e+02 -1.171502286951891136e+02 -6.927366124860428442e+01 -2.204332500998703637e+01 -1.012708300013743070e+02 -4.983340073280132287e+01 -5.496866521084096036e+01 -1.849272007727926237e+01 1.277218338484546649e+02 5.069708749386315105e+01 9.414141807402313589e+01 -1.276216450832811802e+02 -1.299234537995119751e+02 -2.689330488176765357e+02 9.586124800611128194e+01 9.768725125399039655e+01 3.972567422662682901e+01 -3.987374393457386645e+01 -3.480738698354109317e+01 -1.722630293156053654e+02 1.369367416731961953e+02 -1.007001090657820583e+02 1.002977062231772578e+02 -1.492331314550513639e+02 -1.343903168611881149e+01 -5.192736814841900639e+01 -1.118445324793010087e+02 -4.324244549590422793e+01 -1.181030170798578460e+01 -8.692913039131688890e+01 -9.699128982992101555e+01 -1.159887876617356994e+01 6.673928220279694301e+01 -1.168385954439406902e+02 -1.465687826878542310e+01 -6.915640357631863822e+01 -1.232353165133048094e+02 6.120421411609148876e+00 8.912030560310839178e+01 1.553010660776170084e+02 -1.786078502957078129e+01 -4.318698426459047113e+01 -1.165295678313773067e+02 -1.535889315805355295e+02 9.744223675870765078e+01 -6.825175835307706507e+01 7.410362134744264040e+01 8.815029161326441098e+00 2.738662020608430936e+01 6.930664545576163960e+01 -7.960946523891212223e+01 7.765076580422345387e+01 1.082554022903003101e+02 1.479732814523180195e+02 -1.093654337925031115e+02 9.764863181979538354e+01 -4.490316009626230453e+01 -8.528971119633631304e+01 2.016059206161650081e+02 4.618292952149425190e+01 7.840683712083276191e+01 1.986030107140251388e+01 -5.951813300499961912e+01 -3.281198908135380776e+01 -1.976395903469440611e+02 9.924236146292682292e+01 7.651956704193138137e+01 -7.110091375456462970e+01 -6.863989430457006335e+01 1.363704215505680963e+02 9.493200922067764225e+01 4.802564560712819031e+01 7.143066111564368725e+01 -7.329682359715044448e+00 9.692074463178579435e+01 -9.734115077791472004e+01 1.749896139204918768e+02 -3.708752466325699970e+01 -1.146210913115276639e+02 -3.545910931985957859e+01 6.738220961016770616e+01 1.383755615184840622e+02 1.200858736931656168e+01 1.632717226726323645e+02 4.899764868566159493e+01 3.161338209907472319e+01 -1.045337177543479470e+02 4.203228285029526745e+01 -1.173538781871697267e+02 4.484294311317900394e+01 3.618004203757129034e+01 -1.159217158394200027e+02 -7.987939986754200561e+01 3.746228099027732128e+01 8.194409379367581181e+00 -2.177431568039069276e+01 3.937060822854767395e+01 -2.010713883105982802e+01 -5.925472473977048082e+01 -2.471926233478726687e+01 -2.102417845969379329e+01 -3.739140207050663633e+01 1.761005809831149804e+01 -7.567418944804212799e+01 1.117053874496916279e+02 -6.971543047736986409e+01 -3.881328640013112619e+00 6.172183768502308965e+01 3.617694499371932881e+00 1.501398782443749980e+01 1.501256772866049793e+01 -1.099719589522556049e+02 -4.128461959369079004e+00 6.108142089543475350e+01 -2.173378368170294266e+02 -7.975820063387993741e+01 -1.058043534832136601e+02 4.114227192190381999e+01 9.034576697349457675e+01 -8.619550890671195020e+01 -1.576521504884799469e+02 -1.739494709380245183e+02 1.872215758133298635e+01 -1.360514466318589086e+02 -5.949278199598165173e+00 1.385400261879596826e+02 -6.603920842750302889e+00 3.480900920073151639e+01 -9.265495963581800254e+01 7.483325045173914702e+01 -1.110128915190771153e+02 -1.447486840599662727e+01 -2.831356490145480009e+01 5.391682084712203959e+01 -8.231508708309972278e+00 9.882757308092642745e+01 -1.141917921682363755e+02 -4.682740970495513011e+01 8.109770769927705203e+01 6.181745145818277365e+01 -7.686903006061477583e+01 -5.084660559603852903e+01 -4.614432173074544608e+01 -2.702287427955927797e+02 1.806569096634610219e+02 7.094833216341820048e+01 -2.195967856947975960e+01 -2.768448930225096660e+01 3.872878632010611000e+01 -7.835654994665362949e+01 9.271103007174220068e+01 5.639826695199564455e+01 7.623991320631500912e+01 -7.832776311937711000e+01 -2.461785085358986080e+01 3.098914504792525548e+01 1.618146045934051713e+01 -3.992424562765802420e+01 1.471109831764634350e+02 -1.607320217384176786e+01 3.298775356555459837e+01 -2.139911339742030520e+02 -7.875480425831511866e+01 -6.803654116762012904e+01 2.143613099028528524e+01 1.015746173732869693e+02 -2.157076187743971047e+02 -1.740325943523201886e+02 2.061568031763853242e+02 -9.824092399989309499e+00 8.931947013055871309e+01 5.820686843181395886e+01 -5.145397206319877625e+01 -1.218570811001964671e+02 -8.851961051997820107e+01 -4.672892568293047333e+01 -3.477537791567316106e+01 -3.643402017972503160e+01 1.497260370520251627e+01 3.467049559053982222e+01 1.552686649276614332e+02 1.147007197709492061e+02 6.556149138885170480e+00 -4.122475418112119705e+00 -1.476237569737956505e+02 1.113077404666005066e+02 1.481609672332679679e+02 -9.628625327565399061e+01 6.856883514831075388e+01 1.516728770048557662e+00 5.114719164539283014e+01 1.165793378749804816e+02 6.599523476236498709e+01 -1.247315062487679853e+02 1.496669868190809005e+01 -2.734320516650852895e+01 1.037409557983632169e+01 -2.143556415372179558e+01 4.216484797540350371e+01 -2.426478542505932978e+02 1.685736700654058495e+02 6.717096156320590872e+00 1.483740282776576294e+02 -9.759618750167842194e+00 9.881025168293088257e+01 6.669665916164619546e+01 -3.905423161805148169e+01 2.793931163867395995e+01 -6.788688577286228565e+01 -8.296103965573269079e+01 -6.710999475765433431e+01 -2.988646691711984005e+01 4.208626984204033761e+01 1.026734955902202984e+02 2.651147551315697015e+01 5.803178835220313658e+01 -9.777763566262871109e+01 -1.279040450491805814e+02 -1.257626168130048150e+01 4.324187622336607717e+01 -4.232812528227011484e+01 8.830829012217972718e+01 5.185868839765903004e+01 -2.578005990812099313e+01 2.793467602663118043e+01 5.732165141742112269e+01 -6.726673458137803152e+01 -1.248104415083448089e+02 1.325793104415505752e+02 7.290112800440765817e+00 4.680832580810705679e+01 -1.394661292253669274e+02 -4.989297969367792263e+01 -3.823352798849283252e-01 -6.156116555281121094e+01 3.970772929794837758e+00 5.263793721059836628e+01 1.743140848383100945e+02 3.659500630633426965e+01 -1.024135527940621060e+01 6.762399434396944287e+01 -4.251328585119443915e+01 -1.019449475795651523e+02 -1.292678848553973694e+02 8.750418717111140054e+00 2.350050579745870039e+01 2.234431534708770783e+01 -5.325718315408872172e+01 1.131064041983920703e+02 -7.567528057743351155e+01 1.201794071971862792e+02 8.175699319420033362e+01 -6.092769371056166960e+01 -7.948400386025232933e+01 7.893728869053929031e+01 1.908821921448957681e+01 -4.926696293353882794e+01 -5.046240440042915765e+01 1.282971395185827816e+02 5.380110837565218418e+01 7.500326199092097568e+01 2.453002031113309656e+01 -3.941914094772429422e+01 1.007497098975592138e+02 -5.122045687072906617e+01 5.619688032958516377e-01 7.181814299558530479e+01 9.352294701518205500e+01 2.400102031102195497e+02 -1.645966720753327195e+02 1.511356928593326643e+02 -6.341239387930492910e+01 -1.432059402950036464e+01 -2.366823056324358632e+01 -1.948090756625613196e+01 -5.175503818796801880e+01 8.748750116859361015e+01 1.730202865661629517e+02 -1.116858273447309955e+02 2.910016235981054322e+01 -1.194127095266297260e+02 6.607239137576465282e+01 -4.183775196349809278e+01 -7.635151567201370426e+01 -5.081378658938015747e+01 3.884526960240953741e+01 1.823396070011957448e+01 -7.705448836712145066e+01 -1.329895326166713971e+02 1.957621781870207656e+01 1.487062817767394733e+02 1.348479594573234230e+01 1.722538377922012671e+02 7.031581003251655915e+00 1.271579261123656295e+02 -3.266263545395271706e+01 8.578887725006129017e+01 -6.750768148930012558e+01 -1.067254486449720332e+02 4.674270275995030488e+01 -5.483568751258391671e+01 -7.430774338115976718e+01 6.889335028426326346e+01 6.152336782668499815e+00 -8.920853001603737198e+01 -1.426077454697021096e+02 1.401265665305021173e+02 -8.447836072790607886e+01 -2.271218395733788142e+00 1.138452234178742373e+02 5.497066664181330253e+01 -9.314911737127614799e+01 1.013220040547052214e+01 2.675644398378755113e+02 5.054695864427678487e+01 -1.496589654286992470e+02 -4.531940420174723272e+01 -5.835064611621001518e+01 9.116569288947760086e+00 1.021670899823197800e+02 -9.834538721499890812e+01 2.053918741028832784e+01 1.239699255145864072e+02 1.783741623192173975e+01 -2.008417142221056224e+02 4.586392311828713986e+01 7.177653498699353918e+01 -1.294223039973337208e+01 3.116190137471798138e+01 1.946478892289145723e-01 2.150205029384021671e+01 2.637625034765952137e+01 1.101969697044945775e+02 9.329093487042325705e+01 1.493296224189477250e+01 1.417417386088639830e+02 -6.089807730299948929e+01 2.346412100680060462e+02 6.189017040452946361e+01 1.348756084418266425e+02 -2.088801205439565578e+01 8.572327847008305923e+01 -4.648020827911740582e+01 -1.392900786336236933e+02 2.486995184653472180e+01 9.031711287774076879e+01 -8.329253048180203223e+01 -9.968300092801111134e+01 -6.332704093676481705e+01 3.487197591118169271e+01 -1.086357879900343164e+02 7.106692772499161492e+01 2.665815158113293748e+01 -9.290000030158165600e+01 1.807225580471353794e+02 -1.119097225605316481e+01 -9.688866323479297193e+01 -1.279563181464136967e+01 -1.945157531816742846e+01 -1.334450330362807051e+02 -3.807418677739289592e+01 5.855799265401203968e+01 1.254666502979262930e+02 2.766720216059139759e+01 2.543310110687251324e+01 4.262797163159327596e+01 -3.396057201104203926e+01 -1.386306452174083006e+02 1.516324860683402243e+01 2.942971392460243152e+01 1.267381754657425574e+02 -9.371734221748292626e+00 -7.244729781242588729e+01 6.967043144261030818e+01 9.103641817452232665e-01 3.018823615663696103e+01 1.324720471871401060e+02 -1.688886670063086797e+02 -8.840590106933103698e+01 1.187466123156965949e+02 -1.995515892241836582e+02 -1.701107686318767946e+02 8.423497394889881207e+01 1.424450980916750495e+02 5.869732882133730811e+01 -4.164312461541693544e+00 1.440046803955860639e+02 -2.031077203552898425e+02 9.911826643788005242e+01 3.919542573772453409e+01 1.175388142840037489e+02 -1.744446398348524951e+02 9.844285353439290986e+01 -2.606676241188387166e+01 -1.236551325351150439e+02 -4.919426772528506575e+00 -8.544447755338326544e+01 -1.493275711649530280e+01 -4.071698365365335803e+00 -1.139567125506414413e+02 -1.140696261687601378e+02 -5.786322874328217836e+01 -1.192178350799169095e+02 1.858876352176986018e+02 -1.491067104481247441e+02 -4.642922686376516594e+01 1.596053334501302459e+02 3.139249134653088547e+01 -2.738049955546861156e+02 -1.176398979302559979e+02 3.281969135536211724e+01 5.057815222636250496e+01 7.851079689876343082e+00 -1.429648209976456599e+02 3.300720038775050114e+01 6.974400674137292810e+00 -6.875728314251946927e+01 1.875558016959289489e+02 1.873531128109510462e+02 4.036529731950870392e+00 -1.929294331331352623e+02 1.165183030028847639e+02 2.842455949852163499e+01 3.573668584898979095e+00 7.080237494707638746e+01 -1.919470018787816059e+02 -1.276485333151158414e+02 1.304141004365125127e+02 1.014404772223700206e+02 4.890908976193340862e+01 1.323961714666624232e+02 -1.648931399947863952e+02 -1.895685574066675017e+01 -1.205912765725807105e+02 4.045222350046971371e+01 -9.609175704430670351e+01 8.056300927754209340e+01 -3.141360068412748774e+01 1.145909022080442163e+01 1.641447606130171835e+02 2.645222698668928274e+01 -2.438044405263606507e+02 -1.169402476848615038e+02 -7.707994414452993226e+01 1.462540723123668158e+02 1.160418163407958936e+01 -4.990748308784846188e+01 2.799761035983480184e+01 5.777024002102352540e+01 -3.655139070456807815e+01 9.944475989547012773e+01 -9.319955163043593416e+01 4.552270907296162505e+01 1.035428052406163744e+02 -3.291909128742508273e+01 -9.076834393645316368e+01 -1.049904622484458372e+02 1.107829755276750205e+02 -4.597873451091702179e+01 1.818095957898889594e+02 5.291594006301186681e+01 1.026127749225832559e+02 1.707490866443953905e+02 7.909265108664345512e+00 -1.150187964654266892e+02 -1.532614684088845252e+02 -1.055804958267553531e+02 3.935182503597567916e+01
-1.225349901214537240e+01 -4.404568611030623693e+00 9.352801163050828848e+01 -2.069581137558122919e+02 1.404251339111174843e+02 5.733175198971009223e+01 1.374713114946813164e+02 -1.167128700435198141e+02 -2.483395462820388033e+00 -2.172302122433901772e+01 -1.983180796119664251e+02 2.952274881723830902e+01 -1.654229365916938477e+01 1.105181503875664646e+02 -1.130741381577620643e+02 5.576048003472702419e+01 1.131520863747495298e+02 -4.153023298380125539e+01 -4.473294518348084381e+01 -2.431626032194171927e+01 5.579499841199237409e+01 5.692919274765991844e+01 2.932194359961350116e+01 -2.100121090807031976e+02 -4.652152277279527226e+01 8.275697497850899254e+01 8.965106308602235785e+00 -9.401561033830326153e+00 -6.007618704035877499e+01 -1.403959523657847264e+01 6.624596860540638943e+01 -1.313353298070312292e+02 -5.600678983752389684e+01 8.080197176162478456e+00 1.875656359038004553e+02 1.915645651899899349e+02 -2.909656885446273833e+01 5.047535828824704396e+01 -2.202651052114089347e-01 -1.261095185255911417e+02 8.666458305757923597e+01 9.681710283089458358e+01 9.799587595913551752e+01 1.052876457175600144e+01 5.587040633643770349e+01 4.345012398709659607e+01 3.510293813974526245e+01 2.655294748201127675e+01 9.958681349119919446e+01 8.099881447811566204e+01 5.919764098326989199e+01 1.472248963067705176e+02 2.239280263755749161e+02 1.766581910023290334e+02 -5.342105750409537990e+01 4.449689108836643214e+01 -5.801042677668792180e+01 5.089524562857871359e+01 -1.736293066873487874e+02 5.102295644358343907e+01 -1.848797266861464550e+02 -1.523846148929981723e+02 1.170773852755136168e+01 -8.392517060295798359e+00 1.530773882187180277e+02 -1.878835483396531458e+02 6.797140605486539755e+01 2.076373220051828241e+02 -6.730975252322861202e+00 -1.760320036343806578e+02 3.204171646369514548e+01 1.780663239551872437e+02 -5.520950941133938983e+01 -2.408645640034972644e+02 -9.265211552412003471e+01 8.110337413015800578e+00 -2.078583704995708388e+02 2.905160423510971412e+01 -1.621334416470012911e+02 -1.676302175762599518e+02 -5.173213328343034334e+01 1.377021130327994740e+02 6.271513256123066782e+01 9.609210856627763420e+00 -8.019633738740205331e+01 -3.850096761057547212e+01 5.759615496709225368e+01 -2.099412378096454574e+02 4.890829835917272561e+01 -6.769781091107684290e+01 -7.070152153238404935e+01 -1.598875439952775821e+02 5.876364598602261680e+01 8.378863907602813299e+01 -1.467850777280588375e+02 1.563236303863669718e+02 -3.604791370906784209e+01 -1.531046247664715487e+01 7.936094509393316798e+01 1.414763768866145881e+02 1.972699255703383514e+01 1.370570363153781273e+02 -1.678368972437842643e+01 -8.207616642932885043e+01 -1.773027481652892590e+01 9.143951543367401769e+01 4.185793148009737052e+01 9.105616343965162685e+01 8.782913465528920938e+01 -7.738201284991441753e+01 -1.581571871289075375e+02 1.145274161974338938e+02 5.047658754308123719e+01 1.517650773178842094e+01 2.845036358507757157e+01 -6.323039700672788399e+01 8.938490151235241399e+01 8.368660874035332142e+01 -1.282892251635759173e+01 -6.635946376222464949e+01 2.852693010149490505e+01 5.862902160733417745e+00 -5.720498385516410167e+01 1.579505327586980741e+02 -3.041772385695400516e+01 1.132400611043299392e+02 -6.525947033376849049e+01 3.575662760350060410e+01 -3.355493810496562901e+01 8.337926476715972512e+01 2.185053180598588440e+01 1.076848788889355575e+02 -1.081341085133690569e+02 6.927354284485312519e+01 1.150171188091736241e+02 -4.161963405244344472e+01 7.183959188088643089e+00 -1.200130079331352739e+01 1.089135142869773460e+02 3.493043082481126049e+00 1.571120946907001894e+02 -1.318262105601592680e+02 1.087096511396478888e+02 -8.503721257972746628e+01 8.937475009733566367e+01 -1.278106246146759730e+02 2.750693323333558027e+01 2.310191331590433350e+01 1.627902049259334127e+00 3.387365038048030641e+01 4.299214876312334610e+01 -1.150689087810105704e+01 1.024465411336589860e+01 1.008581534144664431e+02 1.187021808037978161e+02 -8.095032064858156673e+01 -5.050782766676146451e+01 4.413019064966151461e+01 1.393055308855614349e+00 -1.278953178619013329e+02 -5.151998778978865801e+01 -3.301217816857034393e+01 4.562207213730857802e+01 -6.113900351540986122e+01 2.137470063761605132e+01 1.497954892489510144e+02 -7.419137975927461071e+01 7.556435143892733208e+01 7.851335816857732652e+01 1.058333385066702803e+01 1.153888406407725853e+02 5.878032255464540157e+01 1.571080181124718536e+02 -3.242909116574644912e+01 1.051368810461297869e+02 5.199454152528440432e+01 -1.501264974149871989e+01 1.910409831261731028e+02 -1.298790852743748019e+02 4.579192950446690702e+01 -1.756726122759985742e+02 -7.882554453836738162e+01 3.847442323119994967e+01 -6.767896938697136022e+01 -1.459833753948662149e+02 1.868613285047608201e+02 -8.041594919209535419e+01 -4.453670809549356591e+01 -4.338735423525243817e+01 1.141770099927616116e+02 1.826495968563167196e+02 6.071926729931059441e+01 1.371692644727918662e+02 2.058886177457221720e+02 -1.472172264534367558e+00 1.527528583371743309e+02 6.648908648990393999e+01 1.786106970327328725e+02 -1.180527286285109483e+02 -1.106846639824464162e+01 5.983876662705577942e+00 1.781641764328130364e+02 -8.518825083532107101e+01 -5.683483085889611885e+01 -4.964076718585033632e+01 -1.258018100324948847e+02 4.391978395418780323e+00 -9.467117835870456588e+01 1.447075354002793972e+02 2.206388294482298917e+01 1.122734364108420557e+01 6.782910742865867348e+01 -4.583064077607909681e+00 1.098206599020103056e+02 -1.490916505220578188e+02 4.264335524006426681e+01 -1.601737654390055354e+02 1.101654583273102332e+02 9.023565908562332538e+01 -6.309267624417455522e+01 4.394583648457248160e+01 2.234303119975855907e+02 -2.861214805276704354e+01 3.906613300798674260e+01 -3.066908306339693624e+01 5.437180403053305611e+01 6.026274583833849618e+01 -5.910962530464646036e+00 9.555674450482244708e+01 9.511380149555223795e+01 -1.818545583698048915e+02 -1.437361991716629745e+02 -1.124498393464110251e+02 -8.816309107536895340e+00 -1.404447933651646281e+02 1.083890954879560553e+02 1.034538814788587757e+02 5.537738474098774333e+01 1.047652814388068876e+01 1.478659964745072273e+02 7.874022963976030098e+01 6.333448306373261261e+01 -9.523433207452475813e+01 1.430288313299106733e+02 -3.408875006996650026e+00 1.025871548115944165e+02 8.279326709645387083e+00 3.445089694081347886e+01 -7.093609718786376561e+01 -8.505216657899219967e+01 6.712095681739704389e+01 -3.655152839132058684e+00 1.369814441000578711e+02 -1.175053338824138827e+01 -2.651814420557982555e+00 4.297807061415705476e+01 2.118499298764353256e+01 1.325159505823391441e+02 1.382470764773123229e+01 3.360815316844492173e+01 -1.448796649527781426e+02 6.161872351159006911e+01 1.251466697872927512e+02 -1.639545566941682608e+01 -2.134476051789635562e+02 7.899124283744176012e+01 1.273833921088318277e+02 1.910747209533124291e+01 1.766914293467884818e+02 -4.087204941083294685e+00 4.001007639642936198e+01 -4.075980740245602618e+01 -1.292934003138423122e+02 5.229316100333117845e+01 -4.429005464167276784e+01 -7.544191957189663356e+01 3.843510572939769077e+01 -1.721332561949552371e+02 6.667807173232348816e+01 1.532266397568895400e+02 -9.424825387242333363e+01 1.611267624212026988e+02 -9.079558641446431011e+01 -5.528799547050097019e+00 -9.839713157478215066e+00 7.135508763953936295e+01 -4.341542552588762760e+01 -1.002047467424886804e+02 -8.243308892340456850e+01 1.355636860484546844e+02 5.495515573725503344e+01 -1.225974755725805920e+02 4.083873815841495336e+00 4.030355299511772671e+01 7.667047008703903543e+01 -3.744876144820390351e+01 5.563120917565741763e+01 -6.404173863413157619e+01 -1.506434790371492056e+02 -3.213188446469979453e+01 1.308140019348171563e+02 -1.052941469901877838e+02 -5.894749221644095982e+00 -1.510527287753295980e+02 -4.557993490734804531e+00 -1.353460686628086478e+02 3.060427544086500617e+01 5.593232712025894671e+01 -4.666793548585638263e+01 -7.635445256797035540e+01 5.241979217331818042e+00 6.899205872557736541e+01 -6.282411816724103915e+01 1.248001410827059487e+02 9.788861289550771971e+01 -1.182744830833067056e+02 -9.772601653513787312e+01 1.251291625623057513e+02 6.601157326768847611e+01 1.391186271605835145e+02 9.242962475256169341e+01 7.507692936166475306e+01 -5.580649936289599111e+01 -7.561406048993438844e+01 -7.126559145105679249e+01 1.891566745974815831e+02 2.836846456797599103e+01 -2.306096651599849068e+01 -6.327664593790884595e+01 -4.607493474957459512e+01 -1.213183252071583667e+02 -1.518078174289151505e+01 -1.616356667926239936e+02 1.151426587803828596e+02 4.230648316602429304e+01 -1.060785773214204823e+02 -4.459800040879337502e+01 1.102527799629471588e+02 -8.919041108834601062e+01 9.471330154019052827e+01 -1.091263491424645906e+02 -1.085839822399003296e+01 -8.794515316968808349e+01 8.267121971883506149e+01 -3.909763243113000897e+01 9.388916534117742074e+00 2.705109758775531148e+01 -1.165726704560268558e+02 1.150146759988581913e+01 4.457068029772133855e+01 -2.051672691950443905e+01 -6.327607009418858297e+01 1.865605790570945146e+02 7.959591876854736370e+01 4.331979076596978473e+01 -2.889878106918595080e+01 7.378330298231530548e+01 1.542678148421456967e+02 -8.482761792484872387e+01 1.928137368260740914e+02 -1.225046217250107077e+02 -1.692141730362644978e+02 1.396104922116303158e+02 -2.153304177370011416e+02 -8.265538470009869965e-01 -2.254042461465053577e+02 -1.406436099663617370e+02 6.606589397757008442e+01 -1.339394805295219157e+02 5.369364733306264270e+01 1.012504010434514896e+02 -1.474831905099084395e+02 -2.764504362006821836e+01 6.941710883120805420e+01 1.232044368501009899e+02 -1.713124354217304983e+02 8.055444162852099055e+01 -9.016935334708490757e+01 -9.036680489998062171e+00 -1.271104231162933473e+01 -7.319311696357688390e+01 -8.305255504228176733e+01 1.669051403080330545e+02 -2.001758802404065918e+01 1.263359758273984612e+00 1.198913159585794546e+02 -7.989942302305654209e+01 -3.170070138964925732e+01 -9.920216697081649215e+01 -4.494401733063162396e+01 4.707015660771482146e+00 5.464648454978554781e+01 -1.244976742562541006e+02 2.187265317636542648e+02 -4.968471811241931135e+01 1.130937472621992725e+02 -4.505936235016189784e+01 1.105317920432872967e+02 1.285768173919251183e+02 4.421602607709329646e+01 1.127082268170832720e+02 -3.993350500546686277e+01 1.293193932835808937e+02 -1.446631728933809029e+02 -6.044522367225147264e+01 -5.819975098248311696e+01 2.368897594425963860e+01 -1.500047330727553856e+02 6.704231511715485681e+01 -2.851918003362930421e+01 -7.640044011347187336e+01 8.278930184063288777e+01 -1.397145705994087166e+02 -8.437337403899422839e+01 -4.873754536582685404e+01 3.056718035309475923e+01 1.200005596948651174e+02 1.079760897817119769e+02 6.384068152394196716e+01 -1.391313021165241137e+00 1.617869293461143627e+02 1.132942403769081068e+02 -8.742008291027958933e+01 -7.217241183750182643e+01 5.072541238684269160e+01 9.151693629439849431e+00 9.059475114000554186e+01 1.542642077639023341e+02 6.529693604895679471e+01 2.266592726205481512e+01 -9.455485110450014474e+01 1.587820017155288497e+02 -1.050722626274186240e+02 -1.527825600353610582e+02 6.077807960099120521e+01 1.030995325214593379e+02 1.819117156983462635e+01 -1.283421321365746621e+02 2.742867287572605406e+01 3.916426346563503103e+01 -3.866290178513338560e-01 1.210075806277626214e+02 9.051607641203044352e+01 1.581807612325750689e+01 7.237150659579909018e+01 -9.870091150608699593e+01 -5.942651557796502004e+00 9.085657057488508315e+01 2.743633695462596833e+01 -6.004432449439929798e+01 1.829384332533798840e+02 2.134224663374760667e+02 -1.157770389645871205e+02 -2.554124728576003633e+01 -1.939481052717517287e+02 -6.662333867660201747e+01 1.444310995387631067e+02 3.058537946965717236e+00 -6.551365398859577738e+01 1.510659412510395327e+02 -5.761589641017927477e+01 -1.482008381906120746e+02 1.259962567895439776e+02 -6.193432463547875244e+01 3.190841150778088675e+01 7.959375739623311574e+01 1.273840016480597015e+01 -2.197627251264062807e+02 3.907419414337738317e+01 -5.742378764353092357e+00 8.315004166113359929e+01 -2.173865088014518676e+01 9.315817807873014544e+01 1.571088425391329579e+01 -7.800399092326425432e+01 -1.890297880620358839e+01 -1.616161167928446218e+02 1.059987296285338800e+02 2.332970631803592809e+01 -3.835263137224352192e+01 -4.774066852912472569e+01 -5.806918250860381647e+01 3.795485497107099349e+01 1.481776753410055960e+02 1.223321387909236222e+02 3.965152289772723293e+01 -1.824382897373326671e+02 -3.577188353981943436e+01 4.041995804470597164e+01 1.081359495151197336e+02 8.033115565375024403e+01 1.420824315643658764e+01 -1.714638877922471636e+02 1.213270559852819446e+02 -2.062473179811691466e+02 -1.897316386495758422e+02 -1.659762577476443735e+00 -6.799292934058308902e+01 -2.229128859268729812e+01 8.029337952609471074e+01 5.154292485127172085e+01 -1.024644501211660668e+02 -1.396615477388077977e+02 1.342275208750021420e+01 1.140146512418769618e+02 1.900750968008098241e+01 -5.227463102059287792e+01 -4.766826592267432261e+01 -1.070850577599238740e+01 1.487607778257938094e+02 2.059979808566994564e+01 -1.631135042682739424e+02 1.205399397274920972e+02 -6.278045405977646709e+01 -3.913895331078047324e+00 1.445348032251393988e+02 -4.903002202071351689e+01 -1.840728536968608609e+01 -1.031065220663501236e+02 -5.619458626957932523e+00 -2.236543957437050878e+01 1.235373943408036297e+02 1.126478978668291830e+02 6.342866534766304909e+01 6.147489623243794910e+01 -1.754895876581160863e+01 1.267895829476879754e+02 -1.058709676450815920e+02 -3.980281517411544456e+00 -8.545262948099518496e+01 1.473560459612041029e+02 6.842783945963874714e+01 4.845071750414324896e+01 7.708518714961965834e+00 -5.006115102843633480e+01 3.226113401228406730e+01 6.276074809711147395e+00 3.502750530662573691e+00 2.259105765632169138e+01 5.609038980634699101e+01 1.597768227030892660e+02 -3.651403022234605800e+01 -4.874771698535499098e+01 6.268788144770560677e+01 1.085217697745174235e+02 -1.203495829419405716e+01 8.632831174806538854e+01 9.776579700228931813e+01 1.978546927222609781e+02 -8.119118970107000166e+01 -1.150748748190649025e+02 -2.689175558457889537e+01 5.836638912399906332e+01 -9.524943633151123024e+00 1.007726690073324818e+02 3.496974312441454202e+01 -1.525625200953547562e+02 4.225723491826850164e+01 -8.391826437714287579e+01 -1.269003598417930334e+02 1.261682229710615957e+02 -7.136851060878360897e+01 5.555317213926281283e+01 1.041941999802898664e+02 -9.277211629246220070e+01 2.207547681468574652e+01 -6.762533746708059823e+01 3.780497946399846398e+01 -1.075478618151696821e+02 5.778533521591136690e+01 5.128401178388450887e+01 3.565713958721525856e+00 7.870185937063236281e+01 -1.431998341010205422e+02 7.154197315830259640e+01 -2.754457226411131998e+01 -1.571671268726969970e+02 8.796875609687363351e+01 2.287675330637962645e+01 -1.823826639532085778e+02 2.189341748229850850e+02 -5.105025587696898626e-01 9.781309069988715521e+01 -1.121747696832438237e+02 -1.806440085080432141e+02 -8.681365062723263293e+01 2.357679414908619098e+00 1.328636926266094065e+02 3.635605974584320332e+00 -8.892368407053055535e+01 4.677534731713732441e+01 1.274782281337880647e+02 6.040396896677493999e+01 -4.808160146113648636e+01 -5.503088227149792999e+01 7.860235956341783492e+01 2.853331500356437900e+01 -1.819912821501274891e+02 -1.927990233398922015e+01 1.572130885519343622e+02 9.185336290853571484e+01 -5.336297089624670775e+01 -1.040020442902662836e+02 -3.968050536709284870e+01 -4.472813055870363996e+01 -1.064570033946712329e+02 -1.709507504946758161e+01 -4.246569790799430422e+01 -1.056974376031285914e+02 -1.227753422689600171e+02 -2.511480753470055660e+01 -1.169334140722206428e+02 -1.245694701543089877e+02 -3.565792120925701170e+01 -5.143597515306304047e+01 -1.033250844847018470e+02 1.793627833907461593e+02 1.012648887940611253e+01 -2.709185160238607537e+01 -1.636419326927975959e+01 7.580093589726270409e+01 1.509193625717262677e+01 2.413234520919203518e+01 -2.040907226726474732e+01 -4.466363875846451492e+01 2.013453724616392648e+01 -1.401015502150102918e+02 -1.533546438133336665e+02 -8.701581277575877493e+01 -1.838770571878147280e+02 -8.631594250484191377e+01 8.257910905795735346e+01 5.915704732780077535e+01 -2.508134669058458499e+01 5.854276293700040412e+01 -1.508996990045253881e+02 -3.946162158937755748e+01 -1.119256061840112011e+02 -6.430012731723684283e+01 2.033540165865910296e+02 -1.977855617949795146e+02 1.977562884568999948e+02 2.401224916613678673e+01 -5.434793985466818356e+01 8.877843746478114895e+01 1.195389926992211258e+02 -4.998420098995156025e+01 -1.963677865446466058e+02 -1.436414706627955127e+02 9.856603394775312665e+01 8.069217091032756173e+01 -1.305866135003768989e+02 3.073745713814381020e+01 -3.826873915137451121e+01 -7.457645856995191025e+01 -2.739317658673352796e+01 -5.279188849778948622e+01 -8.323670801413494758e+01 -3.284869438815623965e+01 4.412547118096164844e+00 -3.141244883391934195e+01 -3.255826020253527187e-01 -1.374528434968730650e+01 8.853207831306291098e+01 1.225130220970187338e+02 1.266671974873447226e+01 1.620563989573511421e+01 -6.088145812274552782e+01 -1.889585108744761328e+02 3.260502840320479834e+01 -8.834238638039371949e+01 2.491414418602712644e+01 -7.762599164800097817e+00 1.066985157481778801e+00 6.984282278802562871e+01 1.174596553527597962e+02 -6.794461437603605702e+01 3.661286734497524975e+01 -1.859398555689307670e+02 9.354204693703403350e+00 6.608020724088350839e+00 -1.181114492662822641e+02 -3.246088091705783540e+01 -4.271340596278687229e+01 4.579563641785636463e+00 -9.850082568714509534e+01 2.605691298653032462e+01 -9.406880729883621939e+01 5.394085977210203708e+01 6.542695464172210507e+01 3.557388133414470843e+01 -2.795277118494189850e+01 1.035898012947905755e+02 5.890085302944970636e+01 7.709835710119800467e+01 -6.458255594578703551e+01 1.946484215519254590e+01 1.231839328001489662e+02 -5.637844704046608513e+01 -6.671199586246141067e+00 3.080447298340802220e+01 -1.237398160969334100e+02 9.419096395607786576e+01 8.627968428204110296e+01 -9.749634317086994884e+01 -7.930218183689265743e+01 -5.350482046746171250e+01 -4.402377188914297079e+01 -1.542342301799839674e+02 -1.308313140484564485e+02 -1.275858299551122030e+02 1.017339410681193073e+02 5.761571274035642176e+01 1.536036410880386711e+02 6.949878909103002655e+00 -8.242050217916741417e+01 1.808229815034687249e+01 1.330145077666608167e+01 -6.122463065998703513e+01 7.125607486863673046e+01 1.135859048274496956e+02 9.547356080930450517e+00 1.378501860437917799e+02 2.161026706880901926e+01 1.066946370379351947e+02 1.446485510602076374e+01 -1.998300952803464554e+02 2.099970146936747426e+02 -4.705284973506660151e+01 -1.432662777024753780e+02 -6.459332886709535160e+01 -4.113292937093438439e+01 3.968197627263634786e+01 2.451042577511022813e+01 4.381709174118869043e+01 -7.082400238745698573e+01 1.170349963460416234e+02 -8.247307975063701235e+01 -6.705835557793374591e+00 1.360237172746922738e+02 1.046239075859201648e+02 5.544539449445750989e+01 -1.689733970653496726e+02 2.426588137681748236e+01 1.338800157814371516e+02 2.232588867844373226e+01 9.301290471502676382e+01 1.013742211793443033e+02 -2.014750756480039797e+02 7.323134623092580853e+01 -5.496217583005341822e+01 -2.140266192481589371e+02 8.415464239131570423e+01 2.332460828409025666e+01 -1.154067490912078853e+02 -5.529885530892814671e+01 1.308466921465992527e+02 1.390227265144702642e+02 -7.141687365485678640e+01 -1.201216998026551011e+02 -7.831009638227561709e+01 -1.555177288525101460e+02 1.835172826380087585e+01 3.556131311542928586e+01 -1.595064884186714060e+01 -1.158340050075447714e+01 -8.364087013266730253e+01 -8.233389376752484168e+01 -2.300472650204966740e+01 1.244556909546659114e+02 1.263659475146426274e+02 7.520438458875167953e+01 9.000574031667802899e+01 -7.262634452678915409e+01 -1.670939797851718538e+02 -1.215789083504470725e+01 -2.129790475822701623e+01 -6.559507315160506380e+01 1.356871954225674859e+00 6.738495669344692374e+01 -4.880497638372164459e+01 2.285167730165164812e+01 7.307124161354661851e+01 6.469077751570560508e+01 1.020208899956435857e+02 -1.375967973797961008e+02 3.655888431214881962e+01 7.686427914295143182e+01 8.742140040048104765e+01 5.445334749981860512e+01 -9.523757898211533757e+01 1.263081924074908642e+02 1.176374145743571091e+02 8.844494185312935031e+01 9.368230298663088718e+01 -7.767465339938999591e+01 -1.369583033803314898e+01 -1.196823049554779317e+01 7.105189612028000568e+01 5.994948598734274725e+01 5.172632297795761502e+01 8.998601915017492558e+01 1.075173809152135647e+02 1.144266826564766149e+02 -5.975503006977171339e+01 7.438740972469929602e+01 6.016326004167273567e+01 -1.085607669144827696e+02 1.214278716886714875e+02 -9.234585892793433004e+00 -2.578354489633519719e+01 1.840009486827903800e+02 8.174371009580741543e+01 1.146430063667624495e+02 -1.333472237381864147e+02 -1.457901535340299972e+02 -1.419261185540534029e+02 -1.128563625450716472e+02 -4.092943297433073724e+01 1.014215630589706905e+02 -1.559844968447303302e+02 3.003649928040361772e+01 1.335156337775364364e+02 -5.493154993347499015e+01 -8.451479741023135261e+01 -3.254142642756193737e+01 1.257368806975579076e+02 2.104273786529508925e+02 -6.182472051038362792e+01 1.837220678047757261e+01 -2.562196763781109610e+01 6.347524193047241425e+01 5.579833564730293460e+01 -1.976491730531793110e+02 -8.220950227367990237e+01 1.275894865999429300e+02 1.296225949057192111e+02 8.766911145865843480e+01 -4.626071220235339609e+01 -7.028207568046747156e+01 -4.206571547340099926e+01 -1.638805905469059496e+02 6.597921871720004106e+01 -2.377932835019756652e+01 1.543956857671508942e+02 -2.595299737356425140e+01 -2.921003465525917022e+02 1.344701014393437219e+02 4.655564953949401996e+01 -1.094836832804993065e+02 -2.063088890314651280e+01 3.276458916696134338e+01 -1.928823359680062310e+02 -1.060887486016733874e+02 -1.018785248981774885e+02 -5.233314817290209930e+01 5.828915263373098554e+01 -1.531569842313969332e+02 1.001820167928469090e+02 -5.046875656657459785e+01 2.736268206298026140e+00 -1.239511126867455886e+02 -9.638653563878627040e+01 1.633728808215813615e+02 8.053430510952966870e+01 -3.924145525028941250e+01 3.449000156903998260e+01 -2.605059193092179370e+01 4.031624449782403730e+01 -9.724692215120822425e+01 9.202682066802506711e+01 4.691639494023416290e+01 -1.105143663225577200e+02 1.085270429106870012e+02 -4.562566522858639217e+01 9.286774757907113553e+01 -4.591289196895331060e+01 8.214150563203585875e+01 -1.426114607988855596e+02 1.327468510196128193e+02 2.301520679702027650e+01 9.364146863912345964e+01 1.213196873099570183e+02 -1.364247165651623277e+02 -7.991686872944289632e+01 -9.827581675239690640e+01 6.219306504751641285e+01 -1.594267081026500819e+02 1.410652536286602299e+02 1.324116128321760186e+02 4.927979635926612190e+01 -7.900338690353640914e+01 5.311779349319183297e+01 -9.993196860041031471e+01 -1.014055980586200967e+01 3.252549958679519193e+01 -1.710135113190998197e+02 -7.589107779391265751e+01 -1.259698437884261146e+01 9.509544587536304050e+01 -4.676216562144484357e+01 1.012924380144516761e+02 -5.986658726189975965e+01 -1.962385086859550256e+02 -9.971631918828765606e+01 -3.164328057794713800e+01 -5.602837804133358190e+01 2.800302927038151424e+01 4.794415806326900054e+01 5.885523550554125016e+00 2.373404745336553390e+01 -1.094096612241445001e+02 5.026355732727607517e+01 3.042662476337655875e+01 -6.721645071670241123e+01 8.677627189415295206e+00 5.262998875846217572e+01 -8.893802262094375521e+01 -5.140172315980965578e+01 -2.257607258103377390e+01 9.097322790818444105e+01 -1.598252161803390869e+01 3.916623926589266613e+00 -2.128919358781951132e+02 -8.862971312819411196e+01 9.233379411260948189e+01 -8.313197572955135684e+01 2.923409526505552236e+01 2.897191514364208587e+01 3.533262004712766213e+01 6.166252531151130967e+01 -1.656146547541025313e+02 1.344038783928163241e+02 7.619041637869527506e+01 -7.062724474375064787e+00 -7.542130414697449226e+01 1.043684794347751819e+02 5.797329753602473801e+01 -1.877991560432517417e+02 -4.701248541148743953e+01 -7.631318945027206269e+01 -4.832578103743814069e+01 -5.776115743648861667e+01 -9.238509046956545490e+01 -5.633931885201036494e+01 1.788705129494366872e+02 -1.593808230873227103e+02 6.110797789410730729e+01 2.591275471476773617e+01 -7.022650488717187045e+01 9.725656330616461176e+00 -3.684967772176756995e+01 3.223572515479077083e+00 -8.981429502025068246e+01 -1.845392819423385333e+02 1.718215131322715195e+01 3.910618810704162485e+01 -1.194546964725590144e+01 -8.309364473789754513e+00 -3.714923798242902109e+01 -1.773337164825765626e+02 -2.859053934476246894e+01 -6.103080775793655732e+01 1.298409432414105424e+01 -1.459415817658919323e+01 8.466755269221187064e+01 -5.888884451729305880e+01 -9.683694427208864397e+01 -3.329491608500383393e+01 -8.350105237386436841e+00 4.237886219374413344e+01 -2.063632606419112747e+01 -6.904645293949344875e+01 -1.484684186090420077e+01 1.869990861045486952e+01 4.437775728683522658e+01 -1.064629480186373343e+02 -1.298758145969115390e+02 2.152431430516084276e+02 -2.039878753405916996e+02 -7.091667918555390315e+01 -4.325575144692321317e+01 1.306655722834705955e+02 5.912189546979266197e+01 2.140075963442818079e+02 2.287575180107461108e+02 -5.831070451722742121e+01 1.209424898532016783e+02 -5.244962439107718666e+01 -3.816568925582343041e+01 -9.400235099546677020e+01 -7.461219349129554246e+01 -6.496190370870107245e+01 -8.323623980365938735e+01 -2.278637720040180739e+02 -2.531041400222096627e+02 1.258546116208489849e+02 -2.482279928187507423e+01 4.979701803990838727e+01 1.224156225828907338e+02
