# 
#                 ----------------------------------------------------
#                 Data from a 3D direct N-body simulation. 
# 
#                 rows are i-particle; 
#                 coumns are :mass, tag, x ,y, z, vx, vy, vz, ax, ay, az
# 
#                 NTHU, Computational Physics Lab
# 
#                 ----------------------------------------------------
#                 Time = 9.399999999999844
1.000000000000000000e+00 2.000000000000000000e+00 3.000000000000000000e+00 4.000000000000000000e+00 5.000000000000000000e+00 6.000000000000000000e+00 7.000000000000000000e+00 8.000000000000000000e+00 9.000000000000000000e+00 1.000000000000000000e+01 1.100000000000000000e+01 1.200000000000000000e+01 1.300000000000000000e+01 1.400000000000000000e+01 1.500000000000000000e+01 1.600000000000000000e+01 1.700000000000000000e+01 1.800000000000000000e+01 1.900000000000000000e+01 2.000000000000000000e+01 2.100000000000000000e+01 2.200000000000000000e+01 2.300000000000000000e+01 2.400000000000000000e+01 2.500000000000000000e+01 2.600000000000000000e+01 2.700000000000000000e+01 2.800000000000000000e+01 2.900000000000000000e+01 3.000000000000000000e+01 3.100000000000000000e+01 3.200000000000000000e+01 3.300000000000000000e+01 3.400000000000000000e+01 3.500000000000000000e+01 3.600000000000000000e+01 3.700000000000000000e+01 3.800000000000000000e+01 3.900000000000000000e+01 4.000000000000000000e+01 4.100000000000000000e+01 4.200000000000000000e+01 4.300000000000000000e+01 4.400000000000000000e+01 4.500000000000000000e+01 4.600000000000000000e+01 4.700000000000000000e+01 4.800000000000000000e+01 4.900000000000000000e+01 5.000000000000000000e+01 5.100000000000000000e+01 5.200000000000000000e+01 5.300000000000000000e+01 5.400000000000000000e+01 5.500000000000000000e+01 5.600000000000000000e+01 5.700000000000000000e+01 5.800000000000000000e+01 5.900000000000000000e+01 6.000000000000000000e+01 6.100000000000000000e+01 6.200000000000000000e+01 6.300000000000000000e+01 6.400000000000000000e+01 6.500000000000000000e+01 6.600000000000000000e+01 6.700000000000000000e+01 6.800000000000000000e+01 6.900000000000000000e+01 7.000000000000000000e+01 7.100000000000000000e+01 7.200000000000000000e+01 7.300000000000000000e+01 7.400000000000000000e+01 7.500000000000000000e+01 7.600000000000000000e+01 7.700000000000000000e+01 7.800000000000000000e+01 7.900000000000000000e+01 8.000000000000000000e+01 8.100000000000000000e+01 8.200000000000000000e+01 8.300000000000000000e+01 8.400000000000000000e+01 8.500000000000000000e+01 8.600000000000000000e+01 8.700000000000000000e+01 8.800000000000000000e+01 8.900000000000000000e+01 9.000000000000000000e+01 9.100000000000000000e+01 9.200000000000000000e+01 9.300000000000000000e+01 9.400000000000000000e+01 9.500000000000000000e+01 9.600000000000000000e+01 9.700000000000000000e+01 9.800000000000000000e+01 9.900000000000000000e+01 1.000000000000000000e+02 1.010000000000000000e+02 1.020000000000000000e+02 1.030000000000000000e+02 1.040000000000000000e+02 1.050000000000000000e+02 1.060000000000000000e+02 1.070000000000000000e+02 1.080000000000000000e+02 1.090000000000000000e+02 1.100000000000000000e+02 1.110000000000000000e+02 1.120000000000000000e+02 1.130000000000000000e+02 1.140000000000000000e+02 1.150000000000000000e+02 1.160000000000000000e+02 1.170000000000000000e+02 1.180000000000000000e+02 1.190000000000000000e+02 1.200000000000000000e+02 1.210000000000000000e+02 1.220000000000000000e+02 1.230000000000000000e+02 1.240000000000000000e+02 1.250000000000000000e+02 1.260000000000000000e+02 1.270000000000000000e+02 1.280000000000000000e+02 1.290000000000000000e+02 1.300000000000000000e+02 1.310000000000000000e+02 1.320000000000000000e+02 1.330000000000000000e+02 1.340000000000000000e+02 1.350000000000000000e+02 1.360000000000000000e+02 1.370000000000000000e+02 1.380000000000000000e+02 1.390000000000000000e+02 1.400000000000000000e+02 1.410000000000000000e+02 1.420000000000000000e+02 1.430000000000000000e+02 1.440000000000000000e+02 1.450000000000000000e+02 1.460000000000000000e+02 1.470000000000000000e+02 1.480000000000000000e+02 1.490000000000000000e+02 1.500000000000000000e+02 1.510000000000000000e+02 1.520000000000000000e+02 1.530000000000000000e+02 1.540000000000000000e+02 1.550000000000000000e+02 1.560000000000000000e+02 1.570000000000000000e+02 1.580000000000000000e+02 1.590000000000000000e+02 1.600000000000000000e+02 1.610000000000000000e+02 1.620000000000000000e+02 1.630000000000000000e+02 1.640000000000000000e+02 1.650000000000000000e+02 1.660000000000000000e+02 1.670000000000000000e+02 1.680000000000000000e+02 1.690000000000000000e+02 1.700000000000000000e+02 1.710000000000000000e+02 1.720000000000000000e+02 1.730000000000000000e+02 1.740000000000000000e+02 1.750000000000000000e+02 1.760000000000000000e+02 1.770000000000000000e+02 1.780000000000000000e+02 1.790000000000000000e+02 1.800000000000000000e+02 1.810000000000000000e+02 1.820000000000000000e+02 1.830000000000000000e+02 1.840000000000000000e+02 1.850000000000000000e+02 1.860000000000000000e+02 1.870000000000000000e+02 1.880000000000000000e+02 1.890000000000000000e+02 1.900000000000000000e+02 1.910000000000000000e+02 1.920000000000000000e+02 1.930000000000000000e+02 1.940000000000000000e+02 1.950000000000000000e+02 1.960000000000000000e+02 1.970000000000000000e+02 1.980000000000000000e+02 1.990000000000000000e+02 2.000000000000000000e+02 2.010000000000000000e+02 2.020000000000000000e+02 2.030000000000000000e+02 2.040000000000000000e+02 2.050000000000000000e+02 2.060000000000000000e+02 2.070000000000000000e+02 2.080000000000000000e+02 2.090000000000000000e+02 2.100000000000000000e+02 2.110000000000000000e+02 2.120000000000000000e+02 2.130000000000000000e+02 2.140000000000000000e+02 2.150000000000000000e+02 2.160000000000000000e+02 2.170000000000000000e+02 2.180000000000000000e+02 2.190000000000000000e+02 2.200000000000000000e+02 2.210000000000000000e+02 2.220000000000000000e+02 2.230000000000000000e+02 2.240000000000000000e+02 2.250000000000000000e+02 2.260000000000000000e+02 2.270000000000000000e+02 2.280000000000000000e+02 2.290000000000000000e+02 2.300000000000000000e+02 2.310000000000000000e+02 2.320000000000000000e+02 2.330000000000000000e+02 2.340000000000000000e+02 2.350000000000000000e+02 2.360000000000000000e+02 2.370000000000000000e+02 2.380000000000000000e+02 2.390000000000000000e+02 2.400000000000000000e+02 2.410000000000000000e+02 2.420000000000000000e+02 2.430000000000000000e+02 2.440000000000000000e+02 2.450000000000000000e+02 2.460000000000000000e+02 2.470000000000000000e+02 2.480000000000000000e+02 2.490000000000000000e+02 2.500000000000000000e+02 2.510000000000000000e+02 2.520000000000000000e+02 2.530000000000000000e+02 2.540000000000000000e+02 2.550000000000000000e+02 2.560000000000000000e+02 2.570000000000000000e+02 2.580000000000000000e+02 2.590000000000000000e+02 2.600000000000000000e+02 2.610000000000000000e+02 2.620000000000000000e+02 2.630000000000000000e+02 2.640000000000000000e+02 2.650000000000000000e+02 2.660000000000000000e+02 2.670000000000000000e+02 2.680000000000000000e+02 2.690000000000000000e+02 2.700000000000000000e+02 2.710000000000000000e+02 2.720000000000000000e+02 2.730000000000000000e+02 2.740000000000000000e+02 2.750000000000000000e+02 2.760000000000000000e+02 2.770000000000000000e+02 2.780000000000000000e+02 2.790000000000000000e+02 2.800000000000000000e+02 2.810000000000000000e+02 2.820000000000000000e+02 2.830000000000000000e+02 2.840000000000000000e+02 2.850000000000000000e+02 2.860000000000000000e+02 2.870000000000000000e+02 2.880000000000000000e+02 2.890000000000000000e+02 2.900000000000000000e+02 2.910000000000000000e+02 2.920000000000000000e+02 2.930000000000000000e+02 2.940000000000000000e+02 2.950000000000000000e+02 2.960000000000000000e+02 2.970000000000000000e+02 2.980000000000000000e+02 2.990000000000000000e+02 3.000000000000000000e+02 3.010000000000000000e+02 3.020000000000000000e+02 3.030000000000000000e+02 3.040000000000000000e+02 3.050000000000000000e+02 3.060000000000000000e+02 3.070000000000000000e+02 3.080000000000000000e+02 3.090000000000000000e+02 3.100000000000000000e+02 3.110000000000000000e+02 3.120000000000000000e+02 3.130000000000000000e+02 3.140000000000000000e+02 3.150000000000000000e+02 3.160000000000000000e+02 3.170000000000000000e+02 3.180000000000000000e+02 3.190000000000000000e+02 3.200000000000000000e+02 3.210000000000000000e+02 3.220000000000000000e+02 3.230000000000000000e+02 3.240000000000000000e+02 3.250000000000000000e+02 3.260000000000000000e+02 3.270000000000000000e+02 3.280000000000000000e+02 3.290000000000000000e+02 3.300000000000000000e+02 3.310000000000000000e+02 3.320000000000000000e+02 3.330000000000000000e+02 3.340000000000000000e+02 3.350000000000000000e+02 3.360000000000000000e+02 3.370000000000000000e+02 3.380000000000000000e+02 3.390000000000000000e+02 3.400000000000000000e+02 3.410000000000000000e+02 3.420000000000000000e+02 3.430000000000000000e+02 3.440000000000000000e+02 3.450000000000000000e+02 3.460000000000000000e+02 3.470000000000000000e+02 3.480000000000000000e+02 3.490000000000000000e+02 3.500000000000000000e+02 3.510000000000000000e+02 3.520000000000000000e+02 3.530000000000000000e+02 3.540000000000000000e+02 3.550000000000000000e+02 3.560000000000000000e+02 3.570000000000000000e+02 3.580000000000000000e+02 3.590000000000000000e+02 3.600000000000000000e+02 3.610000000000000000e+02 3.620000000000000000e+02 3.630000000000000000e+02 3.640000000000000000e+02 3.650000000000000000e+02 3.660000000000000000e+02 3.670000000000000000e+02 3.680000000000000000e+02 3.690000000000000000e+02 3.700000000000000000e+02 3.710000000000000000e+02 3.720000000000000000e+02 3.730000000000000000e+02 3.740000000000000000e+02 3.750000000000000000e+02 3.760000000000000000e+02 3.770000000000000000e+02 3.780000000000000000e+02 3.790000000000000000e+02 3.800000000000000000e+02 3.810000000000000000e+02 3.820000000000000000e+02 3.830000000000000000e+02 3.840000000000000000e+02 3.850000000000000000e+02 3.860000000000000000e+02 3.870000000000000000e+02 3.880000000000000000e+02 3.890000000000000000e+02 3.900000000000000000e+02 3.910000000000000000e+02 3.920000000000000000e+02 3.930000000000000000e+02 3.940000000000000000e+02 3.950000000000000000e+02 3.960000000000000000e+02 3.970000000000000000e+02 3.980000000000000000e+02 3.990000000000000000e+02 4.000000000000000000e+02 4.010000000000000000e+02 4.020000000000000000e+02 4.030000000000000000e+02 4.040000000000000000e+02 4.050000000000000000e+02 4.060000000000000000e+02 4.070000000000000000e+02 4.080000000000000000e+02 4.090000000000000000e+02 4.100000000000000000e+02 4.110000000000000000e+02 4.120000000000000000e+02 4.130000000000000000e+02 4.140000000000000000e+02 4.150000000000000000e+02 4.160000000000000000e+02 4.170000000000000000e+02 4.180000000000000000e+02 4.190000000000000000e+02 4.200000000000000000e+02 4.210000000000000000e+02 4.220000000000000000e+02 4.230000000000000000e+02 4.240000000000000000e+02 4.250000000000000000e+02 4.260000000000000000e+02 4.270000000000000000e+02 4.280000000000000000e+02 4.290000000000000000e+02 4.300000000000000000e+02 4.310000000000000000e+02 4.320000000000000000e+02 4.330000000000000000e+02 4.340000000000000000e+02 4.350000000000000000e+02 4.360000000000000000e+02 4.370000000000000000e+02 4.380000000000000000e+02 4.390000000000000000e+02 4.400000000000000000e+02 4.410000000000000000e+02 4.420000000000000000e+02 4.430000000000000000e+02 4.440000000000000000e+02 4.450000000000000000e+02 4.460000000000000000e+02 4.470000000000000000e+02 4.480000000000000000e+02 4.490000000000000000e+02 4.500000000000000000e+02 4.510000000000000000e+02 4.520000000000000000e+02 4.530000000000000000e+02 4.540000000000000000e+02 4.550000000000000000e+02 4.560000000000000000e+02 4.570000000000000000e+02 4.580000000000000000e+02 4.590000000000000000e+02 4.600000000000000000e+02 4.610000000000000000e+02 4.620000000000000000e+02 4.630000000000000000e+02 4.640000000000000000e+02 4.650000000000000000e+02 4.660000000000000000e+02 4.670000000000000000e+02 4.680000000000000000e+02 4.690000000000000000e+02 4.700000000000000000e+02 4.710000000000000000e+02 4.720000000000000000e+02 4.730000000000000000e+02 4.740000000000000000e+02 4.750000000000000000e+02 4.760000000000000000e+02 4.770000000000000000e+02 4.780000000000000000e+02 4.790000000000000000e+02 4.800000000000000000e+02 4.810000000000000000e+02 4.820000000000000000e+02 4.830000000000000000e+02 4.840000000000000000e+02 4.850000000000000000e+02 4.860000000000000000e+02 4.870000000000000000e+02 4.880000000000000000e+02 4.890000000000000000e+02 4.900000000000000000e+02 4.910000000000000000e+02 4.920000000000000000e+02 4.930000000000000000e+02 4.940000000000000000e+02 4.950000000000000000e+02 4.960000000000000000e+02 4.970000000000000000e+02 4.980000000000000000e+02 4.990000000000000000e+02 5.000000000000000000e+02 5.010000000000000000e+02 5.020000000000000000e+02 5.030000000000000000e+02 5.040000000000000000e+02 5.050000000000000000e+02 5.060000000000000000e+02 5.070000000000000000e+02 5.080000000000000000e+02 5.090000000000000000e+02 5.100000000000000000e+02 5.110000000000000000e+02 5.120000000000000000e+02 5.130000000000000000e+02 5.140000000000000000e+02 5.150000000000000000e+02 5.160000000000000000e+02 5.170000000000000000e+02 5.180000000000000000e+02 5.190000000000000000e+02 5.200000000000000000e+02 5.210000000000000000e+02 5.220000000000000000e+02 5.230000000000000000e+02 5.240000000000000000e+02 5.250000000000000000e+02 5.260000000000000000e+02 5.270000000000000000e+02 5.280000000000000000e+02 5.290000000000000000e+02 5.300000000000000000e+02 5.310000000000000000e+02 5.320000000000000000e+02 5.330000000000000000e+02 5.340000000000000000e+02 5.350000000000000000e+02 5.360000000000000000e+02 5.370000000000000000e+02 5.380000000000000000e+02 5.390000000000000000e+02 5.400000000000000000e+02 5.410000000000000000e+02 5.420000000000000000e+02 5.430000000000000000e+02 5.440000000000000000e+02 5.450000000000000000e+02 5.460000000000000000e+02 5.470000000000000000e+02 5.480000000000000000e+02 5.490000000000000000e+02 5.500000000000000000e+02 5.510000000000000000e+02 5.520000000000000000e+02 5.530000000000000000e+02 5.540000000000000000e+02 5.550000000000000000e+02 5.560000000000000000e+02 5.570000000000000000e+02 5.580000000000000000e+02 5.590000000000000000e+02 5.600000000000000000e+02 5.610000000000000000e+02 5.620000000000000000e+02 5.630000000000000000e+02 5.640000000000000000e+02 5.650000000000000000e+02 5.660000000000000000e+02 5.670000000000000000e+02 5.680000000000000000e+02 5.690000000000000000e+02 5.700000000000000000e+02 5.710000000000000000e+02 5.720000000000000000e+02 5.730000000000000000e+02 5.740000000000000000e+02 5.750000000000000000e+02 5.760000000000000000e+02 5.770000000000000000e+02 5.780000000000000000e+02 5.790000000000000000e+02 5.800000000000000000e+02 5.810000000000000000e+02 5.820000000000000000e+02 5.830000000000000000e+02 5.840000000000000000e+02 5.850000000000000000e+02 5.860000000000000000e+02 5.870000000000000000e+02 5.880000000000000000e+02 5.890000000000000000e+02 5.900000000000000000e+02 5.910000000000000000e+02 5.920000000000000000e+02 5.930000000000000000e+02 5.940000000000000000e+02 5.950000000000000000e+02 5.960000000000000000e+02 5.970000000000000000e+02 5.980000000000000000e+02 5.990000000000000000e+02 6.000000000000000000e+02 6.010000000000000000e+02 6.020000000000000000e+02 6.030000000000000000e+02 6.040000000000000000e+02 6.050000000000000000e+02 6.060000000000000000e+02 6.070000000000000000e+02 6.080000000000000000e+02 6.090000000000000000e+02 6.100000000000000000e+02 6.110000000000000000e+02 6.120000000000000000e+02 6.130000000000000000e+02 6.140000000000000000e+02 6.150000000000000000e+02 6.160000000000000000e+02 6.170000000000000000e+02 6.180000000000000000e+02 6.190000000000000000e+02 6.200000000000000000e+02 6.210000000000000000e+02 6.220000000000000000e+02 6.230000000000000000e+02 6.240000000000000000e+02 6.250000000000000000e+02 6.260000000000000000e+02 6.270000000000000000e+02 6.280000000000000000e+02 6.290000000000000000e+02 6.300000000000000000e+02 6.310000000000000000e+02 6.320000000000000000e+02 6.330000000000000000e+02 6.340000000000000000e+02 6.350000000000000000e+02 6.360000000000000000e+02 6.370000000000000000e+02 6.380000000000000000e+02 6.390000000000000000e+02 6.400000000000000000e+02 6.410000000000000000e+02 6.420000000000000000e+02 6.430000000000000000e+02 6.440000000000000000e+02 6.450000000000000000e+02 6.460000000000000000e+02 6.470000000000000000e+02 6.480000000000000000e+02 6.490000000000000000e+02 6.500000000000000000e+02 6.510000000000000000e+02 6.520000000000000000e+02 6.530000000000000000e+02 6.540000000000000000e+02 6.550000000000000000e+02 6.560000000000000000e+02 6.570000000000000000e+02 6.580000000000000000e+02 6.590000000000000000e+02 6.600000000000000000e+02 6.610000000000000000e+02 6.620000000000000000e+02 6.630000000000000000e+02 6.640000000000000000e+02 6.650000000000000000e+02 6.660000000000000000e+02 6.670000000000000000e+02 6.680000000000000000e+02 6.690000000000000000e+02 6.700000000000000000e+02 6.710000000000000000e+02 6.720000000000000000e+02 6.730000000000000000e+02 6.740000000000000000e+02 6.750000000000000000e+02 6.760000000000000000e+02 6.770000000000000000e+02 6.780000000000000000e+02 6.790000000000000000e+02 6.800000000000000000e+02 6.810000000000000000e+02 6.820000000000000000e+02 6.830000000000000000e+02 6.840000000000000000e+02 6.850000000000000000e+02 6.860000000000000000e+02 6.870000000000000000e+02 6.880000000000000000e+02 6.890000000000000000e+02 6.900000000000000000e+02 6.910000000000000000e+02 6.920000000000000000e+02 6.930000000000000000e+02 6.940000000000000000e+02 6.950000000000000000e+02 6.960000000000000000e+02 6.970000000000000000e+02 6.980000000000000000e+02 6.990000000000000000e+02 7.000000000000000000e+02 7.010000000000000000e+02 7.020000000000000000e+02 7.030000000000000000e+02 7.040000000000000000e+02 7.050000000000000000e+02 7.060000000000000000e+02 7.070000000000000000e+02 7.080000000000000000e+02 7.090000000000000000e+02 7.100000000000000000e+02 7.110000000000000000e+02 7.120000000000000000e+02 7.130000000000000000e+02 7.140000000000000000e+02 7.150000000000000000e+02 7.160000000000000000e+02 7.170000000000000000e+02 7.180000000000000000e+02 7.190000000000000000e+02 7.200000000000000000e+02 7.210000000000000000e+02 7.220000000000000000e+02 7.230000000000000000e+02 7.240000000000000000e+02 7.250000000000000000e+02 7.260000000000000000e+02 7.270000000000000000e+02 7.280000000000000000e+02 7.290000000000000000e+02 7.300000000000000000e+02 7.310000000000000000e+02 7.320000000000000000e+02 7.330000000000000000e+02 7.340000000000000000e+02 7.350000000000000000e+02 7.360000000000000000e+02 7.370000000000000000e+02 7.380000000000000000e+02 7.390000000000000000e+02 7.400000000000000000e+02 7.410000000000000000e+02 7.420000000000000000e+02 7.430000000000000000e+02 7.440000000000000000e+02 7.450000000000000000e+02 7.460000000000000000e+02 7.470000000000000000e+02 7.480000000000000000e+02 7.490000000000000000e+02 7.500000000000000000e+02 7.510000000000000000e+02 7.520000000000000000e+02 7.530000000000000000e+02 7.540000000000000000e+02 7.550000000000000000e+02 7.560000000000000000e+02 7.570000000000000000e+02 7.580000000000000000e+02 7.590000000000000000e+02 7.600000000000000000e+02 7.610000000000000000e+02 7.620000000000000000e+02 7.630000000000000000e+02 7.640000000000000000e+02 7.650000000000000000e+02 7.660000000000000000e+02 7.670000000000000000e+02 7.680000000000000000e+02 7.690000000000000000e+02 7.700000000000000000e+02 7.710000000000000000e+02 7.720000000000000000e+02 7.730000000000000000e+02 7.740000000000000000e+02 7.750000000000000000e+02 7.760000000000000000e+02 7.770000000000000000e+02 7.780000000000000000e+02 7.790000000000000000e+02 7.800000000000000000e+02 7.810000000000000000e+02 7.820000000000000000e+02 7.830000000000000000e+02 7.840000000000000000e+02 7.850000000000000000e+02 7.860000000000000000e+02 7.870000000000000000e+02 7.880000000000000000e+02 7.890000000000000000e+02 7.900000000000000000e+02 7.910000000000000000e+02 7.920000000000000000e+02 7.930000000000000000e+02 7.940000000000000000e+02 7.950000000000000000e+02 7.960000000000000000e+02 7.970000000000000000e+02 7.980000000000000000e+02 7.990000000000000000e+02 8.000000000000000000e+02 8.010000000000000000e+02 8.020000000000000000e+02 8.030000000000000000e+02 8.040000000000000000e+02 8.050000000000000000e+02 8.060000000000000000e+02 8.070000000000000000e+02 8.080000000000000000e+02 8.090000000000000000e+02 8.100000000000000000e+02 8.110000000000000000e+02 8.120000000000000000e+02 8.130000000000000000e+02 8.140000000000000000e+02 8.150000000000000000e+02 8.160000000000000000e+02 8.170000000000000000e+02 8.180000000000000000e+02 8.190000000000000000e+02 8.200000000000000000e+02 8.210000000000000000e+02 8.220000000000000000e+02 8.230000000000000000e+02 8.240000000000000000e+02 8.250000000000000000e+02 8.260000000000000000e+02 8.270000000000000000e+02 8.280000000000000000e+02 8.290000000000000000e+02 8.300000000000000000e+02 8.310000000000000000e+02 8.320000000000000000e+02 8.330000000000000000e+02 8.340000000000000000e+02 8.350000000000000000e+02 8.360000000000000000e+02 8.370000000000000000e+02 8.380000000000000000e+02 8.390000000000000000e+02 8.400000000000000000e+02 8.410000000000000000e+02 8.420000000000000000e+02 8.430000000000000000e+02 8.440000000000000000e+02 8.450000000000000000e+02 8.460000000000000000e+02 8.470000000000000000e+02 8.480000000000000000e+02 8.490000000000000000e+02 8.500000000000000000e+02 8.510000000000000000e+02 8.520000000000000000e+02 8.530000000000000000e+02 8.540000000000000000e+02 8.550000000000000000e+02 8.560000000000000000e+02 8.570000000000000000e+02 8.580000000000000000e+02 8.590000000000000000e+02 8.600000000000000000e+02 8.610000000000000000e+02 8.620000000000000000e+02 8.630000000000000000e+02 8.640000000000000000e+02 8.650000000000000000e+02 8.660000000000000000e+02 8.670000000000000000e+02 8.680000000000000000e+02 8.690000000000000000e+02 8.700000000000000000e+02 8.710000000000000000e+02 8.720000000000000000e+02 8.730000000000000000e+02 8.740000000000000000e+02 8.750000000000000000e+02 8.760000000000000000e+02 8.770000000000000000e+02 8.780000000000000000e+02 8.790000000000000000e+02 8.800000000000000000e+02 8.810000000000000000e+02 8.820000000000000000e+02 8.830000000000000000e+02 8.840000000000000000e+02 8.850000000000000000e+02 8.860000000000000000e+02 8.870000000000000000e+02 8.880000000000000000e+02 8.890000000000000000e+02 8.900000000000000000e+02 8.910000000000000000e+02 8.920000000000000000e+02 8.930000000000000000e+02 8.940000000000000000e+02 8.950000000000000000e+02 8.960000000000000000e+02 8.970000000000000000e+02 8.980000000000000000e+02 8.990000000000000000e+02 9.000000000000000000e+02 9.010000000000000000e+02 9.020000000000000000e+02 9.030000000000000000e+02 9.040000000000000000e+02 9.050000000000000000e+02 9.060000000000000000e+02 9.070000000000000000e+02 9.080000000000000000e+02 9.090000000000000000e+02 9.100000000000000000e+02 9.110000000000000000e+02 9.120000000000000000e+02 9.130000000000000000e+02 9.140000000000000000e+02 9.150000000000000000e+02 9.160000000000000000e+02 9.170000000000000000e+02 9.180000000000000000e+02 9.190000000000000000e+02 9.200000000000000000e+02 9.210000000000000000e+02 9.220000000000000000e+02 9.230000000000000000e+02 9.240000000000000000e+02 9.250000000000000000e+02 9.260000000000000000e+02 9.270000000000000000e+02 9.280000000000000000e+02 9.290000000000000000e+02 9.300000000000000000e+02 9.310000000000000000e+02 9.320000000000000000e+02 9.330000000000000000e+02 9.340000000000000000e+02 9.350000000000000000e+02 9.360000000000000000e+02 9.370000000000000000e+02 9.380000000000000000e+02 9.390000000000000000e+02 9.400000000000000000e+02 9.410000000000000000e+02 9.420000000000000000e+02 9.430000000000000000e+02 9.440000000000000000e+02 9.450000000000000000e+02 9.460000000000000000e+02 9.470000000000000000e+02 9.480000000000000000e+02 9.490000000000000000e+02 9.500000000000000000e+02 9.510000000000000000e+02 9.520000000000000000e+02 9.530000000000000000e+02 9.540000000000000000e+02 9.550000000000000000e+02 9.560000000000000000e+02 9.570000000000000000e+02 9.580000000000000000e+02 9.590000000000000000e+02 9.600000000000000000e+02 9.610000000000000000e+02 9.620000000000000000e+02 9.630000000000000000e+02 9.640000000000000000e+02 9.650000000000000000e+02 9.660000000000000000e+02 9.670000000000000000e+02 9.680000000000000000e+02 9.690000000000000000e+02 9.700000000000000000e+02 9.710000000000000000e+02 9.720000000000000000e+02 9.730000000000000000e+02 9.740000000000000000e+02 9.750000000000000000e+02 9.760000000000000000e+02 9.770000000000000000e+02 9.780000000000000000e+02 9.790000000000000000e+02 9.800000000000000000e+02 9.810000000000000000e+02 9.820000000000000000e+02 9.830000000000000000e+02 9.840000000000000000e+02 9.850000000000000000e+02 9.860000000000000000e+02 9.870000000000000000e+02 9.880000000000000000e+02 9.890000000000000000e+02 9.900000000000000000e+02 9.910000000000000000e+02 9.920000000000000000e+02 9.930000000000000000e+02 9.940000000000000000e+02 9.950000000000000000e+02 9.960000000000000000e+02 9.970000000000000000e+02 9.980000000000000000e+02 9.990000000000000000e+02 1.000000000000000000e+03
1.000000000000000021e-02 1.000000000000000021e-02 1.000000000000000021e-02 1.000000000000000021e-02 1.000000000000000021e-02 1.000000000000000021e-02 1.000000000000000021e-02 1.000000000000000021e-02 1.000000000000000021e-02 1.000000000000000021e-02 1.000000000000000021e-02 1.000000000000000021e-02 1.000000000000000021e-02 1.000000000000000021e-02 1.000000000000000021e-02 1.000000000000000021e-02 1.000000000000000021e-02 1.000000000000000021e-02 1.000000000000000021e-02 1.000000000000000021e-02 1.000000000000000021e-02 1.000000000000000021e-02 1.000000000000000021e-02 1.000000000000000021e-02 1.000000000000000021e-02 1.000000000000000021e-02 1.000000000000000021e-02 1.000000000000000021e-02 1.000000000000000021e-02 1.000000000000000021e-02 1.000000000000000021e-02 1.000000000000000021e-02 1.000000000000000021e-02 1.000000000000000021e-02 1.000000000000000021e-02 1.000000000000000021e-02 1.000000000000000021e-02 1.000000000000000021e-02 1.000000000000000021e-02 1.000000000000000021e-02 1.000000000000000021e-02 1.000000000000000021e-02 1.000000000000000021e-02 1.000000000000000021e-02 1.000000000000000021e-02 1.000000000000000021e-02 1.000000000000000021e-02 1.000000000000000021e-02 1.000000000000000021e-02 1.000000000000000021e-02 1.000000000000000021e-02 1.000000000000000021e-02 1.000000000000000021e-02 1.000000000000000021e-02 1.000000000000000021e-02 1.000000000000000021e-02 1.000000000000000021e-02 1.000000000000000021e-02 1.000000000000000021e-02 1.000000000000000021e-02 1.000000000000000021e-02 1.000000000000000021e-02 1.000000000000000021e-02 1.000000000000000021e-02 1.000000000000000021e-02 1.000000000000000021e-02 1.000000000000000021e-02 1.000000000000000021e-02 1.000000000000000021e-02 1.000000000000000021e-02 1.000000000000000021e-02 1.000000000000000021e-02 1.000000000000000021e-02 1.000000000000000021e-02 1.000000000000000021e-02 1.000000000000000021e-02 1.000000000000000021e-02 1.000000000000000021e-02 1.000000000000000021e-02 1.000000000000000021e-02 1.000000000000000021e-02 1.000000000000000021e-02 1.000000000000000021e-02 1.000000000000000021e-02 1.000000000000000021e-02 1.000000000000000021e-02 1.000000000000000021e-02 1.000000000000000021e-02 1.000000000000000021e-02 1.000000000000000021e-02 1.000000000000000021e-02 1.000000000000000021e-02 1.000000000000000021e-02 1.000000000000000021e-02 1.000000000000000021e-02 1.000000000000000021e-02 1.000000000000000021e-02 1.000000000000000021e-02 1.000000000000000021e-02 1.000000000000000021e-02 1.000000000000000021e-02 1.000000000000000021e-02 1.000000000000000021e-02 1.000000000000000021e-02 1.000000000000000021e-02 1.000000000000000021e-02 1.000000000000000021e-02 1.000000000000000021e-02 1.000000000000000021e-02 1.000000000000000021e-02 1.000000000000000021e-02 1.000000000000000021e-02 1.000000000000000021e-02 1.000000000000000021e-02 1.000000000000000021e-02 1.000000000000000021e-02 1.000000000000000021e-02 1.000000000000000021e-02 1.000000000000000021e-02 1.000000000000000021e-02 1.000000000000000021e-02 1.000000000000000021e-02 1.000000000000000021e-02 1.000000000000000021e-02 1.000000000000000021e-02 1.000000000000000021e-02 1.000000000000000021e-02 1.000000000000000021e-02 1.000000000000000021e-02 1.000000000000000021e-02 1.000000000000000021e-02 1.000000000000000021e-02 1.000000000000000021e-02 1.000000000000000021e-02 1.000000000000000021e-02 1.000000000000000021e-02 1.000000000000000021e-02 1.000000000000000021e-02 1.000000000000000021e-02 1.000000000000000021e-02 1.000000000000000021e-02 1.000000000000000021e-02 1.000000000000000021e-02 1.000000000000000021e-02 1.000000000000000021e-02 1.000000000000000021e-02 1.000000000000000021e-02 1.000000000000000021e-02 1.000000000000000021e-02 1.000000000000000021e-02 1.000000000000000021e-02 1.000000000000000021e-02 1.000000000000000021e-02 1.000000000000000021e-02 1.000000000000000021e-02 1.000000000000000021e-02 1.000000000000000021e-02 1.000000000000000021e-02 1.000000000000000021e-02 1.000000000000000021e-02 1.000000000000000021e-02 1.000000000000000021e-02 1.000000000000000021e-02 1.000000000000000021e-02 1.000000000000000021e-02 1.000000000000000021e-02 1.000000000000000021e-02 1.000000000000000021e-02 1.000000000000000021e-02 1.000000000000000021e-02 1.000000000000000021e-02 1.000000000000000021e-02 1.000000000000000021e-02 1.000000000000000021e-02 1.000000000000000021e-02 1.000000000000000021e-02 1.000000000000000021e-02 1.000000000000000021e-02 1.000000000000000021e-02 1.000000000000000021e-02 1.000000000000000021e-02 1.000000000000000021e-02 1.000000000000000021e-02 1.000000000000000021e-02 1.000000000000000021e-02 1.000000000000000021e-02 1.000000000000000021e-02 1.000000000000000021e-02 1.000000000000000021e-02 1.000000000000000021e-02 1.000000000000000021e-02 1.000000000000000021e-02 1.000000000000000021e-02 1.000000000000000021e-02 1.000000000000000021e-02 1.000000000000000021e-02 1.000000000000000021e-02 1.000000000000000021e-02 1.000000000000000021e-02 1.000000000000000021e-02 1.000000000000000021e-02 1.000000000000000021e-02 1.000000000000000021e-02 1.000000000000000021e-02 1.000000000000000021e-02 1.000000000000000021e-02 1.000000000000000021e-02 1.000000000000000021e-02 1.000000000000000021e-02 1.000000000000000021e-02 1.000000000000000021e-02 1.000000000000000021e-02 1.000000000000000021e-02 1.000000000000000021e-02 1.000000000000000021e-02 1.000000000000000021e-02 1.000000000000000021e-02 1.000000000000000021e-02 1.000000000000000021e-02 1.000000000000000021e-02 1.000000000000000021e-02 1.000000000000000021e-02 1.000000000000000021e-02 1.000000000000000021e-02 1.000000000000000021e-02 1.000000000000000021e-02 1.000000000000000021e-02 1.000000000000000021e-02 1.000000000000000021e-02 1.000000000000000021e-02 1.000000000000000021e-02 1.000000000000000021e-02 1.000000000000000021e-02 1.000000000000000021e-02 1.000000000000000021e-02 1.000000000000000021e-02 1.000000000000000021e-02 1.000000000000000021e-02 1.000000000000000021e-02 1.000000000000000021e-02 1.000000000000000021e-02 1.000000000000000021e-02 1.000000000000000021e-02 1.000000000000000021e-02 1.000000000000000021e-02 1.000000000000000021e-02 1.000000000000000021e-02 1.000000000000000021e-02 1.000000000000000021e-02 1.000000000000000021e-02 1.000000000000000021e-02 1.000000000000000021e-02 1.000000000000000021e-02 1.000000000000000021e-02 1.000000000000000021e-02 1.000000000000000021e-02 1.000000000000000021e-02 1.000000000000000021e-02 1.000000000000000021e-02 1.000000000000000021e-02 1.000000000000000021e-02 1.000000000000000021e-02 1.000000000000000021e-02 1.000000000000000021e-02 1.000000000000000021e-02 1.000000000000000021e-02 1.000000000000000021e-02 1.000000000000000021e-02 1.000000000000000021e-02 1.000000000000000021e-02 1.000000000000000021e-02 1.000000000000000021e-02 1.000000000000000021e-02 1.000000000000000021e-02 1.000000000000000021e-02 1.000000000000000021e-02 1.000000000000000021e-02 1.000000000000000021e-02 1.000000000000000021e-02 1.000000000000000021e-02 1.000000000000000021e-02 1.000000000000000021e-02 1.000000000000000021e-02 1.000000000000000021e-02 1.000000000000000021e-02 1.000000000000000021e-02 1.000000000000000021e-02 1.000000000000000021e-02 1.000000000000000021e-02 1.000000000000000021e-02 1.000000000000000021e-02 1.000000000000000021e-02 1.000000000000000021e-02 1.000000000000000021e-02 1.000000000000000021e-02 1.000000000000000021e-02 1.000000000000000021e-02 1.000000000000000021e-02 1.000000000000000021e-02 1.000000000000000021e-02 1.000000000000000021e-02 1.000000000000000021e-02 1.000000000000000021e-02 1.000000000000000021e-02 1.000000000000000021e-02 1.000000000000000021e-02 1.000000000000000021e-02 1.000000000000000021e-02 1.000000000000000021e-02 1.000000000000000021e-02 1.000000000000000021e-02 1.000000000000000021e-02 1.000000000000000021e-02 1.000000000000000021e-02 1.000000000000000021e-02 1.000000000000000021e-02 1.000000000000000021e-02 1.000000000000000021e-02 1.000000000000000021e-02 1.000000000000000021e-02 1.000000000000000021e-02 1.000000000000000021e-02 1.000000000000000021e-02 1.000000000000000021e-02 1.000000000000000021e-02 1.000000000000000021e-02 1.000000000000000021e-02 1.000000000000000021e-02 1.000000000000000021e-02 1.000000000000000021e-02 1.000000000000000021e-02 1.000000000000000021e-02 1.000000000000000021e-02 1.000000000000000021e-02 1.000000000000000021e-02 1.000000000000000021e-02 1.000000000000000021e-02 1.000000000000000021e-02 1.000000000000000021e-02 1.000000000000000021e-02 1.000000000000000021e-02 1.000000000000000021e-02 1.000000000000000021e-02 1.000000000000000021e-02 1.000000000000000021e-02 1.000000000000000021e-02 1.000000000000000021e-02 1.000000000000000021e-02 1.000000000000000021e-02 1.000000000000000021e-02 1.000000000000000021e-02 1.000000000000000021e-02 1.000000000000000021e-02 1.000000000000000021e-02 1.000000000000000021e-02 1.000000000000000021e-02 1.000000000000000021e-02 1.000000000000000021e-02 1.000000000000000021e-02 1.000000000000000021e-02 1.000000000000000021e-02 1.000000000000000021e-02 1.000000000000000021e-02 1.000000000000000021e-02 1.000000000000000021e-02 1.000000000000000021e-02 1.000000000000000021e-02 1.000000000000000021e-02 1.000000000000000021e-02 1.000000000000000021e-02 1.000000000000000021e-02 1.000000000000000021e-02 1.000000000000000021e-02 1.000000000000000021e-02 1.000000000000000021e-02 1.000000000000000021e-02 1.000000000000000021e-02 1.000000000000000021e-02 1.000000000000000021e-02 1.000000000000000021e-02 1.000000000000000021e-02 1.000000000000000021e-02 1.000000000000000021e-02 1.000000000000000021e-02 1.000000000000000021e-02 1.000000000000000021e-02 1.000000000000000021e-02 1.000000000000000021e-02 1.000000000000000021e-02 1.000000000000000021e-02 1.000000000000000021e-02 1.000000000000000021e-02 1.000000000000000021e-02 1.000000000000000021e-02 1.000000000000000021e-02 1.000000000000000021e-02 1.000000000000000021e-02 1.000000000000000021e-02 1.000000000000000021e-02 1.000000000000000021e-02 1.000000000000000021e-02 1.000000000000000021e-02 1.000000000000000021e-02 1.000000000000000021e-02 1.000000000000000021e-02 1.000000000000000021e-02 1.000000000000000021e-02 1.000000000000000021e-02 1.000000000000000021e-02 1.000000000000000021e-02 1.000000000000000021e-02 1.000000000000000021e-02 1.000000000000000021e-02 1.000000000000000021e-02 1.000000000000000021e-02 1.000000000000000021e-02 1.000000000000000021e-02 1.000000000000000021e-02 1.000000000000000021e-02 1.000000000000000021e-02 1.000000000000000021e-02 1.000000000000000021e-02 1.000000000000000021e-02 1.000000000000000021e-02 1.000000000000000021e-02 1.000000000000000021e-02 1.000000000000000021e-02 1.000000000000000021e-02 1.000000000000000021e-02 1.000000000000000021e-02 1.000000000000000021e-02 1.000000000000000021e-02 1.000000000000000021e-02 1.000000000000000021e-02 1.000000000000000021e-02 1.000000000000000021e-02 1.000000000000000021e-02 1.000000000000000021e-02 1.000000000000000021e-02 1.000000000000000021e-02 1.000000000000000021e-02 1.000000000000000021e-02 1.000000000000000021e-02 1.000000000000000021e-02 1.000000000000000021e-02 1.000000000000000021e-02 1.000000000000000021e-02 1.000000000000000021e-02 1.000000000000000021e-02 1.000000000000000021e-02 1.000000000000000021e-02 1.000000000000000021e-02 1.000000000000000021e-02 1.000000000000000021e-02 1.000000000000000021e-02 1.000000000000000021e-02 1.000000000000000021e-02 1.000000000000000021e-02 1.000000000000000021e-02 1.000000000000000021e-02 1.000000000000000021e-02 1.000000000000000021e-02 1.000000000000000021e-02 1.000000000000000021e-02 1.000000000000000021e-02 1.000000000000000021e-02 1.000000000000000021e-02 1.000000000000000021e-02 1.000000000000000021e-02 1.000000000000000021e-02 1.000000000000000021e-02 1.000000000000000021e-02 1.000000000000000021e-02 1.000000000000000021e-02 1.000000000000000021e-02 1.000000000000000021e-02 1.000000000000000021e-02 1.000000000000000021e-02 1.000000000000000021e-02 1.000000000000000021e-02 1.000000000000000021e-02 1.000000000000000021e-02 1.000000000000000021e-02 1.000000000000000021e-02 1.000000000000000021e-02 1.000000000000000021e-02 1.000000000000000021e-02 1.000000000000000021e-02 1.000000000000000021e-02 1.000000000000000021e-02 1.000000000000000021e-02 1.000000000000000021e-02 1.000000000000000021e-02 1.000000000000000021e-02 1.000000000000000021e-02 1.000000000000000021e-02 1.000000000000000021e-02 1.000000000000000021e-02 1.000000000000000021e-02 1.000000000000000021e-02 1.000000000000000021e-02 1.000000000000000021e-02 1.000000000000000021e-02 1.000000000000000021e-02 1.000000000000000021e-02 1.000000000000000021e-02 1.000000000000000021e-02 1.000000000000000021e-02 1.000000000000000021e-02 1.000000000000000021e-02 1.000000000000000021e-02 1.000000000000000021e-02 1.000000000000000021e-02 1.000000000000000021e-02 1.000000000000000021e-02 1.000000000000000021e-02 1.000000000000000021e-02 1.000000000000000021e-02 1.000000000000000021e-02 1.000000000000000021e-02 1.000000000000000021e-02 1.000000000000000021e-02 1.000000000000000021e-02 1.000000000000000021e-02 1.000000000000000021e-02 1.000000000000000021e-02 1.000000000000000021e-02 1.000000000000000021e-02 1.000000000000000021e-02 1.000000000000000021e-02 1.000000000000000021e-02 1.000000000000000021e-02 1.000000000000000021e-02 1.000000000000000021e-02 1.000000000000000021e-02 1.000000000000000021e-02 1.000000000000000021e-02 1.000000000000000021e-02 1.000000000000000021e-02 1.000000000000000021e-02 1.000000000000000021e-02 1.000000000000000021e-02 1.000000000000000021e-02 1.000000000000000021e-02 1.000000000000000021e-02 1.000000000000000021e-02 1.000000000000000021e-02 1.000000000000000021e-02 1.000000000000000021e-02 1.000000000000000021e-02 1.000000000000000021e-02 1.000000000000000021e-02 1.000000000000000021e-02 1.000000000000000021e-02 1.000000000000000021e-02 1.000000000000000021e-02 1.000000000000000021e-02 1.000000000000000021e-02 1.000000000000000021e-02 1.000000000000000021e-02 1.000000000000000021e-02 1.000000000000000021e-02 1.000000000000000021e-02 1.000000000000000021e-02 1.000000000000000021e-02 1.000000000000000021e-02 1.000000000000000021e-02 1.000000000000000021e-02 1.000000000000000021e-02 1.000000000000000021e-02 1.000000000000000021e-02 1.000000000000000021e-02 1.000000000000000021e-02 1.000000000000000021e-02 1.000000000000000021e-02 1.000000000000000021e-02 1.000000000000000021e-02 1.000000000000000021e-02 1.000000000000000021e-02 1.000000000000000021e-02 1.000000000000000021e-02 1.000000000000000021e-02 1.000000000000000021e-02 1.000000000000000021e-02 1.000000000000000021e-02 1.000000000000000021e-02 1.000000000000000021e-02 1.000000000000000021e-02 1.000000000000000021e-02 1.000000000000000021e-02 1.000000000000000021e-02 1.000000000000000021e-02 1.000000000000000021e-02 1.000000000000000021e-02 1.000000000000000021e-02 1.000000000000000021e-02 1.000000000000000021e-02 1.000000000000000021e-02 1.000000000000000021e-02 1.000000000000000021e-02 1.000000000000000021e-02 1.000000000000000021e-02 1.000000000000000021e-02 1.000000000000000021e-02 1.000000000000000021e-02 1.000000000000000021e-02 1.000000000000000021e-02 1.000000000000000021e-02 1.000000000000000021e-02 1.000000000000000021e-02 1.000000000000000021e-02 1.000000000000000021e-02 1.000000000000000021e-02 1.000000000000000021e-02 1.000000000000000021e-02 1.000000000000000021e-02 1.000000000000000021e-02 1.000000000000000021e-02 1.000000000000000021e-02 1.000000000000000021e-02 1.000000000000000021e-02 1.000000000000000021e-02 1.000000000000000021e-02 1.000000000000000021e-02 1.000000000000000021e-02 1.000000000000000021e-02 1.000000000000000021e-02 1.000000000000000021e-02 1.000000000000000021e-02 1.000000000000000021e-02 1.000000000000000021e-02 1.000000000000000021e-02 1.000000000000000021e-02 1.000000000000000021e-02 1.000000000000000021e-02 1.000000000000000021e-02 1.000000000000000021e-02 1.000000000000000021e-02 1.000000000000000021e-02 1.000000000000000021e-02 1.000000000000000021e-02 1.000000000000000021e-02 1.000000000000000021e-02 1.000000000000000021e-02 1.000000000000000021e-02 1.000000000000000021e-02 1.000000000000000021e-02 1.000000000000000021e-02 1.000000000000000021e-02 1.000000000000000021e-02 1.000000000000000021e-02 1.000000000000000021e-02 1.000000000000000021e-02 1.000000000000000021e-02 1.000000000000000021e-02 1.000000000000000021e-02 1.000000000000000021e-02 1.000000000000000021e-02 1.000000000000000021e-02 1.000000000000000021e-02 1.000000000000000021e-02 1.000000000000000021e-02 1.000000000000000021e-02 1.000000000000000021e-02 1.000000000000000021e-02 1.000000000000000021e-02 1.000000000000000021e-02 1.000000000000000021e-02 1.000000000000000021e-02 1.000000000000000021e-02 1.000000000000000021e-02 1.000000000000000021e-02 1.000000000000000021e-02 1.000000000000000021e-02 1.000000000000000021e-02 1.000000000000000021e-02 1.000000000000000021e-02 1.000000000000000021e-02 1.000000000000000021e-02 1.000000000000000021e-02 1.000000000000000021e-02 1.000000000000000021e-02 1.000000000000000021e-02 1.000000000000000021e-02 1.000000000000000021e-02 1.000000000000000021e-02 1.000000000000000021e-02 1.000000000000000021e-02 1.000000000000000021e-02 1.000000000000000021e-02 1.000000000000000021e-02 1.000000000000000021e-02 1.000000000000000021e-02 1.000000000000000021e-02 1.000000000000000021e-02 1.000000000000000021e-02 1.000000000000000021e-02 1.000000000000000021e-02 1.000000000000000021e-02 1.000000000000000021e-02 1.000000000000000021e-02 1.000000000000000021e-02 1.000000000000000021e-02 1.000000000000000021e-02 1.000000000000000021e-02 1.000000000000000021e-02 1.000000000000000021e-02 1.000000000000000021e-02 1.000000000000000021e-02 1.000000000000000021e-02 1.000000000000000021e-02 1.000000000000000021e-02 1.000000000000000021e-02 1.000000000000000021e-02 1.000000000000000021e-02 1.000000000000000021e-02 1.000000000000000021e-02 1.000000000000000021e-02 1.000000000000000021e-02 1.000000000000000021e-02 1.000000000000000021e-02 1.000000000000000021e-02 1.000000000000000021e-02 1.000000000000000021e-02 1.000000000000000021e-02 1.000000000000000021e-02 1.000000000000000021e-02 1.000000000000000021e-02 1.000000000000000021e-02 1.000000000000000021e-02 1.000000000000000021e-02 1.000000000000000021e-02 1.000000000000000021e-02 1.000000000000000021e-02 1.000000000000000021e-02 1.000000000000000021e-02 1.000000000000000021e-02 1.000000000000000021e-02 1.000000000000000021e-02 1.000000000000000021e-02 1.000000000000000021e-02 1.000000000000000021e-02 1.000000000000000021e-02 1.000000000000000021e-02 1.000000000000000021e-02 1.000000000000000021e-02 1.000000000000000021e-02 1.000000000000000021e-02 1.000000000000000021e-02 1.000000000000000021e-02 1.000000000000000021e-02 1.000000000000000021e-02 1.000000000000000021e-02 1.000000000000000021e-02 1.000000000000000021e-02 1.000000000000000021e-02 1.000000000000000021e-02 1.000000000000000021e-02 1.000000000000000021e-02 1.000000000000000021e-02 1.000000000000000021e-02 1.000000000000000021e-02 1.000000000000000021e-02 1.000000000000000021e-02 1.000000000000000021e-02 1.000000000000000021e-02 1.000000000000000021e-02 1.000000000000000021e-02 1.000000000000000021e-02 1.000000000000000021e-02 1.000000000000000021e-02 1.000000000000000021e-02 1.000000000000000021e-02 1.000000000000000021e-02 1.000000000000000021e-02 1.000000000000000021e-02 1.000000000000000021e-02 1.000000000000000021e-02 1.000000000000000021e-02 1.000000000000000021e-02 1.000000000000000021e-02 1.000000000000000021e-02 1.000000000000000021e-02 1.000000000000000021e-02 1.000000000000000021e-02 1.000000000000000021e-02 1.000000000000000021e-02 1.000000000000000021e-02 1.000000000000000021e-02 1.000000000000000021e-02 1.000000000000000021e-02 1.000000000000000021e-02 1.000000000000000021e-02 1.000000000000000021e-02 1.000000000000000021e-02 1.000000000000000021e-02 1.000000000000000021e-02 1.000000000000000021e-02 1.000000000000000021e-02 1.000000000000000021e-02 1.000000000000000021e-02 1.000000000000000021e-02 1.000000000000000021e-02 1.000000000000000021e-02 1.000000000000000021e-02 1.000000000000000021e-02 1.000000000000000021e-02 1.000000000000000021e-02 1.000000000000000021e-02 1.000000000000000021e-02 1.000000000000000021e-02 1.000000000000000021e-02 1.000000000000000021e-02 1.000000000000000021e-02 1.000000000000000021e-02 1.000000000000000021e-02 1.000000000000000021e-02 1.000000000000000021e-02 1.000000000000000021e-02 1.000000000000000021e-02 1.000000000000000021e-02 1.000000000000000021e-02 1.000000000000000021e-02 1.000000000000000021e-02 1.000000000000000021e-02 1.000000000000000021e-02 1.000000000000000021e-02 1.000000000000000021e-02 1.000000000000000021e-02 1.000000000000000021e-02 1.000000000000000021e-02 1.000000000000000021e-02 1.000000000000000021e-02 1.000000000000000021e-02 1.000000000000000021e-02 1.000000000000000021e-02 1.000000000000000021e-02 1.000000000000000021e-02 1.000000000000000021e-02 1.000000000000000021e-02 1.000000000000000021e-02 1.000000000000000021e-02 1.000000000000000021e-02 1.000000000000000021e-02 1.000000000000000021e-02 1.000000000000000021e-02 1.000000000000000021e-02 1.000000000000000021e-02 1.000000000000000021e-02 1.000000000000000021e-02 1.000000000000000021e-02 1.000000000000000021e-02 1.000000000000000021e-02 1.000000000000000021e-02 1.000000000000000021e-02 1.000000000000000021e-02 1.000000000000000021e-02 1.000000000000000021e-02 1.000000000000000021e-02 1.000000000000000021e-02 1.000000000000000021e-02 1.000000000000000021e-02 1.000000000000000021e-02 1.000000000000000021e-02 1.000000000000000021e-02 1.000000000000000021e-02 1.000000000000000021e-02 1.000000000000000021e-02 1.000000000000000021e-02 1.000000000000000021e-02 1.000000000000000021e-02 1.000000000000000021e-02 1.000000000000000021e-02 1.000000000000000021e-02 1.000000000000000021e-02 1.000000000000000021e-02 1.000000000000000021e-02 1.000000000000000021e-02 1.000000000000000021e-02 1.000000000000000021e-02 1.000000000000000021e-02 1.000000000000000021e-02 1.000000000000000021e-02 1.000000000000000021e-02 1.000000000000000021e-02 1.000000000000000021e-02 1.000000000000000021e-02 1.000000000000000021e-02 1.000000000000000021e-02 1.000000000000000021e-02 1.000000000000000021e-02 1.000000000000000021e-02 1.000000000000000021e-02 1.000000000000000021e-02 1.000000000000000021e-02 1.000000000000000021e-02 1.000000000000000021e-02 1.000000000000000021e-02 1.000000000000000021e-02 1.000000000000000021e-02 1.000000000000000021e-02 1.000000000000000021e-02 1.000000000000000021e-02 1.000000000000000021e-02 1.000000000000000021e-02 1.000000000000000021e-02 1.000000000000000021e-02 1.000000000000000021e-02 1.000000000000000021e-02 1.000000000000000021e-02 1.000000000000000021e-02 1.000000000000000021e-02 1.000000000000000021e-02 1.000000000000000021e-02 1.000000000000000021e-02 1.000000000000000021e-02 1.000000000000000021e-02 1.000000000000000021e-02 1.000000000000000021e-02 1.000000000000000021e-02 1.000000000000000021e-02 1.000000000000000021e-02 1.000000000000000021e-02 1.000000000000000021e-02 1.000000000000000021e-02 1.000000000000000021e-02 1.000000000000000021e-02 1.000000000000000021e-02 1.000000000000000021e-02 1.000000000000000021e-02 1.000000000000000021e-02 1.000000000000000021e-02 1.000000000000000021e-02 1.000000000000000021e-02 1.000000000000000021e-02 1.000000000000000021e-02 1.000000000000000021e-02 1.000000000000000021e-02 1.000000000000000021e-02 1.000000000000000021e-02 1.000000000000000021e-02 1.000000000000000021e-02 1.000000000000000021e-02 1.000000000000000021e-02 1.000000000000000021e-02 1.000000000000000021e-02 1.000000000000000021e-02 1.000000000000000021e-02 1.000000000000000021e-02 1.000000000000000021e-02 1.000000000000000021e-02 1.000000000000000021e-02 1.000000000000000021e-02 1.000000000000000021e-02 1.000000000000000021e-02 1.000000000000000021e-02 1.000000000000000021e-02 1.000000000000000021e-02 1.000000000000000021e-02 1.000000000000000021e-02 1.000000000000000021e-02 1.000000000000000021e-02 1.000000000000000021e-02 1.000000000000000021e-02 1.000000000000000021e-02 1.000000000000000021e-02 1.000000000000000021e-02 1.000000000000000021e-02 1.000000000000000021e-02 1.000000000000000021e-02 1.000000000000000021e-02 1.000000000000000021e-02 1.000000000000000021e-02 1.000000000000000021e-02 1.000000000000000021e-02 1.000000000000000021e-02 1.000000000000000021e-02 1.000000000000000021e-02 1.000000000000000021e-02 1.000000000000000021e-02 1.000000000000000021e-02 1.000000000000000021e-02 1.000000000000000021e-02 1.000000000000000021e-02 1.000000000000000021e-02 1.000000000000000021e-02 1.000000000000000021e-02 1.000000000000000021e-02 1.000000000000000021e-02 1.000000000000000021e-02 1.000000000000000021e-02 1.000000000000000021e-02 1.000000000000000021e-02 1.000000000000000021e-02 1.000000000000000021e-02 1.000000000000000021e-02 1.000000000000000021e-02 1.000000000000000021e-02 1.000000000000000021e-02 1.000000000000000021e-02
-1.161861363634947395e+02 1.764603041083130961e+02 4.099623306925094823e+01 -9.222359915804528185e+00 -9.148857614386133719e+01 -1.394358375472661393e+01 -2.163678104660498036e+02 6.919905122850321666e-01 -8.823062312168690369e+01 -1.448935324545164960e+01 -2.062412015799961651e+01 6.748887575165046115e+00 -1.852588005211843969e+00 1.746684710879901559e+02 8.807681974092660937e+01 -4.032317162231376528e+01 -5.489690150524643286e+01 8.246481738684684615e+01 3.415598776944100479e+01 -2.639270714793240202e+01 -8.210271241174169177e+01 -7.686342765902354301e+01 -1.438931573654146590e+01 3.011938649880488583e+01 -2.029262858265693694e+02 -1.028096017813308833e+02 -2.715045685638791895e+01 2.099287472058339006e+02 7.366626158177926698e+01 7.982218906699573324e+01 8.357484277878175760e+01 1.239099617258120123e+00 -8.237554743898790832e+01 2.158589887234991522e+02 -2.548071521813118920e+02 6.117288126362005585e+01 -1.251409252780149757e+02 -3.608986377728701456e+01 4.193141332979958946e+00 1.319033820684122418e+02 -1.279651283389051173e+02 -1.424298951145922487e+01 8.056725590265999415e+01 1.806971939123794186e+02 7.431840442697368587e+01 -7.128090282734804362e+01 4.297992490759929751e+01 -2.952503808558857301e+01 -6.877681579831721592e+01 1.630295154154916872e+02 -7.355517900799392805e+01 -5.428287781974755433e+01 -1.449676634013784451e+02 5.906937440418335683e+00 -5.263926192893144673e+01 4.023764833860496282e+01 -9.236639434298948004e+01 -5.213400924790040847e+01 -1.055744760132929798e+02 -1.618177059040932306e+02 2.030324783970588953e+01 4.716379663637190589e+01 -1.281752063110589859e+02 1.339703872927600692e+01 -8.259963457626298577e+01 5.113335016794118104e+01 1.734139930561462961e+02 -1.501772293133006144e+02 -4.511698093007746735e+01 7.459622246729440853e+00 3.036750375440109284e+00 4.411264804055023347e+01 8.744239948910319526e+01 1.009387514293277555e+00 -9.120059643686682094e+00 -7.293755212804435928e+01 8.150710786963858823e+01 -3.417765428482525181e+01 2.735938187175994685e+01 1.082857263971674229e+02 9.189940354292517100e+01 -4.449663414208288970e+01 6.024456895772620157e+01 1.535265607109434143e+02 1.209878420445950127e+02 -4.223938333818161972e+00 1.814263976286627553e+02 -1.161007365302140215e+02 4.412706594028487750e+00 -4.366773808259658551e+01 2.153982863186430450e+02 -2.209865375859389758e+01 2.977505536022483579e+00 -7.995122747415402387e+01 -7.413286723887498653e+00 -6.651790696374457923e+01 7.054849931561578558e+01 -9.844016904017667002e+01 7.132881467686327426e+01 -4.969118381072899382e+01 -5.183785940485304167e+01 -9.543420016709585241e+01 5.532261599936497021e+01 -5.702035552726834311e+01 -1.555090561259216315e+02 -8.277699633113302013e+01 -1.089513405466334888e+02 -1.637318888188273434e+02 1.415816225130169528e+02 -2.869199586903616961e+01 3.333740561076166387e+01 9.337645983695043128e+01 -1.084164256020918771e+02 5.935222319645211542e+01 -4.511939206793013568e+01 -7.211341008069625502e+01 -9.375261640498912641e+01 2.117578150986630305e+02 -5.909668051641235564e+01 -5.150517137107052434e+01 -4.921909462656307710e+01 8.373759099357214097e+01 -4.310412862505090459e+01 1.437311081000203785e+02 -5.187460867143788334e+01 5.732452931671434726e+01 4.729089416454764994e+00 -8.456087108987111378e+01 7.170755722055726267e+01 2.888465718074012329e+02 -9.578359948615064923e+01 4.948595686835103180e+01 -7.934872293881865346e+01 4.710254059985038566e+01 1.366141355998358335e+02 -5.345833562871018074e+01 1.516509726396166791e+01 -2.801728968181281232e+01 -1.061461609020299761e+02 -1.795179984225095282e+01 4.419444539849232356e+00 -8.157893911469020765e+00 -1.559094803980983457e+01 1.232003756942363424e+02 1.357303288831191992e+02 1.941927366359343807e+02 -3.169464987150516890e+02 3.981738477622305084e+01 -1.638579082616458038e+01 -6.497132288078493900e+01 1.878743208131324991e+02 7.946734572693561915e+01 -2.650656722222808348e+00 -1.208628553643576851e+02 -1.138861952195335370e+01 1.043008616970686262e+02 -1.401067015828346882e+02 -1.757811835931164808e+02 1.118846263406594410e+01 4.425133302915713074e+01 -6.358923624792061702e+01 4.381819134891239287e+01 -1.116518988491616824e+02 -1.578048006492147124e+02 2.204195860238412052e+01 5.066515386741308902e+01 4.989534896033013034e+00 -8.712972866391665150e+01 -9.763841393941979163e+01 -8.801657311026617947e+01 -9.133759775697099315e+01 1.314600537676874836e+01 5.933440256421814496e+01 1.215845713196569591e+02 8.293639670061297409e+01 9.343053801745016074e+01 1.121524034643022247e+02 -7.811843910797409762e+01 -8.619409251508773195e+01 7.366319375407350378e+01 7.144646208914171837e+01 6.189161744513229024e+01 -9.825203365468709649e+00 -9.519975889270003222e+01 5.642365248674601474e+01 -1.870391808427215494e+02 7.020755241633477794e+01 -4.662146494000105434e+01 -1.009096664936253660e+02 7.763762192054115019e+01 -1.790119001409443555e+01 -8.076841634806065429e+01 -6.019498095459839959e+01 -9.555895762913950264e+00 2.541186828692594872e+02 8.039844510791101584e+01 5.744107315716716755e+01 -1.089120879026044406e+02 1.553812303346311126e+02 1.070371503999305141e+00 -9.479766451048138265e+01 1.633625767575413192e+02 -1.616976265028375508e+02 1.654599218772398572e+01 -3.418260123219203450e+01 -2.331236657679561688e+02 -1.416003552487272259e+02 -9.257993607742872655e+01 -3.099583941422571698e+01 -1.265577085775620247e+02 6.120410070146870396e+01 6.894004486182751634e+01 -2.922451541361814620e+01 -1.057631912762029458e+02 1.200080707969287772e+02 1.254843202706351519e+02 4.904847154927058028e+01 1.849699565730172779e+01 2.773542465867342912e+02 4.637421165749099572e+01 -1.267008378370310169e+02 -4.779801057427646072e+01 -1.793181130927627009e+02 3.383882256778283448e+01 1.628518951181578984e+02 -1.576669226142915647e+02 1.399174997675415568e+02 -9.662219271624245209e+01 -2.004995256876129517e+01 -7.520668243219870153e-01 5.613856592228385267e+01 -1.235215977079224992e+01 -2.418622389341827983e+01 -2.016611254753110316e+01 -1.345532577536396843e+02 4.935611920477232673e+01 -3.228605611607045489e+01 -1.384366120252190946e+01 -1.137873362658218568e+01 2.401548435985743595e+02 1.851073396010053784e+02 2.472606868955219568e+02 1.400963121006096230e+02 -9.202387386587484741e+01 7.996596601606601951e+01 2.241947875780128996e+01 5.065269802664223420e+01 -4.228829659503552563e+01 2.715740421649781524e+02 -2.475253185739489936e+01 -1.453739102509468069e+02 -1.591680144038420863e+01 -4.871343678244404884e+01 -8.233324870730055522e+01 4.590326600325533235e+01 -1.245767528460983797e+01 1.934697574647946112e+02 9.834376634112830118e+01 4.349666840905775445e+01 1.043135535949157315e+02 1.004164843349595060e+02 -2.445598148287388796e+01 1.485438198225843678e+02 2.814252986225951503e+01 9.525976417973670607e+01 5.066434923139847513e+01 7.387593789393100074e+00 -1.231797024157966405e+02 -1.232015743950450712e+02 -9.574786161002246843e+01 -1.657812438054245874e+01 9.221337661524302121e+01 -3.264963595708911015e+01 1.052195840098866313e+02 4.659412687194532054e+01 -7.737706480666066966e+01 -3.190411070700832141e+01 -6.235524040261346101e+01 1.868150553437169847e+01 -4.932933881256275299e+01 -1.192148057152007397e+02 1.293351783109428368e+02 1.290883277009243386e+02 -8.397318834535332144e+01 5.843835282804005438e+00 -4.819406605318588532e+01 -3.474064451625734051e+01 -1.206881304059580096e+01 -3.319779886040345929e+01 4.725361088762662121e+01 -1.494641826142779450e+02 -5.618669387437891061e+01 -1.615962924924942001e+02 1.852129278090659454e+02 -2.156377639975028160e+01 6.272348434689421737e+01 1.270613743742977064e+01 1.535579760271074861e+02 4.750739491682130478e+01 3.802550861849218933e+01 1.640563939528005903e+02 -5.236888280047153188e+01 -1.036945151136685155e+02 2.882734447703520431e+01 -1.679116110105915425e+02 -5.673046985084862115e+01 1.086585355781316480e+02 -1.357947445137074851e+02 -3.863939682512464913e+01 9.699230987496140699e+01 -1.004151887933714420e+02 -9.511050610071340827e+01 -8.780714009133902209e+01 -6.783935054316154378e+01 2.644502789177334421e+02 2.104635905545018488e+02 1.094106365678528476e+02 -1.085238484936968320e+02 7.950467862276413200e+01 -7.015373953337933699e+01 -3.303393753359068796e+01 1.761013932931120962e+01 -3.410459846921246907e+01 -9.949975826610518936e+01 -2.828535210529727006e+00 1.573061491808082479e+01 1.153376667279114116e+02 -1.362354440319476794e+02 4.434572998166360236e+01 6.757141919720568524e+01 3.665049648570757768e+01 -9.601249114912390326e+01 -1.573087932821812558e+02 2.047270850584720563e+02 -1.888160448569674088e+01 2.668251469093867456e+01 1.657040291557358955e+02 2.824384206505672168e+01 2.938499173944066456e+01 -4.712580659822509688e+01 9.375315978755305935e+01 -1.443095753811942075e+02 -3.261216939481993649e+01 -6.488780651720706949e+00 -5.653644388330788217e+01 6.468900210048189159e+00 2.257639767348694804e+01 -3.785741240026490573e+01 1.445584444505207955e+01 2.260261442363227218e+02 -2.895387321039494566e+01 -2.954698160973952881e+01 -1.074968563976948843e+02 -1.761800929814371530e+00 -8.539994725923777708e+01 6.795154729764660395e+00 1.184674431723152281e+02 -5.501419855547774063e+01 6.402241933432203602e+00 -5.744165213237150880e+01 3.537738351930948433e+00 9.220147147835392332e+01 -1.224698237532993090e+02 -1.023021482500711556e+02 -1.083753369864112415e+02 7.549113752801082455e+01 9.149117373594938840e+01 -9.760410864442944501e+01 6.613316076086300654e+01 2.726282422849164178e+01 4.088555960120640975e+01 -1.877627291187526026e+01 9.650737220609799749e+01 8.428637441995623192e+01 -8.168770222409632709e+01 1.257079910173730575e+01 8.550944308891486401e+01 7.701339961151509783e+01 -2.098619968146363135e+01 2.641862615122530755e+01 -1.400957684530182519e+02 5.124191998192257813e+01 -3.461305843947651084e+01 -3.446786955397111996e+01 1.829917323935468687e+02 5.014398667176512703e+01 1.270379689259048490e+02 2.017292445940591961e+02 -1.455022169987023517e+02 1.574718792848100009e+02 -6.692311579318995030e+01 -1.427596241589793635e+02 8.698273137012422751e+01 -1.416877376802231652e+02 -3.031760202309843777e+01 5.962859829524985855e+01 8.574632219844570358e+00 -1.775538739566723336e+02 8.894881128412427529e+01 2.662115417626954894e+01 7.301229078417748042e+01 3.829804323589662829e+01 1.001902534515657273e+01 -7.091416985006499374e+01 1.223068834987777933e+02 5.755802240752613841e+01 -6.564380939225782186e+01 -1.069552237509367956e+02 4.118409182833346449e+01 2.706867196727238678e+01 8.701889110639970681e+01 1.940526804883425029e+02 -2.604744513731304068e+01 -1.163480930592243823e+02 -8.957303716832008433e+01 -5.422192614635379471e+01 -4.693386345520156766e+01 -1.550289228429560353e+02 -2.374627709166280098e+01 1.367587295808904742e+02 7.876474419643490421e+01 -1.292752978645900441e+02 -1.582053015688899222e+02 -7.197122289288063257e+01 -8.072405655056277851e+01 1.549520634767631009e+02 -1.800432943133924084e+02 9.136947388530944636e+01 -4.868648716943176247e+00 -4.542728134185524880e+01 1.407240679182482346e+01 9.634025974636102774e+01 5.242978710068510395e+01 1.459811524219108776e+02 -1.680683193932169956e+02 -8.552515942778049407e+01 2.672573075799519415e+01 4.430130900690657114e+01 2.177669714241079930e+02 1.536038620159167749e+02 6.917675202714451643e+01 7.615628765752215656e+01 -3.626105208205859753e+01 1.603897970731891292e+02 -1.893434625798830666e+02 -6.692559230417494121e+01 -5.670608009431501983e+01 -5.470225938347093830e+01 -1.091157673254313636e+02 -1.581068376874515025e+01 -7.250676977733679962e+01 7.519826227531903839e+01 -9.695444258234438450e+00 -6.140756117116584534e+01 -6.587193742728722157e+01 1.902995455331676169e+02 6.225047007528001330e+01 -1.443697219116053176e+01 2.205644530506083640e+02 -1.143619608572243322e+02 -3.732693698771040403e+01 7.069620436003383190e+01 -1.295753272502259135e-01 1.573818000869992773e+01 -1.319889492733410634e+02 1.860174727629411677e+02 -5.177321944136019738e+01 -2.849439363962880378e+01 -1.158257139454260169e+02 1.328469913522488355e+02 1.012613325981206742e+02 -8.184155803593839096e+01 -3.958772104668089042e+01 4.106830179534263436e+01 -1.597849356355441444e+02 -1.090327010406613867e-01 -7.881864633688705624e+01 8.150027571175824548e+00 -1.140952644683837605e+02 -1.672423275183049327e+02 -7.454152803040980757e+01 1.562584798237450059e+02 5.971914046993019554e+01 -9.447915636731366362e+01 9.406935863368734374e+01 3.613652116181817320e+01 9.304772695483701739e+01 -4.439332651526510887e+01 -8.867203260599434600e+01 1.802372604329621311e+02 4.393724241584961732e+01 3.052382124775782657e+01 -7.695698974429865302e+01 -4.457595147721064421e+01 1.010914063348149128e+01 -7.527929104379455616e+00 -1.820373172730782301e+02 -3.643039646690761657e+01 6.785986270693716449e+01 1.175786595836380002e+02 1.639270544865983936e+02 -1.395217678382735471e+01 9.434213857534781766e+01 1.659822160048860269e+02 6.676887545920166644e+01 1.556101295259544770e+02 1.689855915052772417e+01 1.381253918516411829e+02 -8.829460204171398630e+01 5.615653662167014915e+01 3.088969841426333929e+01 7.978018741678116044e+01 -1.116336730358195553e+02 2.080677809137087877e+02 -1.354108916541387089e+02 9.273518576393591673e+01 -1.129143042098927907e+02 4.843230591140206087e+01 1.448041713457501700e+01 9.526362029387421160e+01 -7.737378135348373576e+01 -7.926500880630953816e+01 -1.174763979568722050e+01 9.349180845444915633e+01 -3.103574770995849619e+01 -1.712453704953158962e+01 -2.059509063961212050e+01 4.970219604367403399e+00 1.029149454202179754e+02 -6.561768902573022899e+01 -2.855764689553827562e+00 -2.029086591504872672e+02 1.274770686579039989e+02 -1.305310671605106165e+02 -7.725031402276556491e+01 -2.463169361570880511e+01 -1.127992201600057314e+02 -5.558379691220186203e+01 -6.120109705781533904e+01 -2.053656451698131136e+01 1.424661427020184021e+02 5.650472185341552489e+01 1.049952564737006497e+02 -1.422484364518873292e+02 -1.448601897093136586e+02 -2.993792842411953643e+02 1.067281504178459812e+02 1.090319455286942230e+02 4.415053035391948555e+01 -4.429345799365572844e+01 -3.894515625518085500e+01 -1.919172786061209308e+02 1.527996826198238693e+02 -1.123021023096888484e+02 1.118092842626183909e+02 -1.664817669659272212e+02 -1.494711153366395884e+01 -5.788937825583753494e+01 -1.246553433117042431e+02 -4.818328940492805401e+01 -1.301238246927418452e+01 -9.685182276698252224e+01 -1.082428282944942595e+02 -1.291044031914569601e+01 7.446286946807713036e+01 -1.303365121846580905e+02 -1.640183144411195215e+01 -7.713258257508027782e+01 -1.374271773856840468e+02 7.040927387027651640e+00 9.960507440596593653e+01 1.730669231744896592e+02 -1.996221341236618230e+01 -4.818108054140033403e+01 -1.298180760127429210e+02 -1.710492891390371142e+02 1.085130967443135717e+02 -7.610690449156064119e+01 8.269225928979869877e+01 9.844173648021866896e+00 3.063630125895085854e+01 7.727839943903997266e+01 -8.862177616344715148e+01 8.647950068216023567e+01 1.206101533207036880e+02 1.646635071964240922e+02 -1.220568654210921835e+02 1.087555224864451162e+02 -4.996152199547871220e+01 -9.500941303963008977e+01 2.244991412238605335e+02 5.158422619435642531e+01 8.734607405393222734e+01 2.234021050391736551e+01 -6.604564289759504447e+01 -3.656508766128779797e+01 -2.201442779389516602e+02 1.105333782862481371e+02 8.532109469506625032e+01 -7.922699191917109829e+01 -7.659617958313893382e+01 1.519633567475254381e+02 1.057720000743652378e+02 5.348714293070420922e+01 7.964604307879579892e+01 -8.308285765367394049e+00 1.080122849749203056e+02 -1.083171589620167765e+02 1.951434133144145164e+02 -4.132254803740367777e+01 -1.276580901631776754e+02 -3.938307559538612423e+01 7.509567259063304334e+01 1.542275125590016671e+02 1.358728006216211170e+01 1.819324405530356898e+02 5.466210378660345981e+01 3.516523862594020500e+01 -1.165308402752613972e+02 4.693539208852850209e+01 -1.309224055983575283e+02 4.989732954494021300e+01 4.050175271288506451e+01 -1.290687529219228793e+02 -8.900387608077934942e+01 4.167411396808484625e+01 9.134753119645052877e+00 -2.434675307292049951e+01 4.378196267649703088e+01 -2.239520417684169828e+01 -6.604440129996028475e+01 -2.729151267386773583e+01 -2.354005459365830788e+01 -4.170098464832013718e+01 1.967151425151934063e+01 -8.422144424245519190e+01 1.245235679595301121e+02 -7.785099974882102458e+01 -4.555626699378207078e+00 6.849833010960422541e+01 4.102712337165465684e+00 1.667065115606456160e+01 1.669079092666890318e+01 -1.226359525450807126e+02 -4.636106121723867268e+00 6.810198638353237754e+01 -2.422696831541131530e+02 -8.878474167933165972e+01 -1.180248821111082691e+02 4.582687219092440500e+01 1.007307351424749697e+02 -9.601849569627366066e+01 -1.757378048679250071e+02 -1.937467772496081864e+02 2.092218243741000094e+01 -1.517161806143837453e+02 -6.604160006782201719e+00 1.544148541811488826e+02 -7.470068737188681141e+00 3.886550099843118744e+01 -1.034474346416415500e+02 8.340589989046411290e+01 -1.238060089980382799e+02 -1.605993326091005713e+01 -3.166301872532779171e+01 6.003949830622542549e+01 -9.300309732750630332e+00 1.101965109531822407e+02 -1.271859434459966849e+02 -5.218011476699795992e+01 9.005738503557236641e+01 6.888348101372866950e+01 -8.577629996331407369e+01 -5.660092382852721471e+01 -5.133286066592801689e+01 -3.009883628788574015e+02 2.012655051235118151e+02 7.918194734043430572e+01 -2.456576006158091019e+01 -3.082505578034918514e+01 4.315771323134398330e+01 -8.749742567842174878e+01 1.034390945639293591e+02 6.275354047541004832e+01 8.525118086610474677e+01 -8.731605852539610169e+01 -2.764413890238284921e+01 3.464890929727442170e+01 1.804085964200858427e+01 -4.439803833970628943e+01 1.637754082172832568e+02 -1.795341682439566355e+01 3.667907657404307287e+01 -2.382980370647322275e+02 -8.785347155462753221e+01 -7.588966624831354579e+01 2.385627744614956924e+01 1.132092993068844891e+02 -2.400940053271315548e+02 -1.938739217569592768e+02 2.298191941124237303e+02 -1.096090700742117896e+01 9.961423258689660543e+01 6.507948897844300973e+01 -5.742098110480828410e+01 -1.357951066737334145e+02 -9.864191083863630638e+01 -5.211341731262479016e+01 -3.883113119239813926e+01 -4.058091732583049094e+01 1.679781805037423226e+01 3.844460962433207385e+01 1.728606156735479544e+02 1.276480509189126309e+02 7.131203203692821901e+00 -4.525216045015406863e+00 -1.646372291217054169e+02 1.240132423218452971e+02 1.651601945437290624e+02 -1.071473844147480179e+02 7.643130067142428175e+01 1.897145241006821248e+00 5.685486865958038294e+01 1.300670961281990685e+02 7.353057715819011264e+01 -1.388934000017019628e+02 1.676391167604889176e+01 -3.045749922522628239e+01 1.154130680137235565e+01 -2.407439658539371408e+01 4.703957916847451060e+01 -2.700420411694360610e+02 1.879434209348367517e+02 7.627345606621259044e+00 1.653899304871394520e+02 -1.099142679225089303e+01 1.102134132409680802e+02 7.434477195223107060e+01 -4.363573298282639001e+01 3.099368156841400435e+01 -7.553964201354261832e+01 -9.235399216273054890e+01 -7.488439918896277447e+01 -3.327917685894865940e+01 4.695130159713063023e+01 1.144851505936023983e+02 2.963986358975318325e+01 6.447231405630718371e+01 -1.089264661374245406e+02 -1.425465665645652678e+02 -1.401818369598573710e+01 4.826525208431071690e+01 -4.738689074475993124e+01 9.825292391599704445e+01 5.770502424682335629e+01 -2.876821853866773893e+01 3.115879836366632460e+01 6.380677675926332881e+01 -7.503407713951976632e+01 -1.391094455496528894e+02 1.478477664102978792e+02 8.135081895059650847e+00 5.218896766398016496e+01 -1.553617104148788712e+02 -5.558890879713053579e+01 -5.069121469368643718e-01 -6.835977607456315752e+01 4.459678973540199820e+00 5.860110831898766293e+01 1.941821397247158529e+02 4.075241428589261972e+01 -1.142854532777315413e+01 7.518590048394514724e+01 -4.741802624383635845e+01 -1.135908380463199876e+02 -1.440839045963180638e+02 9.783914832457240252e+00 2.618805741605815740e+01 2.478134112829536662e+01 -5.932326673611027701e+01 1.260665605120872215e+02 -8.435901113440928611e+01 1.339191346734365595e+02 9.112091904507910556e+01 -6.789785359069004755e+01 -8.834978332723358108e+01 8.788638389960634356e+01 2.143544201268812799e+01 -5.478317642719220260e+01 -5.625133467918608687e+01 1.426996452987759767e+02 5.983246938439136642e+01 8.342150524310945059e+01 2.731864824775770373e+01 -4.400775403232926664e+01 1.123645550982589754e+02 -5.702999720197369271e+01 5.315043355376762868e-01 8.009030517785127756e+01 1.041188764953203929e+02 2.671103668184387629e+02 -1.831442990224826133e+02 1.683820380822516256e+02 -7.076860258658381042e+01 -1.592311595089340592e+01 -2.616226353689028628e+01 -2.170440130391731870e+01 -5.781594886897006802e+01 9.726017368393524976e+01 1.928394975727601377e+02 -1.244971934444930213e+02 3.241521137770130423e+01 -1.330315595879168882e+02 7.359683481038911168e+01 -4.670030743096843651e+01 -8.492457340259323928e+01 -5.652008303593739669e+01 4.320153324888806168e+01 2.038158622727967284e+01 -8.594090930600602007e+01 -1.482297309417128304e+02 2.184036725928248757e+01 1.656991629276143954e+02 1.502050135422220123e+01 1.919401115734389123e+02 7.862696681756203176e+00 1.416476208099502969e+02 -3.642811304789281479e+01 9.546514085769251778e+01 -7.524188043424122441e+01 -1.189327366445703689e+02 5.208322909947597168e+01 -6.115942251761973125e+01 -8.274952145286079030e+01 7.691141910296140338e+01 6.767093083637734985e+00 -9.949966077152734556e+01 -1.588102824448511967e+02 1.560613910331187242e+02 -9.413563183176663074e+01 -2.445995062678452125e+00 1.267977532075179425e+02 6.133044413677220064e+01 -1.037347328688189663e+02 1.119303558312174651e+01 2.981046675539419084e+02 5.640272818536941912e+01 -1.668297986080648343e+02 -5.045247941114029544e+01 -6.512916831076076107e+01 1.020902930906107642e+01 1.138292999853054255e+02 -1.094952835296842579e+02 2.280136282634435929e+01 1.381948425864539729e+02 1.989123926048139168e+01 -2.237318023085929894e+02 5.126104098900506756e+01 7.995095106219595493e+01 -1.436278858651024315e+01 3.476792189950271705e+01 1.105325594975285625e-01 2.378036492610031871e+01 2.938743523173976513e+01 1.226861947763440668e+02 1.038174716726361027e+02 1.639431539960975925e+01 1.579089727568230899e+02 -6.783533814926265393e+01 2.613384760457711877e+02 6.888705632876975926e+01 1.500993908048544085e+02 -2.329626087187891770e+01 9.542547854094979698e+01 -5.206190638164641626e+01 -1.551277297600717020e+02 2.778899606269756362e+01 1.008591188569414072e+02 -9.290992709716110198e+01 -1.110178599161017985e+02 -7.052911639118443077e+01 3.876255967832341298e+01 -1.211432421111942404e+02 7.925182862267993755e+01 2.979592979333429170e+01 -1.034870510408099022e+02 2.014097244526014663e+02 -1.247470970803975732e+01 -1.078484313498999683e+02 -1.415293056405394445e+01 -2.166564967830517929e+01 -1.487016395836693619e+02 -4.246924471859658468e+01 6.520079454834683474e+01 1.396975137293582634e+02 3.074294980250914833e+01 2.840660326076675091e+01 4.749540334977952227e+01 -3.795736288296551209e+01 -1.543534325787323098e+02 1.676979243778422557e+01 3.290679603692264976e+01 1.411068660426565771e+02 -1.058898090138119308e+01 -8.076275715360074514e+01 7.764554269514873397e+01 1.079618598270923213e+00 3.397863244818889683e+01 1.477825454585744467e+02 -1.883560382916983826e+02 -9.846261058191261384e+01 1.322757016562615036e+02 -2.223359511506535853e+02 -1.895323604720348101e+02 9.372954362837303677e+01 1.587008371857869236e+02 6.528011490251581961e+01 -4.557437199441668696e+00 1.605832606102620161e+02 -2.261451051701038182e+02 1.104312418267549276e+02 4.367982602088133604e+01 1.309655715397680638e+02 -1.943554498690696164e+02 1.099014741613226960e+02 -2.919933173744013644e+01 -1.377946573072945569e+02 -5.493654969293045198e+00 -9.524849589411077488e+01 -1.689608933419419046e+01 -4.356117701268911624e+00 -1.269528400209637482e+02 -1.270856851873416531e+02 -6.449910284118523407e+01 -1.328880190349460122e+02 2.071579026034827393e+02 -1.658582607161785631e+02 -5.168714087574703342e+01 1.778025222351660375e+02 3.495525653002505351e+01 -3.050133966293141157e+02 -1.309152495404690910e+02 3.663104149428608736e+01 5.629815294900667766e+01 8.923612534645853245e+00 -1.593909629398299899e+02 3.677969886038630420e+01 7.658608021828851697e+00 -7.659528646654986517e+01 2.088719901311367551e+02 2.088124835893086697e+02 4.446230982899331607e+00 -2.148720671987350670e+02 1.298510000578911843e+02 3.173315988153040124e+01 3.812758853364223377e+00 7.901324131068244583e+01 -2.137763729565685935e+02 -1.422712724461428593e+02 1.453779803310135321e+02 1.129753732090414502e+02 5.457775122160327896e+01 1.476488104167219717e+02 -1.837012986706463380e+02 -2.102636822010984119e+01 -1.344450325314578549e+02 4.484429283285872003e+01 -1.070219818862484686e+02 8.967517405839627997e+01 -3.486726981985576401e+01 1.275686407206199036e+01 1.828232075431319004e+02 2.931075675371084799e+01 -2.715994074957508815e+02 -1.301754793833734709e+02 -8.590736374263384789e+01 1.629186554160910418e+02 1.291142034741448441e+01 -5.538436800331286491e+01 3.136681813859664203e+01 6.445626516503128300e+01 -4.082281795343929787e+01 1.107924540045262916e+02 -1.037939439360971505e+02 5.071118403396786078e+01 1.153300510133346819e+02 -3.645175088821471832e+01 -1.011093619783026867e+02 -1.168242063003416433e+02 1.234015691589519577e+02 -5.114709559541620365e+01 2.025357200543258500e+02 5.894549916714342430e+01 1.143465265985258839e+02 1.899343164845866738e+02 8.827647349184086778e+00 -1.280247171870126408e+02 -1.708522266134497727e+02 -1.176922378810365331e+02 4.373047182393339938e+01
-1.373987580281428578e+01 -4.816443309620203728e+00 1.042652232548565934e+02 -2.304933901913466343e+02 1.564273704891527643e+02 6.396987597472945453e+01 1.531186715130925222e+02 -1.299838028375201304e+02 -2.818378848373209067e+00 -2.424786965179143650e+01 -2.208944224031980355e+02 3.297899659772838987e+01 -1.845216281359911648e+01 1.230737550805037870e+02 -1.258238318054013831e+02 6.210432202332145124e+01 1.261437590832858149e+02 -4.622852132623980737e+01 -5.005000295041429581e+01 -2.728636577427532117e+01 6.207499667811929100e+01 6.356835746062919412e+01 3.260610234974793542e+01 -2.340579640673894062e+02 -5.201471359446858145e+01 9.203504953966088920e+01 9.957824048705905540e+00 -1.039367412400125268e+01 -6.697815028584493291e+01 -1.551991084750707017e+01 7.381188966917117966e+01 -1.463487158076607102e+02 -6.226218618616368161e+01 9.073726706908246342e+00 2.087833653245184848e+02 2.133857535970042250e+02 -3.221622454287223292e+01 5.624767805006901256e+01 -2.917151324093354980e-01 -1.405790417659911782e+02 9.661512216740064218e+01 1.079526349884063734e+02 1.092263504847185374e+02 1.178357871829202175e+01 6.231202239462064796e+01 4.844186161013852399e+01 3.914485541626237364e+01 2.948223332134082852e+01 1.110069028303985874e+02 9.031441160801685442e+01 6.605066296627923350e+01 1.640072758737103698e+02 2.491493426692057938e+02 1.968108975341755524e+02 -5.949877186858709166e+01 4.958020317813593181e+01 -6.473127152688003605e+01 5.680724447355790829e+01 -1.933357808746747537e+02 5.686568941280549438e+01 -2.061174212420159506e+02 -1.697847164052447511e+02 1.301695668677504081e+01 -9.274746161389028742e+00 1.706479785959587048e+02 -2.092265850804530771e+02 7.577937817750208183e+01 2.312511962673767698e+02 -7.327102697286746569e+00 -1.958929052778101720e+02 3.586290140174489949e+01 1.985290518338708239e+02 -6.148827871471605278e+01 -2.681450817703353664e+02 -1.032313403155576026e+02 8.837576098770314914e+00 -2.316033858343722329e+02 3.217942540650988548e+01 -1.806611800336158353e+02 -1.868748549244713217e+02 -5.743914116291264094e+01 1.535829454418881141e+02 7.004238318075444170e+01 1.066875073472266955e+01 -8.922180716594824901e+01 -4.292228420083142737e+01 6.424070778741176468e+01 -2.337673301201005529e+02 5.451978822235346200e+01 -7.564212537483338394e+01 -7.867020719040601762e+01 -1.781659346529009724e+02 6.564020830557819863e+01 9.353161579165760031e+01 -1.636347958801681273e+02 1.741197458790362305e+02 -4.024259368774931289e+01 -1.704998652101211576e+01 8.821461994917531513e+01 1.575611951946958413e+02 2.181772926842079485e+01 1.526816241993241476e+02 -1.858712010897734856e+01 -9.146502659268860214e+01 -1.979366602798122088e+01 1.019514228817337198e+02 4.661700561524149578e+01 1.014051454701351247e+02 9.787356748258832795e+01 -8.605824611343098240e+01 -1.761391375809426734e+02 1.275775716356479705e+02 5.625805573931639003e+01 1.670050228080585342e+01 3.171089207019484846e+01 -7.042641240027595018e+01 9.958657112007290380e+01 9.312836503694306600e+01 -1.413506768757748233e+01 -7.386226090648005993e+01 3.196021971579492416e+01 6.497192606871770693e+00 -6.386195765427206794e+01 1.758216301089149169e+02 -3.432556866454618927e+01 1.261586780897057452e+02 -7.275969211309683260e+01 3.982541303080383699e+01 -3.751133583269483296e+01 9.281413485829808963e+01 2.438653162238140482e+01 1.199471197812551111e+02 -1.203677847284546232e+02 7.716984679363741861e+01 1.282214091085958501e+02 -4.644845763064893873e+01 7.826539242863438162e+00 -1.306951272536234221e+01 1.212288858992319547e+02 3.598619350916203441e+00 1.752486956443487713e+02 -1.468925158717198940e+02 1.212488579488156546e+02 -9.495841978407615613e+01 9.945813420015311124e+01 -1.424199239744650924e+02 3.069202643729684965e+01 2.570230683052270493e+01 1.920833923820941980e+00 3.774844963055694791e+01 4.765062473023375134e+01 -1.296328036821080509e+01 1.115947174153636290e+01 1.123935330674128750e+02 1.323695596712959457e+02 -9.011032339686863679e+01 -5.643824571288575243e+01 4.930568827963312373e+01 1.623623604707435053e+00 -1.424516199652685771e+02 -5.727340933691826308e+01 -3.693972492031279842e+01 5.093150013495460371e+01 -6.826762298814611540e+01 2.388595495521569845e+01 1.669320921679666867e+02 -8.275916477294425988e+01 8.408278135284555788e+01 8.760105763379394261e+01 1.165258414022634170e+01 1.285686063862036406e+02 6.551841625737368702e+01 1.751088491074841329e+02 -3.595135010680669296e+01 1.172506164278218108e+02 5.788550403600461181e+01 -1.677702157966555419e+01 2.128533837416942731e+02 -1.447941070923897371e+02 5.097378590996258652e+01 -1.956813176309653102e+02 -8.785234075897231776e+01 4.279254316996577501e+01 -7.535591920092295481e+01 -1.627183006751485266e+02 2.080893306071109805e+02 -8.957255064113302012e+01 -4.959050848674459644e+01 -4.834103814692584677e+01 1.271587325018182213e+02 2.034738860512561303e+02 6.765297169082238327e+01 1.527922085174772633e+02 2.292585179277651264e+02 -1.724031133846720243e+00 1.702525974932708550e+02 7.407914231588340215e+01 1.989497625830650520e+02 -1.314018017048876459e+02 -1.243655845999444942e+01 6.603198260557884502e+00 1.985190768409493103e+02 -9.503232103046538271e+01 -6.313686175724998861e+01 -5.535135662955130442e+01 -1.399236054811808287e+02 4.865251674999248266e+00 -1.054949497638308458e+02 1.609780091796351940e+02 2.465539812042112544e+01 1.257133490138955878e+01 7.556921714347963359e+01 -5.184057282018727619e+00 1.221673107558818572e+02 -1.659661386232197913e+02 4.742604662111457259e+01 -1.786025945346904393e+02 1.227134860035861692e+02 1.002763418844178460e+02 -7.037846262513184570e+01 4.883463160808791770e+01 2.488561710318058999e+02 -3.180673922526609232e+01 4.354569693336254943e+01 -3.413548545767038433e+01 6.053777189498969591e+01 6.720781438917934736e+01 -6.540495557872763932e+00 1.065455819019029491e+02 1.061390218451250860e+02 -2.026006207890820292e+02 -1.601380407927442775e+02 -1.251663987923413686e+02 -9.903319108887661315e+00 -1.565514682750659574e+02 1.207289574590737686e+02 1.153346248235143463e+02 6.158516815900228636e+01 1.165678346405994681e+01 1.647692997901750971e+02 8.772564561319855159e+01 7.049948147635075202e+01 -1.062314372004365879e+02 1.590780696156154761e+02 -3.709303167368603660e+00 1.141782562919582773e+02 9.202773231485110728e+00 3.838747393958399812e+01 -7.910689653049301739e+01 -9.481339162297845746e+01 7.475945412663664058e+01 -3.973719783097197311e+00 1.527983108685879472e+02 -1.315016361083856644e+01 -2.996483570358439597e+00 4.787891841331196474e+01 2.365839682916735143e+01 1.476382518012404432e+02 1.522116609568922740e+01 3.739688635894278690e+01 -1.615013709999381888e+02 6.875438069896702586e+01 1.394978360552701702e+02 -1.851573895730054886e+01 -2.378776585288939884e+02 8.804435605709065271e+01 1.418635434226115422e+02 2.110533761454486523e+01 1.967055158415120104e+02 -4.227351594547617886e+00 4.465088463487287385e+01 -4.528944030713127944e+01 -1.441768655773388446e+02 5.814911644580687522e+01 -4.929916970703440171e+01 -8.424546015750624406e+01 4.278084042533532738e+01 -1.918602935724124734e+02 7.450653179571297358e+01 1.705105175611883510e+02 -1.050282221700349083e+02 1.793612527498260647e+02 -1.013403947440361463e+02 -6.226406612070112701e+00 -1.088032479282695597e+01 7.936765384370998788e+01 -4.822825168070859547e+01 -1.117427352699403400e+02 -9.167419144007234877e+01 1.509593786879816264e+02 6.119385596646873182e+01 -1.363051349915033370e+02 4.617634181294345552e+00 4.498338012033735822e+01 8.545329177150837552e+01 -4.173793504668275745e+01 6.209729925028965170e+01 -7.134614153289588501e+01 -1.679877590710225093e+02 -3.583161885747522035e+01 1.458156054265640762e+02 -1.171908461303474382e+02 -6.667408117611856255e+00 -1.685007327482598498e+02 -4.879040946023478931e+00 -1.507908355041447805e+02 3.396173736273713928e+01 6.210080602454666376e+01 -5.201909587537181068e+01 -8.516756491050772127e+01 5.808283603661875460e+00 7.684654116561860349e+01 -7.000830457914011618e+01 1.391643215991173861e+02 1.089150486828178401e+02 -1.318140620945968635e+02 -1.088699284416830437e+02 1.394597668335366905e+02 7.367497175778244412e+01 1.550028528997469834e+02 1.035770352118311877e+02 8.378826408044568552e+01 -6.215988249530540344e+01 -8.438474935997375326e+01 -7.951363128483754394e+01 2.108952487425773938e+02 3.142328621846506920e+01 -2.565104436420073597e+01 -7.068568356249255658e+01 -5.161736349468257856e+01 -1.351633401135337067e+02 -1.702885101872784546e+01 -1.800788638323996054e+02 1.283607515245581965e+02 4.727355546803097752e+01 -1.183181426864652650e+02 -4.964744333003823584e+01 1.229255259985364575e+02 -9.959228124985384056e+01 1.055246330255896936e+02 -1.215506223707255344e+02 -1.206454002584036544e+01 -9.801093397500724791e+01 9.203315715946884268e+01 -4.360371175950976408e+01 1.065367650260879806e+01 3.007010767071302126e+01 -1.299740571411055612e+02 1.283160768604168744e+01 4.955374127721870536e+01 -2.303692933929692543e+01 -7.052946256253835600e+01 2.076735894308330330e+02 8.866619461771853139e+01 4.837603504475495697e+01 -3.223751744763908533e+01 8.232959262515828414e+01 1.718885963737360214e+02 -9.469820544850853139e+01 2.147916659625928446e+02 -1.364987427098592434e+02 -1.886565676038766242e+02 1.557916919737490105e+02 -2.399070122373077822e+02 -1.059116281122105097e+00 -2.511565142534039410e+02 -1.568557236831973114e+02 7.356824870767395907e+01 -1.493836230616846876e+02 5.988412580758468806e+01 1.126326426490646782e+02 -1.645032936359456244e+02 -3.094305115936885642e+01 7.730519164710764812e+01 1.373519346840489277e+02 -1.907819836009871608e+02 8.965116903432512174e+01 -1.004275661434888463e+02 -1.014857800197858673e+01 -1.426959536019813157e+01 -8.162202709352877150e+01 -9.263332545209270563e+01 1.859671737196505603e+02 -2.219493910444523976e+01 1.349172138719386016e+00 1.335280526712564892e+02 -8.884920974747562639e+01 -3.530487974564174891e+01 -1.103960121506220418e+02 -5.012437819088305702e+01 5.345430616957608017e+00 6.097534556418940355e+01 -1.387181952257960518e+02 2.436772373924588919e+02 -5.542902096543001278e+01 1.261983109191041166e+02 -5.023039429372621356e+01 1.232918022193187113e+02 1.430762506813512118e+02 4.946365733957814115e+01 1.257428154747844644e+02 -4.450501766623580835e+01 1.441279990534303295e+02 -1.610676093963869278e+02 -6.734429234478980675e+01 -6.486376854023841076e+01 2.625899904128705131e+01 -1.672098848973877523e+02 7.475653195015021879e+01 -3.176389206063228343e+01 -8.514465228812574082e+01 9.234872021714683399e+01 -1.556767353036094335e+02 -9.396135908051874708e+01 -5.415450341721322047e+01 3.409764256175743213e+01 1.337837693656470321e+02 1.204619848359285470e+02 7.126802765700607267e+01 -1.700647599032257151e+00 1.801210507097095785e+02 1.262446048630101672e+02 -9.725454293313207188e+01 -8.057131819161162412e+01 5.731324402740312962e+01 1.032494213494900137e+01 1.009436378924598756e+02 1.716385754682918616e+02 7.269956908693717423e+01 2.507307383493845521e+01 -1.052384092181252839e+02 1.770061465431640499e+02 -1.171062633910054416e+02 -1.702346216841260116e+02 6.766826831562782729e+01 1.147784148415958185e+02 2.019091056973320875e+01 -1.429496450203557458e+02 3.063871923005962117e+01 4.369880344031115271e+01 -2.838864833219481021e-01 1.347356055857027002e+02 1.002893952520757779e+02 1.759730286591937798e+01 8.062096272891891147e+01 -1.101935486529166610e+02 -6.440429672777886694e+00 1.011454034226693466e+02 3.052713107289493166e+01 -6.690904432969041693e+01 2.036642277896054907e+02 2.376849492370588450e+02 -1.291515289530396728e+02 -2.836485621903605647e+01 -2.162172150142362739e+02 -7.422424087069411769e+01 1.610926702534347044e+02 3.541872378822323419e+00 -7.297902064602267558e+01 1.684345377291732007e+02 -6.429836785499834662e+01 -1.650767250448166408e+02 1.403514877428433465e+02 -6.912700420358414988e+01 3.535840664661418487e+01 8.878151541785936729e+01 1.414684571011808778e+01 -2.447737963721503149e+02 4.341949944045192922e+01 -6.259286949764542030e+00 9.251965445416533385e+01 -2.420282396862533858e+01 1.039915487715330187e+02 1.740160610904563754e+01 -8.714783065536073536e+01 -2.102482662641929423e+01 -1.799836762427052861e+02 1.181460995342429499e+02 2.594642927591215198e+01 -4.277887650127329522e+01 -5.323809052812953979e+01 -6.453925108913507813e+01 4.219405685374527337e+01 1.650523459256284866e+02 1.363238522388963077e+02 4.426995096702930965e+01 -2.032365452641442971e+02 -3.984568379270685767e+01 4.499050333444759531e+01 1.205599788211477374e+02 8.964378685984684125e+01 1.589476347062576345e+01 -1.911293122425499291e+02 1.353545031764825524e+02 -2.298723964496811618e+02 -2.114216246062404707e+02 -1.918900745160561083e+00 -7.579790805994159086e+01 -2.469509177868115302e+01 8.952136456145186116e+01 5.745262440044642460e+01 -1.142725244079216083e+02 -1.555553252939645574e+02 1.500793605269374353e+01 1.270725313819141036e+02 2.130793608076710655e+01 -5.826017553772637569e+01 -5.298287269103776964e+01 -1.216721739244933254e+01 1.657799459295453914e+02 2.299951645767563591e+01 -1.815380145141689923e+02 1.340805438536882832e+02 -6.980894607373221561e+01 -4.370149581039910913e+00 1.610378672682322190e+02 -5.473246569502241954e+01 -2.046386474880686634e+01 -1.148747883821420430e+02 -6.294219878314323502e+00 -2.496459571375744346e+01 1.377825277466851617e+02 1.256267582953216078e+02 7.067547166925592705e+01 6.837053997649246639e+01 -1.957707474954248994e+01 1.414728103970257962e+02 -1.178860066479176112e+02 -4.469174102253131053e+00 -9.522544208399565946e+01 1.644017641691089864e+02 7.630222419826129965e+01 5.409784033228502409e+01 8.688180489837851184e+00 -5.569131047352588837e+01 3.596189211968279409e+01 7.090335082721086479e+00 3.703328119926041939e+00 2.524278031334982586e+01 6.251369311910067239e+01 1.780352651228168384e+02 -4.056319751269055018e+01 -5.438605018120018286e+01 6.982663369209444681e+01 1.209693980295371176e+02 -1.338578443794104800e+01 9.608271209951539049e+01 1.087017800318313050e+02 2.203125034814574121e+02 -9.050241692995963660e+01 -1.283087574081638422e+02 -2.992915178962914524e+01 6.493556895239329663e+01 -1.060580734039700879e+01 1.123021952759135758e+02 3.890369162734312170e+01 -1.700060766477426739e+02 4.710944472682127326e+01 -9.350728223532539118e+01 -1.414178960560060148e+02 1.405615065490875111e+02 -7.941104327489938441e+01 6.175832387503690768e+01 1.162425411561781488e+02 -1.035166267508868856e+02 2.448931046130219258e+01 -7.537785313958261213e+01 4.202213598428214425e+01 -1.196091585642242450e+02 6.426129492260893983e+01 5.706000916903301601e+01 4.151832279709628537e+00 8.781670164624722474e+01 -1.597171229692839347e+02 7.974604130486207509e+01 -3.046269450266993672e+01 -1.750854758662564734e+02 9.787185109664001459e+01 2.537876340503759209e+01 -2.033540346046945899e+02 2.437540407357508343e+02 -5.414230138085164290e-01 1.090111879275340954e+02 -1.249958872687862055e+02 -2.012741643809544883e+02 -9.670780135079586159e+01 2.537636923477871953e+00 1.481401936175168430e+02 4.202530581347581062e+00 -9.903321167618099707e+01 5.230233976635990700e+01 1.420358333282131298e+02 6.737789561896671842e+01 -5.365854995919438863e+01 -6.128300956467786165e+01 8.758931192669803067e+01 3.191020931745743283e+01 -2.026158213359636022e+02 -2.149215374899838693e+01 1.752051466640447757e+02 1.024754566609781676e+02 -5.938412129110014348e+01 -1.158740912890372954e+02 -4.424678194419742994e+01 -4.982924168579530289e+01 -1.186221518651110358e+02 -1.921073968729736237e+01 -4.733146308083997411e+01 -1.177447915032172574e+02 -1.366294735597626016e+02 -2.787191286903125942e+01 -1.302122321934093065e+02 -1.385852782350318080e+02 -3.972575696994097427e+01 -5.739664628633174459e+01 -1.149986348143566062e+02 1.999290301834189165e+02 1.132083687509629399e+01 -3.022703624578188197e+01 -1.828269622317482401e+01 8.448910772228568078e+01 1.678254258086570871e+01 2.690341140896159189e+01 -2.292127792150815324e+01 -4.958903632301688447e+01 2.248192991098160931e+01 -1.561017976721335572e+02 -1.710043990789905308e+02 -9.719501483029402777e+01 -2.049776834439554136e+02 -9.628189823428355965e+01 9.221335143284022706e+01 6.591908826321700587e+01 -2.801033213297213820e+01 6.527514274801438887e+01 -1.681125867381823014e+02 -4.376860869535249066e+01 -1.247059541440664105e+02 -7.170653766327370704e+01 2.264918189332054510e+02 -2.204931590415873757e+02 2.204791244777191253e+02 2.688995565988641800e+01 -6.069620333390807332e+01 9.914320248117211065e+01 1.332837351245352409e+02 -5.574131513397624360e+01 -2.187723892122909035e+02 -1.601509222882346535e+02 1.098238849521347049e+02 8.997377677875284974e+01 -1.456581778214981000e+02 3.435802949944312701e+01 -4.257184191463311862e+01 -8.313307691845838576e+01 -3.052611916565557593e+01 -5.891220903427853273e+01 -9.287469155646546426e+01 -3.652523940996072582e+01 4.751861347405574421e+00 -3.519156095004000662e+01 -4.584805808847999820e-01 -1.547707351553827237e+01 9.884763813571071012e+01 1.364563305343664581e+02 1.415754876572856524e+01 1.801538283678932473e+01 -6.773737750204762165e+01 -2.104909377790004328e+02 3.637014435617813746e+01 -9.855960847712049144e+01 2.772537638706790375e+01 -8.860204763141979356e+00 1.041557899323204639e+00 7.750149968381383303e+01 1.308914221197266841e+02 -7.564984729355043669e+01 4.081370050883749911e+01 -2.070443409291022192e+02 1.036261375979607458e+01 7.597745291223653830e+00 -1.316057686180490975e+02 -3.624730840242492746e+01 -4.760904207525499743e+01 5.136860187710275305e+00 -1.098405817410974663e+02 2.906712057826251794e+01 -1.048979566006793220e+02 6.035253343007410365e+01 7.283790535065340066e+01 3.958839129640815457e+01 -3.117134685549440576e+01 1.153637917517035447e+02 6.554737611452299006e+01 8.588977908570804232e+01 -7.191296090815117736e+01 2.185042557509623506e+01 1.373325641091949478e+02 -6.274630772796191991e+01 -7.414481309551304022e+00 3.435205510909545268e+01 -1.377980024535228836e+02 1.050192518695338890e+02 9.613730211086141253e+01 -1.084820309345351745e+02 -8.838313399354019850e+01 -5.955478718375715630e+01 -4.879195829053224998e+01 -1.720167393408647740e+02 -1.458547702880194947e+02 -1.420841614923088514e+02 1.133324242697388087e+02 6.406279729861989836e+01 1.710419950754259446e+02 7.702833726387282809e+00 -9.200602797548813783e+01 2.004886869402502469e+01 1.483623816459661349e+01 -6.801360425006767230e+01 7.936833101364318566e+01 1.265378954122143398e+02 1.074969809943202215e+01 1.537480061498797852e+02 2.414918488218530968e+01 1.189091777997090134e+02 1.620852522198789103e+01 -2.225899247373060916e+02 2.339298681565280731e+02 -5.242135396252410118e+01 -1.597925035981303381e+02 -7.196303446596544973e+01 -4.604596653343844537e+01 4.402062596431888153e+01 2.725084234397660410e+01 4.868272232299410263e+01 -7.896278926877728566e+01 1.302688326818848736e+02 -9.180480529549828361e+01 -7.456648067513657274e+00 1.516189785150504861e+02 1.166565078796720201e+02 6.163148984423159504e+01 -1.881858918372726635e+02 2.703238960852463890e+01 1.492315824968749212e+02 2.490895886602773146e+01 1.036222264770734682e+02 1.129879533079329832e+02 -2.242181700157143496e+02 8.159349985984292175e+01 -6.124623097988008169e+01 -2.383798770961362834e+02 9.375113657915305510e+01 2.603496962017098326e+01 -1.286357071843495135e+02 -6.165636912025716754e+01 1.459811681656610176e+02 1.548435672472799354e+02 -7.943897682078126365e+01 -1.338237831370793174e+02 -8.730475651527082448e+01 -1.733660793893515688e+02 2.041127509313100674e+01 3.952399980518267597e+01 -1.760069755085007515e+01 -1.287575651160542201e+01 -9.304594320245482209e+01 -9.190078194877987983e+01 -2.557092040987855697e+01 1.386368390678130424e+02 1.409924063784734471e+02 8.387550347707912124e+01 1.002353186084205277e+02 -8.117112085334429139e+01 -1.860599139693763107e+02 -1.367394286799777703e+01 -2.390497949100503661e+01 -7.301465748537327727e+01 1.556588483431552206e+00 7.518938645005044918e+01 -5.445947209666261557e+01 2.527771340780899578e+01 8.143633919739505700e+01 7.209305959646923156e+01 1.136576110765307561e+02 -1.534767199793982968e+02 4.078501213356493338e+01 8.569444202631125052e+01 9.747142768643736588e+01 6.078838074607609343e+01 -1.061983613294058983e+02 1.408711104801196825e+02 1.310789432006179425e+02 9.856009857178725042e+01 1.044278156854309287e+02 -8.665340194658085693e+01 -1.531354364504211318e+01 -1.327097824652807745e+01 7.929085289016444449e+01 6.681937487002592491e+01 5.751384787546604116e+01 1.004026874814886128e+02 1.197728149584010993e+02 1.273384761939579448e+02 -6.683872700495872721e+01 8.288243784634960321e+01 6.713352689480082347e+01 -1.210191872226787950e+02 1.353644055694071824e+02 -1.034381449599865377e+01 -2.870776400309321019e+01 2.049717622490253461e+02 9.098491432182389360e+01 1.276627140706111589e+02 -1.485079479557539059e+02 -1.623749776920262775e+02 -1.583418976934169677e+02 -1.258085919227738430e+02 -4.559995883313728626e+01 1.131582749083026727e+02 -1.737117784847121982e+02 3.354569862725416129e+01 1.487681208486513640e+02 -6.114991353726098566e+01 -9.418962808226726224e+01 -3.618098619240402058e+01 1.401739235558787016e+02 2.344910941147410881e+02 -6.869446706419437021e+01 2.043426218920015813e+01 -2.860653168310484418e+01 7.068057829372040146e+01 6.223214123205611514e+01 -2.201306142095207008e+02 -9.153689720467311020e+01 1.420492695398151000e+02 1.443916863792339029e+02 9.765059276230061869e+01 -5.141351944348496517e+01 -7.834523277554106357e+01 -4.695766471164155575e+01 -1.823647442320861671e+02 7.357171677560283740e+01 -2.655840519124544130e+01 1.720002333200017972e+02 -2.885003263698285636e+01 -3.251514543971356375e+02 1.498175075311888236e+02 5.209602279063730634e+01 -1.220243583694127523e+02 -2.286206412535448962e+01 3.654014033429768915e+01 -2.147935731468110419e+02 -1.182503621048252000e+02 -1.133278937016036139e+02 -5.843929478534423083e+01 6.501478920994583177e+01 -1.705135621305580287e+02 1.117367256040188579e+02 -5.620350214540304279e+01 2.992065532949832463e+00 -1.380854723006199549e+02 -1.071525097833507942e+02 1.820493355455664073e+02 8.970761608403213927e+01 -4.372917975853268047e+01 3.852366466873446171e+01 -2.906845347908358335e+01 4.468889930258800547e+01 -1.083348315249428566e+02 1.022795673153707554e+02 5.233975520480770172e+01 -1.231770681304439563e+02 1.209544054782967351e+02 -5.094018912818075506e+01 1.035243261501780836e+02 -5.120801955539161554e+01 9.160705628193042571e+01 -1.589887479650176090e+02 1.478490877248609081e+02 2.568476430576728831e+01 1.042844913889425413e+02 1.351590100691500709e+02 -1.519982326252383587e+02 -8.903510412070539815e+01 -1.094991183572482356e+02 6.935223499966129168e+01 -1.776511178787941674e+02 1.570042022565215234e+02 1.477077112909884420e+02 5.496043721110269331e+01 -8.804357293277840313e+01 5.916137879704513836e+01 -1.112487492825061111e+02 -1.139297011844881702e+01 3.631341475352526516e+01 -1.906103160714576461e+02 -8.467880078495237228e+01 -1.404395942108594042e+01 1.060814403916713644e+02 -5.208492674992687199e+01 1.127557006403207112e+02 -6.679456031234862223e+01 -2.188402226266320270e+02 -1.111737215125412490e+02 -3.542520509054288880e+01 -6.250394580420823587e+01 3.126884329201375579e+01 5.329505545942850375e+01 6.610806280321348538e+00 2.619397736153744205e+01 -1.217575947006561137e+02 5.585779219528210149e+01 3.388027671351430570e+01 -7.502091912980887400e+01 9.594107892844739638e+00 5.843936568093897677e+01 -9.914252621736837057e+01 -5.719853839418038177e+01 -2.505052191796372441e+01 1.014488425825065150e+02 -1.779737014021388219e+01 4.355056457993265795e+00 -2.369505584421018796e+02 -9.880856324402439839e+01 1.028162866732169505e+02 -9.283221820873450270e+01 3.258675246394432179e+01 3.230655445197897535e+01 3.948458261667491342e+01 6.871466734914338303e+01 -1.845124594414843671e+02 1.496777189615535235e+02 8.464020420375166509e+01 -7.787570496588238633e+00 -8.403441411778251791e+01 1.164473160640676639e+02 6.457211209581802791e+01 -2.090882866497261432e+02 -5.241786938573294208e+01 -8.492984507868509070e+01 -5.396282015343135186e+01 -6.446324878484283261e+01 -1.030871673374257256e+02 -6.281072705015068891e+01 1.991364364104676099e+02 -1.776974068888630995e+02 6.813866955235653222e+01 2.885292773046223758e+01 -7.818617488462589904e+01 1.078283374566943564e+01 -4.097892400775900512e+01 3.552361881427197332e+00 -9.998099897481323239e+01 -2.054916492465031581e+02 1.913250672655950879e+01 4.362709458612518176e+01 -1.332053537555797185e+01 -9.452789819539088256e+00 -4.139163219557799778e+01 -1.976485996756328234e+02 -3.191283401300000477e+01 -6.802794469039784531e+01 1.457073735856813634e+01 -1.623513380587946386e+01 9.417241770318234728e+01 -6.558699221037180394e+01 -1.079299388575706473e+02 -3.725154435581270462e+01 -9.421257006621583940e+00 4.743360144836358927e+01 -2.307152140776257454e+01 -7.664923954637926329e+01 -1.650982172680939897e+01 2.091186760256097088e+01 4.944241652649686358e+01 -1.187040605776476525e+02 -1.447321648296496051e+02 2.397531100874672063e+02 -2.271938921297577565e+02 -7.909776613240049414e+01 -4.827394352737210426e+01 1.456193713406216830e+02 6.588885290412400764e+01 2.381950380254976380e+02 2.547904441470755330e+02 -6.486627852974339703e+01 1.348332003223221989e+02 -5.816835752175597918e+01 -4.247628854094443085e+01 -1.048308648657964994e+02 -8.313826746515351829e+01 -7.247410732949954593e+01 -9.262808339783600786e+01 -2.538083858600103895e+02 -2.820794336553271933e+02 1.402758917615329892e+02 -2.760734807093374954e+01 5.545559531372548179e+01 1.362111535704827645e+02
