# 
#                 ----------------------------------------------------
#                 Data from a 3D direct N-body simulation. 
# 
#                 rows are i-particle; 
#                 coumns are :mass, tag, x ,y, z, vx, vy, vz, ax, ay, az
# 
#                 NTHU, Computational Physics Lab
# 
#                 ----------------------------------------------------
#                 Time = 5.899999999999919
1.000000000000000000e+00 2.000000000000000000e+00 3.000000000000000000e+00 4.000000000000000000e+00 5.000000000000000000e+00 6.000000000000000000e+00 7.000000000000000000e+00 8.000000000000000000e+00 9.000000000000000000e+00 1.000000000000000000e+01 1.100000000000000000e+01 1.200000000000000000e+01 1.300000000000000000e+01 1.400000000000000000e+01 1.500000000000000000e+01 1.600000000000000000e+01 1.700000000000000000e+01 1.800000000000000000e+01 1.900000000000000000e+01 2.000000000000000000e+01 2.100000000000000000e+01 2.200000000000000000e+01 2.300000000000000000e+01 2.400000000000000000e+01 2.500000000000000000e+01 2.600000000000000000e+01 2.700000000000000000e+01 2.800000000000000000e+01 2.900000000000000000e+01 3.000000000000000000e+01 3.100000000000000000e+01 3.200000000000000000e+01 3.300000000000000000e+01 3.400000000000000000e+01 3.500000000000000000e+01 3.600000000000000000e+01 3.700000000000000000e+01 3.800000000000000000e+01 3.900000000000000000e+01 4.000000000000000000e+01 4.100000000000000000e+01 4.200000000000000000e+01 4.300000000000000000e+01 4.400000000000000000e+01 4.500000000000000000e+01 4.600000000000000000e+01 4.700000000000000000e+01 4.800000000000000000e+01 4.900000000000000000e+01 5.000000000000000000e+01 5.100000000000000000e+01 5.200000000000000000e+01 5.300000000000000000e+01 5.400000000000000000e+01 5.500000000000000000e+01 5.600000000000000000e+01 5.700000000000000000e+01 5.800000000000000000e+01 5.900000000000000000e+01 6.000000000000000000e+01 6.100000000000000000e+01 6.200000000000000000e+01 6.300000000000000000e+01 6.400000000000000000e+01 6.500000000000000000e+01 6.600000000000000000e+01 6.700000000000000000e+01 6.800000000000000000e+01 6.900000000000000000e+01 7.000000000000000000e+01 7.100000000000000000e+01 7.200000000000000000e+01 7.300000000000000000e+01 7.400000000000000000e+01 7.500000000000000000e+01 7.600000000000000000e+01 7.700000000000000000e+01 7.800000000000000000e+01 7.900000000000000000e+01 8.000000000000000000e+01 8.100000000000000000e+01 8.200000000000000000e+01 8.300000000000000000e+01 8.400000000000000000e+01 8.500000000000000000e+01 8.600000000000000000e+01 8.700000000000000000e+01 8.800000000000000000e+01 8.900000000000000000e+01 9.000000000000000000e+01 9.100000000000000000e+01 9.200000000000000000e+01 9.300000000000000000e+01 9.400000000000000000e+01 9.500000000000000000e+01 9.600000000000000000e+01 9.700000000000000000e+01 9.800000000000000000e+01 9.900000000000000000e+01 1.000000000000000000e+02 1.010000000000000000e+02 1.020000000000000000e+02 1.030000000000000000e+02 1.040000000000000000e+02 1.050000000000000000e+02 1.060000000000000000e+02 1.070000000000000000e+02 1.080000000000000000e+02 1.090000000000000000e+02 1.100000000000000000e+02 1.110000000000000000e+02 1.120000000000000000e+02 1.130000000000000000e+02 1.140000000000000000e+02 1.150000000000000000e+02 1.160000000000000000e+02 1.170000000000000000e+02 1.180000000000000000e+02 1.190000000000000000e+02 1.200000000000000000e+02 1.210000000000000000e+02 1.220000000000000000e+02 1.230000000000000000e+02 1.240000000000000000e+02 1.250000000000000000e+02 1.260000000000000000e+02 1.270000000000000000e+02 1.280000000000000000e+02 1.290000000000000000e+02 1.300000000000000000e+02 1.310000000000000000e+02 1.320000000000000000e+02 1.330000000000000000e+02 1.340000000000000000e+02 1.350000000000000000e+02 1.360000000000000000e+02 1.370000000000000000e+02 1.380000000000000000e+02 1.390000000000000000e+02 1.400000000000000000e+02 1.410000000000000000e+02 1.420000000000000000e+02 1.430000000000000000e+02 1.440000000000000000e+02 1.450000000000000000e+02 1.460000000000000000e+02 1.470000000000000000e+02 1.480000000000000000e+02 1.490000000000000000e+02 1.500000000000000000e+02 1.510000000000000000e+02 1.520000000000000000e+02 1.530000000000000000e+02 1.540000000000000000e+02 1.550000000000000000e+02 1.560000000000000000e+02 1.570000000000000000e+02 1.580000000000000000e+02 1.590000000000000000e+02 1.600000000000000000e+02 1.610000000000000000e+02 1.620000000000000000e+02 1.630000000000000000e+02 1.640000000000000000e+02 1.650000000000000000e+02 1.660000000000000000e+02 1.670000000000000000e+02 1.680000000000000000e+02 1.690000000000000000e+02 1.700000000000000000e+02 1.710000000000000000e+02 1.720000000000000000e+02 1.730000000000000000e+02 1.740000000000000000e+02 1.750000000000000000e+02 1.760000000000000000e+02 1.770000000000000000e+02 1.780000000000000000e+02 1.790000000000000000e+02 1.800000000000000000e+02 1.810000000000000000e+02 1.820000000000000000e+02 1.830000000000000000e+02 1.840000000000000000e+02 1.850000000000000000e+02 1.860000000000000000e+02 1.870000000000000000e+02 1.880000000000000000e+02 1.890000000000000000e+02 1.900000000000000000e+02 1.910000000000000000e+02 1.920000000000000000e+02 1.930000000000000000e+02 1.940000000000000000e+02 1.950000000000000000e+02 1.960000000000000000e+02 1.970000000000000000e+02 1.980000000000000000e+02 1.990000000000000000e+02 2.000000000000000000e+02 2.010000000000000000e+02 2.020000000000000000e+02 2.030000000000000000e+02 2.040000000000000000e+02 2.050000000000000000e+02 2.060000000000000000e+02 2.070000000000000000e+02 2.080000000000000000e+02 2.090000000000000000e+02 2.100000000000000000e+02 2.110000000000000000e+02 2.120000000000000000e+02 2.130000000000000000e+02 2.140000000000000000e+02 2.150000000000000000e+02 2.160000000000000000e+02 2.170000000000000000e+02 2.180000000000000000e+02 2.190000000000000000e+02 2.200000000000000000e+02 2.210000000000000000e+02 2.220000000000000000e+02 2.230000000000000000e+02 2.240000000000000000e+02 2.250000000000000000e+02 2.260000000000000000e+02 2.270000000000000000e+02 2.280000000000000000e+02 2.290000000000000000e+02 2.300000000000000000e+02 2.310000000000000000e+02 2.320000000000000000e+02 2.330000000000000000e+02 2.340000000000000000e+02 2.350000000000000000e+02 2.360000000000000000e+02 2.370000000000000000e+02 2.380000000000000000e+02 2.390000000000000000e+02 2.400000000000000000e+02 2.410000000000000000e+02 2.420000000000000000e+02 2.430000000000000000e+02 2.440000000000000000e+02 2.450000000000000000e+02 2.460000000000000000e+02 2.470000000000000000e+02 2.480000000000000000e+02 2.490000000000000000e+02 2.500000000000000000e+02 2.510000000000000000e+02 2.520000000000000000e+02 2.530000000000000000e+02 2.540000000000000000e+02 2.550000000000000000e+02 2.560000000000000000e+02 2.570000000000000000e+02 2.580000000000000000e+02 2.590000000000000000e+02 2.600000000000000000e+02 2.610000000000000000e+02 2.620000000000000000e+02 2.630000000000000000e+02 2.640000000000000000e+02 2.650000000000000000e+02 2.660000000000000000e+02 2.670000000000000000e+02 2.680000000000000000e+02 2.690000000000000000e+02 2.700000000000000000e+02 2.710000000000000000e+02 2.720000000000000000e+02 2.730000000000000000e+02 2.740000000000000000e+02 2.750000000000000000e+02 2.760000000000000000e+02 2.770000000000000000e+02 2.780000000000000000e+02 2.790000000000000000e+02 2.800000000000000000e+02 2.810000000000000000e+02 2.820000000000000000e+02 2.830000000000000000e+02 2.840000000000000000e+02 2.850000000000000000e+02 2.860000000000000000e+02 2.870000000000000000e+02 2.880000000000000000e+02 2.890000000000000000e+02 2.900000000000000000e+02 2.910000000000000000e+02 2.920000000000000000e+02 2.930000000000000000e+02 2.940000000000000000e+02 2.950000000000000000e+02 2.960000000000000000e+02 2.970000000000000000e+02 2.980000000000000000e+02 2.990000000000000000e+02 3.000000000000000000e+02 3.010000000000000000e+02 3.020000000000000000e+02 3.030000000000000000e+02 3.040000000000000000e+02 3.050000000000000000e+02 3.060000000000000000e+02 3.070000000000000000e+02 3.080000000000000000e+02 3.090000000000000000e+02 3.100000000000000000e+02 3.110000000000000000e+02 3.120000000000000000e+02 3.130000000000000000e+02 3.140000000000000000e+02 3.150000000000000000e+02 3.160000000000000000e+02 3.170000000000000000e+02 3.180000000000000000e+02 3.190000000000000000e+02 3.200000000000000000e+02 3.210000000000000000e+02 3.220000000000000000e+02 3.230000000000000000e+02 3.240000000000000000e+02 3.250000000000000000e+02 3.260000000000000000e+02 3.270000000000000000e+02 3.280000000000000000e+02 3.290000000000000000e+02 3.300000000000000000e+02 3.310000000000000000e+02 3.320000000000000000e+02 3.330000000000000000e+02 3.340000000000000000e+02 3.350000000000000000e+02 3.360000000000000000e+02 3.370000000000000000e+02 3.380000000000000000e+02 3.390000000000000000e+02 3.400000000000000000e+02 3.410000000000000000e+02 3.420000000000000000e+02 3.430000000000000000e+02 3.440000000000000000e+02 3.450000000000000000e+02 3.460000000000000000e+02 3.470000000000000000e+02 3.480000000000000000e+02 3.490000000000000000e+02 3.500000000000000000e+02 3.510000000000000000e+02 3.520000000000000000e+02 3.530000000000000000e+02 3.540000000000000000e+02 3.550000000000000000e+02 3.560000000000000000e+02 3.570000000000000000e+02 3.580000000000000000e+02 3.590000000000000000e+02 3.600000000000000000e+02 3.610000000000000000e+02 3.620000000000000000e+02 3.630000000000000000e+02 3.640000000000000000e+02 3.650000000000000000e+02 3.660000000000000000e+02 3.670000000000000000e+02 3.680000000000000000e+02 3.690000000000000000e+02 3.700000000000000000e+02 3.710000000000000000e+02 3.720000000000000000e+02 3.730000000000000000e+02 3.740000000000000000e+02 3.750000000000000000e+02 3.760000000000000000e+02 3.770000000000000000e+02 3.780000000000000000e+02 3.790000000000000000e+02 3.800000000000000000e+02 3.810000000000000000e+02 3.820000000000000000e+02 3.830000000000000000e+02 3.840000000000000000e+02 3.850000000000000000e+02 3.860000000000000000e+02 3.870000000000000000e+02 3.880000000000000000e+02 3.890000000000000000e+02 3.900000000000000000e+02 3.910000000000000000e+02 3.920000000000000000e+02 3.930000000000000000e+02 3.940000000000000000e+02 3.950000000000000000e+02 3.960000000000000000e+02 3.970000000000000000e+02 3.980000000000000000e+02 3.990000000000000000e+02 4.000000000000000000e+02 4.010000000000000000e+02 4.020000000000000000e+02 4.030000000000000000e+02 4.040000000000000000e+02 4.050000000000000000e+02 4.060000000000000000e+02 4.070000000000000000e+02 4.080000000000000000e+02 4.090000000000000000e+02 4.100000000000000000e+02 4.110000000000000000e+02 4.120000000000000000e+02 4.130000000000000000e+02 4.140000000000000000e+02 4.150000000000000000e+02 4.160000000000000000e+02 4.170000000000000000e+02 4.180000000000000000e+02 4.190000000000000000e+02 4.200000000000000000e+02 4.210000000000000000e+02 4.220000000000000000e+02 4.230000000000000000e+02 4.240000000000000000e+02 4.250000000000000000e+02 4.260000000000000000e+02 4.270000000000000000e+02 4.280000000000000000e+02 4.290000000000000000e+02 4.300000000000000000e+02 4.310000000000000000e+02 4.320000000000000000e+02 4.330000000000000000e+02 4.340000000000000000e+02 4.350000000000000000e+02 4.360000000000000000e+02 4.370000000000000000e+02 4.380000000000000000e+02 4.390000000000000000e+02 4.400000000000000000e+02 4.410000000000000000e+02 4.420000000000000000e+02 4.430000000000000000e+02 4.440000000000000000e+02 4.450000000000000000e+02 4.460000000000000000e+02 4.470000000000000000e+02 4.480000000000000000e+02 4.490000000000000000e+02 4.500000000000000000e+02 4.510000000000000000e+02 4.520000000000000000e+02 4.530000000000000000e+02 4.540000000000000000e+02 4.550000000000000000e+02 4.560000000000000000e+02 4.570000000000000000e+02 4.580000000000000000e+02 4.590000000000000000e+02 4.600000000000000000e+02 4.610000000000000000e+02 4.620000000000000000e+02 4.630000000000000000e+02 4.640000000000000000e+02 4.650000000000000000e+02 4.660000000000000000e+02 4.670000000000000000e+02 4.680000000000000000e+02 4.690000000000000000e+02 4.700000000000000000e+02 4.710000000000000000e+02 4.720000000000000000e+02 4.730000000000000000e+02 4.740000000000000000e+02 4.750000000000000000e+02 4.760000000000000000e+02 4.770000000000000000e+02 4.780000000000000000e+02 4.790000000000000000e+02 4.800000000000000000e+02 4.810000000000000000e+02 4.820000000000000000e+02 4.830000000000000000e+02 4.840000000000000000e+02 4.850000000000000000e+02 4.860000000000000000e+02 4.870000000000000000e+02 4.880000000000000000e+02 4.890000000000000000e+02 4.900000000000000000e+02 4.910000000000000000e+02 4.920000000000000000e+02 4.930000000000000000e+02 4.940000000000000000e+02 4.950000000000000000e+02 4.960000000000000000e+02 4.970000000000000000e+02 4.980000000000000000e+02 4.990000000000000000e+02 5.000000000000000000e+02 5.010000000000000000e+02 5.020000000000000000e+02 5.030000000000000000e+02 5.040000000000000000e+02 5.050000000000000000e+02 5.060000000000000000e+02 5.070000000000000000e+02 5.080000000000000000e+02 5.090000000000000000e+02 5.100000000000000000e+02 5.110000000000000000e+02 5.120000000000000000e+02 5.130000000000000000e+02 5.140000000000000000e+02 5.150000000000000000e+02 5.160000000000000000e+02 5.170000000000000000e+02 5.180000000000000000e+02 5.190000000000000000e+02 5.200000000000000000e+02 5.210000000000000000e+02 5.220000000000000000e+02 5.230000000000000000e+02 5.240000000000000000e+02 5.250000000000000000e+02 5.260000000000000000e+02 5.270000000000000000e+02 5.280000000000000000e+02 5.290000000000000000e+02 5.300000000000000000e+02 5.310000000000000000e+02 5.320000000000000000e+02 5.330000000000000000e+02 5.340000000000000000e+02 5.350000000000000000e+02 5.360000000000000000e+02 5.370000000000000000e+02 5.380000000000000000e+02 5.390000000000000000e+02 5.400000000000000000e+02 5.410000000000000000e+02 5.420000000000000000e+02 5.430000000000000000e+02 5.440000000000000000e+02 5.450000000000000000e+02 5.460000000000000000e+02 5.470000000000000000e+02 5.480000000000000000e+02 5.490000000000000000e+02 5.500000000000000000e+02 5.510000000000000000e+02 5.520000000000000000e+02 5.530000000000000000e+02 5.540000000000000000e+02 5.550000000000000000e+02 5.560000000000000000e+02 5.570000000000000000e+02 5.580000000000000000e+02 5.590000000000000000e+02 5.600000000000000000e+02 5.610000000000000000e+02 5.620000000000000000e+02 5.630000000000000000e+02 5.640000000000000000e+02 5.650000000000000000e+02 5.660000000000000000e+02 5.670000000000000000e+02 5.680000000000000000e+02 5.690000000000000000e+02 5.700000000000000000e+02 5.710000000000000000e+02 5.720000000000000000e+02 5.730000000000000000e+02 5.740000000000000000e+02 5.750000000000000000e+02 5.760000000000000000e+02 5.770000000000000000e+02 5.780000000000000000e+02 5.790000000000000000e+02 5.800000000000000000e+02 5.810000000000000000e+02 5.820000000000000000e+02 5.830000000000000000e+02 5.840000000000000000e+02 5.850000000000000000e+02 5.860000000000000000e+02 5.870000000000000000e+02 5.880000000000000000e+02 5.890000000000000000e+02 5.900000000000000000e+02 5.910000000000000000e+02 5.920000000000000000e+02 5.930000000000000000e+02 5.940000000000000000e+02 5.950000000000000000e+02 5.960000000000000000e+02 5.970000000000000000e+02 5.980000000000000000e+02 5.990000000000000000e+02 6.000000000000000000e+02 6.010000000000000000e+02 6.020000000000000000e+02 6.030000000000000000e+02 6.040000000000000000e+02 6.050000000000000000e+02 6.060000000000000000e+02 6.070000000000000000e+02 6.080000000000000000e+02 6.090000000000000000e+02 6.100000000000000000e+02 6.110000000000000000e+02 6.120000000000000000e+02 6.130000000000000000e+02 6.140000000000000000e+02 6.150000000000000000e+02 6.160000000000000000e+02 6.170000000000000000e+02 6.180000000000000000e+02 6.190000000000000000e+02 6.200000000000000000e+02 6.210000000000000000e+02 6.220000000000000000e+02 6.230000000000000000e+02 6.240000000000000000e+02 6.250000000000000000e+02 6.260000000000000000e+02 6.270000000000000000e+02 6.280000000000000000e+02 6.290000000000000000e+02 6.300000000000000000e+02 6.310000000000000000e+02 6.320000000000000000e+02 6.330000000000000000e+02 6.340000000000000000e+02 6.350000000000000000e+02 6.360000000000000000e+02 6.370000000000000000e+02 6.380000000000000000e+02 6.390000000000000000e+02 6.400000000000000000e+02 6.410000000000000000e+02 6.420000000000000000e+02 6.430000000000000000e+02 6.440000000000000000e+02 6.450000000000000000e+02 6.460000000000000000e+02 6.470000000000000000e+02 6.480000000000000000e+02 6.490000000000000000e+02 6.500000000000000000e+02 6.510000000000000000e+02 6.520000000000000000e+02 6.530000000000000000e+02 6.540000000000000000e+02 6.550000000000000000e+02 6.560000000000000000e+02 6.570000000000000000e+02 6.580000000000000000e+02 6.590000000000000000e+02 6.600000000000000000e+02 6.610000000000000000e+02 6.620000000000000000e+02 6.630000000000000000e+02 6.640000000000000000e+02 6.650000000000000000e+02 6.660000000000000000e+02 6.670000000000000000e+02 6.680000000000000000e+02 6.690000000000000000e+02 6.700000000000000000e+02 6.710000000000000000e+02 6.720000000000000000e+02 6.730000000000000000e+02 6.740000000000000000e+02 6.750000000000000000e+02 6.760000000000000000e+02 6.770000000000000000e+02 6.780000000000000000e+02 6.790000000000000000e+02 6.800000000000000000e+02 6.810000000000000000e+02 6.820000000000000000e+02 6.830000000000000000e+02 6.840000000000000000e+02 6.850000000000000000e+02 6.860000000000000000e+02 6.870000000000000000e+02 6.880000000000000000e+02 6.890000000000000000e+02 6.900000000000000000e+02 6.910000000000000000e+02 6.920000000000000000e+02 6.930000000000000000e+02 6.940000000000000000e+02 6.950000000000000000e+02 6.960000000000000000e+02 6.970000000000000000e+02 6.980000000000000000e+02 6.990000000000000000e+02 7.000000000000000000e+02 7.010000000000000000e+02 7.020000000000000000e+02 7.030000000000000000e+02 7.040000000000000000e+02 7.050000000000000000e+02 7.060000000000000000e+02 7.070000000000000000e+02 7.080000000000000000e+02 7.090000000000000000e+02 7.100000000000000000e+02 7.110000000000000000e+02 7.120000000000000000e+02 7.130000000000000000e+02 7.140000000000000000e+02 7.150000000000000000e+02 7.160000000000000000e+02 7.170000000000000000e+02 7.180000000000000000e+02 7.190000000000000000e+02 7.200000000000000000e+02 7.210000000000000000e+02 7.220000000000000000e+02 7.230000000000000000e+02 7.240000000000000000e+02 7.250000000000000000e+02 7.260000000000000000e+02 7.270000000000000000e+02 7.280000000000000000e+02 7.290000000000000000e+02 7.300000000000000000e+02 7.310000000000000000e+02 7.320000000000000000e+02 7.330000000000000000e+02 7.340000000000000000e+02 7.350000000000000000e+02 7.360000000000000000e+02 7.370000000000000000e+02 7.380000000000000000e+02 7.390000000000000000e+02 7.400000000000000000e+02 7.410000000000000000e+02 7.420000000000000000e+02 7.430000000000000000e+02 7.440000000000000000e+02 7.450000000000000000e+02 7.460000000000000000e+02 7.470000000000000000e+02 7.480000000000000000e+02 7.490000000000000000e+02 7.500000000000000000e+02 7.510000000000000000e+02 7.520000000000000000e+02 7.530000000000000000e+02 7.540000000000000000e+02 7.550000000000000000e+02 7.560000000000000000e+02 7.570000000000000000e+02 7.580000000000000000e+02 7.590000000000000000e+02 7.600000000000000000e+02 7.610000000000000000e+02 7.620000000000000000e+02 7.630000000000000000e+02 7.640000000000000000e+02 7.650000000000000000e+02 7.660000000000000000e+02 7.670000000000000000e+02 7.680000000000000000e+02 7.690000000000000000e+02 7.700000000000000000e+02 7.710000000000000000e+02 7.720000000000000000e+02 7.730000000000000000e+02 7.740000000000000000e+02 7.750000000000000000e+02 7.760000000000000000e+02 7.770000000000000000e+02 7.780000000000000000e+02 7.790000000000000000e+02 7.800000000000000000e+02 7.810000000000000000e+02 7.820000000000000000e+02 7.830000000000000000e+02 7.840000000000000000e+02 7.850000000000000000e+02 7.860000000000000000e+02 7.870000000000000000e+02 7.880000000000000000e+02 7.890000000000000000e+02 7.900000000000000000e+02 7.910000000000000000e+02 7.920000000000000000e+02 7.930000000000000000e+02 7.940000000000000000e+02 7.950000000000000000e+02 7.960000000000000000e+02 7.970000000000000000e+02 7.980000000000000000e+02 7.990000000000000000e+02 8.000000000000000000e+02 8.010000000000000000e+02 8.020000000000000000e+02 8.030000000000000000e+02 8.040000000000000000e+02 8.050000000000000000e+02 8.060000000000000000e+02 8.070000000000000000e+02 8.080000000000000000e+02 8.090000000000000000e+02 8.100000000000000000e+02 8.110000000000000000e+02 8.120000000000000000e+02 8.130000000000000000e+02 8.140000000000000000e+02 8.150000000000000000e+02 8.160000000000000000e+02 8.170000000000000000e+02 8.180000000000000000e+02 8.190000000000000000e+02 8.200000000000000000e+02 8.210000000000000000e+02 8.220000000000000000e+02 8.230000000000000000e+02 8.240000000000000000e+02 8.250000000000000000e+02 8.260000000000000000e+02 8.270000000000000000e+02 8.280000000000000000e+02 8.290000000000000000e+02 8.300000000000000000e+02 8.310000000000000000e+02 8.320000000000000000e+02 8.330000000000000000e+02 8.340000000000000000e+02 8.350000000000000000e+02 8.360000000000000000e+02 8.370000000000000000e+02 8.380000000000000000e+02 8.390000000000000000e+02 8.400000000000000000e+02 8.410000000000000000e+02 8.420000000000000000e+02 8.430000000000000000e+02 8.440000000000000000e+02 8.450000000000000000e+02 8.460000000000000000e+02 8.470000000000000000e+02 8.480000000000000000e+02 8.490000000000000000e+02 8.500000000000000000e+02 8.510000000000000000e+02 8.520000000000000000e+02 8.530000000000000000e+02 8.540000000000000000e+02 8.550000000000000000e+02 8.560000000000000000e+02 8.570000000000000000e+02 8.580000000000000000e+02 8.590000000000000000e+02 8.600000000000000000e+02 8.610000000000000000e+02 8.620000000000000000e+02 8.630000000000000000e+02 8.640000000000000000e+02 8.650000000000000000e+02 8.660000000000000000e+02 8.670000000000000000e+02 8.680000000000000000e+02 8.690000000000000000e+02 8.700000000000000000e+02 8.710000000000000000e+02 8.720000000000000000e+02 8.730000000000000000e+02 8.740000000000000000e+02 8.750000000000000000e+02 8.760000000000000000e+02 8.770000000000000000e+02 8.780000000000000000e+02 8.790000000000000000e+02 8.800000000000000000e+02 8.810000000000000000e+02 8.820000000000000000e+02 8.830000000000000000e+02 8.840000000000000000e+02 8.850000000000000000e+02 8.860000000000000000e+02 8.870000000000000000e+02 8.880000000000000000e+02 8.890000000000000000e+02 8.900000000000000000e+02 8.910000000000000000e+02 8.920000000000000000e+02 8.930000000000000000e+02 8.940000000000000000e+02 8.950000000000000000e+02 8.960000000000000000e+02 8.970000000000000000e+02 8.980000000000000000e+02 8.990000000000000000e+02 9.000000000000000000e+02 9.010000000000000000e+02 9.020000000000000000e+02 9.030000000000000000e+02 9.040000000000000000e+02 9.050000000000000000e+02 9.060000000000000000e+02 9.070000000000000000e+02 9.080000000000000000e+02 9.090000000000000000e+02 9.100000000000000000e+02 9.110000000000000000e+02 9.120000000000000000e+02 9.130000000000000000e+02 9.140000000000000000e+02 9.150000000000000000e+02 9.160000000000000000e+02 9.170000000000000000e+02 9.180000000000000000e+02 9.190000000000000000e+02 9.200000000000000000e+02 9.210000000000000000e+02 9.220000000000000000e+02 9.230000000000000000e+02 9.240000000000000000e+02 9.250000000000000000e+02 9.260000000000000000e+02 9.270000000000000000e+02 9.280000000000000000e+02 9.290000000000000000e+02 9.300000000000000000e+02 9.310000000000000000e+02 9.320000000000000000e+02 9.330000000000000000e+02 9.340000000000000000e+02 9.350000000000000000e+02 9.360000000000000000e+02 9.370000000000000000e+02 9.380000000000000000e+02 9.390000000000000000e+02 9.400000000000000000e+02 9.410000000000000000e+02 9.420000000000000000e+02 9.430000000000000000e+02 9.440000000000000000e+02 9.450000000000000000e+02 9.460000000000000000e+02 9.470000000000000000e+02 9.480000000000000000e+02 9.490000000000000000e+02 9.500000000000000000e+02 9.510000000000000000e+02 9.520000000000000000e+02 9.530000000000000000e+02 9.540000000000000000e+02 9.550000000000000000e+02 9.560000000000000000e+02 9.570000000000000000e+02 9.580000000000000000e+02 9.590000000000000000e+02 9.600000000000000000e+02 9.610000000000000000e+02 9.620000000000000000e+02 9.630000000000000000e+02 9.640000000000000000e+02 9.650000000000000000e+02 9.660000000000000000e+02 9.670000000000000000e+02 9.680000000000000000e+02 9.690000000000000000e+02 9.700000000000000000e+02 9.710000000000000000e+02 9.720000000000000000e+02 9.730000000000000000e+02 9.740000000000000000e+02 9.750000000000000000e+02 9.760000000000000000e+02 9.770000000000000000e+02 9.780000000000000000e+02 9.790000000000000000e+02 9.800000000000000000e+02 9.810000000000000000e+02 9.820000000000000000e+02 9.830000000000000000e+02 9.840000000000000000e+02 9.850000000000000000e+02 9.860000000000000000e+02 9.870000000000000000e+02 9.880000000000000000e+02 9.890000000000000000e+02 9.900000000000000000e+02 9.910000000000000000e+02 9.920000000000000000e+02 9.930000000000000000e+02 9.940000000000000000e+02 9.950000000000000000e+02 9.960000000000000000e+02 9.970000000000000000e+02 9.980000000000000000e+02 9.990000000000000000e+02 1.000000000000000000e+03
1.000000000000000021e-02 1.000000000000000021e-02 1.000000000000000021e-02 1.000000000000000021e-02 1.000000000000000021e-02 1.000000000000000021e-02 1.000000000000000021e-02 1.000000000000000021e-02 1.000000000000000021e-02 1.000000000000000021e-02 1.000000000000000021e-02 1.000000000000000021e-02 1.000000000000000021e-02 1.000000000000000021e-02 1.000000000000000021e-02 1.000000000000000021e-02 1.000000000000000021e-02 1.000000000000000021e-02 1.000000000000000021e-02 1.000000000000000021e-02 1.000000000000000021e-02 1.000000000000000021e-02 1.000000000000000021e-02 1.000000000000000021e-02 1.000000000000000021e-02 1.000000000000000021e-02 1.000000000000000021e-02 1.000000000000000021e-02 1.000000000000000021e-02 1.000000000000000021e-02 1.000000000000000021e-02 1.000000000000000021e-02 1.000000000000000021e-02 1.000000000000000021e-02 1.000000000000000021e-02 1.000000000000000021e-02 1.000000000000000021e-02 1.000000000000000021e-02 1.000000000000000021e-02 1.000000000000000021e-02 1.000000000000000021e-02 1.000000000000000021e-02 1.000000000000000021e-02 1.000000000000000021e-02 1.000000000000000021e-02 1.000000000000000021e-02 1.000000000000000021e-02 1.000000000000000021e-02 1.000000000000000021e-02 1.000000000000000021e-02 1.000000000000000021e-02 1.000000000000000021e-02 1.000000000000000021e-02 1.000000000000000021e-02 1.000000000000000021e-02 1.000000000000000021e-02 1.000000000000000021e-02 1.000000000000000021e-02 1.000000000000000021e-02 1.000000000000000021e-02 1.000000000000000021e-02 1.000000000000000021e-02 1.000000000000000021e-02 1.000000000000000021e-02 1.000000000000000021e-02 1.000000000000000021e-02 1.000000000000000021e-02 1.000000000000000021e-02 1.000000000000000021e-02 1.000000000000000021e-02 1.000000000000000021e-02 1.000000000000000021e-02 1.000000000000000021e-02 1.000000000000000021e-02 1.000000000000000021e-02 1.000000000000000021e-02 1.000000000000000021e-02 1.000000000000000021e-02 1.000000000000000021e-02 1.000000000000000021e-02 1.000000000000000021e-02 1.000000000000000021e-02 1.000000000000000021e-02 1.000000000000000021e-02 1.000000000000000021e-02 1.000000000000000021e-02 1.000000000000000021e-02 1.000000000000000021e-02 1.000000000000000021e-02 1.000000000000000021e-02 1.000000000000000021e-02 1.000000000000000021e-02 1.000000000000000021e-02 1.000000000000000021e-02 1.000000000000000021e-02 1.000000000000000021e-02 1.000000000000000021e-02 1.000000000000000021e-02 1.000000000000000021e-02 1.000000000000000021e-02 1.000000000000000021e-02 1.000000000000000021e-02 1.000000000000000021e-02 1.000000000000000021e-02 1.000000000000000021e-02 1.000000000000000021e-02 1.000000000000000021e-02 1.000000000000000021e-02 1.000000000000000021e-02 1.000000000000000021e-02 1.000000000000000021e-02 1.000000000000000021e-02 1.000000000000000021e-02 1.000000000000000021e-02 1.000000000000000021e-02 1.000000000000000021e-02 1.000000000000000021e-02 1.000000000000000021e-02 1.000000000000000021e-02 1.000000000000000021e-02 1.000000000000000021e-02 1.000000000000000021e-02 1.000000000000000021e-02 1.000000000000000021e-02 1.000000000000000021e-02 1.000000000000000021e-02 1.000000000000000021e-02 1.000000000000000021e-02 1.000000000000000021e-02 1.000000000000000021e-02 1.000000000000000021e-02 1.000000000000000021e-02 1.000000000000000021e-02 1.000000000000000021e-02 1.000000000000000021e-02 1.000000000000000021e-02 1.000000000000000021e-02 1.000000000000000021e-02 1.000000000000000021e-02 1.000000000000000021e-02 1.000000000000000021e-02 1.000000000000000021e-02 1.000000000000000021e-02 1.000000000000000021e-02 1.000000000000000021e-02 1.000000000000000021e-02 1.000000000000000021e-02 1.000000000000000021e-02 1.000000000000000021e-02 1.000000000000000021e-02 1.000000000000000021e-02 1.000000000000000021e-02 1.000000000000000021e-02 1.000000000000000021e-02 1.000000000000000021e-02 1.000000000000000021e-02 1.000000000000000021e-02 1.000000000000000021e-02 1.000000000000000021e-02 1.000000000000000021e-02 1.000000000000000021e-02 1.000000000000000021e-02 1.000000000000000021e-02 1.000000000000000021e-02 1.000000000000000021e-02 1.000000000000000021e-02 1.000000000000000021e-02 1.000000000000000021e-02 1.000000000000000021e-02 1.000000000000000021e-02 1.000000000000000021e-02 1.000000000000000021e-02 1.000000000000000021e-02 1.000000000000000021e-02 1.000000000000000021e-02 1.000000000000000021e-02 1.000000000000000021e-02 1.000000000000000021e-02 1.000000000000000021e-02 1.000000000000000021e-02 1.000000000000000021e-02 1.000000000000000021e-02 1.000000000000000021e-02 1.000000000000000021e-02 1.000000000000000021e-02 1.000000000000000021e-02 1.000000000000000021e-02 1.000000000000000021e-02 1.000000000000000021e-02 1.000000000000000021e-02 1.000000000000000021e-02 1.000000000000000021e-02 1.000000000000000021e-02 1.000000000000000021e-02 1.000000000000000021e-02 1.000000000000000021e-02 1.000000000000000021e-02 1.000000000000000021e-02 1.000000000000000021e-02 1.000000000000000021e-02 1.000000000000000021e-02 1.000000000000000021e-02 1.000000000000000021e-02 1.000000000000000021e-02 1.000000000000000021e-02 1.000000000000000021e-02 1.000000000000000021e-02 1.000000000000000021e-02 1.000000000000000021e-02 1.000000000000000021e-02 1.000000000000000021e-02 1.000000000000000021e-02 1.000000000000000021e-02 1.000000000000000021e-02 1.000000000000000021e-02 1.000000000000000021e-02 1.000000000000000021e-02 1.000000000000000021e-02 1.000000000000000021e-02 1.000000000000000021e-02 1.000000000000000021e-02 1.000000000000000021e-02 1.000000000000000021e-02 1.000000000000000021e-02 1.000000000000000021e-02 1.000000000000000021e-02 1.000000000000000021e-02 1.000000000000000021e-02 1.000000000000000021e-02 1.000000000000000021e-02 1.000000000000000021e-02 1.000000000000000021e-02 1.000000000000000021e-02 1.000000000000000021e-02 1.000000000000000021e-02 1.000000000000000021e-02 1.000000000000000021e-02 1.000000000000000021e-02 1.000000000000000021e-02 1.000000000000000021e-02 1.000000000000000021e-02 1.000000000000000021e-02 1.000000000000000021e-02 1.000000000000000021e-02 1.000000000000000021e-02 1.000000000000000021e-02 1.000000000000000021e-02 1.000000000000000021e-02 1.000000000000000021e-02 1.000000000000000021e-02 1.000000000000000021e-02 1.000000000000000021e-02 1.000000000000000021e-02 1.000000000000000021e-02 1.000000000000000021e-02 1.000000000000000021e-02 1.000000000000000021e-02 1.000000000000000021e-02 1.000000000000000021e-02 1.000000000000000021e-02 1.000000000000000021e-02 1.000000000000000021e-02 1.000000000000000021e-02 1.000000000000000021e-02 1.000000000000000021e-02 1.000000000000000021e-02 1.000000000000000021e-02 1.000000000000000021e-02 1.000000000000000021e-02 1.000000000000000021e-02 1.000000000000000021e-02 1.000000000000000021e-02 1.000000000000000021e-02 1.000000000000000021e-02 1.000000000000000021e-02 1.000000000000000021e-02 1.000000000000000021e-02 1.000000000000000021e-02 1.000000000000000021e-02 1.000000000000000021e-02 1.000000000000000021e-02 1.000000000000000021e-02 1.000000000000000021e-02 1.000000000000000021e-02 1.000000000000000021e-02 1.000000000000000021e-02 1.000000000000000021e-02 1.000000000000000021e-02 1.000000000000000021e-02 1.000000000000000021e-02 1.000000000000000021e-02 1.000000000000000021e-02 1.000000000000000021e-02 1.000000000000000021e-02 1.000000000000000021e-02 1.000000000000000021e-02 1.000000000000000021e-02 1.000000000000000021e-02 1.000000000000000021e-02 1.000000000000000021e-02 1.000000000000000021e-02 1.000000000000000021e-02 1.000000000000000021e-02 1.000000000000000021e-02 1.000000000000000021e-02 1.000000000000000021e-02 1.000000000000000021e-02 1.000000000000000021e-02 1.000000000000000021e-02 1.000000000000000021e-02 1.000000000000000021e-02 1.000000000000000021e-02 1.000000000000000021e-02 1.000000000000000021e-02 1.000000000000000021e-02 1.000000000000000021e-02 1.000000000000000021e-02 1.000000000000000021e-02 1.000000000000000021e-02 1.000000000000000021e-02 1.000000000000000021e-02 1.000000000000000021e-02 1.000000000000000021e-02 1.000000000000000021e-02 1.000000000000000021e-02 1.000000000000000021e-02 1.000000000000000021e-02 1.000000000000000021e-02 1.000000000000000021e-02 1.000000000000000021e-02 1.000000000000000021e-02 1.000000000000000021e-02 1.000000000000000021e-02 1.000000000000000021e-02 1.000000000000000021e-02 1.000000000000000021e-02 1.000000000000000021e-02 1.000000000000000021e-02 1.000000000000000021e-02 1.000000000000000021e-02 1.000000000000000021e-02 1.000000000000000021e-02 1.000000000000000021e-02 1.000000000000000021e-02 1.000000000000000021e-02 1.000000000000000021e-02 1.000000000000000021e-02 1.000000000000000021e-02 1.000000000000000021e-02 1.000000000000000021e-02 1.000000000000000021e-02 1.000000000000000021e-02 1.000000000000000021e-02 1.000000000000000021e-02 1.000000000000000021e-02 1.000000000000000021e-02 1.000000000000000021e-02 1.000000000000000021e-02 1.000000000000000021e-02 1.000000000000000021e-02 1.000000000000000021e-02 1.000000000000000021e-02 1.000000000000000021e-02 1.000000000000000021e-02 1.000000000000000021e-02 1.000000000000000021e-02 1.000000000000000021e-02 1.000000000000000021e-02 1.000000000000000021e-02 1.000000000000000021e-02 1.000000000000000021e-02 1.000000000000000021e-02 1.000000000000000021e-02 1.000000000000000021e-02 1.000000000000000021e-02 1.000000000000000021e-02 1.000000000000000021e-02 1.000000000000000021e-02 1.000000000000000021e-02 1.000000000000000021e-02 1.000000000000000021e-02 1.000000000000000021e-02 1.000000000000000021e-02 1.000000000000000021e-02 1.000000000000000021e-02 1.000000000000000021e-02 1.000000000000000021e-02 1.000000000000000021e-02 1.000000000000000021e-02 1.000000000000000021e-02 1.000000000000000021e-02 1.000000000000000021e-02 1.000000000000000021e-02 1.000000000000000021e-02 1.000000000000000021e-02 1.000000000000000021e-02 1.000000000000000021e-02 1.000000000000000021e-02 1.000000000000000021e-02 1.000000000000000021e-02 1.000000000000000021e-02 1.000000000000000021e-02 1.000000000000000021e-02 1.000000000000000021e-02 1.000000000000000021e-02 1.000000000000000021e-02 1.000000000000000021e-02 1.000000000000000021e-02 1.000000000000000021e-02 1.000000000000000021e-02 1.000000000000000021e-02 1.000000000000000021e-02 1.000000000000000021e-02 1.000000000000000021e-02 1.000000000000000021e-02 1.000000000000000021e-02 1.000000000000000021e-02 1.000000000000000021e-02 1.000000000000000021e-02 1.000000000000000021e-02 1.000000000000000021e-02 1.000000000000000021e-02 1.000000000000000021e-02 1.000000000000000021e-02 1.000000000000000021e-02 1.000000000000000021e-02 1.000000000000000021e-02 1.000000000000000021e-02 1.000000000000000021e-02 1.000000000000000021e-02 1.000000000000000021e-02 1.000000000000000021e-02 1.000000000000000021e-02 1.000000000000000021e-02 1.000000000000000021e-02 1.000000000000000021e-02 1.000000000000000021e-02 1.000000000000000021e-02 1.000000000000000021e-02 1.000000000000000021e-02 1.000000000000000021e-02 1.000000000000000021e-02 1.000000000000000021e-02 1.000000000000000021e-02 1.000000000000000021e-02 1.000000000000000021e-02 1.000000000000000021e-02 1.000000000000000021e-02 1.000000000000000021e-02 1.000000000000000021e-02 1.000000000000000021e-02 1.000000000000000021e-02 1.000000000000000021e-02 1.000000000000000021e-02 1.000000000000000021e-02 1.000000000000000021e-02 1.000000000000000021e-02 1.000000000000000021e-02 1.000000000000000021e-02 1.000000000000000021e-02 1.000000000000000021e-02 1.000000000000000021e-02 1.000000000000000021e-02 1.000000000000000021e-02 1.000000000000000021e-02 1.000000000000000021e-02 1.000000000000000021e-02 1.000000000000000021e-02 1.000000000000000021e-02 1.000000000000000021e-02 1.000000000000000021e-02 1.000000000000000021e-02 1.000000000000000021e-02 1.000000000000000021e-02 1.000000000000000021e-02 1.000000000000000021e-02 1.000000000000000021e-02 1.000000000000000021e-02 1.000000000000000021e-02 1.000000000000000021e-02 1.000000000000000021e-02 1.000000000000000021e-02 1.000000000000000021e-02 1.000000000000000021e-02 1.000000000000000021e-02 1.000000000000000021e-02 1.000000000000000021e-02 1.000000000000000021e-02 1.000000000000000021e-02 1.000000000000000021e-02 1.000000000000000021e-02 1.000000000000000021e-02 1.000000000000000021e-02 1.000000000000000021e-02 1.000000000000000021e-02 1.000000000000000021e-02 1.000000000000000021e-02 1.000000000000000021e-02 1.000000000000000021e-02 1.000000000000000021e-02 1.000000000000000021e-02 1.000000000000000021e-02 1.000000000000000021e-02 1.000000000000000021e-02 1.000000000000000021e-02 1.000000000000000021e-02 1.000000000000000021e-02 1.000000000000000021e-02 1.000000000000000021e-02 1.000000000000000021e-02 1.000000000000000021e-02 1.000000000000000021e-02 1.000000000000000021e-02 1.000000000000000021e-02 1.000000000000000021e-02 1.000000000000000021e-02 1.000000000000000021e-02 1.000000000000000021e-02 1.000000000000000021e-02 1.000000000000000021e-02 1.000000000000000021e-02 1.000000000000000021e-02 1.000000000000000021e-02 1.000000000000000021e-02 1.000000000000000021e-02 1.000000000000000021e-02 1.000000000000000021e-02 1.000000000000000021e-02 1.000000000000000021e-02 1.000000000000000021e-02 1.000000000000000021e-02 1.000000000000000021e-02 1.000000000000000021e-02 1.000000000000000021e-02 1.000000000000000021e-02 1.000000000000000021e-02 1.000000000000000021e-02 1.000000000000000021e-02 1.000000000000000021e-02 1.000000000000000021e-02 1.000000000000000021e-02 1.000000000000000021e-02 1.000000000000000021e-02 1.000000000000000021e-02 1.000000000000000021e-02 1.000000000000000021e-02 1.000000000000000021e-02 1.000000000000000021e-02 1.000000000000000021e-02 1.000000000000000021e-02 1.000000000000000021e-02 1.000000000000000021e-02 1.000000000000000021e-02 1.000000000000000021e-02 1.000000000000000021e-02 1.000000000000000021e-02 1.000000000000000021e-02 1.000000000000000021e-02 1.000000000000000021e-02 1.000000000000000021e-02 1.000000000000000021e-02 1.000000000000000021e-02 1.000000000000000021e-02 1.000000000000000021e-02 1.000000000000000021e-02 1.000000000000000021e-02 1.000000000000000021e-02 1.000000000000000021e-02 1.000000000000000021e-02 1.000000000000000021e-02 1.000000000000000021e-02 1.000000000000000021e-02 1.000000000000000021e-02 1.000000000000000021e-02 1.000000000000000021e-02 1.000000000000000021e-02 1.000000000000000021e-02 1.000000000000000021e-02 1.000000000000000021e-02 1.000000000000000021e-02 1.000000000000000021e-02 1.000000000000000021e-02 1.000000000000000021e-02 1.000000000000000021e-02 1.000000000000000021e-02 1.000000000000000021e-02 1.000000000000000021e-02 1.000000000000000021e-02 1.000000000000000021e-02 1.000000000000000021e-02 1.000000000000000021e-02 1.000000000000000021e-02 1.000000000000000021e-02 1.000000000000000021e-02 1.000000000000000021e-02 1.000000000000000021e-02 1.000000000000000021e-02 1.000000000000000021e-02 1.000000000000000021e-02 1.000000000000000021e-02 1.000000000000000021e-02 1.000000000000000021e-02 1.000000000000000021e-02 1.000000000000000021e-02 1.000000000000000021e-02 1.000000000000000021e-02 1.000000000000000021e-02 1.000000000000000021e-02 1.000000000000000021e-02 1.000000000000000021e-02 1.000000000000000021e-02 1.000000000000000021e-02 1.000000000000000021e-02 1.000000000000000021e-02 1.000000000000000021e-02 1.000000000000000021e-02 1.000000000000000021e-02 1.000000000000000021e-02 1.000000000000000021e-02 1.000000000000000021e-02 1.000000000000000021e-02 1.000000000000000021e-02 1.000000000000000021e-02 1.000000000000000021e-02 1.000000000000000021e-02 1.000000000000000021e-02 1.000000000000000021e-02 1.000000000000000021e-02 1.000000000000000021e-02 1.000000000000000021e-02 1.000000000000000021e-02 1.000000000000000021e-02 1.000000000000000021e-02 1.000000000000000021e-02 1.000000000000000021e-02 1.000000000000000021e-02 1.000000000000000021e-02 1.000000000000000021e-02 1.000000000000000021e-02 1.000000000000000021e-02 1.000000000000000021e-02 1.000000000000000021e-02 1.000000000000000021e-02 1.000000000000000021e-02 1.000000000000000021e-02 1.000000000000000021e-02 1.000000000000000021e-02 1.000000000000000021e-02 1.000000000000000021e-02 1.000000000000000021e-02 1.000000000000000021e-02 1.000000000000000021e-02 1.000000000000000021e-02 1.000000000000000021e-02 1.000000000000000021e-02 1.000000000000000021e-02 1.000000000000000021e-02 1.000000000000000021e-02 1.000000000000000021e-02 1.000000000000000021e-02 1.000000000000000021e-02 1.000000000000000021e-02 1.000000000000000021e-02 1.000000000000000021e-02 1.000000000000000021e-02 1.000000000000000021e-02 1.000000000000000021e-02 1.000000000000000021e-02 1.000000000000000021e-02 1.000000000000000021e-02 1.000000000000000021e-02 1.000000000000000021e-02 1.000000000000000021e-02 1.000000000000000021e-02 1.000000000000000021e-02 1.000000000000000021e-02 1.000000000000000021e-02 1.000000000000000021e-02 1.000000000000000021e-02 1.000000000000000021e-02 1.000000000000000021e-02 1.000000000000000021e-02 1.000000000000000021e-02 1.000000000000000021e-02 1.000000000000000021e-02 1.000000000000000021e-02 1.000000000000000021e-02 1.000000000000000021e-02 1.000000000000000021e-02 1.000000000000000021e-02 1.000000000000000021e-02 1.000000000000000021e-02 1.000000000000000021e-02 1.000000000000000021e-02 1.000000000000000021e-02 1.000000000000000021e-02 1.000000000000000021e-02 1.000000000000000021e-02 1.000000000000000021e-02 1.000000000000000021e-02 1.000000000000000021e-02 1.000000000000000021e-02 1.000000000000000021e-02 1.000000000000000021e-02 1.000000000000000021e-02 1.000000000000000021e-02 1.000000000000000021e-02 1.000000000000000021e-02 1.000000000000000021e-02 1.000000000000000021e-02 1.000000000000000021e-02 1.000000000000000021e-02 1.000000000000000021e-02 1.000000000000000021e-02 1.000000000000000021e-02 1.000000000000000021e-02 1.000000000000000021e-02 1.000000000000000021e-02 1.000000000000000021e-02 1.000000000000000021e-02 1.000000000000000021e-02 1.000000000000000021e-02 1.000000000000000021e-02 1.000000000000000021e-02 1.000000000000000021e-02 1.000000000000000021e-02 1.000000000000000021e-02 1.000000000000000021e-02 1.000000000000000021e-02 1.000000000000000021e-02 1.000000000000000021e-02 1.000000000000000021e-02 1.000000000000000021e-02 1.000000000000000021e-02 1.000000000000000021e-02 1.000000000000000021e-02 1.000000000000000021e-02 1.000000000000000021e-02 1.000000000000000021e-02 1.000000000000000021e-02 1.000000000000000021e-02 1.000000000000000021e-02 1.000000000000000021e-02 1.000000000000000021e-02 1.000000000000000021e-02 1.000000000000000021e-02 1.000000000000000021e-02 1.000000000000000021e-02 1.000000000000000021e-02 1.000000000000000021e-02 1.000000000000000021e-02 1.000000000000000021e-02 1.000000000000000021e-02 1.000000000000000021e-02 1.000000000000000021e-02 1.000000000000000021e-02 1.000000000000000021e-02 1.000000000000000021e-02 1.000000000000000021e-02 1.000000000000000021e-02 1.000000000000000021e-02 1.000000000000000021e-02 1.000000000000000021e-02 1.000000000000000021e-02 1.000000000000000021e-02 1.000000000000000021e-02 1.000000000000000021e-02 1.000000000000000021e-02 1.000000000000000021e-02 1.000000000000000021e-02 1.000000000000000021e-02 1.000000000000000021e-02 1.000000000000000021e-02 1.000000000000000021e-02 1.000000000000000021e-02 1.000000000000000021e-02 1.000000000000000021e-02 1.000000000000000021e-02 1.000000000000000021e-02 1.000000000000000021e-02 1.000000000000000021e-02 1.000000000000000021e-02 1.000000000000000021e-02 1.000000000000000021e-02 1.000000000000000021e-02 1.000000000000000021e-02 1.000000000000000021e-02 1.000000000000000021e-02 1.000000000000000021e-02 1.000000000000000021e-02 1.000000000000000021e-02 1.000000000000000021e-02 1.000000000000000021e-02 1.000000000000000021e-02 1.000000000000000021e-02 1.000000000000000021e-02 1.000000000000000021e-02 1.000000000000000021e-02 1.000000000000000021e-02 1.000000000000000021e-02 1.000000000000000021e-02 1.000000000000000021e-02 1.000000000000000021e-02 1.000000000000000021e-02 1.000000000000000021e-02 1.000000000000000021e-02 1.000000000000000021e-02 1.000000000000000021e-02 1.000000000000000021e-02 1.000000000000000021e-02 1.000000000000000021e-02 1.000000000000000021e-02 1.000000000000000021e-02 1.000000000000000021e-02 1.000000000000000021e-02 1.000000000000000021e-02 1.000000000000000021e-02 1.000000000000000021e-02 1.000000000000000021e-02 1.000000000000000021e-02 1.000000000000000021e-02 1.000000000000000021e-02 1.000000000000000021e-02 1.000000000000000021e-02 1.000000000000000021e-02 1.000000000000000021e-02 1.000000000000000021e-02 1.000000000000000021e-02 1.000000000000000021e-02 1.000000000000000021e-02 1.000000000000000021e-02 1.000000000000000021e-02 1.000000000000000021e-02 1.000000000000000021e-02 1.000000000000000021e-02 1.000000000000000021e-02 1.000000000000000021e-02 1.000000000000000021e-02 1.000000000000000021e-02 1.000000000000000021e-02 1.000000000000000021e-02 1.000000000000000021e-02 1.000000000000000021e-02 1.000000000000000021e-02 1.000000000000000021e-02 1.000000000000000021e-02 1.000000000000000021e-02 1.000000000000000021e-02 1.000000000000000021e-02 1.000000000000000021e-02 1.000000000000000021e-02 1.000000000000000021e-02 1.000000000000000021e-02 1.000000000000000021e-02 1.000000000000000021e-02 1.000000000000000021e-02 1.000000000000000021e-02 1.000000000000000021e-02 1.000000000000000021e-02 1.000000000000000021e-02 1.000000000000000021e-02 1.000000000000000021e-02 1.000000000000000021e-02 1.000000000000000021e-02 1.000000000000000021e-02 1.000000000000000021e-02 1.000000000000000021e-02 1.000000000000000021e-02 1.000000000000000021e-02 1.000000000000000021e-02 1.000000000000000021e-02 1.000000000000000021e-02 1.000000000000000021e-02 1.000000000000000021e-02 1.000000000000000021e-02 1.000000000000000021e-02 1.000000000000000021e-02 1.000000000000000021e-02 1.000000000000000021e-02 1.000000000000000021e-02 1.000000000000000021e-02 1.000000000000000021e-02 1.000000000000000021e-02 1.000000000000000021e-02 1.000000000000000021e-02 1.000000000000000021e-02 1.000000000000000021e-02 1.000000000000000021e-02 1.000000000000000021e-02 1.000000000000000021e-02 1.000000000000000021e-02 1.000000000000000021e-02 1.000000000000000021e-02 1.000000000000000021e-02 1.000000000000000021e-02 1.000000000000000021e-02 1.000000000000000021e-02 1.000000000000000021e-02 1.000000000000000021e-02 1.000000000000000021e-02 1.000000000000000021e-02 1.000000000000000021e-02 1.000000000000000021e-02 1.000000000000000021e-02 1.000000000000000021e-02 1.000000000000000021e-02 1.000000000000000021e-02 1.000000000000000021e-02 1.000000000000000021e-02 1.000000000000000021e-02 1.000000000000000021e-02 1.000000000000000021e-02 1.000000000000000021e-02 1.000000000000000021e-02 1.000000000000000021e-02 1.000000000000000021e-02 1.000000000000000021e-02 1.000000000000000021e-02 1.000000000000000021e-02 1.000000000000000021e-02 1.000000000000000021e-02 1.000000000000000021e-02 1.000000000000000021e-02 1.000000000000000021e-02 1.000000000000000021e-02 1.000000000000000021e-02 1.000000000000000021e-02 1.000000000000000021e-02 1.000000000000000021e-02 1.000000000000000021e-02 1.000000000000000021e-02 1.000000000000000021e-02 1.000000000000000021e-02 1.000000000000000021e-02 1.000000000000000021e-02 1.000000000000000021e-02 1.000000000000000021e-02 1.000000000000000021e-02 1.000000000000000021e-02 1.000000000000000021e-02 1.000000000000000021e-02 1.000000000000000021e-02 1.000000000000000021e-02 1.000000000000000021e-02 1.000000000000000021e-02 1.000000000000000021e-02 1.000000000000000021e-02 1.000000000000000021e-02 1.000000000000000021e-02 1.000000000000000021e-02 1.000000000000000021e-02 1.000000000000000021e-02 1.000000000000000021e-02 1.000000000000000021e-02 1.000000000000000021e-02 1.000000000000000021e-02 1.000000000000000021e-02 1.000000000000000021e-02 1.000000000000000021e-02 1.000000000000000021e-02 1.000000000000000021e-02 1.000000000000000021e-02 1.000000000000000021e-02 1.000000000000000021e-02 1.000000000000000021e-02 1.000000000000000021e-02 1.000000000000000021e-02 1.000000000000000021e-02 1.000000000000000021e-02 1.000000000000000021e-02 1.000000000000000021e-02 1.000000000000000021e-02 1.000000000000000021e-02 1.000000000000000021e-02 1.000000000000000021e-02 1.000000000000000021e-02 1.000000000000000021e-02 1.000000000000000021e-02 1.000000000000000021e-02 1.000000000000000021e-02 1.000000000000000021e-02 1.000000000000000021e-02 1.000000000000000021e-02 1.000000000000000021e-02 1.000000000000000021e-02 1.000000000000000021e-02 1.000000000000000021e-02 1.000000000000000021e-02 1.000000000000000021e-02 1.000000000000000021e-02 1.000000000000000021e-02 1.000000000000000021e-02 1.000000000000000021e-02 1.000000000000000021e-02 1.000000000000000021e-02 1.000000000000000021e-02 1.000000000000000021e-02 1.000000000000000021e-02 1.000000000000000021e-02 1.000000000000000021e-02
-1.115594690905066386e+02 1.695735613618321906e+02 3.933088753192141951e+01 -8.839818141653442041e+00 -8.786671019923495862e+01 -1.338922114933336971e+01 -2.078810358660398947e+02 6.882073507372327148e-01 -8.471381977033340149e+01 -1.404440323048715378e+01 -1.983095969752848475e+01 6.518885572365967995e+00 -1.781276282880500439e+00 1.677746821307701452e+02 8.461256970094422059e+01 -3.877861490739674366e+01 -5.279058167948664959e+01 7.921136177424327229e+01 3.282018819284819955e+01 -2.536878018775669830e+01 -7.884397698348823269e+01 -7.380335326437013066e+01 -1.380464210406491610e+01 2.893156054112568043e+01 -1.949092553451836523e+02 -9.872758674034555781e+01 -2.608722988886699312e+01 2.016228002871320086e+02 7.075975882273024808e+01 7.671938764466329985e+01 8.029022774820431607e+01 1.184624284203644962e+00 -7.923342115648873119e+01 2.074304904275835497e+02 -2.448350388544606346e+02 5.882806847726981658e+01 -1.201433185194635485e+02 -3.468090350134909272e+01 4.033768034525559543e+00 1.267104953892977335e+02 -1.229007334360073713e+02 -1.364857520997524354e+01 7.735840196936982238e+01 1.735983329026119861e+02 7.135585441688010633e+01 -6.841737244123062567e+01 4.122297807230334143e+01 -2.838259961499102246e+01 -6.606526399004600592e+01 1.565939543483648890e+02 -7.056721815142876153e+01 -5.211473404132811282e+01 -1.393302245775238930e+02 5.754653214991156673e+00 -5.053927806514534637e+01 3.866836867773827180e+01 -8.873287447382043069e+01 -5.006379605600343297e+01 -1.014159438598568812e+02 -1.554587419495063045e+02 1.945697071450707938e+01 4.536286238476291999e+01 -1.231368648555102538e+02 1.285897998635156547e+01 -7.930301208653791889e+01 4.912564847819286484e+01 1.666482831027105078e+02 -1.442827613975917700e+02 -4.331652670867736532e+01 7.197082384797242050e+00 2.930033241741727856e+00 4.238850627314901232e+01 8.399668227061363268e+01 8.766244651741246230e-01 -8.803324153179405087e+00 -7.003979498582658891e+01 7.827581223234093954e+01 -3.277251240379047204e+01 2.629984338110089581e+01 1.040351258973704063e+02 8.824187926281207695e+01 -4.276430186495586838e+01 5.781422576426658111e+01 1.474668436467046604e+02 1.162334493043938011e+02 -4.023254533144789313e+00 1.742462892924038158e+02 -1.115421259456571761e+02 4.199714446138441026e+00 -4.194778003948169953e+01 2.068835526265782505e+02 -2.122820315744954556e+01 2.883052097876619424e+00 -7.680120048707419755e+01 -7.138721373731426567e+00 -6.385924120844745033e+01 6.778789713533438999e+01 -9.457362673720857060e+01 6.859248172567455981e+01 -4.776091707047405066e+01 -4.977354862335307217e+01 -9.168299689579572487e+01 5.310330006137132131e+01 -5.472846887732023191e+01 -1.493710973612009241e+02 -7.948936809869090325e+01 -1.046410839923232885e+02 -1.572707380509979487e+02 1.359766902411675460e+02 -2.750083113660967626e+01 3.204022699250256068e+01 8.969161426402467896e+01 -1.040981492878279226e+02 5.698308891733555726e+01 -4.333264805463488045e+01 -6.935735535749067537e+01 -9.011439338013254030e+01 2.033232843615159879e+02 -5.675811425976679914e+01 -4.950850774852639802e+01 -4.722245218798968125e+01 8.042402587698722982e+01 -4.142116451615751771e+01 1.380250473126063184e+02 -4.989333118963271119e+01 5.511332499671977558e+01 4.543711312929105794e+00 -8.115696549616728817e+01 6.883399215604217147e+01 2.774713469514544499e+02 -9.205766384934081259e+01 4.750648449973409271e+01 -7.626787312791465467e+01 4.525493812601890653e+01 1.312457521186353517e+02 -5.140860967874309750e+01 1.460044306897097854e+01 -2.694054376048519828e+01 -1.019918324876738609e+02 -1.731358103010680694e+01 4.282718241410651494e+00 -7.823324783081121225e+00 -1.496049209161383509e+01 1.183042239420927331e+02 1.304424331797194725e+02 1.865871681018068386e+02 -3.045498574176467059e+02 3.824011846401224091e+01 -1.576808563816672937e+01 -6.240422767478438715e+01 1.805087814052761530e+02 7.627301167710982099e+01 -2.589316974666365123e+00 -1.160833398513600372e+02 -1.091131473203351732e+01 1.002082248564167060e+02 -1.345579071412365408e+02 -1.688445799593048946e+02 1.075049986291870496e+01 4.249004154800965694e+01 -6.110979429296733656e+01 4.209995757749108947e+01 -1.072498248034393100e+02 -1.515677866440205719e+02 2.114451796107212544e+01 4.866569263538475099e+01 4.816380412783078491e+00 -8.363898484365434172e+01 -9.377908945579241617e+01 -8.449356320963919131e+01 -8.774189436444258661e+01 1.266552857294655077e+01 5.697195321467282980e+01 1.168030641814446540e+02 7.964473448502543818e+01 8.976100014724008247e+01 1.077740545038907385e+02 -7.502215500585820962e+01 -8.277873330001970942e+01 7.075814649082558105e+01 6.872300732884299634e+01 5.944762155836054518e+01 -9.425983658874052651e+00 -9.144000506197343725e+01 5.421175188498033748e+01 -1.797824402126464349e+02 6.746848662953487974e+01 -4.474846422100120691e+01 -9.691226020799365415e+01 7.458480380392670384e+01 -1.723020699838691172e+01 -7.754900902207451452e+01 -5.778808595417075367e+01 -9.206693664508959429e+00 2.441514697225379109e+02 7.733632917836844456e+01 5.519209043724857366e+01 -1.045864459315953070e+02 1.492872168464870697e+02 1.056867028596388813e+00 -9.104163629084087006e+01 1.569732825425825524e+02 -1.553279405356207121e+02 1.589967953601074946e+01 -3.280338426983518474e+01 -2.239811398930764312e+02 -1.359559827680755291e+02 -8.891107783137906040e+01 -2.987490689238432751e+01 -1.215272955802453509e+02 5.876487207054883299e+01 6.623782652247437852e+01 -2.810806137769678514e+01 -1.016545995551350217e+02 1.152724766360898769e+02 1.204838493627501066e+02 4.710751551419124183e+01 1.781254791549238092e+01 2.664817341813331950e+02 4.452500282631368833e+01 -1.218002501754871929e+02 -4.595092452958695617e+01 -1.722158508584607546e+02 3.250845691001747895e+01 1.563930103249703052e+02 -1.513538735594134153e+02 1.344026134146175480e+02 -9.281440214959860668e+01 -1.929511253057635400e+01 -7.806048919831364286e-01 5.394940023830462650e+01 -1.183481948226081215e+01 -2.326954888971608426e+01 -1.927816499834502295e+01 -1.293416329500631718e+02 4.738405409248323252e+01 -3.098980984125179461e+01 -1.323872824034264717e+01 -1.094072773110420371e+01 2.307182649082168382e+02 1.778882492262681865e+02 2.375403998821349205e+02 1.345875227762395809e+02 -8.840715690852518094e+01 7.678001838176861327e+01 2.157160073856313431e+01 4.858869423826300249e+01 -4.056101046138844879e+01 2.608713936934721573e+02 -2.380113274844190485e+01 -1.396604168253043383e+02 -1.527376130818428734e+01 -4.681431745645814146e+01 -7.906442334080439593e+01 4.408917152879406132e+01 -1.196581913363965199e+01 1.858475268077672524e+02 9.439384068875833123e+01 4.177075290470697411e+01 1.001518473424952305e+02 9.658479535200430632e+01 -2.348888506010355215e+01 1.426832613653584758e+02 2.707804315887079483e+01 9.154366111865320477e+01 4.870538763974421670e+01 7.084745076389836527e+00 -1.183074906502674537e+02 -1.183883092389147293e+02 -9.200474399567524131e+01 -1.591441164526360730e+01 8.859833063412402510e+01 -3.132820204564908906e+01 1.010713177483587089e+02 4.477896193070747444e+01 -7.433016552586674663e+01 -3.062341022032172333e+01 -5.988857589163196593e+01 1.795249652363860449e+01 -4.734689634472693598e+01 -1.145206538369648541e+02 1.242151489345823308e+02 1.240203375744364394e+02 -8.069950711776294838e+01 5.559035641252767945e+00 -4.631667690767170598e+01 -3.332122962910566599e+01 -1.159273345033856373e+01 -3.191576104981164974e+01 4.544305820429381271e+01 -1.436370837836986709e+02 -5.400273091568541162e+01 -1.552041844330839524e+02 1.779165284295620211e+02 -2.066128091519514243e+01 6.021088872738908293e+01 1.218128242705502018e+01 1.474936463806016036e+02 4.559023717433241529e+01 3.648699471390656868e+01 1.576211634553148713e+02 -5.030103700286840507e+01 -9.964812514844719260e+01 2.774547734195835602e+01 -1.612945733563848876e+02 -5.450558302694941659e+01 1.044137439635636895e+02 -1.302928937866504384e+02 -3.710723205386542389e+01 9.315431821676800439e+01 -9.639911152880462453e+01 -9.130642206403986449e+01 -8.431741609333155907e+01 -6.510680325576383609e+01 2.540574828885412444e+02 2.021585860734877826e+02 1.050513673113776605e+02 -1.042293620703206045e+02 7.633530171333016767e+01 -6.745657845771773964e+01 -3.190036815322007158e+01 1.692989120699667538e+01 -3.283669063592562765e+01 -9.554875889503087194e+01 -2.798157701989684831e+00 1.506512828805316673e+01 1.108247643001347740e+02 -1.308785250303626526e+02 4.268272565650350003e+01 6.492636646026643632e+01 3.516691393743103333e+01 -9.224268991679475960e+01 -1.511592553385876840e+02 1.966135974169703218e+02 -1.812502695270219277e+01 2.562914319879561731e+01 1.592491764369618181e+02 2.712449357127421123e+01 2.821329109509006372e+01 -4.528902305150820240e+01 9.008398960677214973e+01 -1.386145739216392769e+02 -3.131534069409847021e+01 -6.236693584184903827e+00 -5.428386753690964639e+01 6.322941694661733614e+00 2.163549648458623764e+01 -3.636568433396710276e+01 1.388571951356998113e+01 2.171278473099901021e+02 -2.782742086098286904e+01 -2.842109204016087887e+01 -1.032603217732519028e+02 -1.674611003302432177e+00 -8.201435305281717092e+01 6.496658602871303145e+00 1.138149078664029474e+02 -5.283331225342678295e+01 6.141011572522688589e+00 -5.515562467994788420e+01 3.378762118088034949e+00 8.854287500990359661e+01 -1.176255873067080699e+02 -9.829450112610878421e+01 -1.041252907394119092e+02 7.246577905554336496e+01 8.787326755164977499e+01 -9.367913063187039313e+01 6.356218878892893542e+01 2.621041022679248655e+01 3.927119230425665108e+01 -1.802024444368961298e+01 9.271692884370760623e+01 8.091998057502770791e+01 -7.843045032155134777e+01 1.201596147922976243e+01 8.210238609970051016e+01 7.394572868164134150e+01 -2.018554987639287290e+01 2.535156834245076496e+01 -1.345650916296110893e+02 4.924245794871310267e+01 -3.325852932884385638e+01 -3.314287240309644034e+01 1.757560596498362315e+02 4.813823335074977194e+01 1.219950288288075768e+02 1.937830275781303158e+02 -1.397296310113704862e+02 1.512798873509757414e+02 -6.434210155258485031e+01 -1.371337165111350203e+02 8.353713689681305254e+01 -1.360554153300697919e+02 -2.913103316800635412e+01 5.724868013455269988e+01 8.195778274459502910e+00 -1.706081957954339146e+02 8.547982326445963963e+01 2.559324222151413153e+01 7.011536465378573268e+01 3.681792267512209804e+01 9.613171815557439714e+00 -6.810735905955421288e+01 1.174381909511714639e+02 5.529111575249277166e+01 -6.303930185971130129e+01 -1.027324425195483997e+02 3.951450528617820623e+01 2.606075401891671461e+01 8.360206797799530420e+01 1.864529997281734950e+02 -2.499538483552430890e+01 -1.117679371235520165e+02 -8.597112335553822504e+01 -5.207408375341648110e+01 -4.502124357155241796e+01 -1.488847057059417978e+02 -2.283563538304970209e+01 1.313946482384543799e+02 7.563342863688276907e+01 -1.241620587680436358e+02 -1.520484960663036986e+02 -6.909805042020840915e+01 -7.747350246641417471e+01 1.489056636417864752e+02 -1.729453253398802133e+02 8.780141969573541871e+01 -4.674939623222825524e+00 -4.365148951074302630e+01 1.349608856249106736e+01 9.249675099290249136e+01 5.031035393800194555e+01 1.402136181047047785e+02 -1.614419917515928091e+02 -8.214559663064075323e+01 2.571164670458178136e+01 4.254217482418935248e+01 2.091272906683229280e+02 1.475567440123029712e+02 6.647506643402657289e+01 7.314720043193170795e+01 -3.467374891777690493e+01 1.540177039530912566e+02 -1.819212574131715030e+02 -6.431597965820438390e+01 -5.445962262877124971e+01 -5.254015020535371150e+01 -1.047700207636200673e+02 -1.520136718260907571e+01 -6.962873975536950866e+01 7.220323398733975750e+01 -9.290727546506067469e+00 -5.893000145728298378e+01 -6.318483331012660642e+01 1.827756859679802801e+02 5.984581405941777632e+01 -1.390461189876113757e+01 2.118671219184564052e+02 -1.098783848565724099e+02 -3.584006811173025397e+01 6.791322553170020626e+01 -1.327202966491300706e-01 1.515790108935245506e+01 -1.268478750172838119e+02 1.786836970905304440e+02 -4.967963734488196792e+01 -2.731875652894983375e+01 -1.112408267761567373e+02 1.275986186560514994e+02 9.720922275481423469e+01 -7.858843270640822709e+01 -3.808984560309086476e+01 3.947397796683253546e+01 -1.534501581103848480e+02 -1.556612856644548626e-01 -7.570593366433674021e+01 7.805081407311167396e+00 -1.095568623653880280e+02 -1.606326717989126962e+02 -7.160919617346714006e+01 1.501070837071352173e+02 5.731601513103723278e+01 -9.077585333277177426e+01 9.032540460904515101e+01 3.467390590700716047e+01 8.942806877298356483e+01 -4.264574439755785562e+01 -8.514411054601264084e+01 1.731446899694639399e+02 4.217105807930804673e+01 2.930821401817860661e+01 -7.389347674064677562e+01 -4.282075622582080854e+01 9.665666140093426506e+00 -7.246606088470629814e+00 -1.748727171495161770e+02 -3.501247482044905723e+01 6.516857877974898372e+01 1.129031125827861359e+02 1.574969856722250370e+02 -1.342191876743941670e+01 9.062824288944675288e+01 1.594737491051010068e+02 6.412063645323161154e+01 1.493770259243874250e+02 1.623629432761443070e+01 1.326947313626964444e+02 -8.481894783189159170e+01 5.391062109409459424e+01 2.963289360459713961e+01 7.661923592489600310e+01 -1.072399443526095126e+02 1.999136930370767402e+02 -1.299776383532441457e+02 8.910917908979219249e+01 -1.083942554260115543e+02 4.655115587566131552e+01 1.391950731832351984e+01 9.147896952892224931e+01 -7.428609373865138821e+01 -7.612920653240070124e+01 -1.125120727062208736e+01 8.979295748643092168e+01 -2.981454184148726227e+01 -1.643212351154921080e+01 -1.977781268612815779e+01 4.771361782024475140e+00 9.882059381616738847e+01 -6.298357908529660421e+01 -2.731043183795130780e+00 -1.948896689752030795e+02 1.225155573799684987e+02 -1.253842202602390046e+02 -7.418038268265814850e+01 -2.363597189052687497e+01 -1.083648080573810546e+02 -5.337180788043473001e+01 -5.880364629901063722e+01 -1.975034491182213259e+01 1.367947087384077633e+02 5.427075945827940728e+01 1.008203267669706946e+02 -1.366221333817598236e+02 -1.391147265882441388e+02 -2.876689788588577699e+02 1.025483714114514271e+02 1.046687516567695440e+02 4.244857731693583958e+01 -4.259330614576263940e+01 -3.735352237456670821e+01 -1.843575814282234830e+02 1.466980466972499926e+02 -1.078392717973706567e+02 1.073806166252217338e+02 -1.598468935955388304e+02 -1.436704355604674355e+01 -5.559605350484128650e+01 -1.197278472635207009e+02 -4.628278847405865548e+01 -1.254989927074229783e+01 -9.303491733455443580e+01 -1.039149848261923665e+02 -1.240598057789256892e+01 7.149192337618330839e+01 -1.251444216651436676e+02 -1.573060392386166662e+01 -7.406432347760657819e+01 -1.319683181620697212e+02 6.686743046701312032e+00 9.557223043983802313e+01 1.662332594515377195e+02 -1.915391732675707104e+01 -4.626010487875166888e+01 -1.247066470926514654e+02 -1.643332226202608126e+02 1.042547625579582018e+02 -7.308531980742471035e+01 7.938852812898730349e+01 9.448214608830351580e+00 2.938641599993850306e+01 7.421179996645285826e+01 -8.515519654500893409e+01 8.308344512362180012e+01 1.158579985819174709e+02 1.582436679660368668e+02 -1.171746859930481861e+02 1.044832672539197347e+02 -4.801574009736564363e+01 -9.127060984163902901e+01 2.156938363406607380e+02 4.950678256142727918e+01 8.390741196668358270e+01 2.138623865726621531e+01 -6.353489180404250902e+01 -3.512148074262087505e+01 -2.114881867539652376e+02 1.061905069752032773e+02 8.193542634064256447e+01 -7.610131615071256306e+01 -7.353561491256377280e+01 1.459657757232125164e+02 1.016023407684506168e+02 5.138618308159988857e+01 7.648589646947864651e+01 -7.931821179508326658e+00 1.037456028696743573e+02 -1.040950730241811897e+02 1.873914939063815552e+02 -3.969346209481430066e+01 -1.226436363379750105e+02 -3.787377434635083517e+01 7.212866648664754621e+01 1.481301581164140941e+02 1.298016164526146810e+01 1.747548825577901823e+02 5.248329845345394062e+01 3.379900556889511876e+01 -1.119161628457422495e+02 4.504925176809273069e+01 -1.257033768217579279e+02 4.795315418606017488e+01 3.883908028434737503e+01 -1.240118336716077891e+02 -8.549448201309292017e+01 4.005350744838449373e+01 8.773021998643818264e+00 -2.335727453988194924e+01 4.208495357973770012e+01 -2.151490918795790463e+01 -6.343276376559952467e+01 -2.630245408504442040e+01 -2.257226122069349117e+01 -4.004311509969102190e+01 1.887843144069352164e+01 -8.093374826472360439e+01 1.195929359906691900e+02 -7.472160425566210051e+01 -4.296278690504880871e+00 6.589184800701950451e+01 3.916209139489341684e+00 1.603348677562860303e+01 1.604537086755754061e+01 -1.177647304824579066e+02 -4.440825164298687788e+00 6.540177621935062291e+01 -2.326800810947045193e+02 -8.531273153341987836e+01 -1.133243099176876285e+02 4.402543662033815508e+01 9.673581776798110354e+01 -9.223994588966424146e+01 -1.687814704736616989e+02 -1.861319234467283366e+02 2.007587878189735520e+01 -1.456907305075565660e+02 -6.352329963045567851e+00 1.483087164616965197e+02 -7.136854423777426959e+00 3.730384617396212121e+01 -9.929577751162227628e+01 8.010833909558999721e+01 -1.188853471286715546e+02 -1.545025156550223677e+01 -3.037462571071717932e+01 5.768427866534797488e+01 -8.889191562885386588e+00 1.058233998769111821e+02 -1.221879240158743585e+02 -5.012120407469040373e+01 8.661108090864699705e+01 6.616544456226719717e+01 -8.235002120408250903e+01 -5.438755097773037051e+01 -4.933696718331619735e+01 -2.891575014412674136e+02 1.933386693866553117e+02 7.601428377661331126e+01 -2.356351134547157500e+01 -2.961710114300332464e+01 4.145531714093387166e+01 -8.398143630901644485e+01 9.931266472335394724e+01 6.030903708808153851e+01 8.178503096214346613e+01 -8.385859368446426743e+01 -2.647895043744996713e+01 3.324119551570522901e+01 1.732568999041236779e+01 -4.267713995166879926e+01 1.573654360521399838e+02 -1.723003631779825184e+01 3.525917730944345863e+01 -2.289487940070638388e+02 -8.435347403844168923e+01 -7.286881091083196793e+01 2.292545969829481933e+01 1.087340576785063888e+02 -2.307142115403196669e+02 -1.862423509887446755e+02 2.207178907650115320e+02 -1.052355186806174281e+01 9.565430469165910665e+01 6.243569210052939411e+01 -5.512552983540332718e+01 -1.304336608820244123e+02 -9.474820704392983828e+01 -5.004213307663110299e+01 -3.727115923384859997e+01 -3.898589294924917681e+01 1.609570857985181291e+01 3.699264182681569224e+01 1.660940307154816651e+02 1.226681118681714224e+02 6.910584835013928284e+00 -4.370191496634193484e+00 -1.580928973046350450e+02 1.191260112844615264e+02 1.586213510082080518e+02 -1.029697667825443830e+02 7.340712046952423009e+01 1.750464406656945471e+00 5.465937446929726917e+01 1.248789715205347761e+02 7.063233834896814756e+01 -1.334458992802521209e+02 1.607266167624186437e+01 -2.925966301269984626e+01 1.109346638585922129e+01 -2.305917269128891789e+01 4.516437119259109068e+01 -2.595055990160166175e+02 1.804929635347263002e+02 7.277464697781603320e+00 1.588448016773382392e+02 -1.051754254509301489e+01 1.058271698977003865e+02 7.140293277075871003e+01 -4.187328504530019302e+01 2.981877832469578848e+01 -7.259666384637809244e+01 -8.874088522441837767e+01 -7.189402115087781908e+01 -3.197516138765820770e+01 4.508028479675916600e+01 1.099421643181184578e+02 2.843638966448949645e+01 6.199502606781639713e+01 -1.046383090218775749e+02 -1.369145301516419124e+02 -1.346336067305659512e+01 4.633307785459326311e+01 -4.544109136224270173e+01 9.442785154906242440e+01 5.545620863252928245e+01 -2.761883523355280801e+01 2.991865811736871095e+01 6.131245121265879305e+01 -7.204640119937579357e+01 -1.336094566119879232e+02 1.419751360724809501e+02 7.810062517277967409e+00 5.011911199880334067e+01 -1.492475553409957740e+02 -5.339788803952927054e+01 -4.588894786134666837e-01 -6.574490006124159436e+01 4.271516422848038452e+00 5.630750513752565922e+01 1.865402638650882352e+02 3.915319287922896052e+01 -1.097189380889404120e+01 7.227731967397978963e+01 -4.553143435004420780e+01 -1.091114559005781359e+02 -1.383849480375714052e+02 9.386493059655215632e+00 2.515435789940114830e+01 2.384406494220878159e+01 -5.698993259780597498e+01 1.210814846990764693e+02 -8.101872702491375833e+01 1.286341773509908251e+02 8.751908848105426841e+01 -6.521616083142090758e+01 -8.493969327270013991e+01 8.444462873472805597e+01 2.053270095920468208e+01 -5.266147664280209284e+01 -5.402467578561261519e+01 1.371598182064250011e+02 5.751216237099036732e+01 8.018362255989902110e+01 2.624606873161649290e+01 -4.224260392325498970e+01 1.078968870031282137e+02 -5.479532246855109179e+01 5.433770658567826928e-01 7.690836725808165397e+01 1.000431465188701878e+02 2.566868503327619351e+02 -1.760102768406033249e+02 1.617484005828802651e+02 -6.793899199558150315e+01 -1.530658598496283318e+01 -2.520295096226114140e+01 -2.084900872856057319e+01 -5.548464492020141137e+01 9.350131670795170180e+01 1.852163554350560446e+02 -1.195694131357628862e+02 3.114016675061198924e+01 -1.277932897730116792e+02 7.070237810988351157e+01 -4.482980579849403568e+01 -8.162704112312832194e+01 -5.432542491609318347e+01 4.152587462056489187e+01 1.955564783926212868e+01 -8.252273656894892895e+01 -1.423677616817478793e+02 2.096931029861148232e+01 1.591631599699450703e+02 1.443005613596381487e+01 1.843681820736434815e+02 7.542911533289361259e+00 1.360742785564946473e+02 -3.497977496697481570e+01 9.174304505276622024e+01 -7.226696997598801886e+01 -1.142373592736086465e+02 5.002898305530084855e+01 -5.872715534231802081e+01 -7.950251328297140674e+01 7.382721722117909735e+01 6.530626299932991152e+00 -9.554136750077628903e+01 -1.525780840481062057e+02 1.499322073491302092e+02 -9.042097639490660299e+01 -2.378645448903410120e+00 1.218156914593822648e+02 5.888420948173084213e+01 -9.966298105390858098e+01 1.078493426173895742e+01 2.863581409287218662e+02 5.415046454657937147e+01 -1.602253747658631653e+02 -4.847790398920361810e+01 -6.252187459441548611e+01 9.788634530045907667e+00 1.093434600187827073e+02 -1.052066877848786532e+02 2.193117248454450419e+01 1.327233869006681743e+02 1.910099259265915705e+01 -2.149275299690798988e+02 4.918515589823990553e+01 7.680670555205757921e+01 -1.381646982453173145e+01 3.338080771285781623e+01 1.428083644567596511e-01 2.290425942776874280e+01 2.822924830519174932e+01 1.178822070882017670e+02 9.976841869451560285e+01 1.583216715562998012e+01 1.516903324646659996e+02 -6.516707448497686528e+01 2.510700907747956876e+02 6.619596551668109896e+01 1.442477566217147000e+02 -2.236996173576282132e+01 9.169349507005856026e+01 -4.991492133717635227e+01 -1.490360579066768878e+02 2.666613509471669019e+01 9.680425032198799329e+01 -8.921071822806121077e+01 -1.066582191122075614e+02 -6.775882400901336666e+01 3.726617615078609447e+01 -1.163320334463333978e+02 7.610355967605769933e+01 2.858883223957635522e+01 -9.941485235115845853e+01 1.934527457248491089e+02 -1.198096365278738240e+01 -1.036329864636872315e+02 -1.363078082263804802e+01 -2.081388017246221978e+01 -1.428335753682833626e+02 -4.077877963644238690e+01 6.264573670803912364e+01 1.342237305466277633e+02 2.955977287916511287e+01 2.726289717185819939e+01 4.562324748584855172e+01 -3.641984116353678758e+01 -1.483056788617053599e+02 1.615084291825938223e+01 3.156945527823899766e+01 1.355801785265322792e+02 -1.012081307925362594e+01 -7.756436370232619026e+01 7.457774074531619135e+01 1.014480734156139263e+00 3.252074895393344889e+01 1.418896225918920209e+02 -1.808681584713961001e+02 -9.459428076334678792e+01 1.270719177197891980e+02 -2.135723821748063642e+02 -1.820622463698427964e+02 9.007760750331291888e+01 1.524483015570088469e+02 6.274817837771549023e+01 -4.406175706813429294e+00 1.542064533480870523e+02 -2.172841070157739409e+02 1.060797343661932217e+02 4.195490625867628154e+01 1.258009902544906424e+02 -1.866972532618621301e+02 1.054940099149813904e+02 -2.799438552854071105e+01 -1.323557883981944769e+02 -5.272539672668091981e+00 -9.147731395929454834e+01 -1.614090148604462627e+01 -4.246691557352433755e+00 -1.219540928181736206e+02 -1.220792114312327783e+02 -6.194661714510380790e+01 -1.276299854581433664e+02 1.989767989739032998e+02 -1.594151276512214679e+02 -4.966465225074683332e+01 1.708033776805891648e+02 3.358487181816440170e+01 -2.930099301606609288e+02 -1.258090360243708119e+02 3.516487425025260904e+01 5.409797061461169676e+01 8.510918132488047405e+00 -1.530730114371637853e+02 3.532865292502098242e+01 7.395421159877060724e+00 -7.358041904906853858e+01 2.006730961491066978e+02 2.005585003748463180e+02 4.288673410529674435e+00 -2.064321092181835127e+02 1.247227939465737450e+02 3.046048702034713784e+01 3.720782666990763765e+00 7.585500340335028113e+01 -2.053802058623171831e+02 -1.366468026878860087e+02 1.396222576822833616e+02 1.085387391633371834e+02 5.239728138377297739e+01 1.417821455138340241e+02 -1.764670207157250843e+02 -2.023029455923859032e+01 -1.291163354776732035e+02 4.315524319993514268e+01 -1.028178259709611666e+02 8.617025133938325610e+01 -3.353896344086670211e+01 1.225762985279622619e+01 1.756388100118603290e+02 2.821127836155176638e+01 -2.609089520785624927e+02 -1.250847350623957510e+02 -8.251195453018847559e+01 1.565088643852416510e+02 1.240860496142247626e+01 -5.327780134009665858e+01 3.007089945503030393e+01 6.188457582350789465e+01 -3.917978705760088332e+01 1.064276827236876954e+02 -9.971885427399580237e+01 4.871555795983654491e+01 1.107963591086389386e+02 -3.509317585956534913e+01 -9.713182901445374284e+01 -1.122724472875620307e+02 1.185480572876709999e+02 -4.915912448975645788e+01 1.945637548412716455e+02 5.662619125139760712e+01 1.098332428993788028e+02 1.825552573135582293e+02 8.474417128824649481e+00 -1.230224536930931265e+02 -1.640862241801238213e+02 -1.130335944019306140e+02 4.204645583408716192e+01
-1.316810719320054091e+01 -4.658020533265759155e+00 1.001352447689393017e+02 -2.214410826444343456e+02 1.502723201494154068e+02 6.141650112923750271e+01 1.471002992145553208e+02 -1.248793168865291108e+02 -2.689504201104661263e+00 -2.327675034324361292e+01 -2.122108631853422764e+02 3.164953921924353253e+01 -1.771747672214926794e+01 1.182444907856194760e+02 -1.209198116659619302e+02 5.966413312094420718e+01 1.211466953361915273e+02 -4.442129890755349209e+01 -4.800474605054162680e+01 -2.614383145454686286e+01 5.965950397492100166e+01 6.101455315175815031e+01 3.134282917913899880e+01 -2.248092628310085388e+02 -4.990184089403136625e+01 8.846627935189431469e+01 9.575980731421996239e+00 -1.001205555860973284e+01 -6.432340750933778395e+01 -1.495074432720798896e+01 7.090174654762338946e+01 -1.405741000789483053e+02 -5.985622326047385400e+01 8.691597676736266820e+00 2.006225598815457545e+02 2.049926822843630703e+02 -3.101629517489717003e+01 5.402740690697563508e+01 -2.641326373875501066e-01 -1.350136398914544600e+02 9.278778253139762455e+01 1.036695664768127756e+02 1.049067370579516307e+02 1.130094560871700615e+01 5.983436918184006714e+01 4.652193536192477552e+01 3.758994442131901081e+01 2.835541052226751546e+01 1.066143112184675488e+02 8.673138779527779718e+01 6.341457996499746486e+01 1.575523088303930876e+02 2.394486781700908864e+02 1.890595320535152837e+02 -5.716101574126633977e+01 4.762499208228584990e+01 -6.214618327607471571e+01 5.453327967375714991e+01 -1.857560399842349739e+02 5.461839269741743408e+01 -1.979486565033821535e+02 -1.630919211961011399e+02 1.251337097078500804e+01 -8.935416157496293366e+00 1.638896932859005915e+02 -2.010172652657486765e+02 7.277620068559714639e+01 2.221686678383487958e+02 -7.097664947173348615e+00 -1.882540647988465423e+02 3.439296337635752820e+01 1.906582957463437253e+02 -5.907330881313016846e+01 -2.576524649214500187e+02 -9.916203214087525453e+01 8.557834203213401381e+00 -2.224704097936620428e+02 3.097624608628229836e+01 -1.735347019969619566e+02 -1.794727703146627391e+02 -5.524404838764207426e+01 1.474744806855739512e+02 6.722395398644884779e+01 1.026124201493941612e+01 -8.575037058203754725e+01 -4.122168732337554786e+01 6.168500175710060063e+01 -2.246031249587273066e+02 5.236177493601957877e+01 -7.258619723406992819e+01 -7.560521400721054874e+01 -1.711353293258928545e+02 6.299484726217142594e+01 8.978394220301301232e+01 -1.571537693295415181e+02 1.672745564315336253e+02 -3.862918902061782234e+01 -1.638088960213860545e+01 8.480925701216347079e+01 1.513743963588244696e+02 2.101374352795494005e+01 1.466718698969616241e+02 -1.789340278878562884e+01 -8.785374746644743027e+01 -1.899996862722830215e+01 9.790819842393051431e+01 4.478640192680057197e+01 9.742460609989136344e+01 9.401019848093888243e+01 -8.272112877751423810e+01 -1.692226662359480827e+02 1.225579492683620799e+02 5.403463620540201617e+01 1.611424585909263740e+01 3.045677911427612727e+01 -6.765844144893777923e+01 9.566258773756955236e+01 8.949678025383988711e+01 -1.363258864998296715e+01 -7.097628200836928158e+01 3.063953520978424550e+01 6.253244845339730240e+00 -6.130148260690938145e+01 1.689478288943517441e+02 -3.282259048284208802e+01 1.211896724301576427e+02 -6.987488313880614044e+01 3.826055825866179561e+01 -3.598933958736308369e+01 8.918525946973355190e+01 2.341105014364409698e+01 1.152302320586609170e+02 -1.156620563859945889e+02 7.413270975229163184e+01 1.231425468066314863e+02 -4.459101070385758447e+01 7.579498487202768864e+00 -1.265884179398740983e+01 1.164919245220423818e+02 3.559117343893289931e+00 1.682726476208125348e+02 -1.410973286696580828e+02 1.164257260763814656e+02 -9.114238872955827730e+01 9.557969145221927931e+01 -1.368007235228014054e+02 2.946697113725532802e+01 2.470228868135490785e+01 1.807086122383301241e+00 3.625805822449124349e+01 4.585972629270695222e+01 -1.240302083559443425e+01 1.080791222444671185e+01 1.079565737561458718e+02 1.271124024967457871e+02 -8.658710883013769433e+01 -5.415711016032261682e+01 4.731497984877290719e+01 1.534971585811875316e+00 -1.368525113916070097e+02 -5.506039332636233041e+01 -3.542897253747823783e+01 4.888918793007974983e+01 -6.552567714065548898e+01 2.292007138098982821e+01 1.603406537225475290e+02 -7.946366816609705097e+01 8.080625398959783467e+01 8.410546034443552799e+01 1.124126252241456925e+01 1.234991156133429655e+02 6.292693034716170786e+01 1.681851259514048422e+02 -3.459660743446992370e+01 1.125911406610060084e+02 5.561961958418579854e+01 -1.609830332164229816e+01 2.044635851177925474e+02 -1.390572082808749030e+02 4.898071055764953741e+01 -1.879853460569423191e+02 -8.438024039723845249e+01 4.113177111546342957e+01 -7.240301406849795285e+01 -1.562815679428183557e+02 1.999244618068128148e+02 -8.605058423883565411e+01 -4.764628628210042649e+01 -4.643557580853921252e+01 1.221654113893870175e+02 1.954640764875706509e+02 6.498600815565839639e+01 1.467827926938695668e+02 2.202695501782212943e+02 -1.627135814430636707e+00 1.635215861238468449e+02 7.115976883630443695e+01 1.911266735585421372e+02 -1.262672788531638446e+02 -1.191041237722066626e+01 6.364996245889686044e+00 1.906899347039818622e+02 -9.124582809753489698e+01 -6.071293021694788195e+01 -5.315498441504228566e+01 -1.344919710192985747e+02 4.683135092572982217e+00 -1.013316277060305026e+02 1.547197132670582960e+02 2.365865686073476937e+01 1.205427731056143337e+01 7.259208293717338734e+01 -4.952636037537327063e+00 1.174182968538638505e+02 -1.594756913600503196e+02 4.558649062726134815e+01 -1.715142964367847185e+02 1.178870124854144166e+02 9.641447266373414493e+01 -6.757600418667742304e+01 4.695424819643915271e+01 2.390765913868159203e+02 -3.057797946874096340e+01 4.182268717660166857e+01 -3.280237337311607604e+01 5.816603538324724809e+01 6.453643444829059206e+01 -6.298383530562457366e+00 1.023185389405528838e+02 1.018980310554931918e+02 -1.946210097090857971e+02 -1.538292318347242826e+02 -1.202750631436293673e+02 -9.485344007736285832e+00 -1.503562574575647375e+02 1.159825975279799053e+02 1.107648070698850233e+02 5.919734201982387134e+01 1.120288904227047588e+01 1.582678201990312914e+02 8.426978004636060859e+01 6.774362241746769087e+01 -1.020015359711501048e+02 1.529048814847592723e+02 -3.593587389080779015e+00 1.097197788526313076e+02 8.847740761927639142e+00 3.687306323053937973e+01 -7.596420431147467411e+01 -9.105868364492197031e+01 7.182142610488510570e+01 -3.851143643930093674e+00 1.467144026633431508e+02 -1.261176316465788005e+01 -2.863876284928586813e+00 4.599325786555090900e+01 2.270705251885593157e+01 1.418214433513593633e+02 1.468414987865424060e+01 3.593976071632625491e+01 -1.551078832784886004e+02 6.600974450351398559e+01 1.339778163316510131e+02 -1.769913372232600679e+01 -2.284811288518700110e+02 8.456187867595643581e+01 1.362935967039990715e+02 2.033687649397732145e+01 1.890074411238918231e+02 -4.173483244343591636e+00 4.286596753209658317e+01 -4.354714651104424661e+01 -1.384521641560067451e+02 5.589666262653334883e+01 -4.737231382458549689e+01 -8.085898852162188177e+01 4.110936109368572744e+01 -1.842727717189906684e+02 7.149499046354918619e+01 1.638622517706174335e+02 -1.008817137042700693e+02 1.723475920196923994e+02 -9.728406673227325996e+01 -5.957859725104012405e+00 -1.048008549104735465e+01 7.628573520508386707e+01 -4.637698244009386883e+01 -1.073044652542137811e+02 -8.811968603272759992e+01 1.450374148840488999e+02 5.879410367790905667e+01 -1.310328510873405605e+02 4.412386778598861525e+00 4.318246653092082710e+01 8.207505197393224705e+01 -4.008831639853887197e+01 5.961013866676754702e+01 -6.853658314441636890e+01 -1.613163609070953157e+02 -3.440843155180654378e+01 1.400455238380412766e+02 -1.126145990684670295e+02 -6.370545390872297098e+00 -1.617894377026023847e+02 -4.755563204617951456e+00 -1.448500734984064593e+02 3.267030814789884374e+01 5.972793311468196009e+01 -4.996064346855943938e+01 -8.177748299647242902e+01 5.590426778156219356e+00 7.382511528623331287e+01 -6.724476518852623030e+01 1.336392163596447631e+02 1.046739614416351287e+02 -1.266063324134530177e+02 -1.045833634090755595e+02 1.339477047757543176e+02 7.072708851409988995e+01 1.488931535211872301e+02 9.928845948253230347e+01 8.043725762504232080e+01 -5.971576671892479027e+01 -8.101110208588252704e+01 -7.634081211196060224e+01 2.025337319446122706e+02 3.024830839504530289e+01 -2.465483129011260743e+01 -6.783577832452961331e+01 -4.948532225223492276e+01 -1.298380740978095389e+02 -1.631789826367330321e+01 -1.729851420828406958e+02 1.232766656545387889e+02 4.536268056616916766e+01 -1.136102628413962350e+02 -4.770510780914528226e+01 1.180509501618547290e+02 -9.559120054952367695e+01 1.013659843109518874e+02 -1.167717133812362107e+02 -1.160050705222932521e+01 -9.413858591002563969e+01 8.843218534186388524e+01 -4.187021465424293609e+01 1.016724306958241897e+01 2.890923451956639667e+01 -1.248193464169229543e+02 1.231998185798462941e+01 4.763712466714871141e+01 -2.206731239639169218e+01 -6.773908132100126522e+01 1.995527285939877800e+02 8.517708105631555782e+01 4.643122746185024141e+01 -3.095313458146200247e+01 7.904235289418711830e+01 1.651111514310425719e+02 -9.090144439559711032e+01 2.063379987047297561e+02 -1.311157833744549066e+02 -1.811783355231897872e+02 1.495676625195403062e+02 -2.304540607006213691e+02 -9.692092399187743901e-01 -2.412515466226721230e+02 -1.506197502417583109e+02 7.068235518457098010e+01 -1.434432911431536581e+02 5.750293489259576774e+01 1.082546322159837331e+02 -1.579565924064069975e+02 -2.967441349929494265e+01 7.427109179579213105e+01 1.319101585763727655e+02 -1.832932191462507205e+02 8.615232241673903957e+01 -9.648169229113433687e+01 -9.721117610815209531e+00 -1.367074320785452457e+01 -7.837992360238133926e+01 -8.894788475263497673e+01 1.786350616677789560e+02 -2.135737618396723292e+01 1.316236372730763993e+00 1.282828132447415328e+02 -8.540692253505054055e+01 -3.391863021086289365e+01 -1.060902566668658267e+02 -4.813167523941104520e+01 5.099807853954429149e+00 5.854091739770450431e+01 -1.332483818183227413e+02 2.340804946456390496e+02 -5.321955868196697281e+01 1.211575770959941281e+02 -4.824126155224661261e+01 1.183838857613018973e+02 1.374992046953912279e+02 4.744498377857490112e+01 1.207290496052438016e+02 -4.274645575785721263e+01 1.384318875260953519e+02 -1.547576855755070255e+02 -6.469056283789568340e+01 -6.230045667565643441e+01 2.527039733789461096e+01 -1.605920852451860696e+02 7.178918884272273715e+01 -3.051607347689057903e+01 -8.178113502375767041e+01 8.867183667906576261e+01 -1.495371818670053869e+02 -9.027333004629518598e+01 -5.207081188508094272e+01 3.273962067725590686e+01 1.284819658449330291e+02 1.156594276293582197e+02 6.841103982994680166e+01 -1.580939216516226598e+00 1.730687931746846004e+02 1.212632718828657659e+02 -9.347181404762164902e+01 -7.734057300243850364e+01 5.477917994036070581e+01 9.873749509159631899e+00 9.696296264284593747e+01 1.649557732422340166e+02 6.985213232364891667e+01 2.414694001026615666e+01 -1.011289334192673692e+02 1.699961858926891693e+02 -1.124775212156792463e+02 -1.635219012553672258e+02 6.501797750749570071e+01 1.102862250532540287e+02 1.942162737943536399e+01 -1.373308249352099040e+02 2.940401364211561486e+01 4.195465051729103578e+01 -3.233995695361836509e-01 1.294551122696738616e+02 9.653064762835001034e+01 1.691297222213038154e+01 7.744791045249175454e+01 -1.057728851629040463e+02 -6.248978143476775493e+00 9.718768090304401142e+01 2.933869126975654140e+01 -6.426860712218660865e+01 1.956922933964058018e+02 2.283528694053759125e+02 -1.240070685414338385e+02 -2.727871022202040407e+01 -2.076516248362821955e+02 -7.130065547651923907e+01 1.546833601753732523e+02 3.355879622860047373e+00 -7.010752842726409995e+01 1.617537837395511247e+02 -6.172782064874660790e+01 -1.585853345998263819e+02 1.348298899796914156e+02 -6.636045916422254720e+01 3.403150967684896244e+01 8.524728636171199980e+01 1.360476586801621401e+01 -2.351536407588198472e+02 4.174813683291973376e+01 -6.061211750733726866e+00 8.891563498402092591e+01 -2.325502646161205789e+01 9.982435525241615437e+01 1.675128044896442603e+01 -8.363077960211818151e+01 -2.020869960964920153e+01 -1.729187378643888167e+02 1.134734221022497138e+02 2.493938840294351067e+01 -4.107629338164120725e+01 -5.112486560323038987e+01 -6.205055840551915480e+01 4.056334788617513709e+01 1.585615668565166629e+02 1.309418995481341312e+02 4.249327226146979797e+01 -1.952367296706790967e+02 -3.827866133996602827e+01 4.323243792551238585e+01 1.157813289848900524e+02 8.606169866791280754e+01 1.524595135474255869e+01 -1.835652136351341710e+02 1.299587333942306770e+02 -2.207852210923318523e+02 -2.030787119602808275e+02 -1.819143546940054312e+00 -7.279547023475552692e+01 -2.377043424361383472e+01 8.597182773139492440e+01 5.517934324413937475e+01 -1.097304478970991966e+02 -1.494419119342617819e+02 1.439831461976898730e+01 1.220497758379675304e+02 2.042303598431107048e+01 -5.595750388107828854e+01 -5.093866850118202905e+01 -1.160582244093581039e+01 1.592337023444065380e+02 2.207658779177220509e+01 -1.744515642526325792e+02 1.288722966554998948e+02 -6.710555521907832599e+01 -4.194501114595104774e+00 1.546899839181890286e+02 -5.253896302904349369e+01 -1.967269653507554139e+01 -1.103480080458480188e+02 -6.034728212658493796e+00 -2.396474885756251183e+01 1.323030528946244431e+02 1.206341490211872980e+02 6.788818507957390125e+01 6.571793731378413383e+01 -1.879683709029793803e+01 1.358249586158318323e+02 -1.132643789701582904e+02 -4.281095278885096889e+00 -9.146634610021801848e+01 1.578450080577240726e+02 7.327346992529986380e+01 5.192574353705968093e+01 8.311302098554858020e+00 -5.352435440233983144e+01 3.453835009967492908e+01 6.777324858357820503e+00 3.626295947573228595e+00 2.422279860000329066e+01 6.004307404678620230e+01 1.710122577123031249e+02 -3.900557560937338053e+01 -5.221722214293898645e+01 6.708069830534385858e+01 1.161814917917398731e+02 -1.286621158840971013e+01 9.233130286436146150e+01 1.044959107182011451e+02 2.116743899232019430e+02 -8.692088184444834553e+01 -1.232181853867476065e+02 -2.876086061091550405e+01 6.240875941366462598e+01 -1.018993759253466713e+01 1.078665538316729879e+02 3.739081321152580983e+01 -1.632965377521976222e+02 4.524302073074659347e+01 -8.981873727760965664e+01 -1.358338666190746267e+02 1.350251349850659892e+02 -7.631754967809392554e+01 5.937156574286483135e+01 1.116079913756776989e+02 -9.938353914542642542e+01 2.356097199799935282e+01 -7.239554396189832630e+01 4.039989656562437403e+01 -1.149698545290806919e+02 6.177031692421504516e+01 5.483813514198877215e+01 3.926478469716831565e+00 8.431047826911294862e+01 -1.533637315723954941e+02 7.659071311119734560e+01 -2.934021165572865186e+01 -1.681933715997733998e+02 9.406256568990049516e+01 2.441627550953838721e+01 -1.952877009496903895e+02 2.342075901703009606e+02 -5.296827951487870223e-01 1.047039114670128157e+02 -1.200644400970183625e+02 -1.933390376120219400e+02 -9.290200880199274991e+01 2.468352923007203881e+00 1.422640682533678387e+02 3.984769619230941196e+00 -9.514458255428762357e+01 5.017658690470005212e+01 1.364364202810627091e+02 6.469546371543657415e+01 -5.151341674839287776e+01 -5.887801360989292476e+01 8.413211978386229362e+01 3.061134899417715616e+01 -1.946829386449520882e+02 -2.064115859253465146e+01 1.682846276816230784e+02 9.838966954809134791e+01 -5.706826465857842834e+01 -1.113074438132388337e+02 -4.249033090571174398e+01 -4.786706607521509227e+01 -1.139429270978055229e+02 -1.839681222561707585e+01 -4.545989143331780014e+01 -1.131108673148158204e+02 -1.313009540319794155e+02 -2.681134942310765723e+01 -1.251046581452331026e+02 -1.331941322647782613e+02 -3.816115054947887586e+01 -5.510387904121958513e+01 -1.105086065862936380e+02 1.920182567721687121e+02 1.086163162846688834e+01 -2.902091033162288269e+01 -1.754460887252500001e+01 8.114721044580484488e+01 1.613163271049410596e+01 2.583745524086232592e+01 -2.195503703293923792e+01 -4.769431867298911243e+01 2.157869899410416537e+01 -1.499473006128127111e+02 -1.642153762133613384e+02 -9.327976400385321654e+01 -1.968612836735961480e+02 -9.244834926651419948e+01 8.850771370787775538e+01 6.331792549771711265e+01 -2.688343534042926919e+01 6.268544839142479219e+01 -1.614921294022352072e+02 -4.211205950053224001e+01 -1.197899516776262345e+02 -6.885744621863523207e+01 2.175921603928454147e+02 -2.117589235262783518e+02 2.117389488811677722e+02 2.578279401284759587e+01 -5.825424098692314345e+01 9.515634985146181180e+01 1.279966611360726034e+02 -5.352686879869830250e+01 -2.101547431319791883e+02 -1.538007450069727042e+02 1.054935592675158631e+02 8.640340440460961702e+01 -1.398610097593225419e+02 3.296540278782952527e+01 -4.091662747106786924e+01 -7.984160302415995147e+01 -2.932086604209764147e+01 -5.655801711217036143e+01 -8.916748475985833977e+01 -3.511113484191286460e+01 4.620777545456793867e+00 -3.373790597714413764e+01 -4.074195464417314505e-01 -1.481106665414526802e+01 9.487987810595102189e+01 1.310930006138121655e+02 1.358411347677490610e+01 1.731927020898269731e+01 -6.510022793106961103e+01 -2.022088810469842031e+02 3.492184012387085090e+01 -9.462946819881580041e+01 2.664402887497216810e+01 -8.437970584575120725e+00 1.051493867872987042e+00 7.455569079029937996e+01 1.257252729538440548e+02 -7.268614301490850949e+01 3.919781425341426484e+01 -1.989269791693009211e+02 9.974688780999994009e+00 7.218258953596273564e+00 -1.264154056968924920e+02 -3.479103435359959207e+01 -4.572584942401879715e+01 4.922562036659885898e+00 -1.054787055438962824e+02 2.790961580425842214e+01 -1.007323359781771330e+02 5.788628044147368712e+01 6.998729816500015488e+01 3.804376112396519005e+01 -2.993324109519289777e+01 1.108349626770226735e+02 6.299095841365082293e+01 8.250816808635039479e+01 -6.909342550973937591e+01 2.093285001619251418e+01 1.318905582214541710e+02 -6.029713240575860311e+01 -7.128545114561830154e+00 3.298749014874098862e+01 -1.323907309277039133e+02 1.008542426097483542e+02 9.234528895506963408e+01 -1.042567237320811842e+02 -8.489031809934212447e+01 -5.722752092703584026e+01 -4.695786780319699716e+01 -1.651768920918122774e+02 -1.400757717902070851e+02 -1.365073838966988546e+02 1.088713742404074623e+02 6.158304441092982984e+01 1.643346731922524953e+02 7.412947498906657273e+00 -8.831880156802733950e+01 1.929232042279468118e+01 1.424586169648293321e+01 -6.540222573561176489e+01 7.624792434156569243e+01 1.215560136354931586e+02 1.028736833364522951e+01 1.476329211288160366e+02 2.317264828188474723e+01 1.142110409782076914e+02 1.553784877406589437e+01 -2.138356848729186481e+02 2.247244737675425483e+02 -5.035622787428292924e+01 -1.534356797453570209e+02 -6.912823930095150615e+01 -4.415626841037175154e+01 4.235184543897499054e+01 2.619659409498542146e+01 4.681164160556267717e+01 -7.583232368348794239e+01 1.251784278470601350e+02 -8.821523241262552517e+01 -7.167837959509450130e+00 1.456203100774622214e+02 1.120282750458505348e+02 5.925200261918162425e+01 -1.807961147314328230e+02 2.596782971131306539e+01 1.433265474740651939e+02 2.391534110510869482e+01 9.954125897037782522e+01 1.085208606386694896e+02 -2.154704223736046345e+02 7.837715747857019721e+01 -5.882899201038506476e+01 -2.290128028296648495e+02 9.005985311413382988e+01 2.499241281973590389e+01 -1.235470423457280589e+02 -5.921099234443630621e+01 1.401596264189944634e+02 1.487583798112723343e+02 -7.635318009176648957e+01 -1.285534445101212100e+02 -8.384509064867675932e+01 -1.665007762280901602e+02 1.961907049226392985e+01 3.799979122013036914e+01 -1.696593706915196975e+01 -1.237859937620329376e+01 -8.942838482707641390e+01 -8.822079612443799590e+01 -2.458401332538772621e+01 1.331823406343814895e+02 1.353666136358938843e+02 8.054018096459584797e+01 9.630051464650280479e+01 -7.788442607778996774e+01 -1.787650277435815269e+02 -1.309086582199604543e+01 -2.290220996221558991e+01 -7.016052969479626711e+01 1.479949014287724518e+00 7.218737601366487411e+01 -5.228441735618700648e+01 2.434466010644219480e+01 7.821885945020547126e+01 6.924583880441973349e+01 1.091813740197284091e+02 -1.473683522404413111e+02 3.915947986570571970e+01 8.229833707552776900e+01 9.360560900534197515e+01 5.835172183599335938e+01 -1.019823902388142045e+02 1.352695585195532146e+02 1.259085539115048960e+02 9.466940792039062558e+01 1.002946027404968987e+02 -8.319974773280343072e+01 -1.469138523569237265e+01 -1.276993133130375391e+01 7.612174146403538089e+01 6.417691175433530759e+01 5.528779308116276070e+01 9.639615049089211141e+01 1.150588900744968583e+02 1.223720538764850119e+02 -6.411390447211407206e+01 7.961482696705876094e+01 6.445275203697235611e+01 -1.162268272052776865e+02 1.300037417600214553e+02 -9.917125863803841312e+00 -2.758299641013262615e+01 1.969057149687128003e+02 8.743014174873276545e+01 1.226549624179053950e+02 -1.426764489927957413e+02 -1.559958262607836446e+02 -1.520277102552532824e+02 -1.208266140335521470e+02 -4.380385904149287768e+01 1.086438332645867462e+02 -1.668933095300627087e+02 3.219591815805732438e+01 1.429014806737021388e+02 -5.875794167494587583e+01 -9.046838332538821703e+01 -3.478118001663680303e+01 1.346208520612269126e+02 2.252354927148580543e+02 -6.605217148635307467e+01 1.964105939482043794e+01 -2.745850611074110503e+01 6.790911111773026221e+01 5.975751364860627035e+01 -2.114835722039950383e+02 -8.794925802594990216e+01 1.364873700656648055e+02 1.387109081837777182e+02 9.381131071732202997e+01 -4.943153451366382711e+01 -7.524385009388332435e+01 -4.507597840563489910e+01 -1.752551912121856788e+02 7.065139134152198608e+01 -2.548945952321728470e+01 1.652289149320351669e+02 -2.773577652103844216e+01 -3.124392416558207515e+02 1.439144178559981242e+02 4.996488165947105387e+01 -1.172007375796153639e+02 -2.200344506997258165e+01 3.508780710686773574e+01 -2.063658064461831145e+02 -1.135725468240295868e+02 -1.089240323694017860e+02 -5.609047454799786436e+01 6.242782772450065920e+01 -1.638376605609451815e+02 1.072921765537304850e+02 -5.399766053408618660e+01 2.893763936279370785e+00 -1.326488549280609561e+02 -1.030112385652507783e+02 1.748655406273801134e+02 8.617921609467151711e+01 -4.200285476352462410e+01 3.697229623636418694e+01 -2.790768592939783233e+01 4.300698481824271369e+01 -1.040701537402620716e+02 9.833648331668769060e+01 5.025216619245826166e+01 -1.183066165925261828e+02 1.161744690419053825e+02 -4.889603487889166900e+01 9.942525608088334366e+01 -4.917074292419486170e+01 8.796631749176155779e+01 -1.526895030010380765e+02 1.420401260902780507e+02 2.465792712730533509e+01 1.001907737061937382e+02 1.298356143203268118e+02 -1.460080576969685637e+02 -8.552790101129450306e+01 -1.051822520414407336e+02 6.659852125899202235e+01 -1.706413007192481928e+02 1.508737714943673893e+02 1.418241009887768200e+02 5.277505728102502758e+01 -8.456634474721460037e+01 5.683667484293325600e+01 -1.068956946927383029e+02 -1.091127290110908277e+01 3.485648375798582776e+01 -1.830728258932057599e+02 -8.129852092568434330e+01 -1.348728344759216391e+01 1.018557583994379740e+02 -5.003761536499119700e+01 1.083464276745005890e+02 -6.412982447704045796e+01 -2.101469153447949623e+02 -1.067668515568509946e+02 -3.397052752553066313e+01 -6.001325129308226281e+01 3.001238318126537408e+01 5.123862125785834110e+01 6.331847348261422148e+00 2.524783665925478360e+01 -1.170079924526736050e+02 5.370613330368109928e+01 3.255191331033250179e+01 -7.201883896892613279e+01 9.241524376946431474e+00 5.620472008854058998e+01 -9.521766578640799139e+01 -5.496889508301067195e+01 -2.409870767339107545e+01 9.741952198501005000e+01 -1.709932713590919562e+01 4.186420328715743544e+00 -2.276970372900699715e+02 -9.489327179813345481e+01 9.878413641730639938e+01 -8.910127122101799557e+01 3.129712104438076636e+01 3.102385593898301508e+01 3.788758641261109972e+01 6.600210497321202752e+01 -1.772438139643226407e+02 1.438027319975977036e+02 8.138997566123886429e+01 -7.508776945879515274e+00 -8.072157459543545599e+01 1.118014577823823004e+02 6.203390405150261699e+01 -2.008999019182824100e+02 -5.033874652283950013e+01 -8.161566444536872211e+01 -5.179442746198242276e+01 -6.188532540883640110e+01 -9.897071536712347495e+01 -6.032171814407318067e+01 1.913416059152575315e+02 -1.706522337946954906e+02 6.543438348092450951e+01 2.772207211926659909e+01 -7.512458878288153130e+01 1.037622958505874315e+01 -3.939070316517619119e+01 3.425879002061769096e+00 -9.607044232230607861e+01 -1.974325818162299129e+02 1.838249522921762136e+01 4.188823107310558669e+01 -1.279171020178405449e+01 -9.013004306573167312e+00 -3.975992167705109637e+01 -1.898348386162186614e+02 -3.063491241102726192e+01 -6.533655687883855023e+01 1.396047561810867421e+01 -1.560402490267586550e+01 9.051641321949350072e+01 -6.301076424349113125e+01 -1.036632262481218305e+02 -3.572965770200254099e+01 -9.009246609306105213e+00 4.548925841551677962e+01 -2.213481746794413496e+01 -7.372503811724197931e+01 -1.587020925159293228e+01 2.006107054540097678e+01 4.749434693774679772e+01 -1.139957350007105816e+02 -1.390178238151183621e+02 2.303259217463298398e+02 -2.182680920896866610e+02 -7.595103530969304018e+01 -4.634372685266102110e+01 1.398675536303881017e+02 6.328603192007912526e+01 2.288918663530877211e+02 2.447775030395952740e+02 -6.234481252469520740e+01 1.294903408837087682e+02 -5.596867319312192279e+01 -4.081823811548670022e+01 -1.006657532162021482e+02 -7.985887490612228135e+01 -6.958464068596587992e+01 -8.901578901249666842e+01 -2.438295485921852617e+02 -2.709347622614818647e+02 1.347293151961546869e+02 -2.653630920251049474e+01 5.327907763289933740e+01 1.309048205555146751e+02
