# 
#                 ----------------------------------------------------
#                 Data from a 3D direct N-body simulation. 
# 
#                 rows are i-particle; 
#                 coumns are :mass, tag, x ,y, z, vx, vy, vz, ax, ay, az
# 
#                 NTHU, Computational Physics Lab
# 
#                 ----------------------------------------------------
#                 Time = 7.899999999999876
1.000000000000000000e+00 2.000000000000000000e+00 3.000000000000000000e+00 4.000000000000000000e+00 5.000000000000000000e+00 6.000000000000000000e+00 7.000000000000000000e+00 8.000000000000000000e+00 9.000000000000000000e+00 1.000000000000000000e+01 1.100000000000000000e+01 1.200000000000000000e+01 1.300000000000000000e+01 1.400000000000000000e+01 1.500000000000000000e+01 1.600000000000000000e+01 1.700000000000000000e+01 1.800000000000000000e+01 1.900000000000000000e+01 2.000000000000000000e+01 2.100000000000000000e+01 2.200000000000000000e+01 2.300000000000000000e+01 2.400000000000000000e+01 2.500000000000000000e+01 2.600000000000000000e+01 2.700000000000000000e+01 2.800000000000000000e+01 2.900000000000000000e+01 3.000000000000000000e+01 3.100000000000000000e+01 3.200000000000000000e+01 3.300000000000000000e+01 3.400000000000000000e+01 3.500000000000000000e+01 3.600000000000000000e+01 3.700000000000000000e+01 3.800000000000000000e+01 3.900000000000000000e+01 4.000000000000000000e+01 4.100000000000000000e+01 4.200000000000000000e+01 4.300000000000000000e+01 4.400000000000000000e+01 4.500000000000000000e+01 4.600000000000000000e+01 4.700000000000000000e+01 4.800000000000000000e+01 4.900000000000000000e+01 5.000000000000000000e+01 5.100000000000000000e+01 5.200000000000000000e+01 5.300000000000000000e+01 5.400000000000000000e+01 5.500000000000000000e+01 5.600000000000000000e+01 5.700000000000000000e+01 5.800000000000000000e+01 5.900000000000000000e+01 6.000000000000000000e+01 6.100000000000000000e+01 6.200000000000000000e+01 6.300000000000000000e+01 6.400000000000000000e+01 6.500000000000000000e+01 6.600000000000000000e+01 6.700000000000000000e+01 6.800000000000000000e+01 6.900000000000000000e+01 7.000000000000000000e+01 7.100000000000000000e+01 7.200000000000000000e+01 7.300000000000000000e+01 7.400000000000000000e+01 7.500000000000000000e+01 7.600000000000000000e+01 7.700000000000000000e+01 7.800000000000000000e+01 7.900000000000000000e+01 8.000000000000000000e+01 8.100000000000000000e+01 8.200000000000000000e+01 8.300000000000000000e+01 8.400000000000000000e+01 8.500000000000000000e+01 8.600000000000000000e+01 8.700000000000000000e+01 8.800000000000000000e+01 8.900000000000000000e+01 9.000000000000000000e+01 9.100000000000000000e+01 9.200000000000000000e+01 9.300000000000000000e+01 9.400000000000000000e+01 9.500000000000000000e+01 9.600000000000000000e+01 9.700000000000000000e+01 9.800000000000000000e+01 9.900000000000000000e+01 1.000000000000000000e+02 1.010000000000000000e+02 1.020000000000000000e+02 1.030000000000000000e+02 1.040000000000000000e+02 1.050000000000000000e+02 1.060000000000000000e+02 1.070000000000000000e+02 1.080000000000000000e+02 1.090000000000000000e+02 1.100000000000000000e+02 1.110000000000000000e+02 1.120000000000000000e+02 1.130000000000000000e+02 1.140000000000000000e+02 1.150000000000000000e+02 1.160000000000000000e+02 1.170000000000000000e+02 1.180000000000000000e+02 1.190000000000000000e+02 1.200000000000000000e+02 1.210000000000000000e+02 1.220000000000000000e+02 1.230000000000000000e+02 1.240000000000000000e+02 1.250000000000000000e+02 1.260000000000000000e+02 1.270000000000000000e+02 1.280000000000000000e+02 1.290000000000000000e+02 1.300000000000000000e+02 1.310000000000000000e+02 1.320000000000000000e+02 1.330000000000000000e+02 1.340000000000000000e+02 1.350000000000000000e+02 1.360000000000000000e+02 1.370000000000000000e+02 1.380000000000000000e+02 1.390000000000000000e+02 1.400000000000000000e+02 1.410000000000000000e+02 1.420000000000000000e+02 1.430000000000000000e+02 1.440000000000000000e+02 1.450000000000000000e+02 1.460000000000000000e+02 1.470000000000000000e+02 1.480000000000000000e+02 1.490000000000000000e+02 1.500000000000000000e+02 1.510000000000000000e+02 1.520000000000000000e+02 1.530000000000000000e+02 1.540000000000000000e+02 1.550000000000000000e+02 1.560000000000000000e+02 1.570000000000000000e+02 1.580000000000000000e+02 1.590000000000000000e+02 1.600000000000000000e+02 1.610000000000000000e+02 1.620000000000000000e+02 1.630000000000000000e+02 1.640000000000000000e+02 1.650000000000000000e+02 1.660000000000000000e+02 1.670000000000000000e+02 1.680000000000000000e+02 1.690000000000000000e+02 1.700000000000000000e+02 1.710000000000000000e+02 1.720000000000000000e+02 1.730000000000000000e+02 1.740000000000000000e+02 1.750000000000000000e+02 1.760000000000000000e+02 1.770000000000000000e+02 1.780000000000000000e+02 1.790000000000000000e+02 1.800000000000000000e+02 1.810000000000000000e+02 1.820000000000000000e+02 1.830000000000000000e+02 1.840000000000000000e+02 1.850000000000000000e+02 1.860000000000000000e+02 1.870000000000000000e+02 1.880000000000000000e+02 1.890000000000000000e+02 1.900000000000000000e+02 1.910000000000000000e+02 1.920000000000000000e+02 1.930000000000000000e+02 1.940000000000000000e+02 1.950000000000000000e+02 1.960000000000000000e+02 1.970000000000000000e+02 1.980000000000000000e+02 1.990000000000000000e+02 2.000000000000000000e+02 2.010000000000000000e+02 2.020000000000000000e+02 2.030000000000000000e+02 2.040000000000000000e+02 2.050000000000000000e+02 2.060000000000000000e+02 2.070000000000000000e+02 2.080000000000000000e+02 2.090000000000000000e+02 2.100000000000000000e+02 2.110000000000000000e+02 2.120000000000000000e+02 2.130000000000000000e+02 2.140000000000000000e+02 2.150000000000000000e+02 2.160000000000000000e+02 2.170000000000000000e+02 2.180000000000000000e+02 2.190000000000000000e+02 2.200000000000000000e+02 2.210000000000000000e+02 2.220000000000000000e+02 2.230000000000000000e+02 2.240000000000000000e+02 2.250000000000000000e+02 2.260000000000000000e+02 2.270000000000000000e+02 2.280000000000000000e+02 2.290000000000000000e+02 2.300000000000000000e+02 2.310000000000000000e+02 2.320000000000000000e+02 2.330000000000000000e+02 2.340000000000000000e+02 2.350000000000000000e+02 2.360000000000000000e+02 2.370000000000000000e+02 2.380000000000000000e+02 2.390000000000000000e+02 2.400000000000000000e+02 2.410000000000000000e+02 2.420000000000000000e+02 2.430000000000000000e+02 2.440000000000000000e+02 2.450000000000000000e+02 2.460000000000000000e+02 2.470000000000000000e+02 2.480000000000000000e+02 2.490000000000000000e+02 2.500000000000000000e+02 2.510000000000000000e+02 2.520000000000000000e+02 2.530000000000000000e+02 2.540000000000000000e+02 2.550000000000000000e+02 2.560000000000000000e+02 2.570000000000000000e+02 2.580000000000000000e+02 2.590000000000000000e+02 2.600000000000000000e+02 2.610000000000000000e+02 2.620000000000000000e+02 2.630000000000000000e+02 2.640000000000000000e+02 2.650000000000000000e+02 2.660000000000000000e+02 2.670000000000000000e+02 2.680000000000000000e+02 2.690000000000000000e+02 2.700000000000000000e+02 2.710000000000000000e+02 2.720000000000000000e+02 2.730000000000000000e+02 2.740000000000000000e+02 2.750000000000000000e+02 2.760000000000000000e+02 2.770000000000000000e+02 2.780000000000000000e+02 2.790000000000000000e+02 2.800000000000000000e+02 2.810000000000000000e+02 2.820000000000000000e+02 2.830000000000000000e+02 2.840000000000000000e+02 2.850000000000000000e+02 2.860000000000000000e+02 2.870000000000000000e+02 2.880000000000000000e+02 2.890000000000000000e+02 2.900000000000000000e+02 2.910000000000000000e+02 2.920000000000000000e+02 2.930000000000000000e+02 2.940000000000000000e+02 2.950000000000000000e+02 2.960000000000000000e+02 2.970000000000000000e+02 2.980000000000000000e+02 2.990000000000000000e+02 3.000000000000000000e+02 3.010000000000000000e+02 3.020000000000000000e+02 3.030000000000000000e+02 3.040000000000000000e+02 3.050000000000000000e+02 3.060000000000000000e+02 3.070000000000000000e+02 3.080000000000000000e+02 3.090000000000000000e+02 3.100000000000000000e+02 3.110000000000000000e+02 3.120000000000000000e+02 3.130000000000000000e+02 3.140000000000000000e+02 3.150000000000000000e+02 3.160000000000000000e+02 3.170000000000000000e+02 3.180000000000000000e+02 3.190000000000000000e+02 3.200000000000000000e+02 3.210000000000000000e+02 3.220000000000000000e+02 3.230000000000000000e+02 3.240000000000000000e+02 3.250000000000000000e+02 3.260000000000000000e+02 3.270000000000000000e+02 3.280000000000000000e+02 3.290000000000000000e+02 3.300000000000000000e+02 3.310000000000000000e+02 3.320000000000000000e+02 3.330000000000000000e+02 3.340000000000000000e+02 3.350000000000000000e+02 3.360000000000000000e+02 3.370000000000000000e+02 3.380000000000000000e+02 3.390000000000000000e+02 3.400000000000000000e+02 3.410000000000000000e+02 3.420000000000000000e+02 3.430000000000000000e+02 3.440000000000000000e+02 3.450000000000000000e+02 3.460000000000000000e+02 3.470000000000000000e+02 3.480000000000000000e+02 3.490000000000000000e+02 3.500000000000000000e+02 3.510000000000000000e+02 3.520000000000000000e+02 3.530000000000000000e+02 3.540000000000000000e+02 3.550000000000000000e+02 3.560000000000000000e+02 3.570000000000000000e+02 3.580000000000000000e+02 3.590000000000000000e+02 3.600000000000000000e+02 3.610000000000000000e+02 3.620000000000000000e+02 3.630000000000000000e+02 3.640000000000000000e+02 3.650000000000000000e+02 3.660000000000000000e+02 3.670000000000000000e+02 3.680000000000000000e+02 3.690000000000000000e+02 3.700000000000000000e+02 3.710000000000000000e+02 3.720000000000000000e+02 3.730000000000000000e+02 3.740000000000000000e+02 3.750000000000000000e+02 3.760000000000000000e+02 3.770000000000000000e+02 3.780000000000000000e+02 3.790000000000000000e+02 3.800000000000000000e+02 3.810000000000000000e+02 3.820000000000000000e+02 3.830000000000000000e+02 3.840000000000000000e+02 3.850000000000000000e+02 3.860000000000000000e+02 3.870000000000000000e+02 3.880000000000000000e+02 3.890000000000000000e+02 3.900000000000000000e+02 3.910000000000000000e+02 3.920000000000000000e+02 3.930000000000000000e+02 3.940000000000000000e+02 3.950000000000000000e+02 3.960000000000000000e+02 3.970000000000000000e+02 3.980000000000000000e+02 3.990000000000000000e+02 4.000000000000000000e+02 4.010000000000000000e+02 4.020000000000000000e+02 4.030000000000000000e+02 4.040000000000000000e+02 4.050000000000000000e+02 4.060000000000000000e+02 4.070000000000000000e+02 4.080000000000000000e+02 4.090000000000000000e+02 4.100000000000000000e+02 4.110000000000000000e+02 4.120000000000000000e+02 4.130000000000000000e+02 4.140000000000000000e+02 4.150000000000000000e+02 4.160000000000000000e+02 4.170000000000000000e+02 4.180000000000000000e+02 4.190000000000000000e+02 4.200000000000000000e+02 4.210000000000000000e+02 4.220000000000000000e+02 4.230000000000000000e+02 4.240000000000000000e+02 4.250000000000000000e+02 4.260000000000000000e+02 4.270000000000000000e+02 4.280000000000000000e+02 4.290000000000000000e+02 4.300000000000000000e+02 4.310000000000000000e+02 4.320000000000000000e+02 4.330000000000000000e+02 4.340000000000000000e+02 4.350000000000000000e+02 4.360000000000000000e+02 4.370000000000000000e+02 4.380000000000000000e+02 4.390000000000000000e+02 4.400000000000000000e+02 4.410000000000000000e+02 4.420000000000000000e+02 4.430000000000000000e+02 4.440000000000000000e+02 4.450000000000000000e+02 4.460000000000000000e+02 4.470000000000000000e+02 4.480000000000000000e+02 4.490000000000000000e+02 4.500000000000000000e+02 4.510000000000000000e+02 4.520000000000000000e+02 4.530000000000000000e+02 4.540000000000000000e+02 4.550000000000000000e+02 4.560000000000000000e+02 4.570000000000000000e+02 4.580000000000000000e+02 4.590000000000000000e+02 4.600000000000000000e+02 4.610000000000000000e+02 4.620000000000000000e+02 4.630000000000000000e+02 4.640000000000000000e+02 4.650000000000000000e+02 4.660000000000000000e+02 4.670000000000000000e+02 4.680000000000000000e+02 4.690000000000000000e+02 4.700000000000000000e+02 4.710000000000000000e+02 4.720000000000000000e+02 4.730000000000000000e+02 4.740000000000000000e+02 4.750000000000000000e+02 4.760000000000000000e+02 4.770000000000000000e+02 4.780000000000000000e+02 4.790000000000000000e+02 4.800000000000000000e+02 4.810000000000000000e+02 4.820000000000000000e+02 4.830000000000000000e+02 4.840000000000000000e+02 4.850000000000000000e+02 4.860000000000000000e+02 4.870000000000000000e+02 4.880000000000000000e+02 4.890000000000000000e+02 4.900000000000000000e+02 4.910000000000000000e+02 4.920000000000000000e+02 4.930000000000000000e+02 4.940000000000000000e+02 4.950000000000000000e+02 4.960000000000000000e+02 4.970000000000000000e+02 4.980000000000000000e+02 4.990000000000000000e+02 5.000000000000000000e+02 5.010000000000000000e+02 5.020000000000000000e+02 5.030000000000000000e+02 5.040000000000000000e+02 5.050000000000000000e+02 5.060000000000000000e+02 5.070000000000000000e+02 5.080000000000000000e+02 5.090000000000000000e+02 5.100000000000000000e+02 5.110000000000000000e+02 5.120000000000000000e+02 5.130000000000000000e+02 5.140000000000000000e+02 5.150000000000000000e+02 5.160000000000000000e+02 5.170000000000000000e+02 5.180000000000000000e+02 5.190000000000000000e+02 5.200000000000000000e+02 5.210000000000000000e+02 5.220000000000000000e+02 5.230000000000000000e+02 5.240000000000000000e+02 5.250000000000000000e+02 5.260000000000000000e+02 5.270000000000000000e+02 5.280000000000000000e+02 5.290000000000000000e+02 5.300000000000000000e+02 5.310000000000000000e+02 5.320000000000000000e+02 5.330000000000000000e+02 5.340000000000000000e+02 5.350000000000000000e+02 5.360000000000000000e+02 5.370000000000000000e+02 5.380000000000000000e+02 5.390000000000000000e+02 5.400000000000000000e+02 5.410000000000000000e+02 5.420000000000000000e+02 5.430000000000000000e+02 5.440000000000000000e+02 5.450000000000000000e+02 5.460000000000000000e+02 5.470000000000000000e+02 5.480000000000000000e+02 5.490000000000000000e+02 5.500000000000000000e+02 5.510000000000000000e+02 5.520000000000000000e+02 5.530000000000000000e+02 5.540000000000000000e+02 5.550000000000000000e+02 5.560000000000000000e+02 5.570000000000000000e+02 5.580000000000000000e+02 5.590000000000000000e+02 5.600000000000000000e+02 5.610000000000000000e+02 5.620000000000000000e+02 5.630000000000000000e+02 5.640000000000000000e+02 5.650000000000000000e+02 5.660000000000000000e+02 5.670000000000000000e+02 5.680000000000000000e+02 5.690000000000000000e+02 5.700000000000000000e+02 5.710000000000000000e+02 5.720000000000000000e+02 5.730000000000000000e+02 5.740000000000000000e+02 5.750000000000000000e+02 5.760000000000000000e+02 5.770000000000000000e+02 5.780000000000000000e+02 5.790000000000000000e+02 5.800000000000000000e+02 5.810000000000000000e+02 5.820000000000000000e+02 5.830000000000000000e+02 5.840000000000000000e+02 5.850000000000000000e+02 5.860000000000000000e+02 5.870000000000000000e+02 5.880000000000000000e+02 5.890000000000000000e+02 5.900000000000000000e+02 5.910000000000000000e+02 5.920000000000000000e+02 5.930000000000000000e+02 5.940000000000000000e+02 5.950000000000000000e+02 5.960000000000000000e+02 5.970000000000000000e+02 5.980000000000000000e+02 5.990000000000000000e+02 6.000000000000000000e+02 6.010000000000000000e+02 6.020000000000000000e+02 6.030000000000000000e+02 6.040000000000000000e+02 6.050000000000000000e+02 6.060000000000000000e+02 6.070000000000000000e+02 6.080000000000000000e+02 6.090000000000000000e+02 6.100000000000000000e+02 6.110000000000000000e+02 6.120000000000000000e+02 6.130000000000000000e+02 6.140000000000000000e+02 6.150000000000000000e+02 6.160000000000000000e+02 6.170000000000000000e+02 6.180000000000000000e+02 6.190000000000000000e+02 6.200000000000000000e+02 6.210000000000000000e+02 6.220000000000000000e+02 6.230000000000000000e+02 6.240000000000000000e+02 6.250000000000000000e+02 6.260000000000000000e+02 6.270000000000000000e+02 6.280000000000000000e+02 6.290000000000000000e+02 6.300000000000000000e+02 6.310000000000000000e+02 6.320000000000000000e+02 6.330000000000000000e+02 6.340000000000000000e+02 6.350000000000000000e+02 6.360000000000000000e+02 6.370000000000000000e+02 6.380000000000000000e+02 6.390000000000000000e+02 6.400000000000000000e+02 6.410000000000000000e+02 6.420000000000000000e+02 6.430000000000000000e+02 6.440000000000000000e+02 6.450000000000000000e+02 6.460000000000000000e+02 6.470000000000000000e+02 6.480000000000000000e+02 6.490000000000000000e+02 6.500000000000000000e+02 6.510000000000000000e+02 6.520000000000000000e+02 6.530000000000000000e+02 6.540000000000000000e+02 6.550000000000000000e+02 6.560000000000000000e+02 6.570000000000000000e+02 6.580000000000000000e+02 6.590000000000000000e+02 6.600000000000000000e+02 6.610000000000000000e+02 6.620000000000000000e+02 6.630000000000000000e+02 6.640000000000000000e+02 6.650000000000000000e+02 6.660000000000000000e+02 6.670000000000000000e+02 6.680000000000000000e+02 6.690000000000000000e+02 6.700000000000000000e+02 6.710000000000000000e+02 6.720000000000000000e+02 6.730000000000000000e+02 6.740000000000000000e+02 6.750000000000000000e+02 6.760000000000000000e+02 6.770000000000000000e+02 6.780000000000000000e+02 6.790000000000000000e+02 6.800000000000000000e+02 6.810000000000000000e+02 6.820000000000000000e+02 6.830000000000000000e+02 6.840000000000000000e+02 6.850000000000000000e+02 6.860000000000000000e+02 6.870000000000000000e+02 6.880000000000000000e+02 6.890000000000000000e+02 6.900000000000000000e+02 6.910000000000000000e+02 6.920000000000000000e+02 6.930000000000000000e+02 6.940000000000000000e+02 6.950000000000000000e+02 6.960000000000000000e+02 6.970000000000000000e+02 6.980000000000000000e+02 6.990000000000000000e+02 7.000000000000000000e+02 7.010000000000000000e+02 7.020000000000000000e+02 7.030000000000000000e+02 7.040000000000000000e+02 7.050000000000000000e+02 7.060000000000000000e+02 7.070000000000000000e+02 7.080000000000000000e+02 7.090000000000000000e+02 7.100000000000000000e+02 7.110000000000000000e+02 7.120000000000000000e+02 7.130000000000000000e+02 7.140000000000000000e+02 7.150000000000000000e+02 7.160000000000000000e+02 7.170000000000000000e+02 7.180000000000000000e+02 7.190000000000000000e+02 7.200000000000000000e+02 7.210000000000000000e+02 7.220000000000000000e+02 7.230000000000000000e+02 7.240000000000000000e+02 7.250000000000000000e+02 7.260000000000000000e+02 7.270000000000000000e+02 7.280000000000000000e+02 7.290000000000000000e+02 7.300000000000000000e+02 7.310000000000000000e+02 7.320000000000000000e+02 7.330000000000000000e+02 7.340000000000000000e+02 7.350000000000000000e+02 7.360000000000000000e+02 7.370000000000000000e+02 7.380000000000000000e+02 7.390000000000000000e+02 7.400000000000000000e+02 7.410000000000000000e+02 7.420000000000000000e+02 7.430000000000000000e+02 7.440000000000000000e+02 7.450000000000000000e+02 7.460000000000000000e+02 7.470000000000000000e+02 7.480000000000000000e+02 7.490000000000000000e+02 7.500000000000000000e+02 7.510000000000000000e+02 7.520000000000000000e+02 7.530000000000000000e+02 7.540000000000000000e+02 7.550000000000000000e+02 7.560000000000000000e+02 7.570000000000000000e+02 7.580000000000000000e+02 7.590000000000000000e+02 7.600000000000000000e+02 7.610000000000000000e+02 7.620000000000000000e+02 7.630000000000000000e+02 7.640000000000000000e+02 7.650000000000000000e+02 7.660000000000000000e+02 7.670000000000000000e+02 7.680000000000000000e+02 7.690000000000000000e+02 7.700000000000000000e+02 7.710000000000000000e+02 7.720000000000000000e+02 7.730000000000000000e+02 7.740000000000000000e+02 7.750000000000000000e+02 7.760000000000000000e+02 7.770000000000000000e+02 7.780000000000000000e+02 7.790000000000000000e+02 7.800000000000000000e+02 7.810000000000000000e+02 7.820000000000000000e+02 7.830000000000000000e+02 7.840000000000000000e+02 7.850000000000000000e+02 7.860000000000000000e+02 7.870000000000000000e+02 7.880000000000000000e+02 7.890000000000000000e+02 7.900000000000000000e+02 7.910000000000000000e+02 7.920000000000000000e+02 7.930000000000000000e+02 7.940000000000000000e+02 7.950000000000000000e+02 7.960000000000000000e+02 7.970000000000000000e+02 7.980000000000000000e+02 7.990000000000000000e+02 8.000000000000000000e+02 8.010000000000000000e+02 8.020000000000000000e+02 8.030000000000000000e+02 8.040000000000000000e+02 8.050000000000000000e+02 8.060000000000000000e+02 8.070000000000000000e+02 8.080000000000000000e+02 8.090000000000000000e+02 8.100000000000000000e+02 8.110000000000000000e+02 8.120000000000000000e+02 8.130000000000000000e+02 8.140000000000000000e+02 8.150000000000000000e+02 8.160000000000000000e+02 8.170000000000000000e+02 8.180000000000000000e+02 8.190000000000000000e+02 8.200000000000000000e+02 8.210000000000000000e+02 8.220000000000000000e+02 8.230000000000000000e+02 8.240000000000000000e+02 8.250000000000000000e+02 8.260000000000000000e+02 8.270000000000000000e+02 8.280000000000000000e+02 8.290000000000000000e+02 8.300000000000000000e+02 8.310000000000000000e+02 8.320000000000000000e+02 8.330000000000000000e+02 8.340000000000000000e+02 8.350000000000000000e+02 8.360000000000000000e+02 8.370000000000000000e+02 8.380000000000000000e+02 8.390000000000000000e+02 8.400000000000000000e+02 8.410000000000000000e+02 8.420000000000000000e+02 8.430000000000000000e+02 8.440000000000000000e+02 8.450000000000000000e+02 8.460000000000000000e+02 8.470000000000000000e+02 8.480000000000000000e+02 8.490000000000000000e+02 8.500000000000000000e+02 8.510000000000000000e+02 8.520000000000000000e+02 8.530000000000000000e+02 8.540000000000000000e+02 8.550000000000000000e+02 8.560000000000000000e+02 8.570000000000000000e+02 8.580000000000000000e+02 8.590000000000000000e+02 8.600000000000000000e+02 8.610000000000000000e+02 8.620000000000000000e+02 8.630000000000000000e+02 8.640000000000000000e+02 8.650000000000000000e+02 8.660000000000000000e+02 8.670000000000000000e+02 8.680000000000000000e+02 8.690000000000000000e+02 8.700000000000000000e+02 8.710000000000000000e+02 8.720000000000000000e+02 8.730000000000000000e+02 8.740000000000000000e+02 8.750000000000000000e+02 8.760000000000000000e+02 8.770000000000000000e+02 8.780000000000000000e+02 8.790000000000000000e+02 8.800000000000000000e+02 8.810000000000000000e+02 8.820000000000000000e+02 8.830000000000000000e+02 8.840000000000000000e+02 8.850000000000000000e+02 8.860000000000000000e+02 8.870000000000000000e+02 8.880000000000000000e+02 8.890000000000000000e+02 8.900000000000000000e+02 8.910000000000000000e+02 8.920000000000000000e+02 8.930000000000000000e+02 8.940000000000000000e+02 8.950000000000000000e+02 8.960000000000000000e+02 8.970000000000000000e+02 8.980000000000000000e+02 8.990000000000000000e+02 9.000000000000000000e+02 9.010000000000000000e+02 9.020000000000000000e+02 9.030000000000000000e+02 9.040000000000000000e+02 9.050000000000000000e+02 9.060000000000000000e+02 9.070000000000000000e+02 9.080000000000000000e+02 9.090000000000000000e+02 9.100000000000000000e+02 9.110000000000000000e+02 9.120000000000000000e+02 9.130000000000000000e+02 9.140000000000000000e+02 9.150000000000000000e+02 9.160000000000000000e+02 9.170000000000000000e+02 9.180000000000000000e+02 9.190000000000000000e+02 9.200000000000000000e+02 9.210000000000000000e+02 9.220000000000000000e+02 9.230000000000000000e+02 9.240000000000000000e+02 9.250000000000000000e+02 9.260000000000000000e+02 9.270000000000000000e+02 9.280000000000000000e+02 9.290000000000000000e+02 9.300000000000000000e+02 9.310000000000000000e+02 9.320000000000000000e+02 9.330000000000000000e+02 9.340000000000000000e+02 9.350000000000000000e+02 9.360000000000000000e+02 9.370000000000000000e+02 9.380000000000000000e+02 9.390000000000000000e+02 9.400000000000000000e+02 9.410000000000000000e+02 9.420000000000000000e+02 9.430000000000000000e+02 9.440000000000000000e+02 9.450000000000000000e+02 9.460000000000000000e+02 9.470000000000000000e+02 9.480000000000000000e+02 9.490000000000000000e+02 9.500000000000000000e+02 9.510000000000000000e+02 9.520000000000000000e+02 9.530000000000000000e+02 9.540000000000000000e+02 9.550000000000000000e+02 9.560000000000000000e+02 9.570000000000000000e+02 9.580000000000000000e+02 9.590000000000000000e+02 9.600000000000000000e+02 9.610000000000000000e+02 9.620000000000000000e+02 9.630000000000000000e+02 9.640000000000000000e+02 9.650000000000000000e+02 9.660000000000000000e+02 9.670000000000000000e+02 9.680000000000000000e+02 9.690000000000000000e+02 9.700000000000000000e+02 9.710000000000000000e+02 9.720000000000000000e+02 9.730000000000000000e+02 9.740000000000000000e+02 9.750000000000000000e+02 9.760000000000000000e+02 9.770000000000000000e+02 9.780000000000000000e+02 9.790000000000000000e+02 9.800000000000000000e+02 9.810000000000000000e+02 9.820000000000000000e+02 9.830000000000000000e+02 9.840000000000000000e+02 9.850000000000000000e+02 9.860000000000000000e+02 9.870000000000000000e+02 9.880000000000000000e+02 9.890000000000000000e+02 9.900000000000000000e+02 9.910000000000000000e+02 9.920000000000000000e+02 9.930000000000000000e+02 9.940000000000000000e+02 9.950000000000000000e+02 9.960000000000000000e+02 9.970000000000000000e+02 9.980000000000000000e+02 9.990000000000000000e+02 1.000000000000000000e+03
1.000000000000000021e-02 1.000000000000000021e-02 1.000000000000000021e-02 1.000000000000000021e-02 1.000000000000000021e-02 1.000000000000000021e-02 1.000000000000000021e-02 1.000000000000000021e-02 1.000000000000000021e-02 1.000000000000000021e-02 1.000000000000000021e-02 1.000000000000000021e-02 1.000000000000000021e-02 1.000000000000000021e-02 1.000000000000000021e-02 1.000000000000000021e-02 1.000000000000000021e-02 1.000000000000000021e-02 1.000000000000000021e-02 1.000000000000000021e-02 1.000000000000000021e-02 1.000000000000000021e-02 1.000000000000000021e-02 1.000000000000000021e-02 1.000000000000000021e-02 1.000000000000000021e-02 1.000000000000000021e-02 1.000000000000000021e-02 1.000000000000000021e-02 1.000000000000000021e-02 1.000000000000000021e-02 1.000000000000000021e-02 1.000000000000000021e-02 1.000000000000000021e-02 1.000000000000000021e-02 1.000000000000000021e-02 1.000000000000000021e-02 1.000000000000000021e-02 1.000000000000000021e-02 1.000000000000000021e-02 1.000000000000000021e-02 1.000000000000000021e-02 1.000000000000000021e-02 1.000000000000000021e-02 1.000000000000000021e-02 1.000000000000000021e-02 1.000000000000000021e-02 1.000000000000000021e-02 1.000000000000000021e-02 1.000000000000000021e-02 1.000000000000000021e-02 1.000000000000000021e-02 1.000000000000000021e-02 1.000000000000000021e-02 1.000000000000000021e-02 1.000000000000000021e-02 1.000000000000000021e-02 1.000000000000000021e-02 1.000000000000000021e-02 1.000000000000000021e-02 1.000000000000000021e-02 1.000000000000000021e-02 1.000000000000000021e-02 1.000000000000000021e-02 1.000000000000000021e-02 1.000000000000000021e-02 1.000000000000000021e-02 1.000000000000000021e-02 1.000000000000000021e-02 1.000000000000000021e-02 1.000000000000000021e-02 1.000000000000000021e-02 1.000000000000000021e-02 1.000000000000000021e-02 1.000000000000000021e-02 1.000000000000000021e-02 1.000000000000000021e-02 1.000000000000000021e-02 1.000000000000000021e-02 1.000000000000000021e-02 1.000000000000000021e-02 1.000000000000000021e-02 1.000000000000000021e-02 1.000000000000000021e-02 1.000000000000000021e-02 1.000000000000000021e-02 1.000000000000000021e-02 1.000000000000000021e-02 1.000000000000000021e-02 1.000000000000000021e-02 1.000000000000000021e-02 1.000000000000000021e-02 1.000000000000000021e-02 1.000000000000000021e-02 1.000000000000000021e-02 1.000000000000000021e-02 1.000000000000000021e-02 1.000000000000000021e-02 1.000000000000000021e-02 1.000000000000000021e-02 1.000000000000000021e-02 1.000000000000000021e-02 1.000000000000000021e-02 1.000000000000000021e-02 1.000000000000000021e-02 1.000000000000000021e-02 1.000000000000000021e-02 1.000000000000000021e-02 1.000000000000000021e-02 1.000000000000000021e-02 1.000000000000000021e-02 1.000000000000000021e-02 1.000000000000000021e-02 1.000000000000000021e-02 1.000000000000000021e-02 1.000000000000000021e-02 1.000000000000000021e-02 1.000000000000000021e-02 1.000000000000000021e-02 1.000000000000000021e-02 1.000000000000000021e-02 1.000000000000000021e-02 1.000000000000000021e-02 1.000000000000000021e-02 1.000000000000000021e-02 1.000000000000000021e-02 1.000000000000000021e-02 1.000000000000000021e-02 1.000000000000000021e-02 1.000000000000000021e-02 1.000000000000000021e-02 1.000000000000000021e-02 1.000000000000000021e-02 1.000000000000000021e-02 1.000000000000000021e-02 1.000000000000000021e-02 1.000000000000000021e-02 1.000000000000000021e-02 1.000000000000000021e-02 1.000000000000000021e-02 1.000000000000000021e-02 1.000000000000000021e-02 1.000000000000000021e-02 1.000000000000000021e-02 1.000000000000000021e-02 1.000000000000000021e-02 1.000000000000000021e-02 1.000000000000000021e-02 1.000000000000000021e-02 1.000000000000000021e-02 1.000000000000000021e-02 1.000000000000000021e-02 1.000000000000000021e-02 1.000000000000000021e-02 1.000000000000000021e-02 1.000000000000000021e-02 1.000000000000000021e-02 1.000000000000000021e-02 1.000000000000000021e-02 1.000000000000000021e-02 1.000000000000000021e-02 1.000000000000000021e-02 1.000000000000000021e-02 1.000000000000000021e-02 1.000000000000000021e-02 1.000000000000000021e-02 1.000000000000000021e-02 1.000000000000000021e-02 1.000000000000000021e-02 1.000000000000000021e-02 1.000000000000000021e-02 1.000000000000000021e-02 1.000000000000000021e-02 1.000000000000000021e-02 1.000000000000000021e-02 1.000000000000000021e-02 1.000000000000000021e-02 1.000000000000000021e-02 1.000000000000000021e-02 1.000000000000000021e-02 1.000000000000000021e-02 1.000000000000000021e-02 1.000000000000000021e-02 1.000000000000000021e-02 1.000000000000000021e-02 1.000000000000000021e-02 1.000000000000000021e-02 1.000000000000000021e-02 1.000000000000000021e-02 1.000000000000000021e-02 1.000000000000000021e-02 1.000000000000000021e-02 1.000000000000000021e-02 1.000000000000000021e-02 1.000000000000000021e-02 1.000000000000000021e-02 1.000000000000000021e-02 1.000000000000000021e-02 1.000000000000000021e-02 1.000000000000000021e-02 1.000000000000000021e-02 1.000000000000000021e-02 1.000000000000000021e-02 1.000000000000000021e-02 1.000000000000000021e-02 1.000000000000000021e-02 1.000000000000000021e-02 1.000000000000000021e-02 1.000000000000000021e-02 1.000000000000000021e-02 1.000000000000000021e-02 1.000000000000000021e-02 1.000000000000000021e-02 1.000000000000000021e-02 1.000000000000000021e-02 1.000000000000000021e-02 1.000000000000000021e-02 1.000000000000000021e-02 1.000000000000000021e-02 1.000000000000000021e-02 1.000000000000000021e-02 1.000000000000000021e-02 1.000000000000000021e-02 1.000000000000000021e-02 1.000000000000000021e-02 1.000000000000000021e-02 1.000000000000000021e-02 1.000000000000000021e-02 1.000000000000000021e-02 1.000000000000000021e-02 1.000000000000000021e-02 1.000000000000000021e-02 1.000000000000000021e-02 1.000000000000000021e-02 1.000000000000000021e-02 1.000000000000000021e-02 1.000000000000000021e-02 1.000000000000000021e-02 1.000000000000000021e-02 1.000000000000000021e-02 1.000000000000000021e-02 1.000000000000000021e-02 1.000000000000000021e-02 1.000000000000000021e-02 1.000000000000000021e-02 1.000000000000000021e-02 1.000000000000000021e-02 1.000000000000000021e-02 1.000000000000000021e-02 1.000000000000000021e-02 1.000000000000000021e-02 1.000000000000000021e-02 1.000000000000000021e-02 1.000000000000000021e-02 1.000000000000000021e-02 1.000000000000000021e-02 1.000000000000000021e-02 1.000000000000000021e-02 1.000000000000000021e-02 1.000000000000000021e-02 1.000000000000000021e-02 1.000000000000000021e-02 1.000000000000000021e-02 1.000000000000000021e-02 1.000000000000000021e-02 1.000000000000000021e-02 1.000000000000000021e-02 1.000000000000000021e-02 1.000000000000000021e-02 1.000000000000000021e-02 1.000000000000000021e-02 1.000000000000000021e-02 1.000000000000000021e-02 1.000000000000000021e-02 1.000000000000000021e-02 1.000000000000000021e-02 1.000000000000000021e-02 1.000000000000000021e-02 1.000000000000000021e-02 1.000000000000000021e-02 1.000000000000000021e-02 1.000000000000000021e-02 1.000000000000000021e-02 1.000000000000000021e-02 1.000000000000000021e-02 1.000000000000000021e-02 1.000000000000000021e-02 1.000000000000000021e-02 1.000000000000000021e-02 1.000000000000000021e-02 1.000000000000000021e-02 1.000000000000000021e-02 1.000000000000000021e-02 1.000000000000000021e-02 1.000000000000000021e-02 1.000000000000000021e-02 1.000000000000000021e-02 1.000000000000000021e-02 1.000000000000000021e-02 1.000000000000000021e-02 1.000000000000000021e-02 1.000000000000000021e-02 1.000000000000000021e-02 1.000000000000000021e-02 1.000000000000000021e-02 1.000000000000000021e-02 1.000000000000000021e-02 1.000000000000000021e-02 1.000000000000000021e-02 1.000000000000000021e-02 1.000000000000000021e-02 1.000000000000000021e-02 1.000000000000000021e-02 1.000000000000000021e-02 1.000000000000000021e-02 1.000000000000000021e-02 1.000000000000000021e-02 1.000000000000000021e-02 1.000000000000000021e-02 1.000000000000000021e-02 1.000000000000000021e-02 1.000000000000000021e-02 1.000000000000000021e-02 1.000000000000000021e-02 1.000000000000000021e-02 1.000000000000000021e-02 1.000000000000000021e-02 1.000000000000000021e-02 1.000000000000000021e-02 1.000000000000000021e-02 1.000000000000000021e-02 1.000000000000000021e-02 1.000000000000000021e-02 1.000000000000000021e-02 1.000000000000000021e-02 1.000000000000000021e-02 1.000000000000000021e-02 1.000000000000000021e-02 1.000000000000000021e-02 1.000000000000000021e-02 1.000000000000000021e-02 1.000000000000000021e-02 1.000000000000000021e-02 1.000000000000000021e-02 1.000000000000000021e-02 1.000000000000000021e-02 1.000000000000000021e-02 1.000000000000000021e-02 1.000000000000000021e-02 1.000000000000000021e-02 1.000000000000000021e-02 1.000000000000000021e-02 1.000000000000000021e-02 1.000000000000000021e-02 1.000000000000000021e-02 1.000000000000000021e-02 1.000000000000000021e-02 1.000000000000000021e-02 1.000000000000000021e-02 1.000000000000000021e-02 1.000000000000000021e-02 1.000000000000000021e-02 1.000000000000000021e-02 1.000000000000000021e-02 1.000000000000000021e-02 1.000000000000000021e-02 1.000000000000000021e-02 1.000000000000000021e-02 1.000000000000000021e-02 1.000000000000000021e-02 1.000000000000000021e-02 1.000000000000000021e-02 1.000000000000000021e-02 1.000000000000000021e-02 1.000000000000000021e-02 1.000000000000000021e-02 1.000000000000000021e-02 1.000000000000000021e-02 1.000000000000000021e-02 1.000000000000000021e-02 1.000000000000000021e-02 1.000000000000000021e-02 1.000000000000000021e-02 1.000000000000000021e-02 1.000000000000000021e-02 1.000000000000000021e-02 1.000000000000000021e-02 1.000000000000000021e-02 1.000000000000000021e-02 1.000000000000000021e-02 1.000000000000000021e-02 1.000000000000000021e-02 1.000000000000000021e-02 1.000000000000000021e-02 1.000000000000000021e-02 1.000000000000000021e-02 1.000000000000000021e-02 1.000000000000000021e-02 1.000000000000000021e-02 1.000000000000000021e-02 1.000000000000000021e-02 1.000000000000000021e-02 1.000000000000000021e-02 1.000000000000000021e-02 1.000000000000000021e-02 1.000000000000000021e-02 1.000000000000000021e-02 1.000000000000000021e-02 1.000000000000000021e-02 1.000000000000000021e-02 1.000000000000000021e-02 1.000000000000000021e-02 1.000000000000000021e-02 1.000000000000000021e-02 1.000000000000000021e-02 1.000000000000000021e-02 1.000000000000000021e-02 1.000000000000000021e-02 1.000000000000000021e-02 1.000000000000000021e-02 1.000000000000000021e-02 1.000000000000000021e-02 1.000000000000000021e-02 1.000000000000000021e-02 1.000000000000000021e-02 1.000000000000000021e-02 1.000000000000000021e-02 1.000000000000000021e-02 1.000000000000000021e-02 1.000000000000000021e-02 1.000000000000000021e-02 1.000000000000000021e-02 1.000000000000000021e-02 1.000000000000000021e-02 1.000000000000000021e-02 1.000000000000000021e-02 1.000000000000000021e-02 1.000000000000000021e-02 1.000000000000000021e-02 1.000000000000000021e-02 1.000000000000000021e-02 1.000000000000000021e-02 1.000000000000000021e-02 1.000000000000000021e-02 1.000000000000000021e-02 1.000000000000000021e-02 1.000000000000000021e-02 1.000000000000000021e-02 1.000000000000000021e-02 1.000000000000000021e-02 1.000000000000000021e-02 1.000000000000000021e-02 1.000000000000000021e-02 1.000000000000000021e-02 1.000000000000000021e-02 1.000000000000000021e-02 1.000000000000000021e-02 1.000000000000000021e-02 1.000000000000000021e-02 1.000000000000000021e-02 1.000000000000000021e-02 1.000000000000000021e-02 1.000000000000000021e-02 1.000000000000000021e-02 1.000000000000000021e-02 1.000000000000000021e-02 1.000000000000000021e-02 1.000000000000000021e-02 1.000000000000000021e-02 1.000000000000000021e-02 1.000000000000000021e-02 1.000000000000000021e-02 1.000000000000000021e-02 1.000000000000000021e-02 1.000000000000000021e-02 1.000000000000000021e-02 1.000000000000000021e-02 1.000000000000000021e-02 1.000000000000000021e-02 1.000000000000000021e-02 1.000000000000000021e-02 1.000000000000000021e-02 1.000000000000000021e-02 1.000000000000000021e-02 1.000000000000000021e-02 1.000000000000000021e-02 1.000000000000000021e-02 1.000000000000000021e-02 1.000000000000000021e-02 1.000000000000000021e-02 1.000000000000000021e-02 1.000000000000000021e-02 1.000000000000000021e-02 1.000000000000000021e-02 1.000000000000000021e-02 1.000000000000000021e-02 1.000000000000000021e-02 1.000000000000000021e-02 1.000000000000000021e-02 1.000000000000000021e-02 1.000000000000000021e-02 1.000000000000000021e-02 1.000000000000000021e-02 1.000000000000000021e-02 1.000000000000000021e-02 1.000000000000000021e-02 1.000000000000000021e-02 1.000000000000000021e-02 1.000000000000000021e-02 1.000000000000000021e-02 1.000000000000000021e-02 1.000000000000000021e-02 1.000000000000000021e-02 1.000000000000000021e-02 1.000000000000000021e-02 1.000000000000000021e-02 1.000000000000000021e-02 1.000000000000000021e-02 1.000000000000000021e-02 1.000000000000000021e-02 1.000000000000000021e-02 1.000000000000000021e-02 1.000000000000000021e-02 1.000000000000000021e-02 1.000000000000000021e-02 1.000000000000000021e-02 1.000000000000000021e-02 1.000000000000000021e-02 1.000000000000000021e-02 1.000000000000000021e-02 1.000000000000000021e-02 1.000000000000000021e-02 1.000000000000000021e-02 1.000000000000000021e-02 1.000000000000000021e-02 1.000000000000000021e-02 1.000000000000000021e-02 1.000000000000000021e-02 1.000000000000000021e-02 1.000000000000000021e-02 1.000000000000000021e-02 1.000000000000000021e-02 1.000000000000000021e-02 1.000000000000000021e-02 1.000000000000000021e-02 1.000000000000000021e-02 1.000000000000000021e-02 1.000000000000000021e-02 1.000000000000000021e-02 1.000000000000000021e-02 1.000000000000000021e-02 1.000000000000000021e-02 1.000000000000000021e-02 1.000000000000000021e-02 1.000000000000000021e-02 1.000000000000000021e-02 1.000000000000000021e-02 1.000000000000000021e-02 1.000000000000000021e-02 1.000000000000000021e-02 1.000000000000000021e-02 1.000000000000000021e-02 1.000000000000000021e-02 1.000000000000000021e-02 1.000000000000000021e-02 1.000000000000000021e-02 1.000000000000000021e-02 1.000000000000000021e-02 1.000000000000000021e-02 1.000000000000000021e-02 1.000000000000000021e-02 1.000000000000000021e-02 1.000000000000000021e-02 1.000000000000000021e-02 1.000000000000000021e-02 1.000000000000000021e-02 1.000000000000000021e-02 1.000000000000000021e-02 1.000000000000000021e-02 1.000000000000000021e-02 1.000000000000000021e-02 1.000000000000000021e-02 1.000000000000000021e-02 1.000000000000000021e-02 1.000000000000000021e-02 1.000000000000000021e-02 1.000000000000000021e-02 1.000000000000000021e-02 1.000000000000000021e-02 1.000000000000000021e-02 1.000000000000000021e-02 1.000000000000000021e-02 1.000000000000000021e-02 1.000000000000000021e-02 1.000000000000000021e-02 1.000000000000000021e-02 1.000000000000000021e-02 1.000000000000000021e-02 1.000000000000000021e-02 1.000000000000000021e-02 1.000000000000000021e-02 1.000000000000000021e-02 1.000000000000000021e-02 1.000000000000000021e-02 1.000000000000000021e-02 1.000000000000000021e-02 1.000000000000000021e-02 1.000000000000000021e-02 1.000000000000000021e-02 1.000000000000000021e-02 1.000000000000000021e-02 1.000000000000000021e-02 1.000000000000000021e-02 1.000000000000000021e-02 1.000000000000000021e-02 1.000000000000000021e-02 1.000000000000000021e-02 1.000000000000000021e-02 1.000000000000000021e-02 1.000000000000000021e-02 1.000000000000000021e-02 1.000000000000000021e-02 1.000000000000000021e-02 1.000000000000000021e-02 1.000000000000000021e-02 1.000000000000000021e-02 1.000000000000000021e-02 1.000000000000000021e-02 1.000000000000000021e-02 1.000000000000000021e-02 1.000000000000000021e-02 1.000000000000000021e-02 1.000000000000000021e-02 1.000000000000000021e-02 1.000000000000000021e-02 1.000000000000000021e-02 1.000000000000000021e-02 1.000000000000000021e-02 1.000000000000000021e-02 1.000000000000000021e-02 1.000000000000000021e-02 1.000000000000000021e-02 1.000000000000000021e-02 1.000000000000000021e-02 1.000000000000000021e-02 1.000000000000000021e-02 1.000000000000000021e-02 1.000000000000000021e-02 1.000000000000000021e-02 1.000000000000000021e-02 1.000000000000000021e-02 1.000000000000000021e-02 1.000000000000000021e-02 1.000000000000000021e-02 1.000000000000000021e-02 1.000000000000000021e-02 1.000000000000000021e-02 1.000000000000000021e-02 1.000000000000000021e-02 1.000000000000000021e-02 1.000000000000000021e-02 1.000000000000000021e-02 1.000000000000000021e-02 1.000000000000000021e-02 1.000000000000000021e-02 1.000000000000000021e-02 1.000000000000000021e-02 1.000000000000000021e-02 1.000000000000000021e-02 1.000000000000000021e-02 1.000000000000000021e-02 1.000000000000000021e-02 1.000000000000000021e-02 1.000000000000000021e-02 1.000000000000000021e-02 1.000000000000000021e-02 1.000000000000000021e-02 1.000000000000000021e-02 1.000000000000000021e-02 1.000000000000000021e-02 1.000000000000000021e-02 1.000000000000000021e-02 1.000000000000000021e-02 1.000000000000000021e-02 1.000000000000000021e-02 1.000000000000000021e-02 1.000000000000000021e-02 1.000000000000000021e-02 1.000000000000000021e-02 1.000000000000000021e-02 1.000000000000000021e-02 1.000000000000000021e-02 1.000000000000000021e-02 1.000000000000000021e-02 1.000000000000000021e-02 1.000000000000000021e-02 1.000000000000000021e-02 1.000000000000000021e-02 1.000000000000000021e-02 1.000000000000000021e-02 1.000000000000000021e-02 1.000000000000000021e-02 1.000000000000000021e-02 1.000000000000000021e-02 1.000000000000000021e-02 1.000000000000000021e-02 1.000000000000000021e-02 1.000000000000000021e-02 1.000000000000000021e-02 1.000000000000000021e-02 1.000000000000000021e-02 1.000000000000000021e-02 1.000000000000000021e-02 1.000000000000000021e-02 1.000000000000000021e-02 1.000000000000000021e-02 1.000000000000000021e-02 1.000000000000000021e-02 1.000000000000000021e-02 1.000000000000000021e-02 1.000000000000000021e-02 1.000000000000000021e-02 1.000000000000000021e-02 1.000000000000000021e-02 1.000000000000000021e-02 1.000000000000000021e-02 1.000000000000000021e-02 1.000000000000000021e-02 1.000000000000000021e-02 1.000000000000000021e-02 1.000000000000000021e-02 1.000000000000000021e-02 1.000000000000000021e-02 1.000000000000000021e-02 1.000000000000000021e-02 1.000000000000000021e-02 1.000000000000000021e-02 1.000000000000000021e-02 1.000000000000000021e-02 1.000000000000000021e-02 1.000000000000000021e-02 1.000000000000000021e-02 1.000000000000000021e-02 1.000000000000000021e-02 1.000000000000000021e-02 1.000000000000000021e-02 1.000000000000000021e-02 1.000000000000000021e-02 1.000000000000000021e-02 1.000000000000000021e-02 1.000000000000000021e-02 1.000000000000000021e-02 1.000000000000000021e-02 1.000000000000000021e-02 1.000000000000000021e-02 1.000000000000000021e-02 1.000000000000000021e-02 1.000000000000000021e-02 1.000000000000000021e-02 1.000000000000000021e-02 1.000000000000000021e-02 1.000000000000000021e-02 1.000000000000000021e-02 1.000000000000000021e-02 1.000000000000000021e-02 1.000000000000000021e-02 1.000000000000000021e-02 1.000000000000000021e-02 1.000000000000000021e-02 1.000000000000000021e-02 1.000000000000000021e-02 1.000000000000000021e-02 1.000000000000000021e-02 1.000000000000000021e-02 1.000000000000000021e-02 1.000000000000000021e-02 1.000000000000000021e-02 1.000000000000000021e-02 1.000000000000000021e-02 1.000000000000000021e-02 1.000000000000000021e-02 1.000000000000000021e-02 1.000000000000000021e-02 1.000000000000000021e-02 1.000000000000000021e-02 1.000000000000000021e-02 1.000000000000000021e-02 1.000000000000000021e-02 1.000000000000000021e-02 1.000000000000000021e-02 1.000000000000000021e-02 1.000000000000000021e-02 1.000000000000000021e-02 1.000000000000000021e-02 1.000000000000000021e-02 1.000000000000000021e-02 1.000000000000000021e-02 1.000000000000000021e-02 1.000000000000000021e-02 1.000000000000000021e-02 1.000000000000000021e-02 1.000000000000000021e-02 1.000000000000000021e-02 1.000000000000000021e-02 1.000000000000000021e-02 1.000000000000000021e-02 1.000000000000000021e-02 1.000000000000000021e-02 1.000000000000000021e-02 1.000000000000000021e-02 1.000000000000000021e-02 1.000000000000000021e-02 1.000000000000000021e-02 1.000000000000000021e-02 1.000000000000000021e-02 1.000000000000000021e-02 1.000000000000000021e-02 1.000000000000000021e-02 1.000000000000000021e-02 1.000000000000000021e-02 1.000000000000000021e-02 1.000000000000000021e-02 1.000000000000000021e-02 1.000000000000000021e-02 1.000000000000000021e-02 1.000000000000000021e-02 1.000000000000000021e-02 1.000000000000000021e-02 1.000000000000000021e-02 1.000000000000000021e-02 1.000000000000000021e-02 1.000000000000000021e-02 1.000000000000000021e-02 1.000000000000000021e-02 1.000000000000000021e-02 1.000000000000000021e-02 1.000000000000000021e-02 1.000000000000000021e-02 1.000000000000000021e-02 1.000000000000000021e-02 1.000000000000000021e-02 1.000000000000000021e-02 1.000000000000000021e-02 1.000000000000000021e-02 1.000000000000000021e-02 1.000000000000000021e-02 1.000000000000000021e-02 1.000000000000000021e-02 1.000000000000000021e-02 1.000000000000000021e-02 1.000000000000000021e-02 1.000000000000000021e-02 1.000000000000000021e-02 1.000000000000000021e-02 1.000000000000000021e-02 1.000000000000000021e-02 1.000000000000000021e-02 1.000000000000000021e-02 1.000000000000000021e-02 1.000000000000000021e-02 1.000000000000000021e-02 1.000000000000000021e-02 1.000000000000000021e-02 1.000000000000000021e-02 1.000000000000000021e-02 1.000000000000000021e-02 1.000000000000000021e-02 1.000000000000000021e-02 1.000000000000000021e-02 1.000000000000000021e-02 1.000000000000000021e-02 1.000000000000000021e-02 1.000000000000000021e-02 1.000000000000000021e-02 1.000000000000000021e-02 1.000000000000000021e-02 1.000000000000000021e-02 1.000000000000000021e-02 1.000000000000000021e-02 1.000000000000000021e-02 1.000000000000000021e-02 1.000000000000000021e-02 1.000000000000000021e-02 1.000000000000000021e-02 1.000000000000000021e-02 1.000000000000000021e-02 1.000000000000000021e-02 1.000000000000000021e-02 1.000000000000000021e-02 1.000000000000000021e-02 1.000000000000000021e-02 1.000000000000000021e-02 1.000000000000000021e-02 1.000000000000000021e-02 1.000000000000000021e-02 1.000000000000000021e-02 1.000000000000000021e-02 1.000000000000000021e-02 1.000000000000000021e-02 1.000000000000000021e-02 1.000000000000000021e-02 1.000000000000000021e-02 1.000000000000000021e-02 1.000000000000000021e-02 1.000000000000000021e-02 1.000000000000000021e-02 1.000000000000000021e-02 1.000000000000000021e-02 1.000000000000000021e-02 1.000000000000000021e-02 1.000000000000000021e-02 1.000000000000000021e-02 1.000000000000000021e-02 1.000000000000000021e-02 1.000000000000000021e-02 1.000000000000000021e-02 1.000000000000000021e-02 1.000000000000000021e-02 1.000000000000000021e-02 1.000000000000000021e-02 1.000000000000000021e-02 1.000000000000000021e-02 1.000000000000000021e-02 1.000000000000000021e-02 1.000000000000000021e-02 1.000000000000000021e-02 1.000000000000000021e-02 1.000000000000000021e-02 1.000000000000000021e-02 1.000000000000000021e-02 1.000000000000000021e-02 1.000000000000000021e-02 1.000000000000000021e-02 1.000000000000000021e-02 1.000000000000000021e-02 1.000000000000000021e-02 1.000000000000000021e-02 1.000000000000000021e-02 1.000000000000000021e-02 1.000000000000000021e-02 1.000000000000000021e-02 1.000000000000000021e-02 1.000000000000000021e-02 1.000000000000000021e-02 1.000000000000000021e-02 1.000000000000000021e-02 1.000000000000000021e-02 1.000000000000000021e-02 1.000000000000000021e-02 1.000000000000000021e-02 1.000000000000000021e-02 1.000000000000000021e-02 1.000000000000000021e-02 1.000000000000000021e-02 1.000000000000000021e-02 1.000000000000000021e-02 1.000000000000000021e-02 1.000000000000000021e-02 1.000000000000000021e-02 1.000000000000000021e-02 1.000000000000000021e-02 1.000000000000000021e-02 1.000000000000000021e-02 1.000000000000000021e-02 1.000000000000000021e-02 1.000000000000000021e-02 1.000000000000000021e-02 1.000000000000000021e-02 1.000000000000000021e-02 1.000000000000000021e-02 1.000000000000000021e-02 1.000000000000000021e-02 1.000000000000000021e-02 1.000000000000000021e-02 1.000000000000000021e-02 1.000000000000000021e-02 1.000000000000000021e-02 1.000000000000000021e-02 1.000000000000000021e-02 1.000000000000000021e-02 1.000000000000000021e-02 1.000000000000000021e-02 1.000000000000000021e-02 1.000000000000000021e-02 1.000000000000000021e-02 1.000000000000000021e-02 1.000000000000000021e-02 1.000000000000000021e-02 1.000000000000000021e-02 1.000000000000000021e-02 1.000000000000000021e-02 1.000000000000000021e-02 1.000000000000000021e-02 1.000000000000000021e-02 1.000000000000000021e-02 1.000000000000000021e-02 1.000000000000000021e-02 1.000000000000000021e-02 1.000000000000000021e-02 1.000000000000000021e-02
-1.142032295617551938e+02 1.735087947028227404e+02 4.028249315297566113e+01 -9.058408900456148771e+00 -8.993631182882083408e+01 -1.370599434499774638e+01 -2.127305837263853903e+02 6.903631589804113400e-01 -8.672339243984978907e+01 -1.429865580299671279e+01 -2.028418879926667984e+01 6.650314355307294534e+00 -1.822039179872015247e+00 1.717139452323738453e+02 8.659210861433851392e+01 -3.966118940242436253e+01 -5.399417935318059136e+01 8.107043664730583998e+01 3.358347867750975269e+01 -2.595387706965821906e+01 -8.070607739988072638e+01 -7.555194410569167474e+01 -1.413875033124786640e+01 2.961031494561085964e+01 -1.994903649328470863e+02 -1.010601056073231661e+02 -2.669477149910731484e+01 2.063690082027086703e+02 7.242058919980971154e+01 7.849240283962497244e+01 8.216709730326478223e+01 1.215749666147792674e+00 -8.102886834801533666e+01 2.122467326767450686e+02 -2.505333636789066531e+02 6.016795117678100979e+01 -1.229990419545467120e+02 -3.548601843664692979e+01 4.124832877319422941e+00 1.296778234794830382e+02 -1.257946331779379676e+02 -1.398824297827762386e+01 7.919199021102775760e+01 1.776547840548708734e+02 7.304871635483243608e+01 -7.005366780391005932e+01 4.222689215599294243e+01 -2.903539798889269719e+01 -6.761469388847788764e+01 1.602713852020664547e+02 -7.227460916560211501e+01 -5.335368872362291626e+01 -1.425516050624670754e+02 5.841669302185096058e+00 -5.173923177171410970e+01 3.956508772199288870e+01 -9.080914302125574977e+01 -5.124677623533401771e+01 -1.037922177033564282e+02 -1.590923516062323415e+02 1.994056231411209623e+01 4.639194767340417513e+01 -1.260158583451789696e+02 1.316643653764017685e+01 -8.118676958223380780e+01 5.027288962605372546e+01 1.705143592035624920e+02 -1.476510002795171772e+02 -4.434529312775417509e+01 7.347084508216335408e+00 2.990997713085180809e+00 4.337371644495012646e+01 8.596563496876179045e+01 9.524905815638360362e-01 -8.984314921971158441e+00 -7.169565205546159348e+01 8.012225327400341257e+01 -3.357538308861319365e+01 2.690529555879455259e+01 1.064640136439306843e+02 9.033187744615473491e+01 -4.375418388648196100e+01 5.920298112026633675e+01 1.509294910036735473e+02 1.189502219444521813e+02 -4.137936146811095561e+00 1.783491544453413837e+02 -1.141470237083764516e+02 4.321408739229159579e+00 -4.293057500871474730e+01 2.117490650341127321e+02 -2.172559810847727846e+01 2.937022926373260123e+00 -7.860120981313588118e+01 -7.295614282577909115e+00 -6.537843794433371158e+01 6.936534334036497285e+01 -9.678303177002841551e+01 7.015608971591002785e+01 -4.886391694410330189e+01 -5.095312404327823685e+01 -9.382650220938204200e+01 5.437144810303108500e+01 -5.603808091181311113e+01 -1.528784496528844272e+02 -8.136799588697940067e+01 -1.071040305901265839e+02 -1.609627866233802251e+02 1.391794774057052280e+02 -2.818146278779082081e+01 3.278147655580173137e+01 9.179717748038103764e+01 -1.065656594961518095e+02 5.833684540263527651e+01 -4.435363309974356127e+01 -7.093221857420950016e+01 -9.219334955108996610e+01 2.081429627146986263e+02 -5.809441183011674070e+01 -5.064947094614995393e+01 -4.836337292462616944e+01 8.231746219358034011e+01 -4.238284240823732318e+01 1.412856221203988980e+02 -5.102544932799339250e+01 5.637684611617617492e+01 4.649641502257356507e+00 -8.310201276904318490e+01 7.047603253885219488e+01 2.839714369805228671e+02 -9.418672177082324026e+01 4.863756559341721442e+01 -7.802831843144230106e+01 4.631068588919313811e+01 1.343133631239377905e+02 -5.257985326920510971e+01 1.492308498716491805e+01 -2.755583412438807756e+01 -1.043657095456454726e+02 -1.767844300019726234e+01 4.360841077882990469e+00 -8.014506018734438797e+00 -1.532074454131427821e+01 1.211019732856980085e+02 1.334640423295406322e+02 1.909331634115916074e+02 -3.116336143398661989e+02 3.914141285217051802e+01 -1.612092038181502573e+01 -6.387108951715628535e+01 1.847177311295490938e+02 7.809829593561320848e+01 -2.624332684359998780e+00 -1.188144415602434805e+02 -1.118406861266841545e+01 1.025468353816164608e+02 -1.377285889938710568e+02 -1.728083155724656592e+02 1.100074871520481778e+01 4.349643343522136263e+01 -6.252659356203924546e+01 4.308178581347286951e+01 -1.097652669630179219e+02 -1.551317289504206940e+02 2.165732268972362462e+01 4.980821100482404518e+01 4.915311979241762330e+00 -8.563366350101659918e+01 -9.598436186639318635e+01 -8.650662947059245766e+01 -8.979654495711436368e+01 1.294007962344745266e+01 5.832190821312039475e+01 1.195353101582163475e+02 8.152565104672846985e+01 9.185782208446153163e+01 1.102759109605404859e+02 -7.679144266516314588e+01 -8.473033369710969964e+01 7.241812075498600620e+01 7.027925004451182645e+01 6.084414783721005193e+01 -9.654145687388000496e+00 -9.358839691198502919e+01 5.547567207467361783e+01 -1.839291197758980161e+02 6.903364258726318781e+01 -4.581875143796760597e+01 -9.919643704077761015e+01 7.632925908741003695e+01 -1.761361137695635293e+01 -7.938861724642927697e+01 -5.916342595875214272e+01 -9.406231091649148723e+00 2.498469666536405782e+02 7.908609211335769373e+01 5.647717832837319207e+01 -1.070582005065652709e+02 1.527694659287337799e+02 1.064567330551756674e+00 -9.318792506511253748e+01 1.606242647266125800e+02 -1.589676928216418048e+02 1.626900560179945643e+01 -3.359147205315801443e+01 -2.292053997549944313e+02 -1.391812518411592521e+02 -9.100751137044446182e+01 -3.051543302342799535e+01 -1.244017758382836263e+02 6.015862780574492774e+01 6.778191647458119462e+01 -2.874611842409958129e+01 -1.040023419057722407e+02 1.179784886014010112e+02 1.233412130658865493e+02 4.821661673479142962e+01 1.820368823195022401e+01 2.726945778151469995e+02 4.558164654310574804e+01 -1.246005317400429675e+02 -4.700639723424519900e+01 -1.762742092494246720e+02 3.326863236285756642e+01 1.600837278200991420e+02 -1.549612620854588840e+02 1.375539157617206456e+02 -9.499022073883358530e+01 -1.972643669676412870e+01 -7.643264415661087385e-01 5.520033188813293634e+01 -1.213041267855273020e+01 -2.379336337988475591e+01 -1.978552021514088821e+01 -1.323196656312412074e+02 4.851090594729387817e+01 -3.173051368980589615e+01 -1.358439315626833910e+01 -1.119108013770563126e+01 2.361105537362525979e+02 1.820134166706738768e+02 2.430947945414092146e+02 1.377353374027519521e+02 -9.047381394567271684e+01 7.860049857519452132e+01 2.205610403966247546e+01 4.976810714457243989e+01 -4.154800219567459862e+01 2.669871455933885045e+02 -2.434478519563237597e+01 -1.429251889963637154e+02 -1.564120963911748952e+01 -4.789952163511838279e+01 -8.093223837978491986e+01 4.512575597395256466e+01 -1.224689138008754696e+01 1.902030032479333954e+02 9.665089509522951516e+01 4.275692997108102844e+01 1.025299188248543061e+02 9.877430155212802276e+01 -2.404150600579480468e+01 1.460320778215649398e+02 2.768629503252622825e+01 9.366712920071111625e+01 4.982475738515829278e+01 7.257765946787440470e+00 -1.210915105285985618e+02 -1.211387037195110992e+02 -9.414365576053420170e+01 -1.629362708891692790e+01 9.066402195874246672e+01 -3.208328042607901409e+01 1.034416896633463665e+02 4.581617648961359635e+01 -7.607118741125694328e+01 -3.135521960221436188e+01 -6.129809021912842582e+01 1.836902077095020758e+01 -4.847970029715597207e+01 -1.172029782881504332e+02 1.271408320933917366e+02 1.269162790386110515e+02 -8.257013624516463324e+01 5.721762467544672326e+00 -4.738941762917009726e+01 -3.413231171475641901e+01 -1.186476117096842664e+01 -3.264836136190100291e+01 4.647763756020523118e+01 -1.469667528776240317e+02 -5.525070279656816297e+01 -1.588567464141549692e+02 1.820857014566206260e+02 -2.117697773829073782e+01 6.164656079619300755e+01 1.248117906367308372e+01 1.509589118288456007e+02 4.668570765602069628e+01 3.736609076519536643e+01 1.612984118502843955e+02 -5.148265380995212581e+01 -1.019602452474365464e+02 2.836369119302982966e+01 -1.650756996703506445e+02 -5.577692721169406553e+01 1.068392704344436055e+02 -1.334367200042454158e+02 -3.798272226686303554e+01 9.534741445897991241e+01 -9.869394517460388272e+01 -9.348012643475009043e+01 -8.631147313003722843e+01 -6.666820746924325647e+01 2.599961708114021803e+02 2.069042522651643878e+02 1.075423376871845562e+02 -1.066833262516570784e+02 7.814631056083916860e+01 -6.899779754727302361e+01 -3.254816663595963178e+01 1.731856956146139481e+01 -3.356119097585342814e+01 -9.780643695763714618e+01 -2.815533190150708798e+00 1.544539278738148802e+01 1.134035013594621120e+02 -1.339395857512569137e+02 4.363301190285360320e+01 6.643776675408992105e+01 3.601468439272952082e+01 -9.439681832564909314e+01 -1.546732464783710839e+02 2.012498163569263454e+02 -1.855736632221150373e+01 2.623104340279960667e+01 1.629376270195000700e+02 2.776405817492691952e+01 2.888281866502417827e+01 -4.633856931186485895e+01 9.218059945804832012e+01 -1.418687696512769492e+02 -3.205638327023086731e+01 -6.380743553461037720e+00 -5.557100024539802519e+01 6.406353685757300909e+00 2.217313749304376458e+01 -3.721810111460823123e+01 1.421149348062919060e+01 2.222125398806676060e+02 -2.847110311266910188e+01 -2.906445719730039912e+01 -1.056811814349303091e+02 -1.724444129230736422e+00 -8.394894753057918990e+01 6.667189587250227589e+00 1.164734261067511625e+02 -5.407952673707598024e+01 6.290270102464543100e+00 -5.646191639810849949e+01 3.469591473251204317e+00 9.063345947737570896e+01 -1.203936478908161831e+02 -1.005845564418145415e+02 -1.065538676053162135e+02 7.419454007454017130e+01 8.994059809033473130e+01 -9.592190247291640048e+01 6.503129921431195726e+01 2.681175789267404852e+01 4.019369793956965253e+01 -1.845225586072498913e+01 9.488282063541178957e+01 8.284357700906468835e+01 -8.029167841941981010e+01 1.233301002619406894e+01 8.404923739449573361e+01 7.569861675999911199e+01 -2.064307895574537000e+01 2.596135408054607296e+01 -1.377254056797584951e+02 5.038497865855811142e+01 -3.403252821702837849e+01 -3.389998946703691729e+01 1.798906640224811042e+02 4.928433052260628244e+01 1.248766160023516534e+02 1.983236586660852367e+02 -1.430281903870432529e+02 1.548180477619761461e+02 -6.581690292815562771e+01 -1.403484636525616907e+02 8.550599970097933067e+01 -1.392738589847795367e+02 -2.980910150461723163e+01 5.860863106264659450e+01 8.412244359820453710e+00 -1.745770981919160079e+02 8.746202634275978482e+01 2.618060584610478614e+01 7.177071072978284860e+01 3.766367387645279763e+01 9.845101102196096576e+00 -6.971119924943594981e+01 1.202202326287289367e+02 5.658642750720065351e+01 -6.452754794994676502e+01 -1.051454049042610137e+02 4.046851966859183136e+01 2.663669235567268245e+01 8.555447705056562313e+01 1.907956158100215589e+02 -2.559658123067702107e+01 -1.143850991940020947e+02 -8.802929508982093409e+01 -5.330138427248997601e+01 -4.611413288262410504e+01 -1.523956060255908938e+02 -2.335600297212244314e+01 1.344598513990015931e+02 7.742269925514737849e+01 -1.270838453623365183e+02 -1.555665821069250967e+02 -7.073980431827045834e+01 -7.933092679799435132e+01 1.523606897552576243e+02 -1.770012532273600812e+02 8.984027643669465135e+01 -4.785616121740596363e+00 -4.466619316200025480e+01 1.382537950348615929e+01 9.469300096643988240e+01 5.152142287039905000e+01 1.435092976447998012e+02 -1.652283652116569783e+02 -8.407673253418106185e+01 2.629109782133726370e+01 4.354737329234543353e+01 2.140641694789585756e+02 1.510121838018059179e+02 6.801882540819261180e+01 7.486663410658879059e+01 -3.558061501626742995e+01 1.576588279105310733e+02 -1.861624361814316444e+02 -6.580711597159742610e+01 -5.574326102316464926e+01 -5.377563438268493456e+01 -1.072531708686022682e+02 -1.554956598750379193e+01 -7.127329621715877295e+01 7.391465903341043031e+01 -9.521978227787387894e+00 -6.034568243662059217e+01 -6.472030402037130159e+01 1.870749663524013613e+02 6.121993510899608282e+01 -1.420884037074013584e+01 2.168369237924787853e+02 -1.124403810736193208e+02 -3.668967308211177425e+01 6.950346455308925897e+01 -1.309028226120433069e-01 1.548948633185084489e+01 -1.297855325760210690e+02 1.828743296564797731e+02 -5.087592549744513093e+01 -2.799054031117879404e+01 -1.138606967205659686e+02 1.305975157812352450e+02 9.952463831427058949e+01 -8.044732539288038708e+01 -3.894574411791521129e+01 4.038502214508321941e+01 -1.570699436255756609e+02 -1.290569350997292919e-01 -7.748459232518787587e+01 8.002192021650060383e+00 -1.121502154339556228e+02 -1.644095257258118181e+02 -7.328490870298806215e+01 1.536220980324201832e+02 5.868914564419357305e+01 -9.289196569007812343e+01 9.246477857630519281e+01 3.550963404957444425e+01 9.149640729555835605e+01 -4.364431133552562159e+01 -8.715999200177513728e+01 1.771975220310286829e+02 4.318029237920758590e+01 3.000282950469991050e+01 -7.564402077983322670e+01 -4.382370442817201450e+01 9.919068177492935234e+00 -7.407349569565709224e+00 -1.789666822230360026e+02 -3.582267233978271292e+01 6.670640180652226547e+01 1.155747864737286505e+02 1.611712322285781340e+02 -1.372491463394169209e+01 9.275041716147588033e+01 1.631927586967460968e+02 6.563387979487676205e+01 1.529387353377467775e+02 1.661472580298080715e+01 1.357979037404143128e+02 -8.680497878130387335e+01 5.519392047964532111e+01 3.035106046960821047e+01 7.842548879036365861e+01 -1.097506063036835542e+02 2.045731217271181492e+02 -1.330822551598935775e+02 9.118114362958914398e+01 -1.109770676554424824e+02 4.762602840886400912e+01 1.424001853624631941e+01 9.364157353252706173e+01 -7.605041901171392738e+01 -7.792107395693309968e+01 -1.153486750735303978e+01 9.190653247133560910e+01 -3.051234922801834060e+01 -1.682778072979858663e+01 -2.024483223838932489e+01 4.885017451531071586e+00 1.011601504922526971e+02 -6.448874019072368924e+01 -2.802305212013229685e+00 -1.994718568939407533e+02 1.253506317791033098e+02 -1.283252222045373685e+02 -7.593435867342954282e+01 -2.420492757829938668e+01 -1.108986974611575675e+02 -5.463575861541482936e+01 -6.017356628044305467e+01 -2.019959545426195646e+01 1.400354497743984155e+02 5.554727252107933566e+01 1.032059466811815298e+02 -1.398370752365371459e+02 -1.423977670289023081e+02 -2.943605509491172256e+02 1.049367869821741266e+02 1.071620576161577674e+02 4.342110963625052733e+01 -4.356478382947485528e+01 -3.826300134773212136e+01 -1.886773549678923416e+02 1.501846230438431746e+02 -1.103893851401535926e+02 1.099110889707876311e+02 -1.636381373299682025e+02 -1.469850563955811396e+01 -5.690648964838114665e+01 -1.225435214618196369e+02 -4.736876364428582775e+01 -1.281415463132019994e+01 -9.521593607550111926e+01 -1.063879902328558416e+02 -1.269424156530149439e+01 7.318955842970341052e+01 -1.281112463604917480e+02 -1.611414913163236662e+01 -7.581754252557828977e+01 -1.350876012654066756e+02 6.889113344225366475e+00 9.787667800592980427e+01 1.701381175905133318e+02 -1.961579281930925589e+01 -4.735778081662804340e+01 -1.276273968572057669e+02 -1.681708961878933053e+02 1.066880515374697325e+02 -7.481188579215697132e+01 8.127631563003501469e+01 9.674457630388433316e+00 3.010063502249132839e+01 7.596406468301026393e+01 -8.713605505146924202e+01 8.502399232911021443e+01 1.185734683844932817e+02 1.619120723255927032e+02 -1.199643793637270193e+02 1.069245020225660596e+02 -4.912757880358488904e+01 -9.340700309214233243e+01 2.207254073115092297e+02 5.069388977496299731e+01 8.587229056988499565e+01 2.193134223873343913e+01 -6.496958206891942211e+01 -3.594638315359336644e+01 -2.164344608291494865e+02 1.086721228378679882e+02 8.387002717843877519e+01 -7.788737895808046119e+01 -7.528444351022358205e+01 1.493929222578003362e+02 1.039849410015804949e+02 5.258667612182822637e+01 7.829163915849171929e+01 -8.146932420956643384e+00 1.061836052571448761e+02 -1.065076149333329312e+02 1.918210961373050054e+02 -4.062433519777325586e+01 -1.255090060866042592e+02 -3.873621972644847489e+01 7.382405683493840343e+01 1.516142957380202745e+02 1.332709641007941670e+01 1.788562925237189916e+02 5.372830573891099704e+01 3.457969117564676509e+01 -1.145530638090819195e+02 4.612700008234308058e+01 -1.286856264859566750e+02 4.906408444433937177e+01 3.978911006112122806e+01 -1.269014487485689102e+02 -8.749985357388449358e+01 4.097947140404700406e+01 8.979716789251392939e+00 -2.392267938067423216e+01 4.305462422911088538e+01 -2.201789504952492749e+01 -6.492509562837636850e+01 -2.686766876323496689e+01 -2.312526445929396246e+01 -4.099042031234747441e+01 1.933159067274391774e+01 -8.281238964057580176e+01 1.224103589821986589e+02 -7.650978263902513277e+01 -4.444477179606701078e+00 6.738124635796752671e+01 4.022788494115313362e+00 1.639758266219029181e+01 1.641418912830806320e+01 -1.205482203360635225e+02 -4.552409659135682851e+00 6.694475361890057741e+01 -2.381597918346514859e+02 -8.729669935140600501e+01 -1.160102980109435862e+02 4.505487677368481059e+01 9.901852782436760947e+01 -9.439904835904104630e+01 -1.727564730500918415e+02 -1.904831956323065469e+02 2.055946065538034162e+01 -1.491337654463440003e+02 -6.496239647075461754e+00 1.517978753753339731e+02 -7.327250970435304822e+00 3.819601129948731710e+01 -1.016680512828055640e+02 8.199260352836741106e+01 -1.216971206468034836e+02 -1.579863507342187212e+01 -3.111082984365043913e+01 5.903006892656711102e+01 -9.124109388284642463e+00 1.083222567302609320e+02 -1.250438963019868623e+02 -5.129769871007614057e+01 8.858035795663582235e+01 6.771856074856926000e+01 -8.430783636964220307e+01 -5.565231059439452110e+01 -5.047743445851773458e+01 -2.959179593343211536e+02 1.978682245306364393e+02 7.782424789377887464e+01 -2.413623886273174080e+01 -3.030735462727661300e+01 4.242826114177143637e+01 -8.599053441702319844e+01 1.016705881765546025e+02 6.170587204738763631e+01 8.376564798198117501e+01 -8.583422603130243544e+01 -2.714459367221349240e+01 3.404558784767466051e+01 1.773435590724145428e+01 -4.366047999373120092e+01 1.610281933932569700e+02 -1.764336483258992061e+01 3.607052541087786324e+01 -2.342911560363308183e+02 -8.635339888428555355e+01 -7.459495295051054597e+01 2.345735647476342223e+01 1.112912862311780344e+02 -2.360740337984385633e+02 -1.906032066198062296e+02 2.259185802693494622e+02 -1.077345201246843409e+01 9.791706241816079626e+01 6.394636337379663615e+01 -5.643715209367323382e+01 -1.334972482709691519e+02 -9.697310702058258869e+01 -5.122567712862697675e+01 -3.816256207193320193e+01 -3.989732633676226925e+01 1.649689905472803630e+01 3.782228190240468990e+01 1.699605856064288787e+02 1.255137627564363498e+02 7.036734093600996331e+00 -4.458759081981003902e+00 -1.618324162862986952e+02 1.219186426231833735e+02 1.623577348504883844e+02 -1.053569395764929766e+02 7.513520088869402969e+01 1.834227964238868358e+00 5.591390908992815412e+01 1.278435384849823748e+02 7.228847057950579824e+01 -1.365586677207506909e+02 1.646765955812879412e+01 -2.994413641093747813e+01 1.134954895823926080e+01 -2.363925912833992982e+01 4.623587372061708578e+01 -2.655263919262436048e+02 1.847502880324972523e+02 7.477427841118291951e+00 1.625847965583865005e+02 -1.078831750365433173e+01 1.083335352960075255e+02 7.308394546537114422e+01 -4.288035019213983645e+01 3.049013093186261969e+01 -7.427842226044464269e+01 -9.080545582454239195e+01 -7.360277653011596044e+01 -3.272044075867727742e+01 4.614945837124449923e+01 1.125381505288269324e+02 2.912405333661491724e+01 6.341059573554761641e+01 -1.070886635430571232e+02 -1.401327937290193972e+02 -1.378036790971917291e+01 4.743716203637877271e+01 -4.655295935151055886e+01 9.661357639911921069e+01 5.674121371078781806e+01 -2.827561248394121307e+01 3.062729635847136933e+01 6.273777340098938282e+01 -7.375361049001332958e+01 -1.367522538222672779e+02 1.453309036477219820e+02 7.995783378189405433e+00 5.130183216772880428e+01 -1.527412904866253314e+02 -5.464985976986356775e+01 -4.863151464671508495e-01 -6.723911126124056636e+01 4.379020401724310396e+00 5.761812300652387364e+01 1.909070044929246990e+02 4.006700245035189312e+01 -1.123283177953559964e+01 7.393934338688616492e+01 -4.660946476064269461e+01 -1.116710749503867106e+02 -1.416414244672274094e+02 9.613602170186576146e+00 2.574503937434216994e+01 2.437965863976054592e+01 -5.832323402195893181e+01 1.239300416863941621e+02 -8.292740489003696780e+01 1.316540885122520592e+02 8.957723087751693924e+01 -6.674843182055712987e+01 -8.688829105244606410e+01 8.641137616960885737e+01 2.104855839077366753e+01 -5.387386504645139240e+01 -5.529703111683233629e+01 1.403253757519040903e+02 5.883797261053987171e+01 8.203382729542403240e+01 2.685896692878974434e+01 -4.325121808730233397e+01 1.104497798005987761e+02 -5.607224526349321536e+01 5.366149305056645558e-01 7.872656902639646148e+01 1.023720814502827494e+02 2.626430911252608098e+02 -1.800868148617690849e+02 1.655389889172903679e+02 -6.955586916772206507e+01 -1.565886374254042046e+01 -2.575111991817387747e+01 -2.133777532689115475e+01 -5.681679201495901310e+01 9.564921504840908995e+01 1.895723835144077327e+02 -1.223852396335472008e+02 3.186875996039969294e+01 -1.307865506489657434e+02 7.235629076580944741e+01 -4.589862219145946653e+01 -8.351131612836458373e+01 -5.557952556004411093e+01 4.248336897007429513e+01 2.002762200113735602e+01 -8.447593223482387259e+01 -1.457174073024802965e+02 2.146702387483535546e+01 1.628979785061166297e+02 1.476748370178116865e+01 1.886949577292801052e+02 7.725627807224531907e+00 1.392589903993777227e+02 -3.580738556506581460e+01 9.386989136229017561e+01 -7.396688732857819559e+01 -1.169203936603858835e+02 5.120280959702724033e+01 -6.011701344935091385e+01 -8.135792196580497659e+01 7.558957197311316634e+01 6.665747017029667987e+00 -9.780322547297947722e+01 -1.561392749337638008e+02 1.534345394658284079e+02 -9.254359044332565531e+01 -2.417112289408159143e+00 1.246625379017776254e+02 6.028203386566841004e+01 -1.019896443545678295e+02 1.101812237115198911e+01 2.930704007633182187e+02 5.543746590568321864e+01 -1.639992941725521973e+02 -4.960618722352145227e+01 -6.401173225259933020e+01 1.002882884850899536e+01 1.119067431859496367e+02 -1.076572888409285298e+02 2.242840639195376085e+01 1.358498849281100149e+02 1.955251685279522178e+01 -2.199584861963220987e+02 5.037136578388157915e+01 7.860338273305372070e+01 -1.412865908057581343e+01 3.417341797757666910e+01 1.243540730322944265e-01 2.340491557788915244e+01 2.889106381642836396e+01 1.206272794334770566e+02 1.020821079658054771e+02 1.615338210824415555e+01 1.552437729652868086e+02 -6.669178399188176343e+01 2.569377097943191188e+02 6.773373500384626311e+01 1.475921278286539291e+02 -2.289926837715786334e+01 9.382600384252941694e+01 -5.114174415908374982e+01 -1.525169746790207626e+02 2.730774906739106811e+01 9.912128200165085445e+01 -9.132452156909131702e+01 -1.091494310418382412e+02 -6.934181029303607602e+01 3.812125171334481877e+01 -1.190812018382235493e+02 7.790253732732551839e+01 2.927856475887746512e+01 -1.017417861247504192e+02 1.979995365612255682e+02 -1.226310412345909029e+01 -1.060417905219849501e+02 -1.392913595790537329e+01 -2.130057645076756856e+01 -1.461867349421213476e+02 -4.174475128925018907e+01 6.410575045661011018e+01 1.373515527388889552e+02 3.023584539972502583e+01 2.791643610840143097e+01 4.669304129364903133e+01 -3.729838249202571632e+01 -1.517614621096431620e+02 1.650436002718735651e+01 3.233364969973720804e+01 1.387382472585339599e+02 -1.038833805190905224e+01 -7.939199694773103033e+01 7.633070552433832745e+01 1.051696398654317965e+00 3.335381997309279711e+01 1.452563413860770538e+02 -1.851468850856333290e+02 -9.680470249279989048e+01 1.300454669817574143e+02 -2.185800850142323384e+02 -1.863308439289659191e+02 9.216440230585095605e+01 1.560211317522056902e+02 6.419498552489388032e+01 -4.492602027157154509e+00 1.578502812776917494e+02 -2.223474673021326566e+02 1.085662577171589902e+02 4.294055300435702804e+01 1.287521155661029866e+02 -1.910733378146939287e+02 1.080125173411949930e+02 -2.868291007747459531e+01 -1.354636283432637356e+02 -5.398854032512516277e+00 -9.363221639520862993e+01 -1.657242870781442790e+01 -4.309215764150983397e+00 -1.248104856932335167e+02 -1.249400106962334149e+02 -6.340514781233628838e+01 -1.306345370877209007e+02 2.036516819710780055e+02 -1.630968849194156007e+02 -5.082032925544913127e+01 1.748028563068211554e+02 3.436793577737916650e+01 -2.998690199459267092e+02 -1.287268277985847647e+02 3.600264616592161815e+01 5.535519143600929226e+01 8.746717489902962939e+00 -1.566832399405775220e+02 3.615780978441983962e+01 7.545809342098098504e+00 -7.530316430847557285e+01 2.053581265339013271e+02 2.052750075821953430e+02 4.378709170311256393e+00 -2.112548726616679460e+02 1.276531620346622020e+02 3.118770929118136692e+01 3.773337834998260032e+00 7.765968018044139853e+01 -2.101779789559940923e+02 -1.398607365178776263e+02 1.429111866098425025e+02 1.110739390105917010e+02 5.364323309630982806e+01 1.451344872060282398e+02 -1.806008403825998698e+02 -2.068517826483435229e+01 -1.321612577471667862e+02 4.412044447371155087e+01 -1.052201686159434075e+02 8.817302919891066892e+01 -3.429799996254659078e+01 1.254289349226026573e+01 1.797441253544593849e+02 2.883954555441562917e+01 -2.670177717106432169e+02 -1.279936928394377134e+02 -8.445215268801695174e+01 1.601715537265431806e+02 1.269592353606828006e+01 -5.448154328308731920e+01 3.081141436881810591e+01 6.335409224327363376e+01 -4.011863674529693213e+01 1.089217983377856882e+02 -1.020474303555239004e+02 4.985590724355127179e+01 1.133870206244654923e+02 -3.586952493102283057e+01 -9.940467353810605289e+01 -1.148734064892318685e+02 1.213214628245897586e+02 -5.029508783838281971e+01 1.991191089303948445e+02 5.795147456508643558e+01 1.124122186600432229e+02 1.867718445939165406e+02 8.676262062577567491e+00 -1.258808922606546474e+02 -1.679524642819139046e+02 -1.156956358671994565e+02 4.300876187953797825e+01
-1.349481982514936895e+01 -4.748546486716919368e+00 1.024951918984903756e+02 -2.266137897496572862e+02 1.537894422249320598e+02 6.287553643459635566e+01 1.505393464919497148e+02 -1.277961254863797649e+02 -2.763141829386097204e+00 -2.383167230791799795e+01 -2.171728465124992056e+02 3.240921034750730456e+01 -1.813727995053081798e+01 1.210040436533156054e+02 -1.237220668532826124e+02 6.105849084564410134e+01 1.240021220617158946e+02 -4.545397027357471131e+01 -4.917343045027423187e+01 -2.679668150413305483e+01 6.103976988675679394e+01 6.247382965537263289e+01 3.206468004021198936e+01 -2.300941923857519669e+02 -5.110918129402715948e+01 9.050553625245970579e+01 9.794172699749996269e+00 -1.023011803814030429e+01 -6.584038298369682707e+01 -1.527600913372069336e+01 7.256466046768342437e+01 -1.438738464120578442e+02 -6.123105316236155460e+01 8.909956746858032517e+00 2.052858570590063891e+02 2.097886788561134495e+02 -3.170196018791688886e+01 5.529611193869062191e+01 -2.798794717592646419e-01 -1.381938406224411153e+02 9.497480360480105332e+01 1.061170094368753496e+02 1.073750587195758897e+02 1.157673419435340456e+01 6.125015536224825041e+01 4.761903209988842178e+01 3.847841802825692525e+01 2.899928406420514904e+01 1.091243277130517555e+02 8.877881529265808069e+01 6.492086899713085302e+01 1.612408316979984022e+02 2.449918921882965321e+02 1.934888369757777298e+02 -5.849685155612625209e+01 4.874224243920832578e+01 -6.362335523975105644e+01 5.583267096717585076e+01 -1.900872732655025743e+02 5.590254888515647025e+01 -2.026164614414389007e+02 -1.669163109783191601e+02 1.280112839619617660e+01 -9.129317412444738267e+00 1.677515179761032869e+02 -2.057082389336534618e+02 7.449228605816469440e+01 2.273586452943258678e+02 -7.228749608843856755e+00 -1.926191118091482224e+02 3.523289186700008457e+01 1.951558020671205895e+02 -6.045328309688173363e+01 -2.636482300720361422e+02 -1.014872969678531547e+02 8.717681849908631264e+00 -2.276892132024555337e+02 3.166375226559046396e+01 -1.776069138914122618e+02 -1.837024895753443161e+02 -5.649837426885608238e+01 1.509649667694419293e+02 6.883444811881609837e+01 1.049410509334154185e+01 -8.773403365437187063e+01 -4.219344386746303144e+01 6.314538952363002267e+01 -2.298397669895274191e+02 5.359496135049748489e+01 -7.433238139948089440e+01 -7.735662224748161009e+01 -1.751527524846371193e+02 6.450640610316666823e+01 9.192541582799677258e+01 -1.608571603665975545e+02 1.711860169745745566e+02 -3.955112499842025642e+01 -1.676322360822668145e+01 8.675516384423757188e+01 1.549096623050162123e+02 2.147318464235842939e+01 1.501059723722667059e+02 -1.828979967534345263e+01 -8.991730980432802767e+01 -1.945349768437317195e+01 1.002185860101568835e+02 4.583243366502068028e+01 9.969917672688697508e+01 9.621781981108735238e+01 -8.462803850427629015e+01 -1.731748871007538639e+02 1.254262570812126540e+02 5.530519394064005212e+01 1.644923422663980617e+01 3.117340594692962696e+01 -6.924009987741425221e+01 9.790482580005475199e+01 9.157195139014635288e+01 -1.391970311790923276e+01 -7.262537065080672960e+01 3.139418518981262096e+01 6.392645021801622640e+00 -6.276459673139369499e+01 1.728756717465343513e+02 -3.368144137130434501e+01 1.240290601433154762e+02 -7.152332980391926753e+01 3.915477010675619596e+01 -3.685900805018343362e+01 9.125889113594372759e+01 2.396845389345778443e+01 1.179255037573744858e+02 -1.183509765573713537e+02 7.586820257772718890e+01 1.260447121605630940e+02 -4.565237908472539630e+01 7.720679887727531998e+00 -1.289353616485816723e+01 1.191987196909265094e+02 3.581850538804241424e+00 1.722588984857173955e+02 -1.444087987820088301e+02 1.191817496089749540e+02 -9.332295161209839307e+01 9.779591306026921416e+01 -1.400116607374569071e+02 3.016699993120614565e+01 2.527374666120600821e+01 1.871926829307760443e+00 3.710969826031725916e+01 4.688321761945307742e+01 -1.272315328134972567e+01 1.100884511398429133e+01 1.104919394371815144e+02 1.301164241180500198e+02 -8.860035461598995710e+01 -5.546058655233314738e+01 4.845250857711629777e+01 1.585633995144300812e+00 -1.400519256176857539e+02 -5.632495090681376126e+01 -3.629223688693531358e+01 5.005619098316706328e+01 -6.709247896471673300e+01 2.347200248322031513e+01 1.641071269572781830e+02 -8.134678107017261084e+01 8.267852537540197488e+01 8.610289712361745273e+01 1.147629336041026527e+01 1.263959169366902984e+02 6.440779176527112782e+01 1.721414920773012511e+02 -3.537074208813430687e+01 1.152536482985967297e+02 5.691439201337191633e+01 -1.648612588175180349e+01 2.092576961016128791e+02 -1.423353854319644540e+02 5.011960298622730647e+01 -1.923829986336463946e+02 -8.636426087620799308e+01 4.208078998152775085e+01 -7.409035495521742121e+01 -1.599596686155133796e+02 2.045900646923899444e+02 -8.806310796028486720e+01 -4.875720430082931500e+01 -4.752438280784474500e+01 1.250186871529001564e+02 2.000410431598622267e+02 6.650996514863292930e+01 1.502166592753503664e+02 2.254060246548542352e+02 -1.682500736853101753e+00 1.673678289006284672e+02 7.282796483420369782e+01 1.955969564294159397e+02 -1.292012538658951541e+02 -1.221107369512038687e+01 6.501111507499764741e+00 1.951636819988578111e+02 -9.340949334019650507e+01 -6.209802349763687346e+01 -5.441005522477718159e+01 -1.375957369590513224e+02 4.787189001282825984e+00 -1.037106208646037118e+02 1.582958216365423425e+02 2.422822258010025465e+01 1.234971858912494014e+01 7.429327814276494735e+01 -5.084836833415392832e+00 1.201319754437263185e+02 -1.631844809777313969e+02 4.663765696647684678e+01 -1.755647114011256633e+02 1.206449529635354168e+02 9.862124525155448396e+01 -6.917737542150167940e+01 4.802874173781828659e+01 2.446648644980997176e+02 -3.128011771002218566e+01 4.280724969595703300e+01 -3.356416879659430208e+01 5.952128343175417768e+01 6.606290845656380384e+01 -6.436735681741141413e+00 1.047339104103908909e+02 1.043213792366054236e+02 -1.991807360007418026e+02 -1.574342067078840728e+02 -1.230700615543121899e+02 -9.724202686713139698e+00 -1.538963294979463114e+02 1.186947660234003479e+02 1.133760880981249244e+02 6.056178273099286713e+01 1.146226505065095047e+01 1.619829212481555203e+02 8.624456758536383916e+01 6.931838598055638556e+01 -1.044185870347916421e+02 1.564323593725133037e+02 -3.659686594506689872e+00 1.122674281281926909e+02 9.050636806387508670e+00 3.773839140356545840e+01 -7.776001732166126601e+01 -9.320417475655351325e+01 7.350027808276365704e+01 -3.921179908320691077e+00 1.501908497433707907e+02 -1.291940885559996310e+01 -2.939645632536189712e+00 4.707067526145657155e+01 2.325067277542687449e+01 1.451452562793624850e+02 1.499102848230327112e+01 3.677241539818061966e+01 -1.587612292198152204e+02 6.757808596790495415e+01 1.371320642200656721e+02 -1.816560959064996794e+01 -2.338505231515345884e+02 8.655179199331591633e+01 1.394763281407018383e+02 2.077598974310794588e+01 1.934062906911245818e+02 -4.204270304453244123e+00 4.388592115183037379e+01 -4.454272467768161192e+01 -1.417233800779138448e+02 5.718375556119973169e+01 -4.847333513906662006e+01 -8.279404395206242384e+01 4.206448568472067961e+01 -1.886084696823828040e+02 7.321578587467602972e+01 1.676611714964527948e+02 -1.032510942563875318e+02 1.763553412034663381e+02 -9.960187754587731490e+01 -6.111280766489197269e+00 -1.070879317446553181e+01 7.804680787913871143e+01 -4.743482414297270111e+01 -1.098405355960988601e+02 -9.015079762260945984e+01 1.484213158675338207e+02 6.016535467464514397e+01 -1.340455692663382763e+02 4.529677524429782665e+00 4.421141667242234519e+01 8.400544103075326063e+01 -4.103096449228488751e+01 6.103134400930449743e+01 -7.014202008111742259e+01 -1.651285132971007386e+02 -3.522165078928749438e+01 1.433426796088851916e+02 -1.152295119389304148e+02 -6.540227547725304902e+00 -1.656243878392191675e+02 -4.826122227572628987e+00 -1.482447272662907380e+02 3.340825360668981858e+01 6.108380597715334659e+01 -5.113685666726328805e+01 -8.371461157556781529e+01 5.714909572194851961e+00 7.555157659771745671e+01 -6.882387427758068554e+01 1.367963587054851189e+02 1.070974181879674489e+02 -1.295821492111990949e+02 -1.070327652139139616e+02 1.370974120814543937e+02 7.241153205508317114e+01 1.523843551937220013e+02 1.017389347174727163e+02 8.235204742699198732e+01 -6.111233152129469204e+01 -8.293885634154260345e+01 -7.815378019434312762e+01 2.073116656311161705e+02 3.091971763536634299e+01 -2.522409165338865833e+01 -6.946425589942604972e+01 -5.070358278136045982e+01 -1.328810456478747994e+02 -1.672413445194010251e+01 -1.770386707713208523e+02 1.261818281796514611e+02 4.645454243788314130e+01 -1.163004287665870322e+02 -4.881497873748516980e+01 1.208363582764952326e+02 -9.787748021551942657e+01 1.037422909802032791e+02 -1.195024690453291498e+02 -1.186564967565682416e+01 -9.635122730014074932e+01 9.048985101007846765e+01 -4.286072814468600001e+01 1.044520693414987811e+01 2.957263147774693834e+01 -1.277648476511826630e+02 1.261233459289500303e+01 4.873232628513912346e+01 -2.262133467202142256e+01 -6.933349630217486492e+01 2.041931525240418352e+02 8.717078175054984968e+01 4.754253165886997579e+01 -3.168703115419481620e+01 8.092074595763000389e+01 1.689839454312254929e+02 -9.307096721027984643e+01 2.111685766845904766e+02 -1.341916729140507414e+02 -1.854515551355815717e+02 1.531241800291448385e+02 -2.358556874447639871e+02 -1.020517470666906901e+00 -2.469114922310639315e+02 -1.541830851131531972e+02 7.233138342609152005e+01 -1.468377266300781798e+02 5.886358136552654940e+01 1.107563198181595254e+02 -1.616974913416734694e+02 -3.039932463289852294e+01 7.600483113528731849e+01 1.350196830047132153e+02 -1.875724444715916661e+02 8.815164833504739761e+01 -9.873641882405330250e+01 -9.965408594812727117e+00 -1.401302411795800218e+01 -8.023252316920087424e+01 -9.105377460283401092e+01 1.828247590465946075e+02 -2.183596640719207471e+01 1.335066805573808857e+00 1.312800440440253738e+02 -8.737393487909342582e+01 -3.471076887969812219e+01 -1.085506262864445119e+02 -4.927032591680507778e+01 5.240151596277804913e+00 5.993198247339408624e+01 -1.363739343034141882e+02 2.395643019041939397e+02 -5.448209160474097246e+01 1.240379216369432953e+02 -4.937786928635863859e+01 1.211883776853437951e+02 1.406860388070113856e+02 4.859846052427192831e+01 1.235939919218398018e+02 -4.375130676349526482e+01 1.416867377504956096e+02 -1.583632804714490590e+02 -6.620694498631247882e+01 -6.376517338357934506e+01 2.583529373452866906e+01 -1.643736225721145559e+02 7.348476484685589583e+01 -3.122913462310079780e+01 -8.370309321356040755e+01 9.077288652158631521e+01 -1.530454606664588368e+02 -9.238072587993677587e+01 -5.326145728699725623e+01 3.351561140559421403e+01 1.315114859624333690e+02 1.184037042211324859e+02 7.004355860391126498e+01 -1.649235743422181599e+00 1.770985575588271672e+02 1.241096868531522404e+02 -9.563333826214567068e+01 -7.918665585685147335e+01 5.622717562198928931e+01 1.013158197268179173e+01 9.923758604253033866e+01 1.687744664621156403e+02 7.147919992385222088e+01 2.467611498238191459e+01 -1.034771456220277628e+02 1.740017807053821173e+02 -1.151224763544896632e+02 -1.673576854323276848e+02 6.653239792432120225e+01 1.128531456749218762e+02 1.986119578879855752e+01 -1.405415005656361132e+02 3.010954925012173078e+01 4.295129499989443644e+01 -3.008201979448724139e-01 1.324724675262804112e+02 9.867851481148193216e+01 1.730401647709803470e+01 7.926105655930884097e+01 -1.082989181649829504e+02 -6.358378320837319464e+00 9.944916776820497262e+01 3.001784724615075106e+01 -6.577740529651083534e+01 2.002476159443946528e+02 2.336854351795097386e+02 -1.269466982149034209e+02 -2.789934456213590863e+01 -2.125461688169720276e+02 -7.297125241256668460e+01 1.583456760021303467e+02 3.462147489958851132e+00 -7.174835265347273605e+01 1.655712818590131974e+02 -6.319665214844192036e+01 -1.622946047690300020e+02 1.379850374942565168e+02 -6.794132325253825400e+01 3.478974001653424608e+01 8.726677895782339078e+01 1.391447095562152114e+01 -2.406507986174250675e+02 4.270318795365590603e+01 -6.174505984774103062e+00 9.097502829924398782e+01 -2.379661947654944498e+01 1.022055352487333977e+02 1.712288808804536444e+01 -8.564049570719585347e+01 -2.067505335291231461e+01 -1.769557746074630984e+02 1.161434352427403809e+02 2.551475211378130936e+01 -4.204917192018572081e+01 -5.233257161522250556e+01 -6.347263894353559266e+01 4.149514603969170423e+01 1.622705082184095318e+02 1.340172254034783919e+02 4.350846518167822552e+01 -1.998079827275674631e+02 -3.917407746417826075e+01 4.423702339868108879e+01 1.185119605354409771e+02 8.810856202250337788e+01 1.561667942750795035e+01 -1.878874874280121219e+02 1.330419443188637558e+02 -2.259778052730476361e+02 -2.078460026586989216e+02 -1.876134861768694373e+00 -7.451107339062613732e+01 -2.429879300841050238e+01 8.800008957556424605e+01 5.647831497350379237e+01 -1.123258473738329997e+02 -1.529352301489285253e+02 1.474667932599793474e+01 1.249198507671537186e+02 2.092867543909473582e+01 -5.727323865547105441e+01 -5.210676729075593983e+01 -1.192656882590924639e+01 1.629743549938048375e+02 2.260398139414163055e+01 -1.785009498134171508e+02 1.318483914459930304e+02 -6.865033204556615942e+01 -4.294847840372610470e+00 1.583172664438829429e+02 -5.379235631994336586e+01 -2.012476737905992863e+01 -1.129346641425816102e+02 -6.183013975008717189e+00 -2.453606511430125892e+01 1.354340981408639095e+02 1.234869621347535116e+02 6.948091228798041641e+01 6.723364811106129935e+01 -1.924265939988620033e+01 1.390522364957817274e+02 -1.159052429291950830e+02 -4.388562609541237336e+00 -9.361435467329086180e+01 1.615916234667910487e+02 7.500416574961707283e+01 5.316692348229641141e+01 8.526648965153961868e+00 -5.476241695445753521e+01 3.535177764519993815e+01 6.956212152654953407e+00 3.670330474086346939e+00 2.480563270531670739e+01 6.145483932098290580e+01 1.750253286423272527e+02 -3.989560668955274281e+01 -5.345651800845062240e+01 6.864976655752401768e+01 1.189173867572153256e+02 -1.316310684935408126e+01 9.447500510679034846e+01 1.068993467200953944e+02 2.166103835829067066e+02 -8.896743103880010040e+01 -1.261269945791810017e+02 -2.942844663597535870e+01 6.385262152623391074e+01 -1.042755539715607682e+01 1.104009896261048027e+02 3.825534063083190972e+01 -1.671304909818567808e+02 4.630952145658137198e+01 -9.192641084266139728e+01 -1.390246885532817203e+02 1.381887048171234937e+02 -7.808522988218018668e+01 6.073540417390523061e+01 1.142562229542506884e+02 -1.017452193998499723e+02 2.409145970110823143e+01 -7.409963812651484716e+01 4.132685353704892606e+01 -1.176208358338588198e+02 6.319370055753346094e+01 5.610772916649349185e+01 4.055263095772242643e+00 8.631396027878339794e+01 -1.569941561566790540e+02 7.839376933773247913e+01 -2.998161201215262750e+01 -1.721316546969500507e+02 9.623924206665647318e+01 2.496624326840084152e+01 -1.998969736958474641e+02 2.396626545624060043e+02 -5.364134220720893076e-01 1.071651666926261441e+02 -1.228823741674579253e+02 -1.978733306930539868e+02 -9.507669693338965544e+01 2.507933599894352383e+00 1.456217751538146672e+02 4.109247288559985556e+00 -9.736660601182053654e+01 5.139130484806801036e+01 1.396360367617706402e+02 6.622826002819208213e+01 -5.273918490147816129e+01 -6.025224946626304501e+01 8.610756205553131792e+01 3.135354698539083884e+01 -1.992159614808849426e+02 -2.112742275233822653e+01 1.722391383872737549e+02 1.007243523143339559e+02 -5.839160721835086321e+01 -1.139168881433171805e+02 -4.349398986128311151e+01 -4.898827907480645649e+01 -1.166167234346665822e+02 -1.886188323066614814e+01 -4.652934311153555313e+01 -1.157587769533529922e+02 -1.343458206436773992e+02 -2.741736492546464987e+01 -1.280232236175595801e+02 -1.362747221943932630e+02 -3.905520352127840056e+01 -5.641400267154405412e+01 -1.130743080186185239e+02 1.965386009190417838e+02 1.112405773481117244e+01 -2.971008394510988992e+01 -1.796634496865577546e+01 8.305682391747143356e+01 1.650348232381713132e+01 2.644654984568207468e+01 -2.250717337679279950e+01 -4.877696596094978077e+01 2.209477524946084870e+01 -1.534640759981240308e+02 -1.680947234147691631e+02 -9.551702564882251068e+01 -2.014991152561952674e+02 -9.463887871453000855e+01 9.062519636209528073e+01 6.480424982682323787e+01 -2.752732373885887540e+01 6.416522803265449681e+01 -1.652752312466140552e+02 -4.305865680036996679e+01 -1.225990261996799546e+02 -7.048543001179407952e+01 2.226776069487053746e+02 -2.167498368466236514e+02 2.167332450929861807e+02 2.641541058657285390e+01 -5.964960154141832760e+01 9.743449288474549519e+01 1.310177553499810585e+02 -5.479224200987287929e+01 -2.150790415116611314e+02 -1.574293618287258596e+02 1.079679760048320816e+02 8.844354244992111092e+01 -1.431736177025565553e+02 3.376117546631279964e+01 -4.186243907027896682e+01 -8.172237799618778809e+01 -3.000954240154301544e+01 -5.790323780052548130e+01 -9.128584684872880928e+01 -3.591918758422468727e+01 4.695595981601496938e+00 -3.456854439182361460e+01 -4.366050449985662829e-01 -1.519165225104497807e+01 9.714713535883700501e+01 1.341576857324406546e+02 1.391178522933362061e+01 1.771703994953521288e+01 -6.660713333743986198e+01 -2.069414338404151579e+02 3.574941624015873742e+01 -9.687519926998734832e+01 2.726192715497899499e+01 -8.679236038981887447e+00 1.045838827845919417e+00 7.623898641919282682e+01 1.286773459325876559e+02 -7.437966624401883564e+01 4.012115135523962550e+01 -2.035654348007636827e+02 1.019634944605926030e+01 7.435281973300793545e+00 -1.293812928429651379e+02 -3.562319730586347077e+01 -4.680192270242164199e+01 5.045024971789105805e+00 -1.079711440196406329e+02 2.857108708637795758e+01 -1.031126087722869897e+02 5.929553555302689460e+01 7.161618195418641619e+01 3.892632184114602723e+01 -3.064070233906234719e+01 1.134228113640012623e+02 6.445175951751664911e+01 8.444047492049951131e+01 -7.070456702359807366e+01 2.145717261817150856e+01 1.350002435155923877e+02 -6.169666136006546253e+01 -7.291928821454063403e+00 3.376722568084523601e+01 -1.354805605312247963e+02 1.032342071097879739e+02 9.451206283399849895e+01 -1.066711783235763846e+02 -8.688619235239191596e+01 -5.855733603834325862e+01 -4.800589456573053582e+01 -1.690853156025957844e+02 -1.433779499014829923e+02 -1.396940422998248721e+02 1.114205319411367299e+02 6.300003072776500801e+01 1.681673905287301807e+02 7.578553213612250872e+00 -9.042571805910063176e+01 1.972460861675372001e+01 1.458320907817786249e+01 -6.689440805317184413e+01 7.803096952427432598e+01 1.244027533491560149e+02 1.055157545858149071e+01 1.511271776445345836e+02 2.373066492388659299e+01 1.168956565005552335e+02 1.592108751517686827e+01 -2.188380414296211995e+02 2.299846341732803694e+02 -5.153625227858402269e+01 -1.570680663926986256e+02 -7.074808010293936889e+01 -4.523608603378124116e+01 4.330542432743798287e+01 2.679898678852430649e+01 4.788087658621799392e+01 -7.762113766242700308e+01 1.280871631916653541e+02 -9.026635246354251763e+01 -7.332867188635458611e+00 1.490480498093883739e+02 1.146729354741227240e+02 6.061167796868056001e+01 -1.850187932330674982e+02 2.657607344809824212e+01 1.467007687538186929e+02 2.448310404198183576e+01 1.018731741880310011e+02 1.110734459099340086e+02 -2.204690771226244408e+02 8.021504864020629100e+01 -6.021022881625376755e+01 -2.343653537486804908e+02 9.216911125947109440e+01 2.558814366987396838e+01 -1.264547637672926186e+02 -6.060832476703917138e+01 1.434861367748827661e+02 1.522355939526177906e+02 -7.811643894136305732e+01 -1.315650223807142822e+02 -8.582201642827723731e+01 -1.704237269553186707e+02 2.007174864003398085e+01 3.887075341013807872e+01 -1.732863921550502440e+01 -1.266267510989015932e+01 -9.149552875719579959e+01 -9.032358565222779134e+01 -2.514797476491430217e+01 1.362991665234281413e+02 1.385813191806164753e+02 8.244603962961592458e+01 9.854892339297789761e+01 -7.976250241174602706e+01 -1.829334914514133459e+02 -1.342405560999898739e+01 -2.347521404914314047e+01 -7.179139598398539590e+01 1.523768503617386472e+00 7.390276630609724862e+01 -5.352726989782802036e+01 2.487783880306717776e+01 8.005739993292245060e+01 7.087279476634417108e+01 1.117391400193758244e+02 -1.508587462006236990e+02 4.008834113302069113e+01 8.423898455321234735e+01 9.581458711311412912e+01 5.974408277775428644e+01 -1.043914754145876458e+02 1.384703833538804361e+02 1.288629799074307130e+02 9.689262425209628304e+01 1.026563921491852653e+02 -8.517322270559024844e+01 -1.504690986722141766e+01 -1.305624506359560222e+01 7.793262179409032342e+01 6.568686213343306690e+01 5.655981231414068588e+01 9.868558202610826413e+01 1.177525186973606850e+02 1.252099593752698610e+02 -6.567089949621336586e+01 8.148199100992268029e+01 6.598463720850692482e+01 -1.189652234918292066e+02 1.330669120950154820e+02 -1.016093895725488316e+01 -2.822571102120683406e+01 2.015148344100413738e+02 8.946137394384930985e+01 1.255165094200059315e+02 -1.460086691162192665e+02 -1.596410018714184673e+02 -1.556357557990523333e+02 -1.236734079111213020e+02 -4.483023829305725627e+01 1.112234678025784405e+02 -1.707895366119835785e+02 3.296720849605696202e+01 1.462538033785505434e+02 -6.012474058367005370e+01 -9.259478641053105719e+01 -3.558107278907834825e+01 1.377939834946908206e+02 2.305243607913294568e+02 -6.756204202295575101e+01 2.009430305113746940e+01 -2.811450394529401109e+01 6.949278014271233417e+01 6.117157404639138463e+01 -2.164246909322861541e+02 -8.999931161046686157e+01 1.396655342886629114e+02 1.419570155235272466e+02 9.600514995241600502e+01 -5.056407782532112805e+01 -7.701604449419978948e+01 -4.615120354221415511e+01 -1.793177549744320345e+02 7.232012943023342189e+01 -2.610027550016246067e+01 1.690981908923148183e+02 -2.837249260655461924e+01 -3.197033274380267471e+02 1.472875771970091705e+02 5.118264364299493963e+01 -1.199570513909067984e+02 -2.249401625191714515e+01 3.591768320677025628e+01 -2.111816201293173663e+02 -1.162455450108662944e+02 -1.114404873844780184e+02 -5.743261479108551271e+01 6.390606572551099163e+01 -1.676524189716813567e+02 1.098318567139565971e+02 -5.525811676528512351e+01 2.949948018008797579e+00 -1.357554466010283249e+02 -1.053776056848078326e+02 1.789704879823037231e+02 8.819541535824406253e+01 -4.298928626574912926e+01 3.785879414422444000e+01 -2.857097432410499138e+01 4.396806078637990112e+01 -1.065070984517325456e+02 1.005897154130048250e+02 5.144481275878007409e+01 -1.210897055883910838e+02 1.189058349624680631e+02 -5.006410762921830582e+01 1.017675262269581822e+02 -5.033480186504446863e+01 9.004671909339127467e+01 -1.562890299990295091e+02 1.453594737511775179e+02 2.524467910818539096e+01 1.025300052856019306e+02 1.328774707680775293e+02 -1.494309627575036927e+02 -8.753198981631588538e+01 -1.076490022611794899e+02 6.817204497677793995e+01 -1.746468487219184453e+02 1.543768652791818567e+02 1.451860925283961024e+02 5.402377123639229239e+01 -8.655329846320952925e+01 5.816504137649715034e+01 -1.093830902051058445e+02 -1.118652832415577691e+01 3.568900962425782808e+01 -1.873799260264078441e+02 -8.323005371487677451e+01 -1.380536289013803142e+01 1.042703906074572018e+02 -5.120749506975023735e+01 1.108659653652340467e+02 -6.565251166740036126e+01 -2.151144704513919237e+02 -1.092850374948940697e+02 -3.480175857459713029e+01 -6.143649249338189122e+01 3.073030626148203481e+01 5.241397611483959196e+01 6.491251875019119488e+00 2.578848650302213841e+01 -1.197219936156191977e+02 5.493564834288098808e+01 3.331097295859429863e+01 -7.373426139424870485e+01 9.442987565932584815e+00 5.748162157391578830e+01 -9.746043538141552176e+01 -5.624296278629180534e+01 -2.464258659655977013e+01 9.972195663095668294e+01 -1.749820533910878240e+01 4.282782612787612742e+00 -2.329847341426826404e+02 -9.713053096184512469e+01 1.010881613932540120e+02 -9.123322893191409833e+01 3.203403190743785700e+01 3.175680565146463863e+01 3.880014299538778033e+01 6.755211177859666805e+01 -1.813972883231716935e+02 1.471598050178201618e+02 8.324720462171688951e+01 -7.668086588973123341e+00 -8.261461062885094009e+01 1.144562120089388344e+02 6.348427952664174256e+01 -2.055789417757924014e+02 -5.152679813874611625e+01 -8.350947008574128461e+01 -5.303346565845099292e+01 -6.335839626911131006e+01 -1.013229349180754610e+02 -6.174400784522183727e+01 1.957957595334643486e+02 -1.746779989719601645e+02 6.697966464605281089e+01 2.836827245364976946e+01 -7.687404138214718330e+01 1.060857518187779647e+01 -4.029825084551487890e+01 3.498151296177981706e+00 -9.830500495219767743e+01 -2.020376962017636515e+02 1.881109131750841001e+01 4.288185967008014643e+01 -1.309390280210778812e+01 -9.264309376374061600e+00 -4.069232463252806298e+01 -1.942997953220551892e+02 -3.136513663677748198e+01 -6.687446667691804691e+01 1.430919453302295175e+01 -1.596466376166657852e+01 9.260551730325663300e+01 -6.448289201902704804e+01 -1.061013223411729172e+02 -3.659929185536249463e+01 -9.244676897217672717e+00 4.660028107896548022e+01 -2.267006380181524250e+01 -7.539600294491022225e+01 -1.623570139809289969e+01 2.054723399893147473e+01 4.860751172815490406e+01 -1.166861771571354893e+02 -1.422831096220139671e+02 2.357128464541144979e+02 -2.233684903288556427e+02 -7.774914431024690487e+01 -4.744668721815585855e+01 1.431542552321871824e+02 6.477333728067708307e+01 2.342079198272536189e+02 2.504991437206799674e+02 -6.378563719661272557e+01 1.325433632689502872e+02 -5.722561088542265395e+01 -4.176567712293573464e+01 -1.030457739439051608e+02 -8.173279429923739769e+01 -7.123574177894832360e+01 -9.107995056362481989e+01 -2.495317211917008251e+02 -2.773030987045007691e+02 1.378987981441558190e+02 -2.714832297486082879e+01 5.452278158903087757e+01 1.339369588140257576e+02
