# 
#                 ----------------------------------------------------
#                 Data from a 3D direct N-body simulation. 
# 
#                 rows are i-particle; 
#                 coumns are :mass, tag, x ,y, z, vx, vy, vz, ax, ay, az
# 
#                 NTHU, Computational Physics Lab
# 
#                 ----------------------------------------------------
#                 Time = 4.999999999999938
1.000000000000000000e+00 2.000000000000000000e+00 3.000000000000000000e+00 4.000000000000000000e+00 5.000000000000000000e+00 6.000000000000000000e+00 7.000000000000000000e+00 8.000000000000000000e+00 9.000000000000000000e+00 1.000000000000000000e+01 1.100000000000000000e+01 1.200000000000000000e+01 1.300000000000000000e+01 1.400000000000000000e+01 1.500000000000000000e+01 1.600000000000000000e+01 1.700000000000000000e+01 1.800000000000000000e+01 1.900000000000000000e+01 2.000000000000000000e+01 2.100000000000000000e+01 2.200000000000000000e+01 2.300000000000000000e+01 2.400000000000000000e+01 2.500000000000000000e+01 2.600000000000000000e+01 2.700000000000000000e+01 2.800000000000000000e+01 2.900000000000000000e+01 3.000000000000000000e+01 3.100000000000000000e+01 3.200000000000000000e+01 3.300000000000000000e+01 3.400000000000000000e+01 3.500000000000000000e+01 3.600000000000000000e+01 3.700000000000000000e+01 3.800000000000000000e+01 3.900000000000000000e+01 4.000000000000000000e+01 4.100000000000000000e+01 4.200000000000000000e+01 4.300000000000000000e+01 4.400000000000000000e+01 4.500000000000000000e+01 4.600000000000000000e+01 4.700000000000000000e+01 4.800000000000000000e+01 4.900000000000000000e+01 5.000000000000000000e+01 5.100000000000000000e+01 5.200000000000000000e+01 5.300000000000000000e+01 5.400000000000000000e+01 5.500000000000000000e+01 5.600000000000000000e+01 5.700000000000000000e+01 5.800000000000000000e+01 5.900000000000000000e+01 6.000000000000000000e+01 6.100000000000000000e+01 6.200000000000000000e+01 6.300000000000000000e+01 6.400000000000000000e+01 6.500000000000000000e+01 6.600000000000000000e+01 6.700000000000000000e+01 6.800000000000000000e+01 6.900000000000000000e+01 7.000000000000000000e+01 7.100000000000000000e+01 7.200000000000000000e+01 7.300000000000000000e+01 7.400000000000000000e+01 7.500000000000000000e+01 7.600000000000000000e+01 7.700000000000000000e+01 7.800000000000000000e+01 7.900000000000000000e+01 8.000000000000000000e+01 8.100000000000000000e+01 8.200000000000000000e+01 8.300000000000000000e+01 8.400000000000000000e+01 8.500000000000000000e+01 8.600000000000000000e+01 8.700000000000000000e+01 8.800000000000000000e+01 8.900000000000000000e+01 9.000000000000000000e+01 9.100000000000000000e+01 9.200000000000000000e+01 9.300000000000000000e+01 9.400000000000000000e+01 9.500000000000000000e+01 9.600000000000000000e+01 9.700000000000000000e+01 9.800000000000000000e+01 9.900000000000000000e+01 1.000000000000000000e+02 1.010000000000000000e+02 1.020000000000000000e+02 1.030000000000000000e+02 1.040000000000000000e+02 1.050000000000000000e+02 1.060000000000000000e+02 1.070000000000000000e+02 1.080000000000000000e+02 1.090000000000000000e+02 1.100000000000000000e+02 1.110000000000000000e+02 1.120000000000000000e+02 1.130000000000000000e+02 1.140000000000000000e+02 1.150000000000000000e+02 1.160000000000000000e+02 1.170000000000000000e+02 1.180000000000000000e+02 1.190000000000000000e+02 1.200000000000000000e+02 1.210000000000000000e+02 1.220000000000000000e+02 1.230000000000000000e+02 1.240000000000000000e+02 1.250000000000000000e+02 1.260000000000000000e+02 1.270000000000000000e+02 1.280000000000000000e+02 1.290000000000000000e+02 1.300000000000000000e+02 1.310000000000000000e+02 1.320000000000000000e+02 1.330000000000000000e+02 1.340000000000000000e+02 1.350000000000000000e+02 1.360000000000000000e+02 1.370000000000000000e+02 1.380000000000000000e+02 1.390000000000000000e+02 1.400000000000000000e+02 1.410000000000000000e+02 1.420000000000000000e+02 1.430000000000000000e+02 1.440000000000000000e+02 1.450000000000000000e+02 1.460000000000000000e+02 1.470000000000000000e+02 1.480000000000000000e+02 1.490000000000000000e+02 1.500000000000000000e+02 1.510000000000000000e+02 1.520000000000000000e+02 1.530000000000000000e+02 1.540000000000000000e+02 1.550000000000000000e+02 1.560000000000000000e+02 1.570000000000000000e+02 1.580000000000000000e+02 1.590000000000000000e+02 1.600000000000000000e+02 1.610000000000000000e+02 1.620000000000000000e+02 1.630000000000000000e+02 1.640000000000000000e+02 1.650000000000000000e+02 1.660000000000000000e+02 1.670000000000000000e+02 1.680000000000000000e+02 1.690000000000000000e+02 1.700000000000000000e+02 1.710000000000000000e+02 1.720000000000000000e+02 1.730000000000000000e+02 1.740000000000000000e+02 1.750000000000000000e+02 1.760000000000000000e+02 1.770000000000000000e+02 1.780000000000000000e+02 1.790000000000000000e+02 1.800000000000000000e+02 1.810000000000000000e+02 1.820000000000000000e+02 1.830000000000000000e+02 1.840000000000000000e+02 1.850000000000000000e+02 1.860000000000000000e+02 1.870000000000000000e+02 1.880000000000000000e+02 1.890000000000000000e+02 1.900000000000000000e+02 1.910000000000000000e+02 1.920000000000000000e+02 1.930000000000000000e+02 1.940000000000000000e+02 1.950000000000000000e+02 1.960000000000000000e+02 1.970000000000000000e+02 1.980000000000000000e+02 1.990000000000000000e+02 2.000000000000000000e+02 2.010000000000000000e+02 2.020000000000000000e+02 2.030000000000000000e+02 2.040000000000000000e+02 2.050000000000000000e+02 2.060000000000000000e+02 2.070000000000000000e+02 2.080000000000000000e+02 2.090000000000000000e+02 2.100000000000000000e+02 2.110000000000000000e+02 2.120000000000000000e+02 2.130000000000000000e+02 2.140000000000000000e+02 2.150000000000000000e+02 2.160000000000000000e+02 2.170000000000000000e+02 2.180000000000000000e+02 2.190000000000000000e+02 2.200000000000000000e+02 2.210000000000000000e+02 2.220000000000000000e+02 2.230000000000000000e+02 2.240000000000000000e+02 2.250000000000000000e+02 2.260000000000000000e+02 2.270000000000000000e+02 2.280000000000000000e+02 2.290000000000000000e+02 2.300000000000000000e+02 2.310000000000000000e+02 2.320000000000000000e+02 2.330000000000000000e+02 2.340000000000000000e+02 2.350000000000000000e+02 2.360000000000000000e+02 2.370000000000000000e+02 2.380000000000000000e+02 2.390000000000000000e+02 2.400000000000000000e+02 2.410000000000000000e+02 2.420000000000000000e+02 2.430000000000000000e+02 2.440000000000000000e+02 2.450000000000000000e+02 2.460000000000000000e+02 2.470000000000000000e+02 2.480000000000000000e+02 2.490000000000000000e+02 2.500000000000000000e+02 2.510000000000000000e+02 2.520000000000000000e+02 2.530000000000000000e+02 2.540000000000000000e+02 2.550000000000000000e+02 2.560000000000000000e+02 2.570000000000000000e+02 2.580000000000000000e+02 2.590000000000000000e+02 2.600000000000000000e+02 2.610000000000000000e+02 2.620000000000000000e+02 2.630000000000000000e+02 2.640000000000000000e+02 2.650000000000000000e+02 2.660000000000000000e+02 2.670000000000000000e+02 2.680000000000000000e+02 2.690000000000000000e+02 2.700000000000000000e+02 2.710000000000000000e+02 2.720000000000000000e+02 2.730000000000000000e+02 2.740000000000000000e+02 2.750000000000000000e+02 2.760000000000000000e+02 2.770000000000000000e+02 2.780000000000000000e+02 2.790000000000000000e+02 2.800000000000000000e+02 2.810000000000000000e+02 2.820000000000000000e+02 2.830000000000000000e+02 2.840000000000000000e+02 2.850000000000000000e+02 2.860000000000000000e+02 2.870000000000000000e+02 2.880000000000000000e+02 2.890000000000000000e+02 2.900000000000000000e+02 2.910000000000000000e+02 2.920000000000000000e+02 2.930000000000000000e+02 2.940000000000000000e+02 2.950000000000000000e+02 2.960000000000000000e+02 2.970000000000000000e+02 2.980000000000000000e+02 2.990000000000000000e+02 3.000000000000000000e+02 3.010000000000000000e+02 3.020000000000000000e+02 3.030000000000000000e+02 3.040000000000000000e+02 3.050000000000000000e+02 3.060000000000000000e+02 3.070000000000000000e+02 3.080000000000000000e+02 3.090000000000000000e+02 3.100000000000000000e+02 3.110000000000000000e+02 3.120000000000000000e+02 3.130000000000000000e+02 3.140000000000000000e+02 3.150000000000000000e+02 3.160000000000000000e+02 3.170000000000000000e+02 3.180000000000000000e+02 3.190000000000000000e+02 3.200000000000000000e+02 3.210000000000000000e+02 3.220000000000000000e+02 3.230000000000000000e+02 3.240000000000000000e+02 3.250000000000000000e+02 3.260000000000000000e+02 3.270000000000000000e+02 3.280000000000000000e+02 3.290000000000000000e+02 3.300000000000000000e+02 3.310000000000000000e+02 3.320000000000000000e+02 3.330000000000000000e+02 3.340000000000000000e+02 3.350000000000000000e+02 3.360000000000000000e+02 3.370000000000000000e+02 3.380000000000000000e+02 3.390000000000000000e+02 3.400000000000000000e+02 3.410000000000000000e+02 3.420000000000000000e+02 3.430000000000000000e+02 3.440000000000000000e+02 3.450000000000000000e+02 3.460000000000000000e+02 3.470000000000000000e+02 3.480000000000000000e+02 3.490000000000000000e+02 3.500000000000000000e+02 3.510000000000000000e+02 3.520000000000000000e+02 3.530000000000000000e+02 3.540000000000000000e+02 3.550000000000000000e+02 3.560000000000000000e+02 3.570000000000000000e+02 3.580000000000000000e+02 3.590000000000000000e+02 3.600000000000000000e+02 3.610000000000000000e+02 3.620000000000000000e+02 3.630000000000000000e+02 3.640000000000000000e+02 3.650000000000000000e+02 3.660000000000000000e+02 3.670000000000000000e+02 3.680000000000000000e+02 3.690000000000000000e+02 3.700000000000000000e+02 3.710000000000000000e+02 3.720000000000000000e+02 3.730000000000000000e+02 3.740000000000000000e+02 3.750000000000000000e+02 3.760000000000000000e+02 3.770000000000000000e+02 3.780000000000000000e+02 3.790000000000000000e+02 3.800000000000000000e+02 3.810000000000000000e+02 3.820000000000000000e+02 3.830000000000000000e+02 3.840000000000000000e+02 3.850000000000000000e+02 3.860000000000000000e+02 3.870000000000000000e+02 3.880000000000000000e+02 3.890000000000000000e+02 3.900000000000000000e+02 3.910000000000000000e+02 3.920000000000000000e+02 3.930000000000000000e+02 3.940000000000000000e+02 3.950000000000000000e+02 3.960000000000000000e+02 3.970000000000000000e+02 3.980000000000000000e+02 3.990000000000000000e+02 4.000000000000000000e+02 4.010000000000000000e+02 4.020000000000000000e+02 4.030000000000000000e+02 4.040000000000000000e+02 4.050000000000000000e+02 4.060000000000000000e+02 4.070000000000000000e+02 4.080000000000000000e+02 4.090000000000000000e+02 4.100000000000000000e+02 4.110000000000000000e+02 4.120000000000000000e+02 4.130000000000000000e+02 4.140000000000000000e+02 4.150000000000000000e+02 4.160000000000000000e+02 4.170000000000000000e+02 4.180000000000000000e+02 4.190000000000000000e+02 4.200000000000000000e+02 4.210000000000000000e+02 4.220000000000000000e+02 4.230000000000000000e+02 4.240000000000000000e+02 4.250000000000000000e+02 4.260000000000000000e+02 4.270000000000000000e+02 4.280000000000000000e+02 4.290000000000000000e+02 4.300000000000000000e+02 4.310000000000000000e+02 4.320000000000000000e+02 4.330000000000000000e+02 4.340000000000000000e+02 4.350000000000000000e+02 4.360000000000000000e+02 4.370000000000000000e+02 4.380000000000000000e+02 4.390000000000000000e+02 4.400000000000000000e+02 4.410000000000000000e+02 4.420000000000000000e+02 4.430000000000000000e+02 4.440000000000000000e+02 4.450000000000000000e+02 4.460000000000000000e+02 4.470000000000000000e+02 4.480000000000000000e+02 4.490000000000000000e+02 4.500000000000000000e+02 4.510000000000000000e+02 4.520000000000000000e+02 4.530000000000000000e+02 4.540000000000000000e+02 4.550000000000000000e+02 4.560000000000000000e+02 4.570000000000000000e+02 4.580000000000000000e+02 4.590000000000000000e+02 4.600000000000000000e+02 4.610000000000000000e+02 4.620000000000000000e+02 4.630000000000000000e+02 4.640000000000000000e+02 4.650000000000000000e+02 4.660000000000000000e+02 4.670000000000000000e+02 4.680000000000000000e+02 4.690000000000000000e+02 4.700000000000000000e+02 4.710000000000000000e+02 4.720000000000000000e+02 4.730000000000000000e+02 4.740000000000000000e+02 4.750000000000000000e+02 4.760000000000000000e+02 4.770000000000000000e+02 4.780000000000000000e+02 4.790000000000000000e+02 4.800000000000000000e+02 4.810000000000000000e+02 4.820000000000000000e+02 4.830000000000000000e+02 4.840000000000000000e+02 4.850000000000000000e+02 4.860000000000000000e+02 4.870000000000000000e+02 4.880000000000000000e+02 4.890000000000000000e+02 4.900000000000000000e+02 4.910000000000000000e+02 4.920000000000000000e+02 4.930000000000000000e+02 4.940000000000000000e+02 4.950000000000000000e+02 4.960000000000000000e+02 4.970000000000000000e+02 4.980000000000000000e+02 4.990000000000000000e+02 5.000000000000000000e+02 5.010000000000000000e+02 5.020000000000000000e+02 5.030000000000000000e+02 5.040000000000000000e+02 5.050000000000000000e+02 5.060000000000000000e+02 5.070000000000000000e+02 5.080000000000000000e+02 5.090000000000000000e+02 5.100000000000000000e+02 5.110000000000000000e+02 5.120000000000000000e+02 5.130000000000000000e+02 5.140000000000000000e+02 5.150000000000000000e+02 5.160000000000000000e+02 5.170000000000000000e+02 5.180000000000000000e+02 5.190000000000000000e+02 5.200000000000000000e+02 5.210000000000000000e+02 5.220000000000000000e+02 5.230000000000000000e+02 5.240000000000000000e+02 5.250000000000000000e+02 5.260000000000000000e+02 5.270000000000000000e+02 5.280000000000000000e+02 5.290000000000000000e+02 5.300000000000000000e+02 5.310000000000000000e+02 5.320000000000000000e+02 5.330000000000000000e+02 5.340000000000000000e+02 5.350000000000000000e+02 5.360000000000000000e+02 5.370000000000000000e+02 5.380000000000000000e+02 5.390000000000000000e+02 5.400000000000000000e+02 5.410000000000000000e+02 5.420000000000000000e+02 5.430000000000000000e+02 5.440000000000000000e+02 5.450000000000000000e+02 5.460000000000000000e+02 5.470000000000000000e+02 5.480000000000000000e+02 5.490000000000000000e+02 5.500000000000000000e+02 5.510000000000000000e+02 5.520000000000000000e+02 5.530000000000000000e+02 5.540000000000000000e+02 5.550000000000000000e+02 5.560000000000000000e+02 5.570000000000000000e+02 5.580000000000000000e+02 5.590000000000000000e+02 5.600000000000000000e+02 5.610000000000000000e+02 5.620000000000000000e+02 5.630000000000000000e+02 5.640000000000000000e+02 5.650000000000000000e+02 5.660000000000000000e+02 5.670000000000000000e+02 5.680000000000000000e+02 5.690000000000000000e+02 5.700000000000000000e+02 5.710000000000000000e+02 5.720000000000000000e+02 5.730000000000000000e+02 5.740000000000000000e+02 5.750000000000000000e+02 5.760000000000000000e+02 5.770000000000000000e+02 5.780000000000000000e+02 5.790000000000000000e+02 5.800000000000000000e+02 5.810000000000000000e+02 5.820000000000000000e+02 5.830000000000000000e+02 5.840000000000000000e+02 5.850000000000000000e+02 5.860000000000000000e+02 5.870000000000000000e+02 5.880000000000000000e+02 5.890000000000000000e+02 5.900000000000000000e+02 5.910000000000000000e+02 5.920000000000000000e+02 5.930000000000000000e+02 5.940000000000000000e+02 5.950000000000000000e+02 5.960000000000000000e+02 5.970000000000000000e+02 5.980000000000000000e+02 5.990000000000000000e+02 6.000000000000000000e+02 6.010000000000000000e+02 6.020000000000000000e+02 6.030000000000000000e+02 6.040000000000000000e+02 6.050000000000000000e+02 6.060000000000000000e+02 6.070000000000000000e+02 6.080000000000000000e+02 6.090000000000000000e+02 6.100000000000000000e+02 6.110000000000000000e+02 6.120000000000000000e+02 6.130000000000000000e+02 6.140000000000000000e+02 6.150000000000000000e+02 6.160000000000000000e+02 6.170000000000000000e+02 6.180000000000000000e+02 6.190000000000000000e+02 6.200000000000000000e+02 6.210000000000000000e+02 6.220000000000000000e+02 6.230000000000000000e+02 6.240000000000000000e+02 6.250000000000000000e+02 6.260000000000000000e+02 6.270000000000000000e+02 6.280000000000000000e+02 6.290000000000000000e+02 6.300000000000000000e+02 6.310000000000000000e+02 6.320000000000000000e+02 6.330000000000000000e+02 6.340000000000000000e+02 6.350000000000000000e+02 6.360000000000000000e+02 6.370000000000000000e+02 6.380000000000000000e+02 6.390000000000000000e+02 6.400000000000000000e+02 6.410000000000000000e+02 6.420000000000000000e+02 6.430000000000000000e+02 6.440000000000000000e+02 6.450000000000000000e+02 6.460000000000000000e+02 6.470000000000000000e+02 6.480000000000000000e+02 6.490000000000000000e+02 6.500000000000000000e+02 6.510000000000000000e+02 6.520000000000000000e+02 6.530000000000000000e+02 6.540000000000000000e+02 6.550000000000000000e+02 6.560000000000000000e+02 6.570000000000000000e+02 6.580000000000000000e+02 6.590000000000000000e+02 6.600000000000000000e+02 6.610000000000000000e+02 6.620000000000000000e+02 6.630000000000000000e+02 6.640000000000000000e+02 6.650000000000000000e+02 6.660000000000000000e+02 6.670000000000000000e+02 6.680000000000000000e+02 6.690000000000000000e+02 6.700000000000000000e+02 6.710000000000000000e+02 6.720000000000000000e+02 6.730000000000000000e+02 6.740000000000000000e+02 6.750000000000000000e+02 6.760000000000000000e+02 6.770000000000000000e+02 6.780000000000000000e+02 6.790000000000000000e+02 6.800000000000000000e+02 6.810000000000000000e+02 6.820000000000000000e+02 6.830000000000000000e+02 6.840000000000000000e+02 6.850000000000000000e+02 6.860000000000000000e+02 6.870000000000000000e+02 6.880000000000000000e+02 6.890000000000000000e+02 6.900000000000000000e+02 6.910000000000000000e+02 6.920000000000000000e+02 6.930000000000000000e+02 6.940000000000000000e+02 6.950000000000000000e+02 6.960000000000000000e+02 6.970000000000000000e+02 6.980000000000000000e+02 6.990000000000000000e+02 7.000000000000000000e+02 7.010000000000000000e+02 7.020000000000000000e+02 7.030000000000000000e+02 7.040000000000000000e+02 7.050000000000000000e+02 7.060000000000000000e+02 7.070000000000000000e+02 7.080000000000000000e+02 7.090000000000000000e+02 7.100000000000000000e+02 7.110000000000000000e+02 7.120000000000000000e+02 7.130000000000000000e+02 7.140000000000000000e+02 7.150000000000000000e+02 7.160000000000000000e+02 7.170000000000000000e+02 7.180000000000000000e+02 7.190000000000000000e+02 7.200000000000000000e+02 7.210000000000000000e+02 7.220000000000000000e+02 7.230000000000000000e+02 7.240000000000000000e+02 7.250000000000000000e+02 7.260000000000000000e+02 7.270000000000000000e+02 7.280000000000000000e+02 7.290000000000000000e+02 7.300000000000000000e+02 7.310000000000000000e+02 7.320000000000000000e+02 7.330000000000000000e+02 7.340000000000000000e+02 7.350000000000000000e+02 7.360000000000000000e+02 7.370000000000000000e+02 7.380000000000000000e+02 7.390000000000000000e+02 7.400000000000000000e+02 7.410000000000000000e+02 7.420000000000000000e+02 7.430000000000000000e+02 7.440000000000000000e+02 7.450000000000000000e+02 7.460000000000000000e+02 7.470000000000000000e+02 7.480000000000000000e+02 7.490000000000000000e+02 7.500000000000000000e+02 7.510000000000000000e+02 7.520000000000000000e+02 7.530000000000000000e+02 7.540000000000000000e+02 7.550000000000000000e+02 7.560000000000000000e+02 7.570000000000000000e+02 7.580000000000000000e+02 7.590000000000000000e+02 7.600000000000000000e+02 7.610000000000000000e+02 7.620000000000000000e+02 7.630000000000000000e+02 7.640000000000000000e+02 7.650000000000000000e+02 7.660000000000000000e+02 7.670000000000000000e+02 7.680000000000000000e+02 7.690000000000000000e+02 7.700000000000000000e+02 7.710000000000000000e+02 7.720000000000000000e+02 7.730000000000000000e+02 7.740000000000000000e+02 7.750000000000000000e+02 7.760000000000000000e+02 7.770000000000000000e+02 7.780000000000000000e+02 7.790000000000000000e+02 7.800000000000000000e+02 7.810000000000000000e+02 7.820000000000000000e+02 7.830000000000000000e+02 7.840000000000000000e+02 7.850000000000000000e+02 7.860000000000000000e+02 7.870000000000000000e+02 7.880000000000000000e+02 7.890000000000000000e+02 7.900000000000000000e+02 7.910000000000000000e+02 7.920000000000000000e+02 7.930000000000000000e+02 7.940000000000000000e+02 7.950000000000000000e+02 7.960000000000000000e+02 7.970000000000000000e+02 7.980000000000000000e+02 7.990000000000000000e+02 8.000000000000000000e+02 8.010000000000000000e+02 8.020000000000000000e+02 8.030000000000000000e+02 8.040000000000000000e+02 8.050000000000000000e+02 8.060000000000000000e+02 8.070000000000000000e+02 8.080000000000000000e+02 8.090000000000000000e+02 8.100000000000000000e+02 8.110000000000000000e+02 8.120000000000000000e+02 8.130000000000000000e+02 8.140000000000000000e+02 8.150000000000000000e+02 8.160000000000000000e+02 8.170000000000000000e+02 8.180000000000000000e+02 8.190000000000000000e+02 8.200000000000000000e+02 8.210000000000000000e+02 8.220000000000000000e+02 8.230000000000000000e+02 8.240000000000000000e+02 8.250000000000000000e+02 8.260000000000000000e+02 8.270000000000000000e+02 8.280000000000000000e+02 8.290000000000000000e+02 8.300000000000000000e+02 8.310000000000000000e+02 8.320000000000000000e+02 8.330000000000000000e+02 8.340000000000000000e+02 8.350000000000000000e+02 8.360000000000000000e+02 8.370000000000000000e+02 8.380000000000000000e+02 8.390000000000000000e+02 8.400000000000000000e+02 8.410000000000000000e+02 8.420000000000000000e+02 8.430000000000000000e+02 8.440000000000000000e+02 8.450000000000000000e+02 8.460000000000000000e+02 8.470000000000000000e+02 8.480000000000000000e+02 8.490000000000000000e+02 8.500000000000000000e+02 8.510000000000000000e+02 8.520000000000000000e+02 8.530000000000000000e+02 8.540000000000000000e+02 8.550000000000000000e+02 8.560000000000000000e+02 8.570000000000000000e+02 8.580000000000000000e+02 8.590000000000000000e+02 8.600000000000000000e+02 8.610000000000000000e+02 8.620000000000000000e+02 8.630000000000000000e+02 8.640000000000000000e+02 8.650000000000000000e+02 8.660000000000000000e+02 8.670000000000000000e+02 8.680000000000000000e+02 8.690000000000000000e+02 8.700000000000000000e+02 8.710000000000000000e+02 8.720000000000000000e+02 8.730000000000000000e+02 8.740000000000000000e+02 8.750000000000000000e+02 8.760000000000000000e+02 8.770000000000000000e+02 8.780000000000000000e+02 8.790000000000000000e+02 8.800000000000000000e+02 8.810000000000000000e+02 8.820000000000000000e+02 8.830000000000000000e+02 8.840000000000000000e+02 8.850000000000000000e+02 8.860000000000000000e+02 8.870000000000000000e+02 8.880000000000000000e+02 8.890000000000000000e+02 8.900000000000000000e+02 8.910000000000000000e+02 8.920000000000000000e+02 8.930000000000000000e+02 8.940000000000000000e+02 8.950000000000000000e+02 8.960000000000000000e+02 8.970000000000000000e+02 8.980000000000000000e+02 8.990000000000000000e+02 9.000000000000000000e+02 9.010000000000000000e+02 9.020000000000000000e+02 9.030000000000000000e+02 9.040000000000000000e+02 9.050000000000000000e+02 9.060000000000000000e+02 9.070000000000000000e+02 9.080000000000000000e+02 9.090000000000000000e+02 9.100000000000000000e+02 9.110000000000000000e+02 9.120000000000000000e+02 9.130000000000000000e+02 9.140000000000000000e+02 9.150000000000000000e+02 9.160000000000000000e+02 9.170000000000000000e+02 9.180000000000000000e+02 9.190000000000000000e+02 9.200000000000000000e+02 9.210000000000000000e+02 9.220000000000000000e+02 9.230000000000000000e+02 9.240000000000000000e+02 9.250000000000000000e+02 9.260000000000000000e+02 9.270000000000000000e+02 9.280000000000000000e+02 9.290000000000000000e+02 9.300000000000000000e+02 9.310000000000000000e+02 9.320000000000000000e+02 9.330000000000000000e+02 9.340000000000000000e+02 9.350000000000000000e+02 9.360000000000000000e+02 9.370000000000000000e+02 9.380000000000000000e+02 9.390000000000000000e+02 9.400000000000000000e+02 9.410000000000000000e+02 9.420000000000000000e+02 9.430000000000000000e+02 9.440000000000000000e+02 9.450000000000000000e+02 9.460000000000000000e+02 9.470000000000000000e+02 9.480000000000000000e+02 9.490000000000000000e+02 9.500000000000000000e+02 9.510000000000000000e+02 9.520000000000000000e+02 9.530000000000000000e+02 9.540000000000000000e+02 9.550000000000000000e+02 9.560000000000000000e+02 9.570000000000000000e+02 9.580000000000000000e+02 9.590000000000000000e+02 9.600000000000000000e+02 9.610000000000000000e+02 9.620000000000000000e+02 9.630000000000000000e+02 9.640000000000000000e+02 9.650000000000000000e+02 9.660000000000000000e+02 9.670000000000000000e+02 9.680000000000000000e+02 9.690000000000000000e+02 9.700000000000000000e+02 9.710000000000000000e+02 9.720000000000000000e+02 9.730000000000000000e+02 9.740000000000000000e+02 9.750000000000000000e+02 9.760000000000000000e+02 9.770000000000000000e+02 9.780000000000000000e+02 9.790000000000000000e+02 9.800000000000000000e+02 9.810000000000000000e+02 9.820000000000000000e+02 9.830000000000000000e+02 9.840000000000000000e+02 9.850000000000000000e+02 9.860000000000000000e+02 9.870000000000000000e+02 9.880000000000000000e+02 9.890000000000000000e+02 9.900000000000000000e+02 9.910000000000000000e+02 9.920000000000000000e+02 9.930000000000000000e+02 9.940000000000000000e+02 9.950000000000000000e+02 9.960000000000000000e+02 9.970000000000000000e+02 9.980000000000000000e+02 9.990000000000000000e+02 1.000000000000000000e+03
1.000000000000000021e-02 1.000000000000000021e-02 1.000000000000000021e-02 1.000000000000000021e-02 1.000000000000000021e-02 1.000000000000000021e-02 1.000000000000000021e-02 1.000000000000000021e-02 1.000000000000000021e-02 1.000000000000000021e-02 1.000000000000000021e-02 1.000000000000000021e-02 1.000000000000000021e-02 1.000000000000000021e-02 1.000000000000000021e-02 1.000000000000000021e-02 1.000000000000000021e-02 1.000000000000000021e-02 1.000000000000000021e-02 1.000000000000000021e-02 1.000000000000000021e-02 1.000000000000000021e-02 1.000000000000000021e-02 1.000000000000000021e-02 1.000000000000000021e-02 1.000000000000000021e-02 1.000000000000000021e-02 1.000000000000000021e-02 1.000000000000000021e-02 1.000000000000000021e-02 1.000000000000000021e-02 1.000000000000000021e-02 1.000000000000000021e-02 1.000000000000000021e-02 1.000000000000000021e-02 1.000000000000000021e-02 1.000000000000000021e-02 1.000000000000000021e-02 1.000000000000000021e-02 1.000000000000000021e-02 1.000000000000000021e-02 1.000000000000000021e-02 1.000000000000000021e-02 1.000000000000000021e-02 1.000000000000000021e-02 1.000000000000000021e-02 1.000000000000000021e-02 1.000000000000000021e-02 1.000000000000000021e-02 1.000000000000000021e-02 1.000000000000000021e-02 1.000000000000000021e-02 1.000000000000000021e-02 1.000000000000000021e-02 1.000000000000000021e-02 1.000000000000000021e-02 1.000000000000000021e-02 1.000000000000000021e-02 1.000000000000000021e-02 1.000000000000000021e-02 1.000000000000000021e-02 1.000000000000000021e-02 1.000000000000000021e-02 1.000000000000000021e-02 1.000000000000000021e-02 1.000000000000000021e-02 1.000000000000000021e-02 1.000000000000000021e-02 1.000000000000000021e-02 1.000000000000000021e-02 1.000000000000000021e-02 1.000000000000000021e-02 1.000000000000000021e-02 1.000000000000000021e-02 1.000000000000000021e-02 1.000000000000000021e-02 1.000000000000000021e-02 1.000000000000000021e-02 1.000000000000000021e-02 1.000000000000000021e-02 1.000000000000000021e-02 1.000000000000000021e-02 1.000000000000000021e-02 1.000000000000000021e-02 1.000000000000000021e-02 1.000000000000000021e-02 1.000000000000000021e-02 1.000000000000000021e-02 1.000000000000000021e-02 1.000000000000000021e-02 1.000000000000000021e-02 1.000000000000000021e-02 1.000000000000000021e-02 1.000000000000000021e-02 1.000000000000000021e-02 1.000000000000000021e-02 1.000000000000000021e-02 1.000000000000000021e-02 1.000000000000000021e-02 1.000000000000000021e-02 1.000000000000000021e-02 1.000000000000000021e-02 1.000000000000000021e-02 1.000000000000000021e-02 1.000000000000000021e-02 1.000000000000000021e-02 1.000000000000000021e-02 1.000000000000000021e-02 1.000000000000000021e-02 1.000000000000000021e-02 1.000000000000000021e-02 1.000000000000000021e-02 1.000000000000000021e-02 1.000000000000000021e-02 1.000000000000000021e-02 1.000000000000000021e-02 1.000000000000000021e-02 1.000000000000000021e-02 1.000000000000000021e-02 1.000000000000000021e-02 1.000000000000000021e-02 1.000000000000000021e-02 1.000000000000000021e-02 1.000000000000000021e-02 1.000000000000000021e-02 1.000000000000000021e-02 1.000000000000000021e-02 1.000000000000000021e-02 1.000000000000000021e-02 1.000000000000000021e-02 1.000000000000000021e-02 1.000000000000000021e-02 1.000000000000000021e-02 1.000000000000000021e-02 1.000000000000000021e-02 1.000000000000000021e-02 1.000000000000000021e-02 1.000000000000000021e-02 1.000000000000000021e-02 1.000000000000000021e-02 1.000000000000000021e-02 1.000000000000000021e-02 1.000000000000000021e-02 1.000000000000000021e-02 1.000000000000000021e-02 1.000000000000000021e-02 1.000000000000000021e-02 1.000000000000000021e-02 1.000000000000000021e-02 1.000000000000000021e-02 1.000000000000000021e-02 1.000000000000000021e-02 1.000000000000000021e-02 1.000000000000000021e-02 1.000000000000000021e-02 1.000000000000000021e-02 1.000000000000000021e-02 1.000000000000000021e-02 1.000000000000000021e-02 1.000000000000000021e-02 1.000000000000000021e-02 1.000000000000000021e-02 1.000000000000000021e-02 1.000000000000000021e-02 1.000000000000000021e-02 1.000000000000000021e-02 1.000000000000000021e-02 1.000000000000000021e-02 1.000000000000000021e-02 1.000000000000000021e-02 1.000000000000000021e-02 1.000000000000000021e-02 1.000000000000000021e-02 1.000000000000000021e-02 1.000000000000000021e-02 1.000000000000000021e-02 1.000000000000000021e-02 1.000000000000000021e-02 1.000000000000000021e-02 1.000000000000000021e-02 1.000000000000000021e-02 1.000000000000000021e-02 1.000000000000000021e-02 1.000000000000000021e-02 1.000000000000000021e-02 1.000000000000000021e-02 1.000000000000000021e-02 1.000000000000000021e-02 1.000000000000000021e-02 1.000000000000000021e-02 1.000000000000000021e-02 1.000000000000000021e-02 1.000000000000000021e-02 1.000000000000000021e-02 1.000000000000000021e-02 1.000000000000000021e-02 1.000000000000000021e-02 1.000000000000000021e-02 1.000000000000000021e-02 1.000000000000000021e-02 1.000000000000000021e-02 1.000000000000000021e-02 1.000000000000000021e-02 1.000000000000000021e-02 1.000000000000000021e-02 1.000000000000000021e-02 1.000000000000000021e-02 1.000000000000000021e-02 1.000000000000000021e-02 1.000000000000000021e-02 1.000000000000000021e-02 1.000000000000000021e-02 1.000000000000000021e-02 1.000000000000000021e-02 1.000000000000000021e-02 1.000000000000000021e-02 1.000000000000000021e-02 1.000000000000000021e-02 1.000000000000000021e-02 1.000000000000000021e-02 1.000000000000000021e-02 1.000000000000000021e-02 1.000000000000000021e-02 1.000000000000000021e-02 1.000000000000000021e-02 1.000000000000000021e-02 1.000000000000000021e-02 1.000000000000000021e-02 1.000000000000000021e-02 1.000000000000000021e-02 1.000000000000000021e-02 1.000000000000000021e-02 1.000000000000000021e-02 1.000000000000000021e-02 1.000000000000000021e-02 1.000000000000000021e-02 1.000000000000000021e-02 1.000000000000000021e-02 1.000000000000000021e-02 1.000000000000000021e-02 1.000000000000000021e-02 1.000000000000000021e-02 1.000000000000000021e-02 1.000000000000000021e-02 1.000000000000000021e-02 1.000000000000000021e-02 1.000000000000000021e-02 1.000000000000000021e-02 1.000000000000000021e-02 1.000000000000000021e-02 1.000000000000000021e-02 1.000000000000000021e-02 1.000000000000000021e-02 1.000000000000000021e-02 1.000000000000000021e-02 1.000000000000000021e-02 1.000000000000000021e-02 1.000000000000000021e-02 1.000000000000000021e-02 1.000000000000000021e-02 1.000000000000000021e-02 1.000000000000000021e-02 1.000000000000000021e-02 1.000000000000000021e-02 1.000000000000000021e-02 1.000000000000000021e-02 1.000000000000000021e-02 1.000000000000000021e-02 1.000000000000000021e-02 1.000000000000000021e-02 1.000000000000000021e-02 1.000000000000000021e-02 1.000000000000000021e-02 1.000000000000000021e-02 1.000000000000000021e-02 1.000000000000000021e-02 1.000000000000000021e-02 1.000000000000000021e-02 1.000000000000000021e-02 1.000000000000000021e-02 1.000000000000000021e-02 1.000000000000000021e-02 1.000000000000000021e-02 1.000000000000000021e-02 1.000000000000000021e-02 1.000000000000000021e-02 1.000000000000000021e-02 1.000000000000000021e-02 1.000000000000000021e-02 1.000000000000000021e-02 1.000000000000000021e-02 1.000000000000000021e-02 1.000000000000000021e-02 1.000000000000000021e-02 1.000000000000000021e-02 1.000000000000000021e-02 1.000000000000000021e-02 1.000000000000000021e-02 1.000000000000000021e-02 1.000000000000000021e-02 1.000000000000000021e-02 1.000000000000000021e-02 1.000000000000000021e-02 1.000000000000000021e-02 1.000000000000000021e-02 1.000000000000000021e-02 1.000000000000000021e-02 1.000000000000000021e-02 1.000000000000000021e-02 1.000000000000000021e-02 1.000000000000000021e-02 1.000000000000000021e-02 1.000000000000000021e-02 1.000000000000000021e-02 1.000000000000000021e-02 1.000000000000000021e-02 1.000000000000000021e-02 1.000000000000000021e-02 1.000000000000000021e-02 1.000000000000000021e-02 1.000000000000000021e-02 1.000000000000000021e-02 1.000000000000000021e-02 1.000000000000000021e-02 1.000000000000000021e-02 1.000000000000000021e-02 1.000000000000000021e-02 1.000000000000000021e-02 1.000000000000000021e-02 1.000000000000000021e-02 1.000000000000000021e-02 1.000000000000000021e-02 1.000000000000000021e-02 1.000000000000000021e-02 1.000000000000000021e-02 1.000000000000000021e-02 1.000000000000000021e-02 1.000000000000000021e-02 1.000000000000000021e-02 1.000000000000000021e-02 1.000000000000000021e-02 1.000000000000000021e-02 1.000000000000000021e-02 1.000000000000000021e-02 1.000000000000000021e-02 1.000000000000000021e-02 1.000000000000000021e-02 1.000000000000000021e-02 1.000000000000000021e-02 1.000000000000000021e-02 1.000000000000000021e-02 1.000000000000000021e-02 1.000000000000000021e-02 1.000000000000000021e-02 1.000000000000000021e-02 1.000000000000000021e-02 1.000000000000000021e-02 1.000000000000000021e-02 1.000000000000000021e-02 1.000000000000000021e-02 1.000000000000000021e-02 1.000000000000000021e-02 1.000000000000000021e-02 1.000000000000000021e-02 1.000000000000000021e-02 1.000000000000000021e-02 1.000000000000000021e-02 1.000000000000000021e-02 1.000000000000000021e-02 1.000000000000000021e-02 1.000000000000000021e-02 1.000000000000000021e-02 1.000000000000000021e-02 1.000000000000000021e-02 1.000000000000000021e-02 1.000000000000000021e-02 1.000000000000000021e-02 1.000000000000000021e-02 1.000000000000000021e-02 1.000000000000000021e-02 1.000000000000000021e-02 1.000000000000000021e-02 1.000000000000000021e-02 1.000000000000000021e-02 1.000000000000000021e-02 1.000000000000000021e-02 1.000000000000000021e-02 1.000000000000000021e-02 1.000000000000000021e-02 1.000000000000000021e-02 1.000000000000000021e-02 1.000000000000000021e-02 1.000000000000000021e-02 1.000000000000000021e-02 1.000000000000000021e-02 1.000000000000000021e-02 1.000000000000000021e-02 1.000000000000000021e-02 1.000000000000000021e-02 1.000000000000000021e-02 1.000000000000000021e-02 1.000000000000000021e-02 1.000000000000000021e-02 1.000000000000000021e-02 1.000000000000000021e-02 1.000000000000000021e-02 1.000000000000000021e-02 1.000000000000000021e-02 1.000000000000000021e-02 1.000000000000000021e-02 1.000000000000000021e-02 1.000000000000000021e-02 1.000000000000000021e-02 1.000000000000000021e-02 1.000000000000000021e-02 1.000000000000000021e-02 1.000000000000000021e-02 1.000000000000000021e-02 1.000000000000000021e-02 1.000000000000000021e-02 1.000000000000000021e-02 1.000000000000000021e-02 1.000000000000000021e-02 1.000000000000000021e-02 1.000000000000000021e-02 1.000000000000000021e-02 1.000000000000000021e-02 1.000000000000000021e-02 1.000000000000000021e-02 1.000000000000000021e-02 1.000000000000000021e-02 1.000000000000000021e-02 1.000000000000000021e-02 1.000000000000000021e-02 1.000000000000000021e-02 1.000000000000000021e-02 1.000000000000000021e-02 1.000000000000000021e-02 1.000000000000000021e-02 1.000000000000000021e-02 1.000000000000000021e-02 1.000000000000000021e-02 1.000000000000000021e-02 1.000000000000000021e-02 1.000000000000000021e-02 1.000000000000000021e-02 1.000000000000000021e-02 1.000000000000000021e-02 1.000000000000000021e-02 1.000000000000000021e-02 1.000000000000000021e-02 1.000000000000000021e-02 1.000000000000000021e-02 1.000000000000000021e-02 1.000000000000000021e-02 1.000000000000000021e-02 1.000000000000000021e-02 1.000000000000000021e-02 1.000000000000000021e-02 1.000000000000000021e-02 1.000000000000000021e-02 1.000000000000000021e-02 1.000000000000000021e-02 1.000000000000000021e-02 1.000000000000000021e-02 1.000000000000000021e-02 1.000000000000000021e-02 1.000000000000000021e-02 1.000000000000000021e-02 1.000000000000000021e-02 1.000000000000000021e-02 1.000000000000000021e-02 1.000000000000000021e-02 1.000000000000000021e-02 1.000000000000000021e-02 1.000000000000000021e-02 1.000000000000000021e-02 1.000000000000000021e-02 1.000000000000000021e-02 1.000000000000000021e-02 1.000000000000000021e-02 1.000000000000000021e-02 1.000000000000000021e-02 1.000000000000000021e-02 1.000000000000000021e-02 1.000000000000000021e-02 1.000000000000000021e-02 1.000000000000000021e-02 1.000000000000000021e-02 1.000000000000000021e-02 1.000000000000000021e-02 1.000000000000000021e-02 1.000000000000000021e-02 1.000000000000000021e-02 1.000000000000000021e-02 1.000000000000000021e-02 1.000000000000000021e-02 1.000000000000000021e-02 1.000000000000000021e-02 1.000000000000000021e-02 1.000000000000000021e-02 1.000000000000000021e-02 1.000000000000000021e-02 1.000000000000000021e-02 1.000000000000000021e-02 1.000000000000000021e-02 1.000000000000000021e-02 1.000000000000000021e-02 1.000000000000000021e-02 1.000000000000000021e-02 1.000000000000000021e-02 1.000000000000000021e-02 1.000000000000000021e-02 1.000000000000000021e-02 1.000000000000000021e-02 1.000000000000000021e-02 1.000000000000000021e-02 1.000000000000000021e-02 1.000000000000000021e-02 1.000000000000000021e-02 1.000000000000000021e-02 1.000000000000000021e-02 1.000000000000000021e-02 1.000000000000000021e-02 1.000000000000000021e-02 1.000000000000000021e-02 1.000000000000000021e-02 1.000000000000000021e-02 1.000000000000000021e-02 1.000000000000000021e-02 1.000000000000000021e-02 1.000000000000000021e-02 1.000000000000000021e-02 1.000000000000000021e-02 1.000000000000000021e-02 1.000000000000000021e-02 1.000000000000000021e-02 1.000000000000000021e-02 1.000000000000000021e-02 1.000000000000000021e-02 1.000000000000000021e-02 1.000000000000000021e-02 1.000000000000000021e-02 1.000000000000000021e-02 1.000000000000000021e-02 1.000000000000000021e-02 1.000000000000000021e-02 1.000000000000000021e-02 1.000000000000000021e-02 1.000000000000000021e-02 1.000000000000000021e-02 1.000000000000000021e-02 1.000000000000000021e-02 1.000000000000000021e-02 1.000000000000000021e-02 1.000000000000000021e-02 1.000000000000000021e-02 1.000000000000000021e-02 1.000000000000000021e-02 1.000000000000000021e-02 1.000000000000000021e-02 1.000000000000000021e-02 1.000000000000000021e-02 1.000000000000000021e-02 1.000000000000000021e-02 1.000000000000000021e-02 1.000000000000000021e-02 1.000000000000000021e-02 1.000000000000000021e-02 1.000000000000000021e-02 1.000000000000000021e-02 1.000000000000000021e-02 1.000000000000000021e-02 1.000000000000000021e-02 1.000000000000000021e-02 1.000000000000000021e-02 1.000000000000000021e-02 1.000000000000000021e-02 1.000000000000000021e-02 1.000000000000000021e-02 1.000000000000000021e-02 1.000000000000000021e-02 1.000000000000000021e-02 1.000000000000000021e-02 1.000000000000000021e-02 1.000000000000000021e-02 1.000000000000000021e-02 1.000000000000000021e-02 1.000000000000000021e-02 1.000000000000000021e-02 1.000000000000000021e-02 1.000000000000000021e-02 1.000000000000000021e-02 1.000000000000000021e-02 1.000000000000000021e-02 1.000000000000000021e-02 1.000000000000000021e-02 1.000000000000000021e-02 1.000000000000000021e-02 1.000000000000000021e-02 1.000000000000000021e-02 1.000000000000000021e-02 1.000000000000000021e-02 1.000000000000000021e-02 1.000000000000000021e-02 1.000000000000000021e-02 1.000000000000000021e-02 1.000000000000000021e-02 1.000000000000000021e-02 1.000000000000000021e-02 1.000000000000000021e-02 1.000000000000000021e-02 1.000000000000000021e-02 1.000000000000000021e-02 1.000000000000000021e-02 1.000000000000000021e-02 1.000000000000000021e-02 1.000000000000000021e-02 1.000000000000000021e-02 1.000000000000000021e-02 1.000000000000000021e-02 1.000000000000000021e-02 1.000000000000000021e-02 1.000000000000000021e-02 1.000000000000000021e-02 1.000000000000000021e-02 1.000000000000000021e-02 1.000000000000000021e-02 1.000000000000000021e-02 1.000000000000000021e-02 1.000000000000000021e-02 1.000000000000000021e-02 1.000000000000000021e-02 1.000000000000000021e-02 1.000000000000000021e-02 1.000000000000000021e-02 1.000000000000000021e-02 1.000000000000000021e-02 1.000000000000000021e-02 1.000000000000000021e-02 1.000000000000000021e-02 1.000000000000000021e-02 1.000000000000000021e-02 1.000000000000000021e-02 1.000000000000000021e-02 1.000000000000000021e-02 1.000000000000000021e-02 1.000000000000000021e-02 1.000000000000000021e-02 1.000000000000000021e-02 1.000000000000000021e-02 1.000000000000000021e-02 1.000000000000000021e-02 1.000000000000000021e-02 1.000000000000000021e-02 1.000000000000000021e-02 1.000000000000000021e-02 1.000000000000000021e-02 1.000000000000000021e-02 1.000000000000000021e-02 1.000000000000000021e-02 1.000000000000000021e-02 1.000000000000000021e-02 1.000000000000000021e-02 1.000000000000000021e-02 1.000000000000000021e-02 1.000000000000000021e-02 1.000000000000000021e-02 1.000000000000000021e-02 1.000000000000000021e-02 1.000000000000000021e-02 1.000000000000000021e-02 1.000000000000000021e-02 1.000000000000000021e-02 1.000000000000000021e-02 1.000000000000000021e-02 1.000000000000000021e-02 1.000000000000000021e-02 1.000000000000000021e-02 1.000000000000000021e-02 1.000000000000000021e-02 1.000000000000000021e-02 1.000000000000000021e-02 1.000000000000000021e-02 1.000000000000000021e-02 1.000000000000000021e-02 1.000000000000000021e-02 1.000000000000000021e-02 1.000000000000000021e-02 1.000000000000000021e-02 1.000000000000000021e-02 1.000000000000000021e-02 1.000000000000000021e-02 1.000000000000000021e-02 1.000000000000000021e-02 1.000000000000000021e-02 1.000000000000000021e-02 1.000000000000000021e-02 1.000000000000000021e-02 1.000000000000000021e-02 1.000000000000000021e-02 1.000000000000000021e-02 1.000000000000000021e-02 1.000000000000000021e-02 1.000000000000000021e-02 1.000000000000000021e-02 1.000000000000000021e-02 1.000000000000000021e-02 1.000000000000000021e-02 1.000000000000000021e-02 1.000000000000000021e-02 1.000000000000000021e-02 1.000000000000000021e-02 1.000000000000000021e-02 1.000000000000000021e-02 1.000000000000000021e-02 1.000000000000000021e-02 1.000000000000000021e-02 1.000000000000000021e-02 1.000000000000000021e-02 1.000000000000000021e-02 1.000000000000000021e-02 1.000000000000000021e-02 1.000000000000000021e-02 1.000000000000000021e-02 1.000000000000000021e-02 1.000000000000000021e-02 1.000000000000000021e-02 1.000000000000000021e-02 1.000000000000000021e-02 1.000000000000000021e-02 1.000000000000000021e-02 1.000000000000000021e-02 1.000000000000000021e-02 1.000000000000000021e-02 1.000000000000000021e-02 1.000000000000000021e-02 1.000000000000000021e-02 1.000000000000000021e-02 1.000000000000000021e-02 1.000000000000000021e-02 1.000000000000000021e-02 1.000000000000000021e-02 1.000000000000000021e-02 1.000000000000000021e-02 1.000000000000000021e-02 1.000000000000000021e-02 1.000000000000000021e-02 1.000000000000000021e-02 1.000000000000000021e-02 1.000000000000000021e-02 1.000000000000000021e-02 1.000000000000000021e-02 1.000000000000000021e-02 1.000000000000000021e-02 1.000000000000000021e-02 1.000000000000000021e-02 1.000000000000000021e-02 1.000000000000000021e-02 1.000000000000000021e-02 1.000000000000000021e-02 1.000000000000000021e-02 1.000000000000000021e-02 1.000000000000000021e-02 1.000000000000000021e-02 1.000000000000000021e-02 1.000000000000000021e-02 1.000000000000000021e-02 1.000000000000000021e-02 1.000000000000000021e-02 1.000000000000000021e-02 1.000000000000000021e-02 1.000000000000000021e-02 1.000000000000000021e-02 1.000000000000000021e-02 1.000000000000000021e-02 1.000000000000000021e-02 1.000000000000000021e-02 1.000000000000000021e-02 1.000000000000000021e-02 1.000000000000000021e-02 1.000000000000000021e-02 1.000000000000000021e-02 1.000000000000000021e-02 1.000000000000000021e-02 1.000000000000000021e-02 1.000000000000000021e-02 1.000000000000000021e-02 1.000000000000000021e-02 1.000000000000000021e-02 1.000000000000000021e-02 1.000000000000000021e-02 1.000000000000000021e-02 1.000000000000000021e-02 1.000000000000000021e-02 1.000000000000000021e-02 1.000000000000000021e-02 1.000000000000000021e-02 1.000000000000000021e-02 1.000000000000000021e-02 1.000000000000000021e-02 1.000000000000000021e-02 1.000000000000000021e-02 1.000000000000000021e-02 1.000000000000000021e-02 1.000000000000000021e-02 1.000000000000000021e-02 1.000000000000000021e-02 1.000000000000000021e-02 1.000000000000000021e-02 1.000000000000000021e-02 1.000000000000000021e-02 1.000000000000000021e-02 1.000000000000000021e-02 1.000000000000000021e-02 1.000000000000000021e-02 1.000000000000000021e-02 1.000000000000000021e-02 1.000000000000000021e-02 1.000000000000000021e-02 1.000000000000000021e-02 1.000000000000000021e-02 1.000000000000000021e-02 1.000000000000000021e-02 1.000000000000000021e-02 1.000000000000000021e-02 1.000000000000000021e-02 1.000000000000000021e-02 1.000000000000000021e-02 1.000000000000000021e-02 1.000000000000000021e-02 1.000000000000000021e-02 1.000000000000000021e-02 1.000000000000000021e-02 1.000000000000000021e-02 1.000000000000000021e-02 1.000000000000000021e-02 1.000000000000000021e-02 1.000000000000000021e-02 1.000000000000000021e-02 1.000000000000000021e-02 1.000000000000000021e-02 1.000000000000000021e-02 1.000000000000000021e-02 1.000000000000000021e-02 1.000000000000000021e-02 1.000000000000000021e-02 1.000000000000000021e-02 1.000000000000000021e-02 1.000000000000000021e-02 1.000000000000000021e-02 1.000000000000000021e-02 1.000000000000000021e-02 1.000000000000000021e-02 1.000000000000000021e-02 1.000000000000000021e-02 1.000000000000000021e-02 1.000000000000000021e-02 1.000000000000000021e-02 1.000000000000000021e-02 1.000000000000000021e-02 1.000000000000000021e-02 1.000000000000000021e-02 1.000000000000000021e-02 1.000000000000000021e-02 1.000000000000000021e-02 1.000000000000000021e-02 1.000000000000000021e-02 1.000000000000000021e-02 1.000000000000000021e-02 1.000000000000000021e-02 1.000000000000000021e-02 1.000000000000000021e-02 1.000000000000000021e-02 1.000000000000000021e-02 1.000000000000000021e-02 1.000000000000000021e-02 1.000000000000000021e-02 1.000000000000000021e-02 1.000000000000000021e-02 1.000000000000000021e-02 1.000000000000000021e-02 1.000000000000000021e-02 1.000000000000000021e-02 1.000000000000000021e-02 1.000000000000000021e-02 1.000000000000000021e-02 1.000000000000000021e-02 1.000000000000000021e-02 1.000000000000000021e-02 1.000000000000000021e-02 1.000000000000000021e-02 1.000000000000000021e-02 1.000000000000000021e-02 1.000000000000000021e-02 1.000000000000000021e-02 1.000000000000000021e-02 1.000000000000000021e-02 1.000000000000000021e-02 1.000000000000000021e-02 1.000000000000000021e-02 1.000000000000000021e-02 1.000000000000000021e-02 1.000000000000000021e-02 1.000000000000000021e-02 1.000000000000000021e-02 1.000000000000000021e-02 1.000000000000000021e-02 1.000000000000000021e-02 1.000000000000000021e-02 1.000000000000000021e-02 1.000000000000000021e-02 1.000000000000000021e-02 1.000000000000000021e-02 1.000000000000000021e-02 1.000000000000000021e-02 1.000000000000000021e-02 1.000000000000000021e-02 1.000000000000000021e-02 1.000000000000000021e-02 1.000000000000000021e-02 1.000000000000000021e-02 1.000000000000000021e-02 1.000000000000000021e-02 1.000000000000000021e-02 1.000000000000000021e-02 1.000000000000000021e-02 1.000000000000000021e-02 1.000000000000000021e-02 1.000000000000000021e-02 1.000000000000000021e-02 1.000000000000000021e-02 1.000000000000000021e-02 1.000000000000000021e-02 1.000000000000000021e-02 1.000000000000000021e-02 1.000000000000000021e-02 1.000000000000000021e-02 1.000000000000000021e-02 1.000000000000000021e-02 1.000000000000000021e-02 1.000000000000000021e-02 1.000000000000000021e-02 1.000000000000000021e-02 1.000000000000000021e-02 1.000000000000000021e-02 1.000000000000000021e-02 1.000000000000000021e-02 1.000000000000000021e-02 1.000000000000000021e-02 1.000000000000000021e-02 1.000000000000000021e-02 1.000000000000000021e-02 1.000000000000000021e-02 1.000000000000000021e-02 1.000000000000000021e-02 1.000000000000000021e-02 1.000000000000000021e-02 1.000000000000000021e-02 1.000000000000000021e-02 1.000000000000000021e-02 1.000000000000000021e-02 1.000000000000000021e-02 1.000000000000000021e-02 1.000000000000000021e-02 1.000000000000000021e-02 1.000000000000000021e-02 1.000000000000000021e-02 1.000000000000000021e-02 1.000000000000000021e-02 1.000000000000000021e-02 1.000000000000000021e-02 1.000000000000000021e-02 1.000000000000000021e-02 1.000000000000000021e-02 1.000000000000000021e-02 1.000000000000000021e-02 1.000000000000000021e-02 1.000000000000000021e-02 1.000000000000000021e-02 1.000000000000000021e-02 1.000000000000000021e-02 1.000000000000000021e-02 1.000000000000000021e-02 1.000000000000000021e-02 1.000000000000000021e-02 1.000000000000000021e-02 1.000000000000000021e-02 1.000000000000000021e-02 1.000000000000000021e-02 1.000000000000000021e-02 1.000000000000000021e-02 1.000000000000000021e-02 1.000000000000000021e-02 1.000000000000000021e-02 1.000000000000000021e-02 1.000000000000000021e-02 1.000000000000000021e-02 1.000000000000000021e-02 1.000000000000000021e-02
-1.103698213390280216e+02 1.678027497634597580e+02 3.890268335943570577e+01 -8.741456386749360874e+00 -8.693542191519770768e+01 -1.324667811114544236e+01 -2.056987731936865487e+02 6.872426549871383239e-01 -8.380953838278975354e+01 -1.392999367703028568e+01 -1.962701150653692039e+01 6.459743464035366145e+00 -1.762920975059530715e+00 1.660020541222984889e+02 8.372180647428805855e+01 -3.838148277259301722e+01 -5.224897499443034121e+01 7.837481644102143719e+01 3.247672867394246765e+01 -2.510549043590449614e+01 -7.800606249577755591e+01 -7.301650819046632535e+01 -1.365428531324413797e+01 2.862612401585658262e+01 -1.928478016509498048e+02 -9.767800829404093577e+01 -2.581385114518178270e+01 1.994870494442838833e+02 7.001241066435065363e+01 7.592154344487418882e+01 7.944568443589156459e+01 1.170620904862064604e+00 -7.842551820874207635e+01 2.052632196456588360e+02 -2.422708157642163087e+02 5.822513055496992962e+01 -1.188582896313964739e+02 -3.431860647642107409e+01 3.992793908541355741e+00 1.253752299044022607e+02 -1.215985147447689201e+02 -1.349572249916025335e+01 7.653332556902067552e+01 1.717729666531988642e+02 7.059408794663322340e+01 -6.768104641807407518e+01 4.077126673160464776e+01 -2.808886178278571677e+01 -6.536804600078519911e+01 1.549391398143810079e+02 -6.979890585998492725e+01 -5.155719061693218919e+01 -1.378806151856625775e+02 5.715499101140038896e+00 -4.999933230454139732e+01 3.826485607773035014e+01 -8.779857929843481656e+01 -4.953145388714283825e+01 -1.003466478458858404e+02 -1.538236932979663720e+02 1.923935028362841493e+01 4.489979200392675551e+01 -1.218413706769029403e+02 1.272062957749560930e+01 -7.845534528071999603e+01 4.860940521764528199e+01 1.649085883317881098e+02 -1.427670795466451068e+02 -4.285363952428897960e+01 7.129599973138364355e+00 2.902614281012369624e+00 4.194517401496179332e+01 8.311067925929049238e+01 8.424833454864684157e-01 -8.721879149836235356e+00 -6.929466298042594019e+01 7.744492601163045720e+01 -3.241128117434097078e+01 2.602738846857687349e+01 1.029421505563553154e+02 8.730139421360175334e+01 -4.231887483227485802e+01 5.718929684864067298e+01 1.459086956332122611e+02 1.150109223215062286e+02 -3.971643142528705095e+00 1.724000484908318924e+02 -1.103699422624129483e+02 4.144965919620658745e+00 -4.150555676273549466e+01 2.046941167758765516e+02 -2.100438029797459194e+01 2.858767592368805843e+00 -7.599120174469909728e+01 -7.068120976221450746e+00 -6.317563944178147040e+01 6.707808313471453232e+01 -9.357943740131594268e+01 6.788886788644175851e+01 -4.726457585119069194e+01 -4.924276744415085716e+01 -9.071845496980023427e+01 5.253266269098043040e+01 -5.413917721707306896e+01 -1.477928362775978997e+02 -7.864400082129741065e+01 -1.035328094586657528e+02 -1.556093500013459163e+02 1.345354641658632033e+02 -2.719457744103147689e+01 3.170666052147277014e+01 8.874416742035980121e+01 -1.029878383270594213e+02 5.637392882587941045e+01 -4.287321518156696953e+01 -6.864868959157641370e+01 -8.917888868639423094e+01 2.011544772483938175e+02 -5.615680374702765221e+01 -4.899506291963170668e+01 -4.670905397023146577e+01 7.957200605470187327e+01 -4.098842375103418334e+01 1.365578168647631401e+02 -4.938391438047683124e+01 5.454476230809042647e+01 4.496042873268750739e+00 -8.028173168418737760e+01 6.809507075973351675e+01 2.745463410491750551e+02 -9.109963094156420027e+01 4.699753944560145413e+01 -7.547570900123646709e+01 4.477987415164382412e+01 1.298653602082347902e+02 -5.088157565285759176e+01 1.445527007247401663e+01 -2.666365664770586363e+01 -1.009236102357209575e+02 -1.714924822457461318e+01 4.247568793443400104e+00 -7.737294213899468254e+00 -1.479838579724127356e+01 1.170452832126637048e+02 1.290827500207543039e+02 1.846315096928045705e+02 -3.013622010902533361e+02 3.783453660164810373e+01 -1.560943185017076118e+01 -6.174418442706009813e+01 1.786146933641123269e+02 7.545167833040966343e+01 -2.573591561106882697e+00 -1.148543890621360219e+02 -1.078856803906966277e+01 9.915588527598066548e+01 -1.331311523556125849e+02 -1.670609329548835831e+02 1.063790195184772713e+01 4.203721966413990430e+01 -6.047225686435950820e+01 4.165815257633277469e+01 -1.061179016223908178e+02 -1.499640717338842535e+02 2.091377244204039698e+01 4.815158718730954490e+01 4.771873684846738684e+00 -8.274140833411472329e+01 -9.278676715466338010e+01 -8.358775741823654926e+01 -8.681733491449112705e+01 1.254198683742330189e+01 5.636448792502643101e+01 1.155735928160824244e+02 7.879835197350656983e+01 8.881748146413845291e+01 1.066482706026081075e+02 -7.422599134166740953e+01 -8.190054321744140964e+01 7.001120551956942961e+01 6.802271354263059777e+01 5.881922324818208381e+01 -9.323277651970375501e+00 -9.047326377921730511e+01 5.364300856725407129e+01 -1.779164608375292858e+02 6.676418849009381518e+01 -4.426683409467327834e+01 -9.588443041646914367e+01 7.379980977092402838e+01 -1.705768805661512744e+01 -7.672123323495743819e+01 -5.716920858637940484e+01 -9.116907786512351564e+00 2.415885441832338927e+02 7.654895169332350235e+01 5.461384146074752266e+01 -1.034741933537780341e+02 1.477202446433484226e+02 1.053416678834297793e+00 -9.007581809740746337e+01 1.553303793360690293e+02 -1.536901134389109131e+02 1.573347869584521241e+01 -3.244877727401885892e+01 -2.216302595155780466e+02 -1.345046896418510869e+02 -8.796773393098236227e+01 -2.958667619331675169e+01 -1.202338167959203048e+02 5.813776196275899366e+01 6.554301738901754959e+01 -2.782086131191752898e+01 -1.005981373254417548e+02 1.140548089037771433e+02 1.191980790984758301e+02 4.660843481970945845e+01 1.763651025484373847e+01 2.636859730756602858e+02 4.404955547220897216e+01 -1.205401723660128113e+02 -4.547596635016088840e+01 -1.703896590415795345e+02 3.216640809466552753e+01 1.547322538566152446e+02 -1.497306098610451102e+02 1.329845825130744004e+02 -9.183533943330773752e+01 -1.910102841854136813e+01 -7.879040670864350115e-01 5.338649914803140462e+01 -1.170182924512658218e+01 -2.303383223467479368e+01 -1.904989407904761833e+01 -1.280015530220690607e+02 4.687700895942388257e+01 -3.065650056380748367e+01 -1.308318899354870446e+01 -1.082801248677627015e+01 2.282917725953353454e+02 1.760319480404524768e+02 2.350409718290904664e+02 1.331710646882633284e+02 -8.747719575321723084e+01 7.596085754488370867e+01 2.135357287678798599e+01 4.805797467677075474e+01 -4.011689019513259780e+01 2.581193478375848258e+02 -2.355649290605930446e+01 -1.381913425372768245e+02 -1.510841246721739672e+01 -4.632598178832906655e+01 -7.822398330468789140e+01 4.362274542875838534e+01 -1.183932583907226821e+01 1.838876379444085103e+02 9.337820757457787124e+01 4.132702829927929145e+01 9.908175688711648377e+01 9.559954494183068618e+01 -2.324021063837165002e+01 1.411763606241984519e+02 2.680435537082938424e+01 9.058811792644800676e+01 4.820170445496110290e+01 7.006917496746544849e+00 -1.170547727216050902e+02 -1.171506699153768238e+02 -9.104224492821411729e+01 -1.574380885469826552e+01 8.766881385000394289e+01 -3.098844084884638406e+01 1.000047097506085834e+02 4.431223568532059431e+01 -7.354676268251984084e+01 -3.029411360897151795e+01 -5.925430186704264912e+01 1.776510785822370408e+01 -4.683715278788823611e+01 -1.133136510915493602e+02 1.228986346088153851e+02 1.227172118384322062e+02 -7.985776532295267316e+01 5.485822915447648107e+00 -4.583399142959372341e+01 -3.295625352700012201e+01 -1.147033691096135222e+01 -3.158608433563042794e+01 4.497751746686163443e+01 -1.421388246900116030e+02 -5.344114982366890132e+01 -1.535605956313153797e+02 1.760405762974808113e+02 -2.042923063023248886e+01 5.956492358825958178e+01 1.204634738362816115e+01 1.459343361087828725e+02 4.509731881765558370e+01 3.609145079287879554e+01 1.559664252501498822e+02 -4.976931794374347362e+01 -9.860776300150646989e+01 2.746727742523676952e+01 -1.595931007729591045e+02 -5.393349585274179958e+01 1.033223189088749194e+02 -1.288782511795247672e+02 -3.671329065098132816e+01 9.216746252815683249e+01 -9.536649723871924778e+01 -9.032830728262273112e+01 -8.342015431484176702e+01 -6.440421762268375971e+01 2.513851207107212531e+02 2.000230818782119400e+02 1.039304670178659364e+02 -1.031251034130323063e+02 7.552040507813924819e+01 -6.676304412114272679e+01 -3.160880973372560732e+01 1.675501732927300580e+01 -3.251068227236901009e+01 -9.453283602984882350e+01 -2.790323470352069624e+00 1.489402147470954674e+01 1.096643904965237226e+02 -1.295010799452839478e+02 4.225509841057034777e+01 6.424628889039986746e+01 3.478540903141107066e+01 -9.127337142674268478e+01 -1.495779868086299587e+02 1.945273526376314237e+02 -1.793046618537349346e+01 2.535831182620309576e+01 1.575894069185141575e+02 2.683674621596429688e+01 2.791201782567491563e+01 -4.481676716378458991e+01 8.914056807071831656e+01 -1.371502675990863906e+02 -3.098187360839115456e+01 -6.171871180090701792e+00 -5.370470614179677682e+01 6.285399831805525750e+00 2.139357334838456381e+01 -3.598209614124080957e+01 1.373913181454811649e+01 2.148397793100241984e+02 -2.753776826333139027e+01 -2.813157806511135917e+01 -1.021709504600031693e+02 -1.652176754070901810e+00 -8.114381328862039311e+01 6.419954115446599552e+00 1.126186406930858936e+02 -5.227252146152569878e+01 6.073859566422804335e+00 -5.456780210185868896e+01 3.337901700002461780e+00 8.760215002517327321e+01 -1.163800271384893392e+02 -9.726400210985650574e+01 -1.030324506027023261e+02 7.168785031784780415e+01 8.694300880282428068e+01 -9.266994866171508249e+01 6.290110393210432704e+01 2.593983241370569814e+01 3.885605568129846432e+01 -1.782584370739300539e+01 9.174234588891917497e+01 8.005441365799542552e+01 -7.759295050640125169e+01 1.187329105743935287e+01 8.122633766645289199e+01 7.315698914198684122e+01 -1.997964847318510806e+01 2.507712823489598364e+01 -1.331430157232319402e+02 4.872834970931467069e+01 -3.291024586029416099e+01 -3.280219135991831081e+01 1.738955468579912065e+02 4.762253210108728751e+01 1.206983981918111368e+02 1.917398014936891570e+02 -1.382453343693983925e+02 1.496878235474536325e+02 -6.367849816335685631e+01 -1.356871316819981814e+02 8.265119209515874843e+01 -1.346071393019863365e+02 -2.882587615287577165e+01 5.663670456194728331e+01 8.098388229775233427e+00 -1.688222406196040879e+02 8.458789981632200750e+01 2.532894179577831650e+01 6.937049519479789694e+01 3.643736340464018753e+01 9.508792093178822569e+00 -6.738567741466459893e+01 1.161863337525906417e+02 5.470828264118314621e+01 -6.236963065851593058e+01 -1.016466593516003769e+02 3.908523034839579680e+01 2.580159503225037909e+01 8.272353904284631199e+01 1.844988753186702581e+02 -2.472482937661515123e+01 -1.105902770996042221e+02 -8.504500441348447737e+01 -5.152183274897672760e+01 -4.452947609189402556e+01 -1.473048733327924822e+02 -2.260146933670322156e+01 1.300152958953466396e+02 7.482830414164483557e+01 -1.228473127186038170e+02 -1.504654370387077051e+02 -6.835931423085195036e+01 -7.663769305895347372e+01 1.473509554811695921e+02 -1.711202067357232295e+02 8.688396236451343668e+01 -4.625147975133924838e+00 -4.319490390462790685e+01 1.334793794708180492e+01 9.150847522968746262e+01 4.976540507421988480e+01 1.387306112264647595e+02 -1.597382131532742449e+02 -8.127662392641585143e+01 2.545091653206827687e+01 4.208985444405872300e+01 2.069057686595403993e+02 1.460018466925344001e+02 6.578043011885058888e+01 7.237349559509331698e+01 -3.426581638064187274e+01 1.523792630185769212e+02 -1.800128001491776217e+02 -6.364503205963292487e+01 -5.388203214960299192e+01 -5.198418810065936668e+01 -1.036527233272414179e+02 -1.504466164894478020e+01 -6.888871825094986434e+01 7.143311042931816246e+01 -9.186679288215243488e+00 -5.829300573561613419e+01 -6.249388710483847831e+01 1.808410709569685082e+02 5.922743151642068682e+01 -1.376768879966920522e+01 2.096308025996484616e+02 -1.087255290715628462e+02 -3.545777664498445603e+01 6.719764911545193797e+01 -1.335564487783052201e-01 1.500869021249208046e+01 -1.255260183638576166e+02 1.767979992211290323e+02 -4.914134733658249132e+01 -2.701646179181823371e+01 -1.100619443577370049e+02 1.262492692129783052e+02 9.616735389245336307e+01 -7.775196350900850462e+01 -3.770471863170695315e+01 3.906400623231654379e+01 -1.518213332031402842e+02 -1.675968677877733570e-01 -7.490556814569777089e+01 7.716382985183934728e+00 -1.083898712061399152e+02 -1.589331704775085541e+02 -7.085503292315135582e+01 1.485253894304998141e+02 5.669818198717933200e+01 -8.982365748162762031e+01 8.936271199519521247e+01 3.429787509226289188e+01 8.849735025520828913e+01 -4.219643554585108092e+01 -8.423703047061471239e+01 1.713209743391714142e+02 4.171691512400356316e+01 2.899565253950647303e+01 -7.310576326178514250e+01 -4.236944800302948977e+01 9.551645962634848885e+00 -7.174282835028501282e+00 -1.730305157849213344e+02 -3.464792512555138870e+01 6.447660656670834101e+01 1.117009197879283278e+02 1.558436453379014210e+02 -1.328557842162035740e+01 8.967331111668372046e+01 1.578002976241222939e+02 6.343970945973332931e+01 1.477743144452515480e+02 1.606600520772146012e+01 1.312983597769601829e+02 -8.392528524119138922e+01 5.333320848124104430e+01 2.930972508662744858e+01 7.580642657184280608e+01 -1.061101826356379974e+02 1.978169951790886500e+02 -1.285806502769894450e+02 8.817683036271473895e+01 -1.072320552988327478e+02 4.606752653682274712e+01 1.377528504153830546e+01 9.050584591007630308e+01 -7.349220822270302733e+01 -7.532288378653306893e+01 -1.112357412691733494e+01 8.884189741817841934e+01 -2.950055058929979523e+01 -1.625408466762288739e+01 -1.956765067582818318e+01 4.720196372321741940e+00 9.776785888196245367e+01 -6.230629667683336947e+01 -2.698981943752142065e+00 -1.928277673489775736e+02 1.212398412815691557e+02 -1.240608174540745807e+02 -7.339134441866470127e+01 -2.337996716304681044e+01 -1.072246119066809911e+02 -5.280306873486973984e+01 -5.818722911666758080e+01 -1.954819833955928488e+01 1.353364459583829671e+02 5.369636184444405558e+01 9.974684660268320613e+01 -1.351754891865606112e+02 -1.376374316268536120e+02 -2.846577992946974405e+02 1.014736107181033162e+02 1.035467299772832774e+02 4.201094882291010890e+01 -4.215617513973692354e+01 -3.694428055668859656e+01 -1.824137314029975414e+02 1.451291528241623325e+02 -1.066917888689435614e+02 1.062420662154910644e+02 -1.581409353346987814e+02 -1.421789043091924398e+01 -5.500638887171745495e+01 -1.184608278176825564e+02 -4.579412250961884467e+01 -1.243100307596366250e+01 -9.205352188200743058e+01 -1.028021752381256562e+02 -1.227626477211068945e+01 7.072803113539947617e+01 -1.238094263002933388e+02 -1.555802054586429861e+01 -7.327543954194436537e+01 -1.305646992754440419e+02 6.595695072048560093e+00 9.453526024614626522e+01 1.644761565593178432e+02 -1.894608048035452086e+01 -4.576617268783613213e+01 -1.233923698439039072e+02 -1.626063402475885766e+02 1.031598228649257294e+02 -7.230841364634704860e+01 7.853907677312983537e+01 9.346422635300751125e+00 2.906501846312609416e+01 7.342335087754707956e+01 -8.426384992720227274e+01 8.221024925648819703e+01 1.146360796381257501e+02 1.565929536774775670e+02 -1.159194352706869893e+02 1.033847601430580596e+02 -4.751544595729496478e+01 -9.030929204215752293e+01 2.134296579789084092e+02 4.897258729023513268e+01 8.302328065876440633e+01 2.114096286043438866e+01 -6.288930331221632031e+01 -3.475028871172926159e+01 -2.092624207760859747e+02 1.050738022226629340e+02 8.106491620631607020e+01 -7.529762175852096107e+01 -7.274870102813194706e+01 1.444235983157449255e+02 1.005302266927614312e+02 5.084601104643647318e+01 7.567336210388296536e+01 -7.835031339914833026e+00 1.026485932726699417e+02 -1.030094998715012622e+02 1.853982323112952031e+02 -3.927459910167663537e+01 -1.213542490268803249e+02 -3.748568492760541915e+01 7.136577838629814607e+01 1.465623545970047985e+02 1.282403190169709362e+01 1.729092946299753066e+02 5.192306707455195181e+01 3.344771432420517243e+01 -1.107296092359101607e+02 4.456430716986095319e+01 -1.243614117375027490e+02 4.745325947201020256e+01 3.841162868932430996e+01 -1.227115545336829427e+02 -8.459206197840137520e+01 3.963691078544272983e+01 8.680017188444024256e+00 -2.310285269395841468e+01 4.164864541563689215e+01 -2.128860092955070016e+01 -6.276124350714469813e+01 -2.604807274880539225e+01 -2.232342907661515952e+01 -3.961687159375443912e+01 1.867453768184321561e+01 -8.008839739340815811e+01 1.183251685656313867e+02 -7.391696684071848722e+01 -4.229589694398555366e+00 6.522163675894405799e+01 3.868242966151935303e+00 1.586964185233373037e+01 1.587939629346554504e+01 -1.165122191095997550e+02 -4.390616377671171300e+00 6.470743587238537486e+01 -2.302142670244791418e+02 -8.441998019313665225e+01 -1.121156631185962596e+02 4.356214513786289899e+01 9.570868858395161283e+01 -9.126841176009654077e+01 -1.669927601281094383e+02 -1.841739165157914044e+02 1.985828513244321769e+01 -1.441414363567105568e+02 -6.287564451141984811e+00 1.467386513292869665e+02 -7.051186427002407164e+00 3.690256084321200802e+01 -9.822834580871158039e+01 7.926047045399559465e+01 -1.176200790818653417e+02 -1.529348439053933184e+01 -3.004335221868981876e+01 5.707871761871588490e+01 -8.783484223034450977e+00 1.046989717011426393e+02 -1.209027713924595133e+02 -4.959180463964558783e+01 8.572494189980683643e+01 6.546658525751499269e+01 -8.146905696959467491e+01 -5.381843161937008801e+01 -4.882379594796888966e+01 -2.861153263054616218e+02 1.913004283180824814e+02 7.519991555938192107e+01 -2.330577189190668719e+01 -2.930649279787434835e+01 4.101735893170534553e+01 -8.307737694681321727e+01 9.825163186548546435e+01 5.968048306441576756e+01 8.089378935417130378e+01 -8.296961471230972052e+01 -2.617957138908693082e+01 3.287923326193602946e+01 1.714179247849105536e+01 -4.223466417633390080e+01 1.557172704667064238e+02 -1.704406712825680259e+01 3.489409131312976342e+01 -2.265447874106332620e+02 -8.345357406941455736e+01 -7.209210185654873726e+01 2.268610523274507429e+01 1.075833520382518316e+02 -2.283023453454289324e+02 -1.842800036919335582e+02 2.183776302386962413e+02 -1.041111220192498443e+01 9.463611611080584396e+01 6.175595264891450142e+01 -5.453535775487345916e+01 -1.290551330023993160e+02 -9.374706833188433563e+01 -4.950958049708162889e+01 -3.687003665290228582e+01 -3.857575618351177127e+01 1.591518634586663161e+01 3.661935378941944208e+01 1.643541394813432248e+02 1.213875945806181420e+02 6.853745001754121269e+00 -4.330352191120407035e+00 -1.564102030603216633e+02 1.178693920334349912e+02 1.569400665447731740e+02 -1.018955726468436040e+02 7.262950445316026560e+01 1.712818867651468624e+00 5.409486412639753894e+01 1.235449845105794111e+02 6.988708270205101769e+01 -1.320452336944425156e+02 1.589491451310355785e+01 -2.895165397754604442e+01 1.097808048012002580e+01 -2.279817116623076245e+01 4.468223546217418374e+01 -2.567962702753369513e+02 1.785772392791110974e+02 7.187453298594716600e+00 1.571618751500913049e+02 -1.039570828942456870e+01 1.046993589285673210e+02 7.064651094568505130e+01 -4.142014883116986113e+01 2.951668841841204838e+01 -7.183982178516195916e+01 -8.781188441784792076e+01 -7.112511009716642718e+01 -3.163967181668715867e+01 4.459913747098028836e+01 1.087739759278949236e+02 2.812697315280729882e+01 6.135804083243988316e+01 -1.035356683555805546e+02 -1.354663501701065229e+02 -1.332073836314178550e+01 4.583625380467859145e+01 -4.494076638152154146e+01 9.344430307539838054e+01 5.487798552781029571e+01 -2.732329734586250680e+01 2.959978296391361496e+01 6.067106224902509837e+01 -7.127818770411917626e+01 -1.321952461285877121e+02 1.404650597445794062e+02 7.726492173225653737e+00 4.958693696261716610e+01 -1.476754354929886404e+02 -5.283453689262744746e+01 -4.465620991328200784e-01 -6.507250833070466456e+01 4.223155389505419244e+00 5.571773755057896693e+01 1.845752716067655967e+02 3.874200679418118654e+01 -1.085447689110542058e+01 7.152942916430907871e+01 -4.504634054282191613e+01 -1.079596524354705309e+02 -1.369195968533706207e+02 9.284284056069783020e+00 2.488855465980057957e+01 2.360304185277222189e+01 -5.638997612232814305e+01 1.197996860182075380e+02 -8.015987229371222611e+01 1.272752752758820662e+02 8.659296610728604549e+01 -6.452675100350138848e+01 -8.406284692019431759e+01 8.355956560289818924e+01 2.030056027889998305e+01 -5.211591214451649279e+01 -5.345213495296678730e+01 1.357353694327335916e+02 5.691561938075327731e+01 7.935104296329640761e+01 2.597026848562232360e+01 -4.178876630017718696e+01 1.067481396393334450e+02 -5.422073790001341109e+01 5.463998757020867014e-01 7.609022014163710423e+01 9.899517410168364506e+01 2.540065908578488916e+02 -1.741758761978354642e+02 1.600426913219951928e+02 -6.721143608636026556e+01 -1.514808365170530990e+01 -2.495628375445349789e+01 -2.062909003746514713e+01 -5.488520264335627274e+01 9.253478024830808124e+01 1.832561906266318204e+02 -1.183023343137015075e+02 3.081230315126128261e+01 -1.264463549171244807e+02 6.995817421807753078e+01 -4.434887583306127823e+01 -8.077914361229279905e+01 -5.376107034840742926e+01 4.109502454860152909e+01 1.934325058993200130e+01 -8.164383984269888117e+01 -1.408604671474663235e+02 2.074536909599063605e+01 1.574825278748411677e+02 1.427818644026956463e+01 1.824211701017326277e+02 7.460705490095868697e+00 1.346412078772404755e+02 -3.460736024379859543e+01 9.078602328889957107e+01 -7.150203547245006064e+01 -1.130300283808717552e+02 4.950078666794503590e+01 -5.810172715839319579e+01 -7.866760148049252166e+01 7.303419973618926520e+01 6.469824827515252785e+00 -9.452355293720080454e+01 -1.509756069405670189e+02 1.483562105148322132e+02 -8.946584164967227082e+01 -2.361352035754286760e+00 1.205346519840145589e+02 5.825521011228432400e+01 -9.861602943694852286e+01 1.068001100561975036e+01 2.833376609979520708e+02 5.357131972134682485e+01 -1.585271444053657603e+02 -4.797021750787435224e+01 -6.185146067273106496e+01 9.680575312195063731e+00 1.081900311756807298e+02 -1.041039398922228969e+02 2.170743317048382082e+01 1.313165060629916354e+02 1.889784743724513305e+01 -2.126636505533817285e+02 4.865137059951453580e+01 7.599823186743456915e+01 -1.367597825492240560e+01 3.302415683669902080e+01 1.511226778505435908e-01 2.267894220944662109e+01 2.793143636715922540e+01 1.166469815918494248e+02 9.872730836578915614e+01 1.568763191212547703e+01 1.500913456417849545e+02 -6.448096644323943849e+01 2.484296889469049177e+02 6.550396655458200712e+01 1.427422948327634913e+02 -2.213178017294945477e+01 9.073391393017442397e+01 -4.936287421029476263e+01 -1.474696800635692284e+02 2.637742814249021350e+01 9.576161857180963466e+01 -8.825953399428725277e+01 -1.055371840412219626e+02 -6.704651432256082444e+01 3.688139281408910364e+01 -1.150949919250899569e+02 7.529404959424927313e+01 2.827848633632337183e+01 -9.836776537462546344e+01 1.914067386132156798e+02 -1.185400056528978929e+01 -1.025490440509160095e+02 -1.349653552615351160e+01 -2.059489308642784877e+01 -1.413246715248189105e+02 -4.034409991614690938e+01 6.198874790821913905e+01 1.328162590985628810e+02 2.925556589520502726e+01 2.696881130664383619e+01 4.514184890866057032e+01 -3.602453575887929560e+01 -1.467506448368935708e+02 1.599190401834430908e+01 3.122556800414206535e+01 1.341590822665864664e+02 -1.000042635306768801e+01 -7.674194688171068890e+01 7.378896510364660344e+01 9.977389836229587639e-01 3.214587188899096049e+01 1.403751723468348871e+02 -1.789427871855846490e+02 -9.359963823671890282e+01 1.257338579289072698e+02 -2.113189616641382997e+02 -1.801414126358620251e+02 8.913857307381620387e+01 1.508405705536939365e+02 6.209712754775473087e+01 -4.367291660490930205e+00 1.525667865616023846e+02 -2.150056553403427131e+02 1.049608459617550551e+02 4.151138473901779946e+01 1.244730414562239247e+02 -1.847280402199978653e+02 1.043607208156758901e+02 -2.768456402279081985e+01 -1.309573370299899580e+02 -5.215731695006421198e+00 -9.050766059215305859e+01 -1.594672204040766417e+01 -4.218560138303081075e+00 -1.206687467160264617e+02 -1.207918903338985075e+02 -6.129030766148913756e+01 -1.262779723130694549e+02 1.968731316646631058e+02 -1.577583666112398362e+02 -4.914462533133885103e+01 1.690036415831872318e+02 3.323250475831010675e+01 -2.899233702794193732e+02 -1.244960698153947476e+02 3.478791100694107996e+01 5.353224484812782435e+01 8.404831951535429724e+00 -1.514484351599791978e+02 3.495554336051129241e+01 7.327750381960352222e+00 -7.280521619588407134e+01 1.985648791612030664e+02 1.984361213041981671e+02 4.248154751508414151e+00 -2.042619283636230989e+02 1.234041601665892074e+02 3.013325441993932685e+01 3.697135230162194919e+00 7.504292640812884940e+01 -2.032212410051994027e+02 -1.352005764772737280e+02 1.381422894835675379e+02 1.073979168532555235e+02 5.183663106954060140e+01 1.402736261748237041e+02 -1.746068499681584285e+02 -2.002561084026439886e+01 -1.277461631819006129e+02 4.272087561846714010e+01 -1.017368007480116319e+02 8.526903292488658792e+01 -3.319739326938092461e+01 1.212927296661102261e+01 1.737914673189011694e+02 2.792856374334881764e+01 -2.581599940767354724e+02 -1.237757391496247124e+02 -8.163889748249002309e+01 1.548606977473123152e+02 1.227931565278578141e+01 -5.273612687375518959e+01 2.973767677239613860e+01 6.122331174043508639e+01 -3.875732729882220440e+01 1.053053661730155426e+02 -9.867103697572562737e+01 4.820240840354525602e+01 1.096305790456023175e+02 -3.474380049917358804e+01 -9.610907730060290532e+01 -1.111020570228199063e+02 1.173000516119152508e+02 -4.864795913574822350e+01 1.925138946581662651e+02 5.602984572643213568e+01 1.086727429663612270e+02 1.806578092061485563e+02 8.383587723745023368e+00 -1.217361544718407771e+02 -1.623464584485768967e+02 -1.118357122161464474e+02 4.161340795400166570e+01
-1.302109756495673309e+01 -4.617285072542686386e+00 9.907330508885557663e+01 -2.191134005139829810e+02 1.486896598175617044e+02 6.075996768572510121e+01 1.455527482882138202e+02 -1.235667894716395949e+02 -2.656371792731731407e+00 -2.302703851402531399e+01 -2.099780161437616641e+02 3.130770419287170725e+01 -1.752858094769025854e+01 1.170027160573775120e+02 -1.196588346715420101e+02 5.903670450785473633e+01 1.198617878236811691e+02 -4.395662123406862065e+01 -4.747886851170242295e+01 -2.585007302117067951e+01 5.903839840345330714e+01 6.035791495568994947e+01 3.101801384154237695e+01 -2.224310828530142885e+02 -4.935855159524646041e+01 8.754865005912053277e+01 9.477798106839090408e+00 -9.913932189319242028e+00 -6.364078690253205650e+01 -1.480435107019718899e+01 7.015345778610111438e+01 -1.390892449026328279e+02 -5.923755520045310163e+01 8.593336410485148846e+00 1.985240943467232455e+02 2.028345235854359316e+02 -3.070775393606213299e+01 5.345650885197832736e+01 -2.570597270380466925e-01 -1.335825755829074808e+02 9.180365018126205712e+01 1.025682394085098252e+02 1.037960182789546622e+02 1.117684233529841187e+01 5.919727948601622813e+01 4.602824537752685075e+01 3.719017367287302278e+01 2.806569007545961014e+01 1.054848361176076139e+02 8.581005863183665383e+01 6.273678954591774470e+01 1.558925002510979709e+02 2.369542523985052469e+02 1.870663869325560711e+02 -5.655991207075484084e+01 4.712224123347028382e+01 -6.148147508246641735e+01 5.394856903789565195e+01 -1.838070275132573670e+02 5.404053436868105109e+01 -1.958481988429714988e+02 -1.613710039579242732e+02 1.238388536731257616e+01 -8.848162035663023062e+00 1.621519195926011321e+02 -1.989063867160018333e+02 7.200397670740152023e+01 2.198332128880469725e+02 -7.038697283087192780e+00 -1.862897978378781261e+02 3.401502811489012146e+01 1.886344796428551263e+02 -5.845232801843147996e+01 -2.549543848934492587e+02 -9.811571168106709706e+01 8.485907209132570017e+00 -2.201219842956559205e+02 3.066689058592994854e+01 -1.717022617612880424e+02 -1.775694356855441356e+02 -5.467961334605701040e+01 1.459038206189383402e+02 6.649926479772628340e+01 1.015645277176635375e+01 -8.485773554673153285e+01 -4.078440863827807306e+01 6.102784137259757102e+01 -2.222466780073384882e+02 5.180680850476974797e+01 -7.180046899785155290e+01 -7.481709509340981867e+01 -1.693275479336793978e+02 6.231471434161031908e+01 8.882032773754811217e+01 -1.554872907966024513e+02 1.655144678626282371e+02 -3.821432642001025926e+01 -1.620884568099227607e+01 8.393361232414451933e+01 1.497835695495033690e+02 2.080697639098828589e+01 1.451265623491824783e+02 -1.771503589683950963e+01 -8.692516760945119358e+01 -1.879589163055403844e+01 9.686854776104256359e+01 4.431571238017004788e+01 9.640107028575620518e+01 9.301678517237397159e+01 -8.186303269451532572e+01 -1.674442104862826000e+02 1.212672537909762980e+02 5.346285630681087042e+01 1.596351475955458810e+01 3.013430527442221774e+01 -6.694673050916280488e+01 9.465361491573099784e+01 8.856297140089816367e+01 -1.350340202330413319e+01 -7.023422971494723299e+01 3.029996705098139742e+01 6.190513455791557540e+00 -6.064309428253103817e+01 1.671803388098860808e+02 -3.243610227484669650e+01 1.199119877057306667e+02 -6.913309618570920634e+01 3.785815475419320109e+01 -3.559802824149429767e+01 8.825213549175559535e+01 2.316023113491608143e+01 1.140174430925268894e+02 -1.144521030346146517e+02 7.335175060381172329e+01 1.218366098992764393e+02 -4.411342181160753029e+01 7.515953148064902223e+00 -1.255320627600054983e+01 1.152739028344776528e+02 3.548743484511501123e+00 1.664788907947178132e+02 -1.396072260310419324e+02 1.151855621561453233e+02 -9.016115906748949271e+01 9.458241999649040110e+01 -1.353558327984097502e+02 2.915196070425607644e+01 2.444511533336236653e+01 1.778049037711465719e+00 3.587483112944044450e+01 4.539904751860322563e+01 -1.225897547953963773e+01 1.071745460316668819e+01 1.068156948510178665e+02 1.257606541172475971e+02 -8.568116593610395171e+01 -5.357057244978446420e+01 4.680310904635985025e+01 1.512169828319424258e+00 -1.354128438054056858e+02 -5.449136326006264142e+01 -3.504052402252877130e+01 4.836406575076276226e+01 -6.482063825669730761e+01 2.267170452516465673e+01 1.586457974894315441e+02 -7.861629259133623293e+01 7.996375885274007089e+01 8.320665640423482046e+01 1.113550783469318439e+01 1.221956004674713796e+02 6.226053139824773552e+01 1.664048035719406471e+02 -3.424825043544324643e+01 1.113930571894706958e+02 5.503698880860787312e+01 -1.592379793774457042e+01 2.023062888517332567e+02 -1.375820742166926891e+02 4.846821594467320438e+01 -1.860064433281629022e+02 -8.348746434790670889e+01 4.070470701378087597e+01 -7.164374079118387328e+01 -1.546264516292488906e+02 1.978249732801909317e+02 -8.514497413314306584e+01 -4.714643224311020475e+01 -4.594563845939572388e+01 1.208814828115513649e+02 1.934045021222860612e+02 6.430024749711175502e+01 1.452376294626116362e+02 2.179582073144382832e+02 -1.602225041455323851e+00 1.617908213194946256e+02 7.040909634001013728e+01 1.891150945388933167e+02 -1.249470243351074998e+02 -1.177510910565778879e+01 6.303744568289420869e+00 1.886767917930800991e+02 -9.027221922834962697e+01 -6.008964771320190579e+01 -5.259020154432995753e+01 -1.330952990037777965e+02 4.636322285694888912e+00 -1.002611239848827580e+02 1.531105191464087625e+02 2.340235290109610133e+01 1.192134676027867002e+01 7.182656700937315009e+01 -4.893181091766511059e+00 1.161971807105970953e+02 -1.578067696863798517e+02 4.511347346071980979e+01 -1.696916467977514174e+02 1.166459792891852203e+02 9.542143383899325215e+01 -6.685541735105744010e+01 4.647073619960638524e+01 2.365619207748192139e+02 -3.026202643941658721e+01 4.137964708223017851e+01 -3.245954998246829604e+01 5.755620090646109333e+01 6.384954706025889237e+01 -6.236122934256460582e+00 1.012316952963136032e+02 1.008075920000782872e+02 -1.925691791365627239e+02 -1.522070460999494514e+02 -1.190173593793488607e+02 -9.377843669348683520e+00 -1.487632686078378299e+02 1.147621552374818634e+02 1.095897696680684135e+02 5.858337190981644227e+01 1.108616314998474905e+01 1.565960518520167284e+02 8.338111820275803154e+01 6.703499054564173321e+01 -1.009138948169040759e+02 1.513175688372275260e+02 -3.563864382412255338e+00 1.085733835710285575e+02 8.756419356115200614e+00 3.648370999370533951e+01 -7.515609845686755364e+01 -9.009326330704070074e+01 7.106596159401028956e+01 -3.819633848550608946e+00 1.451500661110805481e+02 -1.247333312466462019e+01 -2.829785612438883824e+00 4.550851301397367621e+01 2.246242796509615758e+01 1.403257973776731546e+02 1.454604365091267049e+01 3.556505580119225840e+01 -1.534639456060636178e+02 6.530401066977107405e+01 1.325584489491725151e+02 -1.748936177636406342e+01 -2.260649475097024776e+02 8.366648398945433485e+01 1.348614530633475397e+02 2.013928217529904785e+01 1.870280040877873660e+02 -4.159624544800371915e+00 4.240698734829933159e+01 -4.309915281997821523e+01 -1.369801548265285192e+02 5.531749198230046005e+01 -4.687688958995627786e+01 -7.998827770475404009e+01 4.067956069789872942e+01 -1.823217335561438688e+02 7.072070955910832879e+01 1.621528183149787310e+02 -9.981554002347584742e+01 1.705441561440882481e+02 -9.624113381209538431e+01 -5.888851056141656493e+00 -1.037716755885130659e+01 7.549327367176577752e+01 -4.590097736319023625e+01 -1.061633091139206044e+02 -8.720571650524139784e+01 1.435147299450202354e+02 5.817707331091092016e+01 -1.296771418192874421e+02 4.359600091023073887e+00 4.271956696717153790e+01 8.120640706265074016e+01 -3.966411661228928409e+01 5.897062258362760190e+01 -6.781415897467103093e+01 -1.596009599179655254e+02 -3.404251047272029496e+01 1.385618340934854018e+02 -1.114379652001269392e+02 -6.294147261034863661e+00 -1.600637781564447550e+02 -4.723811373575393269e+00 -1.433225399091202235e+02 3.233824535790532195e+01 5.911783959078967854e+01 -4.943138826135024289e+01 -8.090583006729823978e+01 5.534415643917088623e+00 7.304826875029782229e+01 -6.653421677061886896e+01 1.322185568435741345e+02 1.035834254147531084e+02 -1.252672407105314818e+02 -1.034811902541102739e+02 1.325303744362810221e+02 6.996914379815839879e+01 1.473221623203133106e+02 9.818587968067282645e+01 7.957566617567205469e+01 -5.908737819880332154e+01 -8.014365236523106262e+01 -7.552504080249632068e+01 2.003837301082200781e+02 2.994618024369957254e+01 -2.439866792200218981e+01 -6.710299913282139528e+01 -4.893714887433512217e+01 -1.284687706829461149e+02 -1.613511229690919890e+01 -1.711610781013202427e+02 1.219693689830806989e+02 4.487140272231806648e+01 -1.123997341916687560e+02 -4.720569736510873327e+01 1.167975739204155161e+02 -9.456242159641175249e+01 1.002967039373176164e+02 -1.155429177992044885e+02 -1.148121002692960779e+01 -9.314301331391318683e+01 8.750626513614442104e+01 -4.142453420688081422e+01 1.004215766067264681e+01 2.861066901969975618e+01 -1.234939138255758309e+02 1.218842750588513901e+01 4.714429102800603033e+01 -2.181804240920288507e+01 -6.702167429873360049e+01 1.974645990499207642e+02 8.427998647680391286e+01 4.593115342470107976e+01 -3.062291396124648202e+01 7.819710265576979680e+01 1.633684227418835633e+02 -8.992520857523466304e+01 2.041643187125305872e+02 -1.297317115657859574e+02 -1.792554370031073745e+02 1.479672933244453930e+02 -2.280233825210943337e+02 -9.461806165569681681e-01 -2.387046033997116581e+02 -1.490163202286377668e+02 6.994034083088595821e+01 -1.419158311045931669e+02 5.689067473088078231e+01 1.071289020838577528e+02 -1.562732537410255134e+02 -2.934822583716226418e+01 7.349093787250112086e+01 1.305109283973754088e+02 -1.813676295691837197e+02 8.525263933125430071e+01 -9.546711813193145701e+01 -9.611161631575209086e+00 -1.351664232823056722e+01 -7.754628168505431063e+01 -8.800030294843253387e+01 1.767497706303481380e+02 -2.114202612652037061e+01 1.307753719073653231e+00 1.269341034961784089e+02 -8.452177497635965153e+01 -3.356217132403097736e+01 -1.049831461881802852e+02 -4.761931559404686709e+01 5.036663679393074133e+00 5.791497088389112946e+01 -1.318419328146397618e+02 2.316128225640748042e+02 -5.265143394652572084e+01 1.198614891981291635e+02 -4.772982366732260573e+01 1.171218929797849029e+02 1.360651736272247661e+02 4.692596515007669211e+01 1.194398855992810127e+02 -4.229431016137130683e+01 1.369672687930063262e+02 -1.531352360578932519e+02 -6.400822217802844705e+01 -6.164136378663987159e+01 2.501621096579937387e+01 -1.588904496782720912e+02 7.102622337242321748e+01 -3.019517654794552186e+01 -8.091630036157157235e+01 8.772638811478991272e+01 -1.479584900717307505e+02 -8.932504635439028107e+01 -5.153505339168962962e+01 3.239044448265958209e+01 1.271187555552606909e+02 1.144245407786290656e+02 6.767644746177732884e+01 -1.550301953772455166e+00 1.712554864966489561e+02 1.199824400615728592e+02 -9.249915980379512348e+01 -7.650988719536739779e+01 5.412761862746879160e+01 9.757717558297112959e+00 9.593942545572836877e+01 1.632374070930516154e+02 6.911998699287504166e+01 2.390885122200856472e+01 -1.000722917119295516e+02 1.681937556156683229e+02 -1.112873277535168484e+02 -1.617958488314452552e+02 6.433651662449872788e+01 1.091311512439218063e+02 1.922384144909521098e+01 -1.358860917186720485e+02 2.908653200674629602e+01 4.150617337051942712e+01 -3.335606951238455076e-01 1.280973650467313973e+02 9.556408850080484285e+01 1.673700394425135940e+01 7.663201864486377701e+01 -1.046362246151164754e+02 -6.199748229867792837e+00 9.617007387344347080e+01 2.903302855663362791e+01 -6.358966873850941681e+01 1.936424598975207232e+02 2.259532609404796801e+02 -1.226842906538067837e+02 -2.699944322822777920e+01 -2.054491511207357064e+02 -7.054890781242551157e+01 1.530354499038385541e+02 3.308071389991357858e+00 -6.936918313706856054e+01 1.600359776224983932e+02 -6.106689387745280584e+01 -1.569162492315143140e+02 1.334101196588489984e+02 -6.564908718184707936e+01 3.369030288055139266e+01 8.433857569118734432e+01 1.346544721342500850e+01 -2.326799862366144964e+02 4.131837570042952024e+01 -6.010132942576260184e+00 8.798894977464436806e+01 -2.301131460888036528e+01 9.875289053142533646e+01 1.658406328577696698e+01 -8.272643196024175438e+01 -1.999884451713355205e+01 -1.711021351934002439e+02 1.122719956001322572e+02 2.468055393615480853e+01 -4.063852153728754502e+01 -5.058125469963739107e+01 -6.141064874993573852e+01 4.014407071499040569e+01 1.568926108870034568e+02 1.295580709426119768e+02 4.203648222942372570e+01 -1.931797289098854833e+02 -3.787574688260113476e+01 4.278039557880131127e+01 1.145525677457719098e+02 8.514064997006889257e+01 1.507914324441919796e+01 -1.816202518808626962e+02 1.285713659889501059e+02 -2.184486369124186353e+02 -2.009335103040032493e+02 -1.793508966402575400e+00 -7.202351673776389873e+01 -2.353268808792430633e+01 8.505915033180136220e+01 5.459484742775116217e+01 -1.085625839743653529e+02 -1.478699734927241423e+02 1.424154199749737870e+01 1.207583061642874469e+02 2.019551402879359614e+01 -5.536549318727566771e+01 -5.041304020931016083e+01 -1.146153223995294290e+01 1.575504614128037417e+02 2.183925548758338309e+01 -1.726293538146324238e+02 1.275330958320929682e+02 -6.641042181930789923e+01 -4.149366593348378984e+00 1.530577782260505444e+02 -5.197496914336866070e+01 -1.946928747718903097e+01 -1.091840807721242186e+02 -5.967995383321281544e+00 -2.370767882176077279e+01 1.308941574438883322e+02 1.193504790158501692e+02 6.717146487398133559e+01 6.503592343662064934e+01 -1.859624208769296416e+01 1.343727428950657838e+02 -1.120760496922252543e+02 -4.232740606011335061e+00 -9.049978396079620779e+01 1.561591232803547769e+02 7.249467559375908365e+01 5.136722895870904182e+01 8.214407045784854589e+00 -5.296741359258368220e+01 3.417233022166493583e+01 6.696803903507649203e+00 3.606465816501448707e+00 2.396053467614359178e+01 5.940779499155497234e+01 1.692064444131920879e+02 -3.860509508005437596e+01 -5.165956995121165818e+01 6.637465150392155522e+01 1.149503853607275516e+02 -1.273261187583012521e+01 9.136660045580210010e+01 1.034143093127092783e+02 2.094532568659637661e+02 -8.599997280336981476e+01 -1.219093013959966925e+02 -2.846045493554827743e+01 6.175904762271346016e+01 -1.008302944019926706e+01 1.067262335268666646e+02 3.700175278361784592e+01 -1.615713208884803294e+02 4.476311995078626182e+01 -8.887034397438641520e+01 -1.343980436407170771e+02 1.336015925275524978e+02 -7.552212098914645821e+01 5.875785941686241642e+01 1.104163614577205266e+02 -9.832085873194463943e+01 2.332224483986945529e+01 -7.162877583004112125e+01 3.998279918718187531e+01 -1.137769575540695541e+02 6.112982339432728907e+01 5.426686141098311111e+01 3.868515491235504200e+00 8.340897813473098665e+01 -1.517301167848003729e+02 7.577932723462316744e+01 -2.905159809588337083e+01 -1.664212001680678554e+02 9.308311359501540494e+01 2.416881283949215131e+01 -1.932135829160937703e+02 2.317528563747502801e+02 -5.266342705686349879e-01 1.035963876290615957e+02 -1.187964019399193347e+02 -1.912986642756932270e+02 -9.192344455260560210e+01 2.450550688339649952e+00 1.407531712460339577e+02 3.928716864240962003e+00 -9.414471730066485122e+01 4.962996205676654426e+01 1.349966361969422337e+02 6.400572511343693805e+01 -5.096184101570620584e+01 -5.825965035404254166e+01 8.324325768503574352e+01 3.027736701100235095e+01 -1.926431260607473348e+02 -2.042235655861922439e+01 1.665051622824507263e+02 9.733910979075608338e+01 -5.647276429135290243e+01 -1.101332555595824516e+02 -4.203870906619027892e+01 -4.736254743660227007e+01 -1.127397604742612458e+02 -1.818755758206084039e+01 -4.497865420931749014e+01 -1.119193503079429348e+02 -1.299307652462383089e+02 -2.653866073012547844e+01 -1.237913472286858507e+02 -1.318079252314512644e+02 -3.775883374056881081e+01 -5.451434955486592315e+01 -1.093540670313425380e+02 1.899841899126362819e+02 1.074351913565699412e+01 -2.871081925235865029e+01 -1.735485339077140310e+01 8.028792234480417278e+01 1.596438877360563957e+01 2.556338359103190427e+01 -2.170657677951141551e+01 -4.720717084382803108e+01 2.134651492498488778e+01 -1.483648237651815407e+02 -1.624697549866130259e+02 -9.227301858640510090e+01 -1.947743597316896000e+02 -9.146267422501195199e+01 8.755486784431589342e+01 6.264912853306305607e+01 -2.659373281434167424e+01 6.201958870263575818e+01 -1.597897485689116763e+02 -4.168609273802597670e+01 -1.185259309358385877e+02 -6.812491492304332041e+01 2.153037747983065344e+02 -2.095130831330102978e+02 2.094915964162203466e+02 2.549816074275477717e+01 -5.762637060029424418e+01 9.413123800814756237e+01 1.266372507739636717e+02 -5.295747308900651973e+01 -2.079388725838231551e+02 -1.521679177695895930e+02 1.043801213795926657e+02 8.548540997842769684e+01 -1.383703897199959556e+02 3.260731780278537428e+01 -4.049103495395558383e+01 -7.899531482593918952e+01 -2.901099740177204112e+01 -5.595269657465363622e+01 -8.821425940484603245e+01 -3.474751743207581711e+01 4.587185512114466235e+00 -3.336413815594677601e+01 -3.942791151067149835e-01 -1.463979429292717427e+01 9.385964307021255593e+01 1.297139596408694615e+02 1.343666625298639694e+01 1.714028152464910804e+01 -6.442215393523774480e+01 -2.000792782340197107e+02 3.454945457799387043e+01 -9.361894628734002310e+01 2.636598799167628115e+01 -8.329411259384345456e+00 1.054018332856125229e+00 7.379822906868776045e+01 1.243968511443312934e+02 -7.192407743210037552e+01 3.878233622608378539e+01 -1.968397070276349439e+02 9.874951214940699273e+00 7.120444114208320130e+00 -1.250807876292271743e+02 -3.441655527421911387e+01 -4.524164958294819883e+01 4.867447647491336404e+00 -1.043571642160069217e+02 2.761191845378109022e+01 -9.966128656358668536e+01 5.725214474587193791e+01 6.925433174006430193e+01 3.764668520968524490e+01 -2.961490847367736023e+01 1.096704789483057567e+02 6.233360603351152918e+01 8.163866823729937039e+01 -6.836843117653090474e+01 2.069691048289209334e+01 1.304912289648841863e+02 -5.966734415718556050e+01 -7.055030043382152449e+00 3.263662347681847820e+01 -1.310003434913874969e+02 9.978329534236895881e+01 9.137032189013778805e+01 -1.031702249119607018e+02 -8.399219311145193956e+01 -5.662915031075625194e+01 -4.648627817757111558e+01 -1.634181560940629367e+02 -1.385898881162077600e+02 -1.350734520462275157e+02 1.077242656407024555e+02 6.094541428426705920e+01 1.626099845494535145e+02 7.338463075868007834e+00 -8.737075215991170296e+01 1.909781342219956102e+01 1.409406490912261312e+01 -6.473077423286542853e+01 7.544559396487670710e+01 1.202750257103565588e+02 1.016845976353626213e+01 1.460605756017682495e+02 2.292154464956388438e+01 1.130029946709050961e+02 1.536539578356493330e+01 -2.115846840195110588e+02 2.223574600576596083e+02 -4.982525883144558065e+01 -1.518011814339936905e+02 -6.839934890938728529e+01 -4.367035936004015184e+01 4.192274391203751804e+01 2.592554876255495699e+01 4.633044468270476557e+01 -7.502737852054845291e+01 1.238695576430070417e+02 -8.729228644351900357e+01 -7.093579442727459217e+00 1.440778909052991708e+02 1.108382177484550368e+02 5.864017721236194802e+01 -1.788959555668573671e+02 2.569418783007445839e+01 1.418082239198930381e+02 2.365986454852078325e+01 9.849195670493537591e+01 1.073722325690563224e+02 -2.132210801105917142e+02 7.755012328164048085e+01 -5.820747373605423292e+01 -2.266042115577025413e+02 8.911072901124680357e+01 2.472434821923113901e+01 -1.222386460932870875e+02 -5.858221595674790194e+01 1.386627732233741597e+02 1.471936657004195013e+02 -7.555976188013804062e+01 -1.271982742368850126e+02 -8.295549756472354375e+01 -1.647355201090432786e+02 1.941537454038286370e+01 3.760787096174156829e+01 -1.680273746838175697e+01 -1.225077790854297710e+01 -8.849819902819682227e+01 -8.727459445343144750e+01 -2.433021828630435834e+01 1.317797963108571366e+02 1.339200260923914811e+02 7.968258046991890353e+01 9.528877624435737914e+01 -7.703932317355857151e+01 -1.768892574895689904e+02 -1.294092781628993194e+01 -2.264436440112627835e+01 -6.942669723284588201e+01 1.460207408240086213e+00 7.141549019473589510e+01 -5.172516601716176865e+01 2.410472484553772077e+01 7.739153368920203491e+01 6.851373321081788959e+01 1.080304542555290084e+02 -1.457977665751907068e+02 3.874150510691113425e+01 8.142503122735297438e+01 9.261162384073074350e+01 5.772517341600434548e+01 -1.008983389578482530e+02 1.338292430967360076e+02 1.245791361973492286e+02 9.366899246257057143e+01 9.923183944078166974e+01 -8.231172153469016450e+01 -1.453139412164250466e+01 -1.264108893604157480e+01 7.530688186711324761e+01 6.349745978863674623e+01 5.471539528748898817e+01 9.536592265476525654e+01 1.138467956368646696e+02 1.210950415198936128e+02 -6.341329860222259640e+01 7.877464112104482297e+01 6.376339111836151829e+01 -1.149946345796283538e+02 1.286253745974008211e+02 -9.807418048641526553e+00 -2.729378364691415371e+01 1.948316565860886556e+02 8.651614722680433545e+01 1.213672887108581619e+02 -1.411770084427602399e+02 -1.543555456276585005e+02 -1.504041450858358644e+02 -1.195456023486699593e+02 -4.334195529897635879e+01 1.074830394653839676e+02 -1.651400441464701316e+02 3.184884899987864060e+01 1.413929742374274667e+02 -5.814292019240031095e+01 -8.951152216538297068e+01 -3.442122505168825342e+01 1.331929899631194871e+02 2.228555443965207417e+02 -6.537274091978899548e+01 1.943711331756035321e+01 -2.716332215727023325e+01 6.719648390779580893e+01 5.912119774371661407e+01 -2.092601120949890685e+02 -8.702675724871917851e+01 1.350572538180481956e+02 1.372502063582233234e+02 9.282411561433407599e+01 -4.892190762155957628e+01 -7.444638446808141907e+01 -4.459214886098224895e+01 -1.734270716675339656e+02 6.990047656879949045e+01 -2.521460142620125211e+01 1.634877846829630244e+02 -2.744925581058422281e+01 -3.091704352543886785e+02 1.423965274385537327e+02 4.941691839126741570e+01 -1.159604332180327617e+02 -2.178274952854193458e+01 3.471438859850896108e+01 -2.041987379945858834e+02 -1.123697328515313671e+02 -1.077916610674886613e+02 -5.548655037065262263e+01 6.176264373912697181e+01 -1.621210575120881572e+02 1.061493763798165446e+02 -5.343047736804853542e+01 2.868470497150252818e+00 -1.312509308687851615e+02 -1.019464396689731700e+02 1.730183847724933059e+02 8.527195280582660075e+01 -4.155899648903726984e+01 3.657336862970677061e+01 -2.760921280758477891e+01 4.257451678833312059e+01 -1.029735412380757253e+02 9.732249216936389757e+01 4.971570044049005332e+01 -1.170542500953465748e+02 1.149453779381641567e+02 -4.837041596796590426e+01 9.837128455703448537e+01 -4.864700574186930027e+01 8.703015527581524680e+01 -1.510697532593065660e+02 1.405464727262189228e+02 2.439389964680050937e+01 9.913815160206907251e+01 1.284668542238084399e+02 -1.444677972577067635e+02 -8.462608563279921725e+01 -1.040722419143004771e+02 6.589045985337683931e+01 -1.688388597359589767e+02 1.492973877974817185e+02 1.403112690905074658e+02 5.221320318390451121e+01 -8.367224593684643708e+01 5.623894207094558340e+01 -1.057764245947071942e+02 -1.078740808741485857e+01 3.448185246225194334e+01 -1.811346642093435548e+02 -8.042938132241542348e+01 -1.334416674376793743e+01 1.007692127623094080e+02 -4.951118135608840731e+01 1.072126779594175048e+02 -6.344463226149304802e+01 -2.079115596947162601e+02 -1.056336908141325779e+02 -3.359648542186221931e+01 -5.937280444534101775e+01 2.968936664483646837e+01 5.070949639150358479e+01 6.260115833129218821e+00 2.500454601128276977e+01 -1.157867434609282213e+02 5.315285542956097231e+01 3.221034110784326998e+01 -7.124694568280234819e+01 9.150877730698386614e+00 5.563014940644983852e+01 -9.420842629148370406e+01 -5.439557742566743315e+01 -2.385397554907009265e+01 9.638345726769790645e+01 -1.691983510444326200e+01 4.143058365588276004e+00 -2.253176002710045225e+02 -9.388655043807177947e+01 9.774737998954465468e+01 -8.814190112470853933e+01 3.096553036040819862e+01 3.069404734081843245e+01 3.747694730239190619e+01 6.530462787361936705e+01 -1.753747841088027428e+02 1.422921053310813591e+02 8.055426276815495612e+01 -7.437088469393000167e+00 -7.986972198682461510e+01 1.106068380947881167e+02 6.138126133254178285e+01 -1.987943673940368683e+02 -4.980414002204948787e+01 -8.076346258497653707e+01 -5.123689928139774707e+01 -6.122246891661239943e+01 -9.791225141117170949e+01 -5.968168863328202178e+01 1.893372685060567164e+02 -1.688406826832911634e+02 6.473902955463309183e+01 2.743128454526333115e+01 -7.433735775653715905e+01 1.027167374066775629e+01 -3.898231308139774143e+01 3.393359762278369107e+00 -9.506492622181193042e+01 -1.953603406315340862e+02 1.818961073056489752e+01 4.144110513364681481e+01 -1.265571748142317254e+01 -8.899917872015297604e+00 -3.934034302423858520e+01 -1.878256527629917230e+02 -3.030632654914624524e+01 -6.464452098998972929e+01 1.380355398048305382e+01 -1.544173277930430999e+01 8.957635361766436688e+01 -6.234830898852673897e+01 -1.025661058663485221e+02 -3.533833615119453242e+01 -8.903306766339230904e+00 4.498932574659190919e+01 -2.189396833885426119e+01 -7.297311069078375567e+01 -1.570573841266144477e+01 1.984230266655612240e+01 4.699343883849157777e+01 -1.127850626774056053e+02 -1.375484919242798867e+02 2.279018416894925565e+02 -2.159729659383282012e+02 -7.514190687024506587e+01 -4.584741321107435397e+01 1.383885841491628526e+02 6.261676332803171618e+01 2.264996824412624790e+02 2.422028006918442600e+02 -6.169645324642789319e+01 1.281165169383128841e+02 -5.540307349530741021e+01 -4.039190711661761668e+01 -9.959478263288499988e+01 -7.901562847586315286e+01 -6.884166565125694603e+01 -8.808692233726840470e+01 -2.412635890398408094e+02 -2.680690533641311504e+02 1.333030386571561792e+02 -2.626091060263857813e+01 5.271942923739690912e+01 1.295404050395132742e+02
