# 
#                 ----------------------------------------------------
#                 Data from a 3D direct N-body simulation. 
# 
#                 rows are i-particle; 
#                 coumns are :mass, tag, x ,y, z, vx, vy, vz, ax, ay, az
# 
#                 NTHU, Computational Physics Lab
# 
#                 ----------------------------------------------------
#                 Time = 2.4999999999999907
1.000000000000000000e+00 2.000000000000000000e+00 3.000000000000000000e+00 4.000000000000000000e+00 5.000000000000000000e+00 6.000000000000000000e+00 7.000000000000000000e+00 8.000000000000000000e+00 9.000000000000000000e+00 1.000000000000000000e+01 1.100000000000000000e+01 1.200000000000000000e+01 1.300000000000000000e+01 1.400000000000000000e+01 1.500000000000000000e+01 1.600000000000000000e+01 1.700000000000000000e+01 1.800000000000000000e+01 1.900000000000000000e+01 2.000000000000000000e+01 2.100000000000000000e+01 2.200000000000000000e+01 2.300000000000000000e+01 2.400000000000000000e+01 2.500000000000000000e+01 2.600000000000000000e+01 2.700000000000000000e+01 2.800000000000000000e+01 2.900000000000000000e+01 3.000000000000000000e+01 3.100000000000000000e+01 3.200000000000000000e+01 3.300000000000000000e+01 3.400000000000000000e+01 3.500000000000000000e+01 3.600000000000000000e+01 3.700000000000000000e+01 3.800000000000000000e+01 3.900000000000000000e+01 4.000000000000000000e+01 4.100000000000000000e+01 4.200000000000000000e+01 4.300000000000000000e+01 4.400000000000000000e+01 4.500000000000000000e+01 4.600000000000000000e+01 4.700000000000000000e+01 4.800000000000000000e+01 4.900000000000000000e+01 5.000000000000000000e+01 5.100000000000000000e+01 5.200000000000000000e+01 5.300000000000000000e+01 5.400000000000000000e+01 5.500000000000000000e+01 5.600000000000000000e+01 5.700000000000000000e+01 5.800000000000000000e+01 5.900000000000000000e+01 6.000000000000000000e+01 6.100000000000000000e+01 6.200000000000000000e+01 6.300000000000000000e+01 6.400000000000000000e+01 6.500000000000000000e+01 6.600000000000000000e+01 6.700000000000000000e+01 6.800000000000000000e+01 6.900000000000000000e+01 7.000000000000000000e+01 7.100000000000000000e+01 7.200000000000000000e+01 7.300000000000000000e+01 7.400000000000000000e+01 7.500000000000000000e+01 7.600000000000000000e+01 7.700000000000000000e+01 7.800000000000000000e+01 7.900000000000000000e+01 8.000000000000000000e+01 8.100000000000000000e+01 8.200000000000000000e+01 8.300000000000000000e+01 8.400000000000000000e+01 8.500000000000000000e+01 8.600000000000000000e+01 8.700000000000000000e+01 8.800000000000000000e+01 8.900000000000000000e+01 9.000000000000000000e+01 9.100000000000000000e+01 9.200000000000000000e+01 9.300000000000000000e+01 9.400000000000000000e+01 9.500000000000000000e+01 9.600000000000000000e+01 9.700000000000000000e+01 9.800000000000000000e+01 9.900000000000000000e+01 1.000000000000000000e+02 1.010000000000000000e+02 1.020000000000000000e+02 1.030000000000000000e+02 1.040000000000000000e+02 1.050000000000000000e+02 1.060000000000000000e+02 1.070000000000000000e+02 1.080000000000000000e+02 1.090000000000000000e+02 1.100000000000000000e+02 1.110000000000000000e+02 1.120000000000000000e+02 1.130000000000000000e+02 1.140000000000000000e+02 1.150000000000000000e+02 1.160000000000000000e+02 1.170000000000000000e+02 1.180000000000000000e+02 1.190000000000000000e+02 1.200000000000000000e+02 1.210000000000000000e+02 1.220000000000000000e+02 1.230000000000000000e+02 1.240000000000000000e+02 1.250000000000000000e+02 1.260000000000000000e+02 1.270000000000000000e+02 1.280000000000000000e+02 1.290000000000000000e+02 1.300000000000000000e+02 1.310000000000000000e+02 1.320000000000000000e+02 1.330000000000000000e+02 1.340000000000000000e+02 1.350000000000000000e+02 1.360000000000000000e+02 1.370000000000000000e+02 1.380000000000000000e+02 1.390000000000000000e+02 1.400000000000000000e+02 1.410000000000000000e+02 1.420000000000000000e+02 1.430000000000000000e+02 1.440000000000000000e+02 1.450000000000000000e+02 1.460000000000000000e+02 1.470000000000000000e+02 1.480000000000000000e+02 1.490000000000000000e+02 1.500000000000000000e+02 1.510000000000000000e+02 1.520000000000000000e+02 1.530000000000000000e+02 1.540000000000000000e+02 1.550000000000000000e+02 1.560000000000000000e+02 1.570000000000000000e+02 1.580000000000000000e+02 1.590000000000000000e+02 1.600000000000000000e+02 1.610000000000000000e+02 1.620000000000000000e+02 1.630000000000000000e+02 1.640000000000000000e+02 1.650000000000000000e+02 1.660000000000000000e+02 1.670000000000000000e+02 1.680000000000000000e+02 1.690000000000000000e+02 1.700000000000000000e+02 1.710000000000000000e+02 1.720000000000000000e+02 1.730000000000000000e+02 1.740000000000000000e+02 1.750000000000000000e+02 1.760000000000000000e+02 1.770000000000000000e+02 1.780000000000000000e+02 1.790000000000000000e+02 1.800000000000000000e+02 1.810000000000000000e+02 1.820000000000000000e+02 1.830000000000000000e+02 1.840000000000000000e+02 1.850000000000000000e+02 1.860000000000000000e+02 1.870000000000000000e+02 1.880000000000000000e+02 1.890000000000000000e+02 1.900000000000000000e+02 1.910000000000000000e+02 1.920000000000000000e+02 1.930000000000000000e+02 1.940000000000000000e+02 1.950000000000000000e+02 1.960000000000000000e+02 1.970000000000000000e+02 1.980000000000000000e+02 1.990000000000000000e+02 2.000000000000000000e+02 2.010000000000000000e+02 2.020000000000000000e+02 2.030000000000000000e+02 2.040000000000000000e+02 2.050000000000000000e+02 2.060000000000000000e+02 2.070000000000000000e+02 2.080000000000000000e+02 2.090000000000000000e+02 2.100000000000000000e+02 2.110000000000000000e+02 2.120000000000000000e+02 2.130000000000000000e+02 2.140000000000000000e+02 2.150000000000000000e+02 2.160000000000000000e+02 2.170000000000000000e+02 2.180000000000000000e+02 2.190000000000000000e+02 2.200000000000000000e+02 2.210000000000000000e+02 2.220000000000000000e+02 2.230000000000000000e+02 2.240000000000000000e+02 2.250000000000000000e+02 2.260000000000000000e+02 2.270000000000000000e+02 2.280000000000000000e+02 2.290000000000000000e+02 2.300000000000000000e+02 2.310000000000000000e+02 2.320000000000000000e+02 2.330000000000000000e+02 2.340000000000000000e+02 2.350000000000000000e+02 2.360000000000000000e+02 2.370000000000000000e+02 2.380000000000000000e+02 2.390000000000000000e+02 2.400000000000000000e+02 2.410000000000000000e+02 2.420000000000000000e+02 2.430000000000000000e+02 2.440000000000000000e+02 2.450000000000000000e+02 2.460000000000000000e+02 2.470000000000000000e+02 2.480000000000000000e+02 2.490000000000000000e+02 2.500000000000000000e+02 2.510000000000000000e+02 2.520000000000000000e+02 2.530000000000000000e+02 2.540000000000000000e+02 2.550000000000000000e+02 2.560000000000000000e+02 2.570000000000000000e+02 2.580000000000000000e+02 2.590000000000000000e+02 2.600000000000000000e+02 2.610000000000000000e+02 2.620000000000000000e+02 2.630000000000000000e+02 2.640000000000000000e+02 2.650000000000000000e+02 2.660000000000000000e+02 2.670000000000000000e+02 2.680000000000000000e+02 2.690000000000000000e+02 2.700000000000000000e+02 2.710000000000000000e+02 2.720000000000000000e+02 2.730000000000000000e+02 2.740000000000000000e+02 2.750000000000000000e+02 2.760000000000000000e+02 2.770000000000000000e+02 2.780000000000000000e+02 2.790000000000000000e+02 2.800000000000000000e+02 2.810000000000000000e+02 2.820000000000000000e+02 2.830000000000000000e+02 2.840000000000000000e+02 2.850000000000000000e+02 2.860000000000000000e+02 2.870000000000000000e+02 2.880000000000000000e+02 2.890000000000000000e+02 2.900000000000000000e+02 2.910000000000000000e+02 2.920000000000000000e+02 2.930000000000000000e+02 2.940000000000000000e+02 2.950000000000000000e+02 2.960000000000000000e+02 2.970000000000000000e+02 2.980000000000000000e+02 2.990000000000000000e+02 3.000000000000000000e+02 3.010000000000000000e+02 3.020000000000000000e+02 3.030000000000000000e+02 3.040000000000000000e+02 3.050000000000000000e+02 3.060000000000000000e+02 3.070000000000000000e+02 3.080000000000000000e+02 3.090000000000000000e+02 3.100000000000000000e+02 3.110000000000000000e+02 3.120000000000000000e+02 3.130000000000000000e+02 3.140000000000000000e+02 3.150000000000000000e+02 3.160000000000000000e+02 3.170000000000000000e+02 3.180000000000000000e+02 3.190000000000000000e+02 3.200000000000000000e+02 3.210000000000000000e+02 3.220000000000000000e+02 3.230000000000000000e+02 3.240000000000000000e+02 3.250000000000000000e+02 3.260000000000000000e+02 3.270000000000000000e+02 3.280000000000000000e+02 3.290000000000000000e+02 3.300000000000000000e+02 3.310000000000000000e+02 3.320000000000000000e+02 3.330000000000000000e+02 3.340000000000000000e+02 3.350000000000000000e+02 3.360000000000000000e+02 3.370000000000000000e+02 3.380000000000000000e+02 3.390000000000000000e+02 3.400000000000000000e+02 3.410000000000000000e+02 3.420000000000000000e+02 3.430000000000000000e+02 3.440000000000000000e+02 3.450000000000000000e+02 3.460000000000000000e+02 3.470000000000000000e+02 3.480000000000000000e+02 3.490000000000000000e+02 3.500000000000000000e+02 3.510000000000000000e+02 3.520000000000000000e+02 3.530000000000000000e+02 3.540000000000000000e+02 3.550000000000000000e+02 3.560000000000000000e+02 3.570000000000000000e+02 3.580000000000000000e+02 3.590000000000000000e+02 3.600000000000000000e+02 3.610000000000000000e+02 3.620000000000000000e+02 3.630000000000000000e+02 3.640000000000000000e+02 3.650000000000000000e+02 3.660000000000000000e+02 3.670000000000000000e+02 3.680000000000000000e+02 3.690000000000000000e+02 3.700000000000000000e+02 3.710000000000000000e+02 3.720000000000000000e+02 3.730000000000000000e+02 3.740000000000000000e+02 3.750000000000000000e+02 3.760000000000000000e+02 3.770000000000000000e+02 3.780000000000000000e+02 3.790000000000000000e+02 3.800000000000000000e+02 3.810000000000000000e+02 3.820000000000000000e+02 3.830000000000000000e+02 3.840000000000000000e+02 3.850000000000000000e+02 3.860000000000000000e+02 3.870000000000000000e+02 3.880000000000000000e+02 3.890000000000000000e+02 3.900000000000000000e+02 3.910000000000000000e+02 3.920000000000000000e+02 3.930000000000000000e+02 3.940000000000000000e+02 3.950000000000000000e+02 3.960000000000000000e+02 3.970000000000000000e+02 3.980000000000000000e+02 3.990000000000000000e+02 4.000000000000000000e+02 4.010000000000000000e+02 4.020000000000000000e+02 4.030000000000000000e+02 4.040000000000000000e+02 4.050000000000000000e+02 4.060000000000000000e+02 4.070000000000000000e+02 4.080000000000000000e+02 4.090000000000000000e+02 4.100000000000000000e+02 4.110000000000000000e+02 4.120000000000000000e+02 4.130000000000000000e+02 4.140000000000000000e+02 4.150000000000000000e+02 4.160000000000000000e+02 4.170000000000000000e+02 4.180000000000000000e+02 4.190000000000000000e+02 4.200000000000000000e+02 4.210000000000000000e+02 4.220000000000000000e+02 4.230000000000000000e+02 4.240000000000000000e+02 4.250000000000000000e+02 4.260000000000000000e+02 4.270000000000000000e+02 4.280000000000000000e+02 4.290000000000000000e+02 4.300000000000000000e+02 4.310000000000000000e+02 4.320000000000000000e+02 4.330000000000000000e+02 4.340000000000000000e+02 4.350000000000000000e+02 4.360000000000000000e+02 4.370000000000000000e+02 4.380000000000000000e+02 4.390000000000000000e+02 4.400000000000000000e+02 4.410000000000000000e+02 4.420000000000000000e+02 4.430000000000000000e+02 4.440000000000000000e+02 4.450000000000000000e+02 4.460000000000000000e+02 4.470000000000000000e+02 4.480000000000000000e+02 4.490000000000000000e+02 4.500000000000000000e+02 4.510000000000000000e+02 4.520000000000000000e+02 4.530000000000000000e+02 4.540000000000000000e+02 4.550000000000000000e+02 4.560000000000000000e+02 4.570000000000000000e+02 4.580000000000000000e+02 4.590000000000000000e+02 4.600000000000000000e+02 4.610000000000000000e+02 4.620000000000000000e+02 4.630000000000000000e+02 4.640000000000000000e+02 4.650000000000000000e+02 4.660000000000000000e+02 4.670000000000000000e+02 4.680000000000000000e+02 4.690000000000000000e+02 4.700000000000000000e+02 4.710000000000000000e+02 4.720000000000000000e+02 4.730000000000000000e+02 4.740000000000000000e+02 4.750000000000000000e+02 4.760000000000000000e+02 4.770000000000000000e+02 4.780000000000000000e+02 4.790000000000000000e+02 4.800000000000000000e+02 4.810000000000000000e+02 4.820000000000000000e+02 4.830000000000000000e+02 4.840000000000000000e+02 4.850000000000000000e+02 4.860000000000000000e+02 4.870000000000000000e+02 4.880000000000000000e+02 4.890000000000000000e+02 4.900000000000000000e+02 4.910000000000000000e+02 4.920000000000000000e+02 4.930000000000000000e+02 4.940000000000000000e+02 4.950000000000000000e+02 4.960000000000000000e+02 4.970000000000000000e+02 4.980000000000000000e+02 4.990000000000000000e+02 5.000000000000000000e+02 5.010000000000000000e+02 5.020000000000000000e+02 5.030000000000000000e+02 5.040000000000000000e+02 5.050000000000000000e+02 5.060000000000000000e+02 5.070000000000000000e+02 5.080000000000000000e+02 5.090000000000000000e+02 5.100000000000000000e+02 5.110000000000000000e+02 5.120000000000000000e+02 5.130000000000000000e+02 5.140000000000000000e+02 5.150000000000000000e+02 5.160000000000000000e+02 5.170000000000000000e+02 5.180000000000000000e+02 5.190000000000000000e+02 5.200000000000000000e+02 5.210000000000000000e+02 5.220000000000000000e+02 5.230000000000000000e+02 5.240000000000000000e+02 5.250000000000000000e+02 5.260000000000000000e+02 5.270000000000000000e+02 5.280000000000000000e+02 5.290000000000000000e+02 5.300000000000000000e+02 5.310000000000000000e+02 5.320000000000000000e+02 5.330000000000000000e+02 5.340000000000000000e+02 5.350000000000000000e+02 5.360000000000000000e+02 5.370000000000000000e+02 5.380000000000000000e+02 5.390000000000000000e+02 5.400000000000000000e+02 5.410000000000000000e+02 5.420000000000000000e+02 5.430000000000000000e+02 5.440000000000000000e+02 5.450000000000000000e+02 5.460000000000000000e+02 5.470000000000000000e+02 5.480000000000000000e+02 5.490000000000000000e+02 5.500000000000000000e+02 5.510000000000000000e+02 5.520000000000000000e+02 5.530000000000000000e+02 5.540000000000000000e+02 5.550000000000000000e+02 5.560000000000000000e+02 5.570000000000000000e+02 5.580000000000000000e+02 5.590000000000000000e+02 5.600000000000000000e+02 5.610000000000000000e+02 5.620000000000000000e+02 5.630000000000000000e+02 5.640000000000000000e+02 5.650000000000000000e+02 5.660000000000000000e+02 5.670000000000000000e+02 5.680000000000000000e+02 5.690000000000000000e+02 5.700000000000000000e+02 5.710000000000000000e+02 5.720000000000000000e+02 5.730000000000000000e+02 5.740000000000000000e+02 5.750000000000000000e+02 5.760000000000000000e+02 5.770000000000000000e+02 5.780000000000000000e+02 5.790000000000000000e+02 5.800000000000000000e+02 5.810000000000000000e+02 5.820000000000000000e+02 5.830000000000000000e+02 5.840000000000000000e+02 5.850000000000000000e+02 5.860000000000000000e+02 5.870000000000000000e+02 5.880000000000000000e+02 5.890000000000000000e+02 5.900000000000000000e+02 5.910000000000000000e+02 5.920000000000000000e+02 5.930000000000000000e+02 5.940000000000000000e+02 5.950000000000000000e+02 5.960000000000000000e+02 5.970000000000000000e+02 5.980000000000000000e+02 5.990000000000000000e+02 6.000000000000000000e+02 6.010000000000000000e+02 6.020000000000000000e+02 6.030000000000000000e+02 6.040000000000000000e+02 6.050000000000000000e+02 6.060000000000000000e+02 6.070000000000000000e+02 6.080000000000000000e+02 6.090000000000000000e+02 6.100000000000000000e+02 6.110000000000000000e+02 6.120000000000000000e+02 6.130000000000000000e+02 6.140000000000000000e+02 6.150000000000000000e+02 6.160000000000000000e+02 6.170000000000000000e+02 6.180000000000000000e+02 6.190000000000000000e+02 6.200000000000000000e+02 6.210000000000000000e+02 6.220000000000000000e+02 6.230000000000000000e+02 6.240000000000000000e+02 6.250000000000000000e+02 6.260000000000000000e+02 6.270000000000000000e+02 6.280000000000000000e+02 6.290000000000000000e+02 6.300000000000000000e+02 6.310000000000000000e+02 6.320000000000000000e+02 6.330000000000000000e+02 6.340000000000000000e+02 6.350000000000000000e+02 6.360000000000000000e+02 6.370000000000000000e+02 6.380000000000000000e+02 6.390000000000000000e+02 6.400000000000000000e+02 6.410000000000000000e+02 6.420000000000000000e+02 6.430000000000000000e+02 6.440000000000000000e+02 6.450000000000000000e+02 6.460000000000000000e+02 6.470000000000000000e+02 6.480000000000000000e+02 6.490000000000000000e+02 6.500000000000000000e+02 6.510000000000000000e+02 6.520000000000000000e+02 6.530000000000000000e+02 6.540000000000000000e+02 6.550000000000000000e+02 6.560000000000000000e+02 6.570000000000000000e+02 6.580000000000000000e+02 6.590000000000000000e+02 6.600000000000000000e+02 6.610000000000000000e+02 6.620000000000000000e+02 6.630000000000000000e+02 6.640000000000000000e+02 6.650000000000000000e+02 6.660000000000000000e+02 6.670000000000000000e+02 6.680000000000000000e+02 6.690000000000000000e+02 6.700000000000000000e+02 6.710000000000000000e+02 6.720000000000000000e+02 6.730000000000000000e+02 6.740000000000000000e+02 6.750000000000000000e+02 6.760000000000000000e+02 6.770000000000000000e+02 6.780000000000000000e+02 6.790000000000000000e+02 6.800000000000000000e+02 6.810000000000000000e+02 6.820000000000000000e+02 6.830000000000000000e+02 6.840000000000000000e+02 6.850000000000000000e+02 6.860000000000000000e+02 6.870000000000000000e+02 6.880000000000000000e+02 6.890000000000000000e+02 6.900000000000000000e+02 6.910000000000000000e+02 6.920000000000000000e+02 6.930000000000000000e+02 6.940000000000000000e+02 6.950000000000000000e+02 6.960000000000000000e+02 6.970000000000000000e+02 6.980000000000000000e+02 6.990000000000000000e+02 7.000000000000000000e+02 7.010000000000000000e+02 7.020000000000000000e+02 7.030000000000000000e+02 7.040000000000000000e+02 7.050000000000000000e+02 7.060000000000000000e+02 7.070000000000000000e+02 7.080000000000000000e+02 7.090000000000000000e+02 7.100000000000000000e+02 7.110000000000000000e+02 7.120000000000000000e+02 7.130000000000000000e+02 7.140000000000000000e+02 7.150000000000000000e+02 7.160000000000000000e+02 7.170000000000000000e+02 7.180000000000000000e+02 7.190000000000000000e+02 7.200000000000000000e+02 7.210000000000000000e+02 7.220000000000000000e+02 7.230000000000000000e+02 7.240000000000000000e+02 7.250000000000000000e+02 7.260000000000000000e+02 7.270000000000000000e+02 7.280000000000000000e+02 7.290000000000000000e+02 7.300000000000000000e+02 7.310000000000000000e+02 7.320000000000000000e+02 7.330000000000000000e+02 7.340000000000000000e+02 7.350000000000000000e+02 7.360000000000000000e+02 7.370000000000000000e+02 7.380000000000000000e+02 7.390000000000000000e+02 7.400000000000000000e+02 7.410000000000000000e+02 7.420000000000000000e+02 7.430000000000000000e+02 7.440000000000000000e+02 7.450000000000000000e+02 7.460000000000000000e+02 7.470000000000000000e+02 7.480000000000000000e+02 7.490000000000000000e+02 7.500000000000000000e+02 7.510000000000000000e+02 7.520000000000000000e+02 7.530000000000000000e+02 7.540000000000000000e+02 7.550000000000000000e+02 7.560000000000000000e+02 7.570000000000000000e+02 7.580000000000000000e+02 7.590000000000000000e+02 7.600000000000000000e+02 7.610000000000000000e+02 7.620000000000000000e+02 7.630000000000000000e+02 7.640000000000000000e+02 7.650000000000000000e+02 7.660000000000000000e+02 7.670000000000000000e+02 7.680000000000000000e+02 7.690000000000000000e+02 7.700000000000000000e+02 7.710000000000000000e+02 7.720000000000000000e+02 7.730000000000000000e+02 7.740000000000000000e+02 7.750000000000000000e+02 7.760000000000000000e+02 7.770000000000000000e+02 7.780000000000000000e+02 7.790000000000000000e+02 7.800000000000000000e+02 7.810000000000000000e+02 7.820000000000000000e+02 7.830000000000000000e+02 7.840000000000000000e+02 7.850000000000000000e+02 7.860000000000000000e+02 7.870000000000000000e+02 7.880000000000000000e+02 7.890000000000000000e+02 7.900000000000000000e+02 7.910000000000000000e+02 7.920000000000000000e+02 7.930000000000000000e+02 7.940000000000000000e+02 7.950000000000000000e+02 7.960000000000000000e+02 7.970000000000000000e+02 7.980000000000000000e+02 7.990000000000000000e+02 8.000000000000000000e+02 8.010000000000000000e+02 8.020000000000000000e+02 8.030000000000000000e+02 8.040000000000000000e+02 8.050000000000000000e+02 8.060000000000000000e+02 8.070000000000000000e+02 8.080000000000000000e+02 8.090000000000000000e+02 8.100000000000000000e+02 8.110000000000000000e+02 8.120000000000000000e+02 8.130000000000000000e+02 8.140000000000000000e+02 8.150000000000000000e+02 8.160000000000000000e+02 8.170000000000000000e+02 8.180000000000000000e+02 8.190000000000000000e+02 8.200000000000000000e+02 8.210000000000000000e+02 8.220000000000000000e+02 8.230000000000000000e+02 8.240000000000000000e+02 8.250000000000000000e+02 8.260000000000000000e+02 8.270000000000000000e+02 8.280000000000000000e+02 8.290000000000000000e+02 8.300000000000000000e+02 8.310000000000000000e+02 8.320000000000000000e+02 8.330000000000000000e+02 8.340000000000000000e+02 8.350000000000000000e+02 8.360000000000000000e+02 8.370000000000000000e+02 8.380000000000000000e+02 8.390000000000000000e+02 8.400000000000000000e+02 8.410000000000000000e+02 8.420000000000000000e+02 8.430000000000000000e+02 8.440000000000000000e+02 8.450000000000000000e+02 8.460000000000000000e+02 8.470000000000000000e+02 8.480000000000000000e+02 8.490000000000000000e+02 8.500000000000000000e+02 8.510000000000000000e+02 8.520000000000000000e+02 8.530000000000000000e+02 8.540000000000000000e+02 8.550000000000000000e+02 8.560000000000000000e+02 8.570000000000000000e+02 8.580000000000000000e+02 8.590000000000000000e+02 8.600000000000000000e+02 8.610000000000000000e+02 8.620000000000000000e+02 8.630000000000000000e+02 8.640000000000000000e+02 8.650000000000000000e+02 8.660000000000000000e+02 8.670000000000000000e+02 8.680000000000000000e+02 8.690000000000000000e+02 8.700000000000000000e+02 8.710000000000000000e+02 8.720000000000000000e+02 8.730000000000000000e+02 8.740000000000000000e+02 8.750000000000000000e+02 8.760000000000000000e+02 8.770000000000000000e+02 8.780000000000000000e+02 8.790000000000000000e+02 8.800000000000000000e+02 8.810000000000000000e+02 8.820000000000000000e+02 8.830000000000000000e+02 8.840000000000000000e+02 8.850000000000000000e+02 8.860000000000000000e+02 8.870000000000000000e+02 8.880000000000000000e+02 8.890000000000000000e+02 8.900000000000000000e+02 8.910000000000000000e+02 8.920000000000000000e+02 8.930000000000000000e+02 8.940000000000000000e+02 8.950000000000000000e+02 8.960000000000000000e+02 8.970000000000000000e+02 8.980000000000000000e+02 8.990000000000000000e+02 9.000000000000000000e+02 9.010000000000000000e+02 9.020000000000000000e+02 9.030000000000000000e+02 9.040000000000000000e+02 9.050000000000000000e+02 9.060000000000000000e+02 9.070000000000000000e+02 9.080000000000000000e+02 9.090000000000000000e+02 9.100000000000000000e+02 9.110000000000000000e+02 9.120000000000000000e+02 9.130000000000000000e+02 9.140000000000000000e+02 9.150000000000000000e+02 9.160000000000000000e+02 9.170000000000000000e+02 9.180000000000000000e+02 9.190000000000000000e+02 9.200000000000000000e+02 9.210000000000000000e+02 9.220000000000000000e+02 9.230000000000000000e+02 9.240000000000000000e+02 9.250000000000000000e+02 9.260000000000000000e+02 9.270000000000000000e+02 9.280000000000000000e+02 9.290000000000000000e+02 9.300000000000000000e+02 9.310000000000000000e+02 9.320000000000000000e+02 9.330000000000000000e+02 9.340000000000000000e+02 9.350000000000000000e+02 9.360000000000000000e+02 9.370000000000000000e+02 9.380000000000000000e+02 9.390000000000000000e+02 9.400000000000000000e+02 9.410000000000000000e+02 9.420000000000000000e+02 9.430000000000000000e+02 9.440000000000000000e+02 9.450000000000000000e+02 9.460000000000000000e+02 9.470000000000000000e+02 9.480000000000000000e+02 9.490000000000000000e+02 9.500000000000000000e+02 9.510000000000000000e+02 9.520000000000000000e+02 9.530000000000000000e+02 9.540000000000000000e+02 9.550000000000000000e+02 9.560000000000000000e+02 9.570000000000000000e+02 9.580000000000000000e+02 9.590000000000000000e+02 9.600000000000000000e+02 9.610000000000000000e+02 9.620000000000000000e+02 9.630000000000000000e+02 9.640000000000000000e+02 9.650000000000000000e+02 9.660000000000000000e+02 9.670000000000000000e+02 9.680000000000000000e+02 9.690000000000000000e+02 9.700000000000000000e+02 9.710000000000000000e+02 9.720000000000000000e+02 9.730000000000000000e+02 9.740000000000000000e+02 9.750000000000000000e+02 9.760000000000000000e+02 9.770000000000000000e+02 9.780000000000000000e+02 9.790000000000000000e+02 9.800000000000000000e+02 9.810000000000000000e+02 9.820000000000000000e+02 9.830000000000000000e+02 9.840000000000000000e+02 9.850000000000000000e+02 9.860000000000000000e+02 9.870000000000000000e+02 9.880000000000000000e+02 9.890000000000000000e+02 9.900000000000000000e+02 9.910000000000000000e+02 9.920000000000000000e+02 9.930000000000000000e+02 9.940000000000000000e+02 9.950000000000000000e+02 9.960000000000000000e+02 9.970000000000000000e+02 9.980000000000000000e+02 9.990000000000000000e+02 1.000000000000000000e+03
1.000000000000000021e-02 1.000000000000000021e-02 1.000000000000000021e-02 1.000000000000000021e-02 1.000000000000000021e-02 1.000000000000000021e-02 1.000000000000000021e-02 1.000000000000000021e-02 1.000000000000000021e-02 1.000000000000000021e-02 1.000000000000000021e-02 1.000000000000000021e-02 1.000000000000000021e-02 1.000000000000000021e-02 1.000000000000000021e-02 1.000000000000000021e-02 1.000000000000000021e-02 1.000000000000000021e-02 1.000000000000000021e-02 1.000000000000000021e-02 1.000000000000000021e-02 1.000000000000000021e-02 1.000000000000000021e-02 1.000000000000000021e-02 1.000000000000000021e-02 1.000000000000000021e-02 1.000000000000000021e-02 1.000000000000000021e-02 1.000000000000000021e-02 1.000000000000000021e-02 1.000000000000000021e-02 1.000000000000000021e-02 1.000000000000000021e-02 1.000000000000000021e-02 1.000000000000000021e-02 1.000000000000000021e-02 1.000000000000000021e-02 1.000000000000000021e-02 1.000000000000000021e-02 1.000000000000000021e-02 1.000000000000000021e-02 1.000000000000000021e-02 1.000000000000000021e-02 1.000000000000000021e-02 1.000000000000000021e-02 1.000000000000000021e-02 1.000000000000000021e-02 1.000000000000000021e-02 1.000000000000000021e-02 1.000000000000000021e-02 1.000000000000000021e-02 1.000000000000000021e-02 1.000000000000000021e-02 1.000000000000000021e-02 1.000000000000000021e-02 1.000000000000000021e-02 1.000000000000000021e-02 1.000000000000000021e-02 1.000000000000000021e-02 1.000000000000000021e-02 1.000000000000000021e-02 1.000000000000000021e-02 1.000000000000000021e-02 1.000000000000000021e-02 1.000000000000000021e-02 1.000000000000000021e-02 1.000000000000000021e-02 1.000000000000000021e-02 1.000000000000000021e-02 1.000000000000000021e-02 1.000000000000000021e-02 1.000000000000000021e-02 1.000000000000000021e-02 1.000000000000000021e-02 1.000000000000000021e-02 1.000000000000000021e-02 1.000000000000000021e-02 1.000000000000000021e-02 1.000000000000000021e-02 1.000000000000000021e-02 1.000000000000000021e-02 1.000000000000000021e-02 1.000000000000000021e-02 1.000000000000000021e-02 1.000000000000000021e-02 1.000000000000000021e-02 1.000000000000000021e-02 1.000000000000000021e-02 1.000000000000000021e-02 1.000000000000000021e-02 1.000000000000000021e-02 1.000000000000000021e-02 1.000000000000000021e-02 1.000000000000000021e-02 1.000000000000000021e-02 1.000000000000000021e-02 1.000000000000000021e-02 1.000000000000000021e-02 1.000000000000000021e-02 1.000000000000000021e-02 1.000000000000000021e-02 1.000000000000000021e-02 1.000000000000000021e-02 1.000000000000000021e-02 1.000000000000000021e-02 1.000000000000000021e-02 1.000000000000000021e-02 1.000000000000000021e-02 1.000000000000000021e-02 1.000000000000000021e-02 1.000000000000000021e-02 1.000000000000000021e-02 1.000000000000000021e-02 1.000000000000000021e-02 1.000000000000000021e-02 1.000000000000000021e-02 1.000000000000000021e-02 1.000000000000000021e-02 1.000000000000000021e-02 1.000000000000000021e-02 1.000000000000000021e-02 1.000000000000000021e-02 1.000000000000000021e-02 1.000000000000000021e-02 1.000000000000000021e-02 1.000000000000000021e-02 1.000000000000000021e-02 1.000000000000000021e-02 1.000000000000000021e-02 1.000000000000000021e-02 1.000000000000000021e-02 1.000000000000000021e-02 1.000000000000000021e-02 1.000000000000000021e-02 1.000000000000000021e-02 1.000000000000000021e-02 1.000000000000000021e-02 1.000000000000000021e-02 1.000000000000000021e-02 1.000000000000000021e-02 1.000000000000000021e-02 1.000000000000000021e-02 1.000000000000000021e-02 1.000000000000000021e-02 1.000000000000000021e-02 1.000000000000000021e-02 1.000000000000000021e-02 1.000000000000000021e-02 1.000000000000000021e-02 1.000000000000000021e-02 1.000000000000000021e-02 1.000000000000000021e-02 1.000000000000000021e-02 1.000000000000000021e-02 1.000000000000000021e-02 1.000000000000000021e-02 1.000000000000000021e-02 1.000000000000000021e-02 1.000000000000000021e-02 1.000000000000000021e-02 1.000000000000000021e-02 1.000000000000000021e-02 1.000000000000000021e-02 1.000000000000000021e-02 1.000000000000000021e-02 1.000000000000000021e-02 1.000000000000000021e-02 1.000000000000000021e-02 1.000000000000000021e-02 1.000000000000000021e-02 1.000000000000000021e-02 1.000000000000000021e-02 1.000000000000000021e-02 1.000000000000000021e-02 1.000000000000000021e-02 1.000000000000000021e-02 1.000000000000000021e-02 1.000000000000000021e-02 1.000000000000000021e-02 1.000000000000000021e-02 1.000000000000000021e-02 1.000000000000000021e-02 1.000000000000000021e-02 1.000000000000000021e-02 1.000000000000000021e-02 1.000000000000000021e-02 1.000000000000000021e-02 1.000000000000000021e-02 1.000000000000000021e-02 1.000000000000000021e-02 1.000000000000000021e-02 1.000000000000000021e-02 1.000000000000000021e-02 1.000000000000000021e-02 1.000000000000000021e-02 1.000000000000000021e-02 1.000000000000000021e-02 1.000000000000000021e-02 1.000000000000000021e-02 1.000000000000000021e-02 1.000000000000000021e-02 1.000000000000000021e-02 1.000000000000000021e-02 1.000000000000000021e-02 1.000000000000000021e-02 1.000000000000000021e-02 1.000000000000000021e-02 1.000000000000000021e-02 1.000000000000000021e-02 1.000000000000000021e-02 1.000000000000000021e-02 1.000000000000000021e-02 1.000000000000000021e-02 1.000000000000000021e-02 1.000000000000000021e-02 1.000000000000000021e-02 1.000000000000000021e-02 1.000000000000000021e-02 1.000000000000000021e-02 1.000000000000000021e-02 1.000000000000000021e-02 1.000000000000000021e-02 1.000000000000000021e-02 1.000000000000000021e-02 1.000000000000000021e-02 1.000000000000000021e-02 1.000000000000000021e-02 1.000000000000000021e-02 1.000000000000000021e-02 1.000000000000000021e-02 1.000000000000000021e-02 1.000000000000000021e-02 1.000000000000000021e-02 1.000000000000000021e-02 1.000000000000000021e-02 1.000000000000000021e-02 1.000000000000000021e-02 1.000000000000000021e-02 1.000000000000000021e-02 1.000000000000000021e-02 1.000000000000000021e-02 1.000000000000000021e-02 1.000000000000000021e-02 1.000000000000000021e-02 1.000000000000000021e-02 1.000000000000000021e-02 1.000000000000000021e-02 1.000000000000000021e-02 1.000000000000000021e-02 1.000000000000000021e-02 1.000000000000000021e-02 1.000000000000000021e-02 1.000000000000000021e-02 1.000000000000000021e-02 1.000000000000000021e-02 1.000000000000000021e-02 1.000000000000000021e-02 1.000000000000000021e-02 1.000000000000000021e-02 1.000000000000000021e-02 1.000000000000000021e-02 1.000000000000000021e-02 1.000000000000000021e-02 1.000000000000000021e-02 1.000000000000000021e-02 1.000000000000000021e-02 1.000000000000000021e-02 1.000000000000000021e-02 1.000000000000000021e-02 1.000000000000000021e-02 1.000000000000000021e-02 1.000000000000000021e-02 1.000000000000000021e-02 1.000000000000000021e-02 1.000000000000000021e-02 1.000000000000000021e-02 1.000000000000000021e-02 1.000000000000000021e-02 1.000000000000000021e-02 1.000000000000000021e-02 1.000000000000000021e-02 1.000000000000000021e-02 1.000000000000000021e-02 1.000000000000000021e-02 1.000000000000000021e-02 1.000000000000000021e-02 1.000000000000000021e-02 1.000000000000000021e-02 1.000000000000000021e-02 1.000000000000000021e-02 1.000000000000000021e-02 1.000000000000000021e-02 1.000000000000000021e-02 1.000000000000000021e-02 1.000000000000000021e-02 1.000000000000000021e-02 1.000000000000000021e-02 1.000000000000000021e-02 1.000000000000000021e-02 1.000000000000000021e-02 1.000000000000000021e-02 1.000000000000000021e-02 1.000000000000000021e-02 1.000000000000000021e-02 1.000000000000000021e-02 1.000000000000000021e-02 1.000000000000000021e-02 1.000000000000000021e-02 1.000000000000000021e-02 1.000000000000000021e-02 1.000000000000000021e-02 1.000000000000000021e-02 1.000000000000000021e-02 1.000000000000000021e-02 1.000000000000000021e-02 1.000000000000000021e-02 1.000000000000000021e-02 1.000000000000000021e-02 1.000000000000000021e-02 1.000000000000000021e-02 1.000000000000000021e-02 1.000000000000000021e-02 1.000000000000000021e-02 1.000000000000000021e-02 1.000000000000000021e-02 1.000000000000000021e-02 1.000000000000000021e-02 1.000000000000000021e-02 1.000000000000000021e-02 1.000000000000000021e-02 1.000000000000000021e-02 1.000000000000000021e-02 1.000000000000000021e-02 1.000000000000000021e-02 1.000000000000000021e-02 1.000000000000000021e-02 1.000000000000000021e-02 1.000000000000000021e-02 1.000000000000000021e-02 1.000000000000000021e-02 1.000000000000000021e-02 1.000000000000000021e-02 1.000000000000000021e-02 1.000000000000000021e-02 1.000000000000000021e-02 1.000000000000000021e-02 1.000000000000000021e-02 1.000000000000000021e-02 1.000000000000000021e-02 1.000000000000000021e-02 1.000000000000000021e-02 1.000000000000000021e-02 1.000000000000000021e-02 1.000000000000000021e-02 1.000000000000000021e-02 1.000000000000000021e-02 1.000000000000000021e-02 1.000000000000000021e-02 1.000000000000000021e-02 1.000000000000000021e-02 1.000000000000000021e-02 1.000000000000000021e-02 1.000000000000000021e-02 1.000000000000000021e-02 1.000000000000000021e-02 1.000000000000000021e-02 1.000000000000000021e-02 1.000000000000000021e-02 1.000000000000000021e-02 1.000000000000000021e-02 1.000000000000000021e-02 1.000000000000000021e-02 1.000000000000000021e-02 1.000000000000000021e-02 1.000000000000000021e-02 1.000000000000000021e-02 1.000000000000000021e-02 1.000000000000000021e-02 1.000000000000000021e-02 1.000000000000000021e-02 1.000000000000000021e-02 1.000000000000000021e-02 1.000000000000000021e-02 1.000000000000000021e-02 1.000000000000000021e-02 1.000000000000000021e-02 1.000000000000000021e-02 1.000000000000000021e-02 1.000000000000000021e-02 1.000000000000000021e-02 1.000000000000000021e-02 1.000000000000000021e-02 1.000000000000000021e-02 1.000000000000000021e-02 1.000000000000000021e-02 1.000000000000000021e-02 1.000000000000000021e-02 1.000000000000000021e-02 1.000000000000000021e-02 1.000000000000000021e-02 1.000000000000000021e-02 1.000000000000000021e-02 1.000000000000000021e-02 1.000000000000000021e-02 1.000000000000000021e-02 1.000000000000000021e-02 1.000000000000000021e-02 1.000000000000000021e-02 1.000000000000000021e-02 1.000000000000000021e-02 1.000000000000000021e-02 1.000000000000000021e-02 1.000000000000000021e-02 1.000000000000000021e-02 1.000000000000000021e-02 1.000000000000000021e-02 1.000000000000000021e-02 1.000000000000000021e-02 1.000000000000000021e-02 1.000000000000000021e-02 1.000000000000000021e-02 1.000000000000000021e-02 1.000000000000000021e-02 1.000000000000000021e-02 1.000000000000000021e-02 1.000000000000000021e-02 1.000000000000000021e-02 1.000000000000000021e-02 1.000000000000000021e-02 1.000000000000000021e-02 1.000000000000000021e-02 1.000000000000000021e-02 1.000000000000000021e-02 1.000000000000000021e-02 1.000000000000000021e-02 1.000000000000000021e-02 1.000000000000000021e-02 1.000000000000000021e-02 1.000000000000000021e-02 1.000000000000000021e-02 1.000000000000000021e-02 1.000000000000000021e-02 1.000000000000000021e-02 1.000000000000000021e-02 1.000000000000000021e-02 1.000000000000000021e-02 1.000000000000000021e-02 1.000000000000000021e-02 1.000000000000000021e-02 1.000000000000000021e-02 1.000000000000000021e-02 1.000000000000000021e-02 1.000000000000000021e-02 1.000000000000000021e-02 1.000000000000000021e-02 1.000000000000000021e-02 1.000000000000000021e-02 1.000000000000000021e-02 1.000000000000000021e-02 1.000000000000000021e-02 1.000000000000000021e-02 1.000000000000000021e-02 1.000000000000000021e-02 1.000000000000000021e-02 1.000000000000000021e-02 1.000000000000000021e-02 1.000000000000000021e-02 1.000000000000000021e-02 1.000000000000000021e-02 1.000000000000000021e-02 1.000000000000000021e-02 1.000000000000000021e-02 1.000000000000000021e-02 1.000000000000000021e-02 1.000000000000000021e-02 1.000000000000000021e-02 1.000000000000000021e-02 1.000000000000000021e-02 1.000000000000000021e-02 1.000000000000000021e-02 1.000000000000000021e-02 1.000000000000000021e-02 1.000000000000000021e-02 1.000000000000000021e-02 1.000000000000000021e-02 1.000000000000000021e-02 1.000000000000000021e-02 1.000000000000000021e-02 1.000000000000000021e-02 1.000000000000000021e-02 1.000000000000000021e-02 1.000000000000000021e-02 1.000000000000000021e-02 1.000000000000000021e-02 1.000000000000000021e-02 1.000000000000000021e-02 1.000000000000000021e-02 1.000000000000000021e-02 1.000000000000000021e-02 1.000000000000000021e-02 1.000000000000000021e-02 1.000000000000000021e-02 1.000000000000000021e-02 1.000000000000000021e-02 1.000000000000000021e-02 1.000000000000000021e-02 1.000000000000000021e-02 1.000000000000000021e-02 1.000000000000000021e-02 1.000000000000000021e-02 1.000000000000000021e-02 1.000000000000000021e-02 1.000000000000000021e-02 1.000000000000000021e-02 1.000000000000000021e-02 1.000000000000000021e-02 1.000000000000000021e-02 1.000000000000000021e-02 1.000000000000000021e-02 1.000000000000000021e-02 1.000000000000000021e-02 1.000000000000000021e-02 1.000000000000000021e-02 1.000000000000000021e-02 1.000000000000000021e-02 1.000000000000000021e-02 1.000000000000000021e-02 1.000000000000000021e-02 1.000000000000000021e-02 1.000000000000000021e-02 1.000000000000000021e-02 1.000000000000000021e-02 1.000000000000000021e-02 1.000000000000000021e-02 1.000000000000000021e-02 1.000000000000000021e-02 1.000000000000000021e-02 1.000000000000000021e-02 1.000000000000000021e-02 1.000000000000000021e-02 1.000000000000000021e-02 1.000000000000000021e-02 1.000000000000000021e-02 1.000000000000000021e-02 1.000000000000000021e-02 1.000000000000000021e-02 1.000000000000000021e-02 1.000000000000000021e-02 1.000000000000000021e-02 1.000000000000000021e-02 1.000000000000000021e-02 1.000000000000000021e-02 1.000000000000000021e-02 1.000000000000000021e-02 1.000000000000000021e-02 1.000000000000000021e-02 1.000000000000000021e-02 1.000000000000000021e-02 1.000000000000000021e-02 1.000000000000000021e-02 1.000000000000000021e-02 1.000000000000000021e-02 1.000000000000000021e-02 1.000000000000000021e-02 1.000000000000000021e-02 1.000000000000000021e-02 1.000000000000000021e-02 1.000000000000000021e-02 1.000000000000000021e-02 1.000000000000000021e-02 1.000000000000000021e-02 1.000000000000000021e-02 1.000000000000000021e-02 1.000000000000000021e-02 1.000000000000000021e-02 1.000000000000000021e-02 1.000000000000000021e-02 1.000000000000000021e-02 1.000000000000000021e-02 1.000000000000000021e-02 1.000000000000000021e-02 1.000000000000000021e-02 1.000000000000000021e-02 1.000000000000000021e-02 1.000000000000000021e-02 1.000000000000000021e-02 1.000000000000000021e-02 1.000000000000000021e-02 1.000000000000000021e-02 1.000000000000000021e-02 1.000000000000000021e-02 1.000000000000000021e-02 1.000000000000000021e-02 1.000000000000000021e-02 1.000000000000000021e-02 1.000000000000000021e-02 1.000000000000000021e-02 1.000000000000000021e-02 1.000000000000000021e-02 1.000000000000000021e-02 1.000000000000000021e-02 1.000000000000000021e-02 1.000000000000000021e-02 1.000000000000000021e-02 1.000000000000000021e-02 1.000000000000000021e-02 1.000000000000000021e-02 1.000000000000000021e-02 1.000000000000000021e-02 1.000000000000000021e-02 1.000000000000000021e-02 1.000000000000000021e-02 1.000000000000000021e-02 1.000000000000000021e-02 1.000000000000000021e-02 1.000000000000000021e-02 1.000000000000000021e-02 1.000000000000000021e-02 1.000000000000000021e-02 1.000000000000000021e-02 1.000000000000000021e-02 1.000000000000000021e-02 1.000000000000000021e-02 1.000000000000000021e-02 1.000000000000000021e-02 1.000000000000000021e-02 1.000000000000000021e-02 1.000000000000000021e-02 1.000000000000000021e-02 1.000000000000000021e-02 1.000000000000000021e-02 1.000000000000000021e-02 1.000000000000000021e-02 1.000000000000000021e-02 1.000000000000000021e-02 1.000000000000000021e-02 1.000000000000000021e-02 1.000000000000000021e-02 1.000000000000000021e-02 1.000000000000000021e-02 1.000000000000000021e-02 1.000000000000000021e-02 1.000000000000000021e-02 1.000000000000000021e-02 1.000000000000000021e-02 1.000000000000000021e-02 1.000000000000000021e-02 1.000000000000000021e-02 1.000000000000000021e-02 1.000000000000000021e-02 1.000000000000000021e-02 1.000000000000000021e-02 1.000000000000000021e-02 1.000000000000000021e-02 1.000000000000000021e-02 1.000000000000000021e-02 1.000000000000000021e-02 1.000000000000000021e-02 1.000000000000000021e-02 1.000000000000000021e-02 1.000000000000000021e-02 1.000000000000000021e-02 1.000000000000000021e-02 1.000000000000000021e-02 1.000000000000000021e-02 1.000000000000000021e-02 1.000000000000000021e-02 1.000000000000000021e-02 1.000000000000000021e-02 1.000000000000000021e-02 1.000000000000000021e-02 1.000000000000000021e-02 1.000000000000000021e-02 1.000000000000000021e-02 1.000000000000000021e-02 1.000000000000000021e-02 1.000000000000000021e-02 1.000000000000000021e-02 1.000000000000000021e-02 1.000000000000000021e-02 1.000000000000000021e-02 1.000000000000000021e-02 1.000000000000000021e-02 1.000000000000000021e-02 1.000000000000000021e-02 1.000000000000000021e-02 1.000000000000000021e-02 1.000000000000000021e-02 1.000000000000000021e-02 1.000000000000000021e-02 1.000000000000000021e-02 1.000000000000000021e-02 1.000000000000000021e-02 1.000000000000000021e-02 1.000000000000000021e-02 1.000000000000000021e-02 1.000000000000000021e-02 1.000000000000000021e-02 1.000000000000000021e-02 1.000000000000000021e-02 1.000000000000000021e-02 1.000000000000000021e-02 1.000000000000000021e-02 1.000000000000000021e-02 1.000000000000000021e-02 1.000000000000000021e-02 1.000000000000000021e-02 1.000000000000000021e-02 1.000000000000000021e-02 1.000000000000000021e-02 1.000000000000000021e-02 1.000000000000000021e-02 1.000000000000000021e-02 1.000000000000000021e-02 1.000000000000000021e-02 1.000000000000000021e-02 1.000000000000000021e-02 1.000000000000000021e-02 1.000000000000000021e-02 1.000000000000000021e-02 1.000000000000000021e-02 1.000000000000000021e-02 1.000000000000000021e-02 1.000000000000000021e-02 1.000000000000000021e-02 1.000000000000000021e-02 1.000000000000000021e-02 1.000000000000000021e-02 1.000000000000000021e-02 1.000000000000000021e-02 1.000000000000000021e-02 1.000000000000000021e-02 1.000000000000000021e-02 1.000000000000000021e-02 1.000000000000000021e-02 1.000000000000000021e-02 1.000000000000000021e-02 1.000000000000000021e-02 1.000000000000000021e-02 1.000000000000000021e-02 1.000000000000000021e-02 1.000000000000000021e-02 1.000000000000000021e-02 1.000000000000000021e-02 1.000000000000000021e-02 1.000000000000000021e-02 1.000000000000000021e-02 1.000000000000000021e-02 1.000000000000000021e-02 1.000000000000000021e-02 1.000000000000000021e-02 1.000000000000000021e-02 1.000000000000000021e-02 1.000000000000000021e-02 1.000000000000000021e-02 1.000000000000000021e-02 1.000000000000000021e-02 1.000000000000000021e-02 1.000000000000000021e-02 1.000000000000000021e-02 1.000000000000000021e-02 1.000000000000000021e-02 1.000000000000000021e-02 1.000000000000000021e-02 1.000000000000000021e-02 1.000000000000000021e-02 1.000000000000000021e-02 1.000000000000000021e-02 1.000000000000000021e-02 1.000000000000000021e-02 1.000000000000000021e-02 1.000000000000000021e-02 1.000000000000000021e-02 1.000000000000000021e-02 1.000000000000000021e-02 1.000000000000000021e-02 1.000000000000000021e-02 1.000000000000000021e-02 1.000000000000000021e-02 1.000000000000000021e-02 1.000000000000000021e-02 1.000000000000000021e-02 1.000000000000000021e-02 1.000000000000000021e-02 1.000000000000000021e-02 1.000000000000000021e-02 1.000000000000000021e-02 1.000000000000000021e-02 1.000000000000000021e-02 1.000000000000000021e-02 1.000000000000000021e-02 1.000000000000000021e-02 1.000000000000000021e-02 1.000000000000000021e-02 1.000000000000000021e-02 1.000000000000000021e-02 1.000000000000000021e-02 1.000000000000000021e-02 1.000000000000000021e-02 1.000000000000000021e-02 1.000000000000000021e-02 1.000000000000000021e-02 1.000000000000000021e-02 1.000000000000000021e-02 1.000000000000000021e-02 1.000000000000000021e-02 1.000000000000000021e-02 1.000000000000000021e-02 1.000000000000000021e-02 1.000000000000000021e-02 1.000000000000000021e-02 1.000000000000000021e-02 1.000000000000000021e-02 1.000000000000000021e-02 1.000000000000000021e-02 1.000000000000000021e-02 1.000000000000000021e-02 1.000000000000000021e-02 1.000000000000000021e-02 1.000000000000000021e-02 1.000000000000000021e-02 1.000000000000000021e-02 1.000000000000000021e-02 1.000000000000000021e-02 1.000000000000000021e-02 1.000000000000000021e-02 1.000000000000000021e-02 1.000000000000000021e-02 1.000000000000000021e-02 1.000000000000000021e-02 1.000000000000000021e-02 1.000000000000000021e-02 1.000000000000000021e-02 1.000000000000000021e-02 1.000000000000000021e-02 1.000000000000000021e-02 1.000000000000000021e-02 1.000000000000000021e-02 1.000000000000000021e-02 1.000000000000000021e-02 1.000000000000000021e-02 1.000000000000000021e-02 1.000000000000000021e-02 1.000000000000000021e-02 1.000000000000000021e-02 1.000000000000000021e-02 1.000000000000000021e-02 1.000000000000000021e-02 1.000000000000000021e-02 1.000000000000000021e-02 1.000000000000000021e-02 1.000000000000000021e-02 1.000000000000000021e-02 1.000000000000000021e-02 1.000000000000000021e-02 1.000000000000000021e-02 1.000000000000000021e-02 1.000000000000000021e-02 1.000000000000000021e-02 1.000000000000000021e-02 1.000000000000000021e-02 1.000000000000000021e-02 1.000000000000000021e-02 1.000000000000000021e-02 1.000000000000000021e-02 1.000000000000000021e-02 1.000000000000000021e-02 1.000000000000000021e-02 1.000000000000000021e-02 1.000000000000000021e-02 1.000000000000000021e-02 1.000000000000000021e-02 1.000000000000000021e-02 1.000000000000000021e-02 1.000000000000000021e-02 1.000000000000000021e-02 1.000000000000000021e-02 1.000000000000000021e-02 1.000000000000000021e-02 1.000000000000000021e-02 1.000000000000000021e-02 1.000000000000000021e-02 1.000000000000000021e-02 1.000000000000000021e-02 1.000000000000000021e-02 1.000000000000000021e-02 1.000000000000000021e-02 1.000000000000000021e-02 1.000000000000000021e-02 1.000000000000000021e-02 1.000000000000000021e-02 1.000000000000000021e-02 1.000000000000000021e-02 1.000000000000000021e-02 1.000000000000000021e-02 1.000000000000000021e-02 1.000000000000000021e-02 1.000000000000000021e-02 1.000000000000000021e-02 1.000000000000000021e-02 1.000000000000000021e-02 1.000000000000000021e-02 1.000000000000000021e-02 1.000000000000000021e-02 1.000000000000000021e-02 1.000000000000000021e-02 1.000000000000000021e-02 1.000000000000000021e-02 1.000000000000000021e-02 1.000000000000000021e-02 1.000000000000000021e-02 1.000000000000000021e-02 1.000000000000000021e-02 1.000000000000000021e-02 1.000000000000000021e-02 1.000000000000000021e-02 1.000000000000000021e-02 1.000000000000000021e-02 1.000000000000000021e-02 1.000000000000000021e-02 1.000000000000000021e-02 1.000000000000000021e-02 1.000000000000000021e-02 1.000000000000000021e-02 1.000000000000000021e-02 1.000000000000000021e-02 1.000000000000000021e-02 1.000000000000000021e-02 1.000000000000000021e-02 1.000000000000000021e-02 1.000000000000000021e-02 1.000000000000000021e-02 1.000000000000000021e-02 1.000000000000000021e-02 1.000000000000000021e-02 1.000000000000000021e-02 1.000000000000000021e-02 1.000000000000000021e-02 1.000000000000000021e-02 1.000000000000000021e-02 1.000000000000000021e-02 1.000000000000000021e-02 1.000000000000000021e-02 1.000000000000000021e-02 1.000000000000000021e-02 1.000000000000000021e-02 1.000000000000000021e-02 1.000000000000000021e-02 1.000000000000000021e-02 1.000000000000000021e-02 1.000000000000000021e-02 1.000000000000000021e-02 1.000000000000000021e-02 1.000000000000000021e-02 1.000000000000000021e-02 1.000000000000000021e-02 1.000000000000000021e-02 1.000000000000000021e-02 1.000000000000000021e-02 1.000000000000000021e-02 1.000000000000000021e-02 1.000000000000000021e-02 1.000000000000000021e-02 1.000000000000000021e-02 1.000000000000000021e-02 1.000000000000000021e-02 1.000000000000000021e-02 1.000000000000000021e-02 1.000000000000000021e-02 1.000000000000000021e-02 1.000000000000000021e-02 1.000000000000000021e-02 1.000000000000000021e-02 1.000000000000000021e-02 1.000000000000000021e-02 1.000000000000000021e-02 1.000000000000000021e-02 1.000000000000000021e-02 1.000000000000000021e-02 1.000000000000000021e-02 1.000000000000000021e-02 1.000000000000000021e-02 1.000000000000000021e-02 1.000000000000000021e-02 1.000000000000000021e-02 1.000000000000000021e-02 1.000000000000000021e-02 1.000000000000000021e-02 1.000000000000000021e-02 1.000000000000000021e-02 1.000000000000000021e-02 1.000000000000000021e-02 1.000000000000000021e-02 1.000000000000000021e-02 1.000000000000000021e-02 1.000000000000000021e-02 1.000000000000000021e-02 1.000000000000000021e-02 1.000000000000000021e-02 1.000000000000000021e-02
-1.070653953461936396e+02 1.628839761564518369e+02 3.771328969223439742e+01 -8.468243176534723915e+00 -8.434862029274975725e+01 -1.285074191128000543e+01 -1.996370475270706208e+02 6.845814414472939369e-01 -8.129773502915485039e+01 -1.361220323414816846e+01 -1.906050543187896906e+01 6.295462717055034574e+00 -1.711893228425169111e+00 1.610782246814461871e+02 8.124756369445110238e+01 -3.727842753886385907e+01 -5.074455357646714049e+01 7.605120976793809007e+01 3.152274647727323043e+01 -2.437414321134800232e+01 -7.567862656408405542e+01 -7.083089819909727680e+01 -1.323660015768585296e+01 2.777769926989925509e+01 -1.871216964252021171e+02 -9.476269967318981458e+01 -2.505451660962183524e+01 1.935545533816854515e+02 6.793653026554652286e+01 7.370535193311900457e+01 7.709989386310489579e+01 1.131732971344204364e+00 -7.618150788829679243e+01 1.992431528928998148e+02 -2.351480522704796670e+02 5.655033458586287765e+01 -1.152889234434597228e+02 -3.331224179149715070e+01 3.878994071554767054e+00 1.216662683945624650e+02 -1.179813636392870251e+02 -1.307112407663032450e+01 7.424157681096532713e+01 1.667026298050712967e+02 6.847814269367729878e+01 -6.563571953469413245e+01 3.951668297056081514e+01 -2.727299702570519102e+01 -6.343141596635292956e+01 1.503425325075405397e+02 -6.766475145918801104e+01 -5.000841203652445444e+01 -1.338539626633101136e+02 5.606748304575019937e+00 -4.849959668433067606e+01 3.714402501607014528e+01 -8.520340216921827903e+01 -4.805272195614609387e+01 -9.737647360787639172e+01 -1.492821489946420854e+02 1.863483474513511950e+01 4.361354655721208218e+01 -1.182429554679374206e+02 1.233634005605357054e+01 -7.610079688220643845e+01 4.717544796718691202e+01 1.600762369546501418e+02 -1.385569393225663930e+02 -4.156803604481729764e+01 6.942211652016714751e+00 2.826501554660610260e+00 4.071373735433235908e+01 8.064964708912305014e+01 7.476422466912380216e-01 -8.495645877801088375e+00 -6.722486409358046444e+01 7.513695035663533872e+01 -3.140806607687250107e+01 2.527056447814172202e+01 9.990619000473964206e+01 8.468898382011062154e+01 -4.108164486609383204e+01 5.545342068626253251e+01 1.415806538403308252e+02 1.116150835749779162e+02 -3.828262221492889861e+00 1.672717667399074060e+02 -1.071139454759018577e+02 3.992933710623003840e+00 -4.027727622261597418e+01 1.986125025402013478e+02 -2.038266674349756968e+01 2.791318941061456282e+00 -7.374122364246457551e+01 -6.872013523592914730e+00 -6.127687062198430112e+01 6.510650310358204251e+01 -9.081794618919353468e+01 6.593441816082001594e+01 -4.588587989225142394e+01 -4.776847002276629439e+01 -8.803929233356511475e+01 5.094765829341681496e+01 -5.250237074991152042e+01 -1.434089389630636333e+02 -7.629581014335100519e+01 -1.004544438897808476e+02 -1.509944980209643859e+02 1.305321540572866752e+02 -2.634397670184397811e+01 3.078007286043252932e+01 8.611256324956761432e+01 -9.990387445326804539e+01 5.468191724250745267e+01 -4.159704816116328630e+01 -6.668025067248785831e+01 -8.658035151876707403e+01 1.951301766522335583e+02 -5.448657621563869924e+01 -4.756878818693340349e+01 -4.528300296683964632e+01 7.720537445876662730e+01 -3.978641457538983417e+01 1.324822725935820813e+02 -4.796899109123744864e+01 5.296549581919617822e+01 4.363631030926510945e+00 -7.785065381833730669e+01 6.604249928574792250e+01 2.664214422532331810e+02 -8.843857420915156808e+01 4.558394421382308792e+01 -7.327537625163408563e+01 4.346032829524171603e+01 1.260310505058415913e+02 -4.941767926747152018e+01 1.405206553782048573e+01 -2.589450346403598147e+01 -9.795640253529656150e+01 -1.669229258933683369e+01 4.149951250625929511e+00 -7.498323628653468909e+00 -1.434811546364971591e+01 1.135483835794393457e+02 1.253059914968105630e+02 1.791992594225229425e+02 -2.925077166580522885e+02 3.670792273516873649e+01 -1.516912506704701080e+01 -5.991088183528635369e+01 1.733531418202164218e+02 7.317034835718411045e+01 -2.530015810095807005e+00 -1.114407897054867504e+02 -1.044757974272765644e+01 9.623283908964675959e+01 -1.291681215096322717e+02 -1.621064731518347628e+02 1.032517808496031364e+01 4.077956667662354562e+01 -5.870139506806523855e+01 4.043097674024783572e+01 -1.029737580187250359e+02 -1.455095090228586514e+02 2.027286892099688842e+01 4.672361103008375949e+01 4.648286352526517007e+00 -8.024823842822753761e+01 -9.003048723096998174e+01 -8.107188189258440048e+01 -8.424922728087953772e+01 1.219883575258336350e+01 5.467713346020270393e+01 1.121585277098467088e+02 7.644739118299104064e+01 8.619677025897304645e+01 1.035212680836377643e+02 -7.201447920013131920e+01 -7.946122855995116652e+01 6.793653066537456198e+01 6.607750550681438995e+01 5.707380320070924284e+01 -9.037869725560279122e+00 -8.778799058242837816e+01 5.206323679168168894e+01 -1.727332745862622403e+02 6.480787965088120473e+01 -4.292897006476930244e+01 -9.302951690325217271e+01 7.161930709927030136e+01 -1.657851297338569907e+01 -7.442201939837335090e+01 -5.545019162763731657e+01 -8.867522851985928156e+00 2.344694698918165159e+02 7.436184575807378394e+01 5.300773206369873947e+01 -1.003847295367785080e+02 1.433676795143416314e+02 1.043882162109636358e+00 -8.739302977183808707e+01 1.507668910877805786e+02 -1.491408024485028818e+02 1.527179561567794863e+01 -3.146386823215024009e+01 -2.151001604317295062e+02 -1.304735847573012393e+02 -8.534750815762318155e+01 -2.878605590504808731e+01 -1.166409470703956970e+02 5.639605997838678064e+01 6.361309859386327048e+01 -2.702283340564324376e+01 -9.766359380754734332e+01 1.106725264585116975e+02 1.156266424081206026e+02 4.522214996104309392e+01 1.714743376041496248e+01 2.559200329416844681e+02 4.272901213495136119e+01 -1.170401227139497280e+02 -4.415665349972058351e+01 -1.653171400574985057e+02 3.121637497377834691e+01 1.501192670168714471e+02 -1.452217513086146141e+02 1.290457952164051392e+02 -8.911591024641296599e+01 -1.856194609934813045e+01 -8.080906444395399291e-01 5.182294665329855832e+01 -1.133250227291824785e+01 -2.237906352857380554e+01 -1.841593976649813769e+01 -1.242792269990999188e+02 4.546867982378255846e+01 -2.973066661905395947e+01 -1.265116938836942317e+01 -1.051472376519699559e+01 2.215516441132470504e+02 1.708756374971461014e+02 2.280982844280663073e+02 1.292366577004250985e+02 -8.489408754136594837e+01 7.368559890256047140e+01 2.074793544028640824e+01 4.658380981101645091e+01 -3.888331119474515418e+01 2.504749204449356910e+02 -2.287695046495614903e+01 -1.341108297313409139e+02 -1.464912029974845531e+01 -4.496951509060339447e+01 -7.588968869320918031e+01 4.232724292892032736e+01 -1.148791742520058534e+01 1.784437588312054572e+02 9.055714500666287847e+01 4.009465035697161994e+01 9.610942498910401355e+01 9.286283153572179572e+01 -2.254946534518731127e+01 1.369907515760136789e+02 2.604420755598174964e+01 8.793389052692597829e+01 4.680269729175080329e+01 6.790837242047159883e+00 -1.135753099343531431e+02 -1.137129114489029291e+02 -8.836867408672135582e+01 -1.527006250001143783e+01 8.508697335169074449e+01 -3.004474168643445608e+01 9.704211151060847840e+01 4.301584290118177023e+01 -7.137083697082361766e+01 -2.937946101090584605e+01 -5.749245478466421133e+01 1.724474486881169000e+01 -4.542126010725036878e+01 -1.099610127218190030e+02 1.192417967373734342e+02 1.190975824744596423e+02 -7.751973425842766119e+01 5.282503339679333720e+00 -4.449336139206791074e+01 -3.194246746664496683e+01 -1.113040047128082932e+01 -3.067029325063577616e+01 4.368441666265174206e+01 -1.379773087989606495e+02 -5.188122358582598537e+01 -1.489952890139270210e+02 1.708301849921884639e+02 -1.978469114877471924e+01 5.777087271509875421e+01 1.167159035230521269e+01 1.416031196780537584e+02 4.372824836609891008e+01 3.499288523722256627e+01 1.513700103510781787e+02 -4.829234943456756213e+01 -9.571817769935766762e+01 2.669448731813411158e+01 -1.548669043572885471e+02 -5.234442488747124145e+01 1.002907928016803538e+02 -1.249489552763793228e+02 -3.561910788538121153e+01 8.942632447798202122e+01 -9.249833097731769271e+01 -8.761149931867213070e+01 -8.092797764616098277e+01 -6.245274820142605421e+01 2.439620534320398519e+02 1.940912806462733329e+02 1.008169782151560412e+02 -1.000578038743389726e+02 7.325699820966075038e+01 -6.483660828430426193e+01 -3.079870883173233409e+01 1.626936319120004626e+01 -3.160516140733578183e+01 -9.171093779614851371e+01 -2.768509717600389664e+00 1.441876621755436538e+01 1.064413265406034839e+02 -1.256749530009959557e+02 4.106724973749354746e+01 6.235736310863694598e+01 3.372564509538330668e+01 -8.858095337267900504e+01 -1.451856675925959621e+02 1.887324108963026106e+02 -1.738999371494509916e+01 2.460608309995746623e+01 1.529790500639177822e+02 2.603764031138945967e+01 2.707519597200200323e+01 -4.350508094854837537e+01 8.652013236638086369e+01 -1.330830279689903932e+02 -3.005558284595984020e+01 -5.991810484858138608e+00 -5.209608823438993852e+01 6.181094652261680089e+00 2.072161733185346932e+01 -3.491657127519611947e+01 1.333198012166530333e+01 2.084841830774510640e+02 -2.673319301758321487e+01 -2.732737402420343287e+01 -9.914497183406056990e+01 -1.589827372824655916e+00 -7.872574163294258653e+01 6.207003388577405190e+00 1.092959007786082992e+02 -5.071478914019661488e+01 5.887374727235518357e+00 -5.293499103782973947e+01 3.224444085551259054e+00 8.498915502341914419e+01 -1.129203658818005778e+02 -9.440159275427461694e+01 -9.999685210932297252e+01 6.952698377121463125e+01 8.435909263135738456e+01 -8.986688713481763102e+01 6.106480748893516619e+01 2.518832494036422531e+01 3.770286733360016740e+01 -1.728585673607622297e+01 8.903540377909975234e+01 7.765023607878195833e+01 -7.526674173265989509e+01 1.147698942833132918e+01 7.879298784005115408e+01 7.096625024625218714e+01 -1.940765525807260516e+01 2.431466195634255456e+01 -1.291930271264666317e+02 4.730035971219248836e+01 -3.194284651818563603e+01 -3.185592829155321937e+01 1.687276567293339724e+02 4.619017177007305008e+01 1.170969304928401442e+02 1.860643702410915807e+02 -1.341224752365936013e+02 1.452657913537526611e+02 -6.183534859716905174e+01 -1.316690148903935551e+02 8.019038187582052046e+01 -1.305842304449570008e+02 -2.797812777101921711e+01 5.493678140266369070e+01 7.827927397920704244e+00 -1.638614270505484001e+02 8.211056426615328974e+01 2.459481890286800265e+01 6.730153664967969007e+01 3.538035197356977335e+01 9.218809722464968104e+00 -6.538116367918254923e+01 1.127091618943837119e+02 5.308949654381471106e+01 -6.050956728271977170e+01 -9.863076451534705313e+01 3.789290689777294574e+01 2.508175380569789326e+01 8.028336821823624803e+01 1.790709317148254627e+02 -2.397322876109093670e+01 -1.073192130358886516e+02 -8.247265032949492536e+01 -4.998791874176023953e+01 -4.316356654432119200e+01 -1.429166970639841168e+02 -2.195100698093546399e+01 1.261837310102513641e+02 7.259200773884178659e+01 -1.191954371424794914e+02 -1.460683216597877276e+02 -6.630744971357685813e+01 -7.431610721963755850e+01 1.430325039620051086e+02 -1.660505991864171165e+02 8.433556553613516371e+01 -4.486880776378682434e+00 -4.192671586712230436e+01 1.293651125290736204e+01 8.876338968706208732e+01 4.825176737485904965e+01 1.346113138700778507e+02 -1.550057985831479925e+02 -7.886294120942761765e+01 2.472674281505983984e+01 4.083347323130808348e+01 2.007351237579045176e+02 1.416828592558618425e+02 6.385107242989941767e+01 7.022445280062915174e+01 -3.313325379612597033e+01 1.478282583574873854e+02 -1.747117785859990988e+02 -6.178150503873999355e+01 -5.227777463268603242e+01 -5.043986674960441974e+01 -1.005495274414124935e+02 -1.460931404315136817e+01 -6.683320128235122581e+01 6.929393846480861896e+01 -8.897706440183258181e+00 -5.652377970542534058e+01 -6.057464515799829741e+01 1.754673481908986901e+02 5.750960978604516782e+01 -1.338727813935543054e+01 2.034191157086494002e+02 -1.055232964034363192e+02 -3.439595972777784993e+01 6.521004264318474952e+01 -1.359411413393343537e-01 1.459422424911860539e+01 -1.218544976070198373e+02 1.715602443419440988e+02 -4.764623058139712697e+01 -2.617678128136978799e+01 -1.067874715465362385e+02 1.225015941009763196e+02 9.327350497414686004e+01 -7.542854846386666168e+01 -3.663501485038120364e+01 3.792518971643978176e+01 -1.472970864457306845e+02 -2.006278922689838651e-01 -7.268243549797298897e+01 7.470003280442922389e+00 -1.051482900175380024e+02 -1.542126151695094620e+02 -6.875978557223506016e+01 1.441320051672682609e+02 5.498223552626287614e+01 -8.717885486620515678e+01 8.668865367927931231e+01 3.325350421358953668e+01 8.591213595826879157e+01 -4.094851261700895151e+01 -8.171758966305269212e+01 1.662552973243386987e+02 4.045544928090265557e+01 2.812747880571165382e+01 -7.091777682594842247e+01 -4.111587683265890547e+01 9.234959589441984917e+00 -6.973423477626790046e+00 -1.679135715077837006e+02 -3.363542084634525509e+01 6.255462511474487286e+01 1.083617005949761420e+02 1.512512732693223825e+02 -1.290688150507442700e+01 8.702088121800760234e+01 1.531521702825999967e+02 6.154835605498226414e+01 1.433225347321895242e+02 1.559299734254484981e+01 1.274197401131055898e+02 -8.144306327519078081e+01 5.172952713070195330e+01 2.841205712626844715e+01 7.354863700702019003e+01 -1.029720785459943784e+02 1.919929870226028186e+02 -1.247004320659191450e+02 8.558709270988411788e+01 -1.040039433233622788e+02 4.472432682404938475e+01 1.337469383599245099e+01 8.780288845816077981e+01 -7.128717777978270931e+01 -7.308315805679929156e+01 -1.076908521646821093e+01 8.620022921538925686e+01 -2.862842737187359532e+01 -1.575955562916357344e+01 -1.898385635278441796e+01 4.578001118134617187e+00 9.484381825846060110e+01 -6.042509260731472409e+01 -2.609945572852481188e+00 -1.871005445437454284e+02 1.176964142540624323e+02 -1.203848619109117806e+02 -7.120045951494954295e+01 -2.266892900034797975e+01 -1.040575834918258664e+02 -5.122336923527053187e+01 -5.647511867616568537e+01 -1.898673564322423957e+01 1.312859568279698976e+02 5.210092624173228870e+01 9.676512327738971919e+01 -1.311573037527357712e+02 -1.335340833807403556e+02 -2.762935062651510520e+02 9.848825243739960911e+01 1.004299572041320090e+02 4.079535172035063795e+01 -4.094203769014545458e+01 -3.580757923028156853e+01 -1.770143112802470569e+02 1.407713367514066647e+02 -1.035045680285165162e+02 1.030799078796582506e+02 -1.534025076000746708e+02 -1.380359265520178447e+01 -5.336853906129566383e+01 -1.149414442424563703e+02 -4.443679480796222947e+01 -1.210079956849567395e+01 -8.932763720907240668e+01 -9.971118192616124531e+01 -1.191594892306813946e+01 6.860625607599369857e+01 -1.201013633010146293e+02 -1.507866256562428653e+01 -7.108431467179602237e+01 -1.266659567952173973e+02 6.342847279432726637e+00 9.165489355126877058e+01 1.595955979387392745e+02 -1.836877975586354594e+01 -4.439421341936954235e+01 -1.197418044219503201e+02 -1.578096844819091586e+02 1.001184608786195156e+02 -7.015050624030389770e+01 7.617966991331807947e+01 9.063726356602723300e+00 2.817225105041140409e+01 7.123345272881945789e+01 -8.178802211507301934e+01 7.978487629519696611e+01 1.112420046401684885e+02 1.520078660823781433e+02 -1.124330068421514994e+02 1.003335163919551576e+02 -4.612585414014380802e+01 -8.763916600928598655e+01 2.071403705475418064e+02 4.748872088426231386e+01 8.056757807554248529e+01 2.045971197202027625e+01 -6.109607691701079801e+01 -3.371924679771547062e+01 -2.030799323365320959e+02 1.019719205963298663e+02 7.864703786670375507e+01 -7.306525239971161056e+01 -7.056302969653746970e+01 1.401399038845578673e+02 9.755232246630833970e+01 4.934570231363083792e+01 7.341649157961086303e+01 -7.566205315844826806e+00 9.960165503212859051e+01 -9.999425869153003532e+01 1.798615964610385731e+02 -3.811119257320745390e+01 -1.177727159377635218e+02 -3.640769519443747271e+01 6.924677235148402588e+01 1.422075431873390414e+02 1.239030661452281379e+01 1.677828195834031249e+02 5.036694314435355579e+01 3.247196484291973917e+01 -1.074338030421696288e+02 4.321738495675568714e+01 -1.206338915614491469e+02 4.606474173688278029e+01 3.722447280187472529e+01 -1.190998294072506525e+02 -8.208533132867295024e+01 3.847999310018397523e+01 8.421697145319468447e+00 -2.239616035546013251e+01 4.043682513754198737e+01 -2.066008518159413754e+01 -6.089600777670810317e+01 -2.534133933469302136e+01 -2.163229411833241400e+01 -3.843301061658850415e+01 1.810826094544908216e+01 -7.774032829623808993e+01 1.148038403842880228e+02 -7.168200847025524070e+01 -4.044343633892796497e+00 6.336000005822573655e+01 3.734985069672981606e+00 1.541451095367402147e+01 1.541833318385605622e+01 -1.130332215007402255e+02 -4.251162325476948389e+00 6.277870868165005902e+01 -2.233649733024090267e+02 -8.194023155730572228e+01 -1.087584734546559844e+02 4.227507740579824258e+01 9.285586057329439313e+01 -8.856991654176023587e+01 -1.620242580263623040e+02 -1.787352309923011831e+02 1.925392013271178726e+01 -1.398380851321678335e+02 -6.107639202452319616e+00 1.423775508322021039e+02 -6.813255186852427592e+00 3.578852774976770945e+01 -9.526356837231838881e+01 7.690545066786224027e+01 -1.141055479994773094e+02 -1.485803814451021054e+01 -2.912321042470103905e+01 5.539675506958847251e+01 -8.489869946654595267e+00 1.015757552165757858e+02 -1.173330214658728323e+02 -4.812132902224102793e+01 8.326356550784818467e+01 6.352545642362878908e+01 -7.902211295934587554e+01 -5.223762112316240547e+01 -4.739845334858755876e+01 -2.776649448455705738e+02 1.856388471493970087e+02 7.293817237486753413e+01 -2.258978982209774244e+01 -2.844371149631306750e+01 3.980034842369503423e+01 -8.056621894186027077e+01 9.530442888805785628e+01 5.793457345658527657e+01 7.841824057478623899e+01 -8.050041730125215622e+01 -2.534850471858914389e+01 3.187383239907769905e+01 1.663097306990949065e+01 -4.100565662113965715e+01 1.511392869543915083e+02 -1.652758348658418086e+01 3.388003398033958291e+01 -2.198671826585880353e+02 -8.095407664927863323e+01 -6.993476287683814974e+01 2.202122815460499439e+01 1.043871078243560078e+02 -2.216028994959412728e+02 -1.788291672142118500e+02 2.118770757212500087e+02 -1.009883209351950839e+01 9.180799243562101708e+01 5.986799927032566160e+01 -5.289618844190895430e+01 -1.252261828461586788e+02 -9.096635289702953742e+01 -4.803041144333204926e+01 -3.575583663156365333e+01 -3.743651562161630153e+01 1.541378151775720085e+01 3.558261222586432382e+01 1.595213064284442339e+02 1.178306883487816918e+02 6.695612339374045874e+00 -4.219742284115008957e+00 -1.517363559639993298e+02 1.143790030298940934e+02 1.522701309231123048e+02 -9.891181449691842431e+01 7.046952816751083049e+01 1.608409012426203599e+00 5.252688305267111701e+01 1.198396965748389107e+02 6.781694159632995422e+01 -1.281547685913365626e+02 1.540117860221422319e+01 -2.809608690139586784e+01 1.065709719205860218e+01 -2.207329411120634433e+01 4.334310665590296452e+01 -2.492704524755746149e+02 1.732560268022396599e+02 6.937327086961829536e+00 1.524873226806473099e+02 -1.005732920869261449e+01 1.015667321823987379e+02 6.854545177549491086e+01 -4.016158340651286807e+01 2.867761419443236548e+01 -6.973731129865383593e+01 -8.523151774207208575e+01 -6.898934410147782614e+01 -3.070737302039741934e+01 4.326255102286226872e+01 1.055290268242289500e+02 2.726759196734759527e+01 5.958870914844518296e+01 -1.004728416635015122e+02 -1.314437590317179172e+02 -1.292466982709925283e+01 4.445623394800892214e+01 -4.355102784145785932e+01 9.071231790786396232e+01 5.327190942004754959e+01 -2.650239909388450954e+01 2.871405978731253228e+01 5.888944677123141247e+01 -6.914436554137334667e+01 -1.282670476070286725e+02 1.362704682225115960e+02 7.494366122818035159e+00 4.810883955660461453e+01 -1.433086430395839272e+02 -5.126979546151628853e+01 -4.123669972866709776e-01 -6.320476493090710335e+01 4.088872913102869155e+00 5.407952641556238405e+01 1.791170991789586537e+02 3.759991967938498902e+01 -1.052833643974248190e+01 6.945202399293120266e+01 -4.369892528990896352e+01 -1.047602836536537154e+02 -1.328493917261762078e+02 9.000336209462853176e+00 2.415022349929115819e+01 2.293351601821228058e+01 -5.472352957656741523e+01 1.162393104593398334e+02 -7.777433558456864660e+01 1.235007441869511240e+02 8.402054506696397596e+01 -6.261210303302833324e+01 -8.162723983295894925e+01 8.110096738637702174e+01 1.965570883345342068e+01 -5.060049007310917091e+01 -5.186180868471346628e+01 1.317787443509161278e+02 5.525879949098658273e+01 7.703836456024093593e+01 2.520417004539525152e+01 -4.052823793363236149e+01 1.035573599257313475e+02 -5.262477365135654139e+01 5.547278189725282083e-01 7.381773793282961549e+01 9.608430373859442852e+01 2.465615915517348640e+02 -1.690804595914760000e+02 1.553047985601212417e+02 -6.519057942884585088e+01 -1.470787682749709191e+01 -2.427112782617140496e+01 -2.001829409501280566e+01 -5.322016651987242142e+01 8.985001690737023239e+01 1.778114508448549032e+02 -1.147828170199382072e+02 2.990158228949937325e+01 -1.227049795741363027e+02 6.789113546754356321e+01 -4.301308601541456511e+01 -7.842396196681384879e+01 -5.219338734617625164e+01 3.989829487569982547e+01 1.875322610465009632e+01 -7.920260042016555246e+01 -1.366736941067705970e+02 2.012341160282065289e+01 1.528142285274527978e+02 1.385623316373116154e+01 1.770129294028182017e+02 7.232410514067393770e+00 1.306606246726673248e+02 -3.357290904508024454e+01 8.812783060487910802e+01 -6.937731372472308067e+01 -1.096764489383336922e+02 4.803366170999548501e+01 -5.636445372905854612e+01 -7.634847715418420933e+01 7.083151945456057774e+01 6.300941571710077405e+00 -9.169636342910253290e+01 -1.465244815146221242e+02 1.439786198711422003e+02 -8.681283074622942308e+01 -2.313370949770113150e+00 1.169763498584171941e+02 5.650806296126742723e+01 -9.570798970066914535e+01 1.038859618219519021e+01 2.749475646511875198e+02 5.196260373506522967e+01 -1.538099512094310626e+02 -4.656011644117160131e+01 -5.998927462761726304e+01 9.380506927457545885e+00 1.049862272764783455e+02 -1.010408280305523050e+02 2.108598915134203722e+01 1.274086508224046668e+02 1.833369425322878854e+01 -2.063752695250124134e+02 4.716866472738472993e+01 7.375257703602390791e+01 -1.328570185283787453e+01 3.203354070452295588e+01 1.742515865766166017e-01 2.205298632890040977e+01 2.710419813373275844e+01 1.132159932398892863e+02 9.583550505555137988e+01 1.528618466070855320e+01 1.456499241320138083e+02 -6.257514878195908636e+01 2.410953302144864097e+02 6.358173923110268788e+01 1.385588830053170000e+02 -2.147018659223433801e+01 8.806857287441090421e+01 -4.782948834414061423e+01 -1.431187484882577792e+02 2.557553183508460037e+01 9.286552990441262523e+01 -8.561744816983545547e+01 -1.024232328902614313e+02 -6.506799237175823691e+01 3.581255248003862590e+01 -1.116590517166611107e+02 7.304551185728466578e+01 2.741652883390929674e+01 -9.545930330229141703e+01 1.857235514087117565e+02 -1.150132567012317253e+01 -9.953815873310195173e+01 -1.312368115131636692e+01 -1.998668481530810936e+01 -1.371333329757244144e+02 -3.913668187316610414e+01 6.016383814650086492e+01 1.289067810726559458e+02 2.841063320262700387e+01 2.615192878710997348e+01 4.380466010155595313e+01 -3.492659494891164229e+01 -1.424313384982426669e+02 1.555085727300022036e+01 3.027032615399370385e+01 1.302117108984803906e+02 -9.666016976729769894e+00 -7.445751734717022430e+01 7.159812072819921980e+01 9.512515120582124561e-01 3.110456407788777611e+01 1.361702050456868562e+02 -1.735947228186665257e+02 -9.083690310146357660e+01 1.220171520597436086e+02 -2.050596157400171080e+02 -1.748058828308201669e+02 8.653022270314050957e+01 1.463747957556965673e+02 6.028869536006343566e+01 -4.259306588416873041e+00 1.480123462567717070e+02 -2.086768279186414077e+02 1.018529826088046661e+02 4.027944679697582586e+01 1.207844903659321005e+02 -1.792580889219644575e+02 1.012128287975913423e+02 -2.682399799969452658e+01 -1.270730096289294835e+02 -5.058045643825223259e+00 -8.781435756047270047e+01 -1.540736111203904635e+01 -4.140432216480266270e+00 -1.170984451682002145e+02 -1.172161293210568118e+02 -5.946732566552680765e+01 -1.225224994851485150e+02 1.910297134109273429e+02 -1.531563535317738456e+02 -4.770020045609948056e+01 1.640044741509421158e+02 3.225374723349484896e+01 -2.813496965255216082e+02 -1.208490776686371930e+02 3.374090705235224874e+01 5.196086463135001310e+01 8.110228178616138095e+00 -1.469358134324328944e+02 3.391916536455792652e+01 7.139789338138569086e+00 -7.065198547317443456e+01 1.927088794753260856e+02 1.925407909404309805e+02 4.135594194604017559e+00 -1.982338612385040904e+02 1.197413968602921273e+02 2.922433414372916261e+01 3.631455971869385735e+00 7.278725054861406818e+01 -1.972242290054674640e+02 -1.311834309813330322e+02 1.340314360426813778e+02 1.042290257161702698e+02 5.027936400721129928e+01 1.360834115596288996e+02 -1.694398723942848903e+02 -1.945709222054214038e+01 -1.239402741769223582e+02 4.151420750184137631e+01 -9.873405131324798845e+01 8.276575601056781295e+01 -3.224857512412103944e+01 1.177276587868951552e+01 1.686601271079419462e+02 2.714326479233891831e+01 -2.505240364255695340e+02 -1.201397586625653133e+02 -7.921384828157026448e+01 1.502826052032350788e+02 1.192019246949185352e+01 -5.123150750633922712e+01 2.881208883950681354e+01 5.938652932268324491e+01 -3.758390477709149025e+01 1.021879407628892977e+02 -9.576057593232737020e+01 4.677701886328093650e+01 1.063923609640774117e+02 -3.377325176725783962e+01 -9.326819653976394875e+01 -1.078511135280682822e+02 1.138334602360547194e+02 -4.722811704070889505e+01 1.868200055898543326e+02 5.437343907114117059e+01 1.054492653083471083e+02 1.753871749287589807e+02 8.131286584332112710e+00 -1.181630954569854026e+02 -1.575139196241156299e+02 -1.085083855845753078e+02 4.041046231686600265e+01
-1.261277504527008553e+01 -4.504135180238589165e+00 9.612359681659231114e+01 -2.126477394218063921e+02 1.442935327296067385e+02 5.893637398284282369e+01 1.412540648720832337e+02 -1.199210038327532288e+02 -2.564352699117697032e+00 -2.233340507112102102e+01 -2.037758176995994859e+02 3.035822041645067770e+01 -1.700392384070423191e+01 1.135534236069494796e+02 -1.161562494231372540e+02 5.729395732494742077e+01 1.162927178725973647e+02 -4.266593296852627759e+01 -4.601820099557962607e+01 -2.503415946444136964e+01 5.731315311098074261e+01 5.853404313290781857e+01 3.011580856703687914e+01 -2.158251575825854616e+02 -4.784946180549257377e+01 8.499980319158235886e+01 9.205081241333248343e+00 -9.641383411331789333e+00 -6.174468092448987022e+01 -1.439762134963805096e+01 6.807495434726382655e+01 -1.349647514213685895e+02 -5.751905091006027959e+01 8.320389421857393941e+00 1.926950852409846391e+02 1.968397734106180792e+02 -2.985072216956042368e+01 5.187074623062144951e+01 -2.374576338979687284e-01 -1.296074853718886288e+02 8.907004141516449636e+01 9.950907311824016688e+01 1.007107765304114366e+02 1.083211643989950090e+01 5.742763373233655955e+01 4.465689623503541839e+01 3.607984384775852504e+01 2.726098786949874864e+01 1.023475153508325235e+02 8.325085583562763247e+01 6.085417286108745571e+01 1.512820114423498126e+02 2.300253616328313058e+02 1.815300157157294620e+02 -5.489025635278778026e+01 4.572575122876195053e+01 -5.963512864541398528e+01 5.232442531275053454e+01 -1.783932484311601741e+02 5.243541266171038018e+01 -1.900137796347968049e+02 -1.565908759593602610e+02 1.202422085499268434e+01 -8.605794373817198917e+00 1.573249318019056773e+02 -1.930430377155868484e+02 6.985895914071205937e+01 2.133459566185360359e+02 -6.874967947800867840e+00 -1.808335148509989097e+02 3.296531890667585429e+01 1.830129781134330642e+02 -5.672740715762849106e+01 -2.474597665975023233e+02 -9.520943147587803423e+01 8.286125406030803831e+00 -2.135987025819063945e+02 2.980764505084276550e+01 -1.666123371854231152e+02 -1.722825277198327001e+02 -5.311177784900043974e+01 1.415410753088830802e+02 6.448635207698572458e+01 9.865368623420993188e+00 -8.237823856044060733e+01 -3.956978546224318194e+01 5.920244380689620556e+01 -2.157011345997482863e+02 5.026512372891510694e+01 -6.961807711597070636e+01 -7.262792617237909099e+01 -1.643061335065416984e+02 6.042568973190441994e+01 8.614378600703958000e+01 -1.508583449448170484e+02 1.606255664114617616e+02 -3.706195948651721750e+01 -1.573096758868650369e+01 8.150131156856046744e+01 1.453647516837315834e+02 2.023255985032931648e+01 1.408341724833492492e+02 -1.721961208007440902e+01 -8.434585808980087052e+01 -1.822904871497756574e+01 9.398070996589105164e+01 4.300832536444161036e+01 9.355798649700071223e+01 9.025735911978613046e+01 -7.947947895629405934e+01 -1.625042039761698618e+02 1.176821348110517391e+02 5.187448114841391344e+01 1.554486323116562296e+01 2.923857262241386579e+01 -6.496987590701341730e+01 9.185102906777242993e+01 8.596911965764988395e+01 -1.314460136681993951e+01 -6.817309960922048617e+01 2.935680545862330248e+01 6.016255143295302865e+00 -5.881428213162089946e+01 1.622707773334828687e+02 -3.136250714257710115e+01 1.163629987946798678e+02 -6.707262460708525964e+01 3.674033968067521272e+01 -3.451118688575681404e+01 8.566015934825985312e+01 2.246355418077781962e+01 1.106488672065037093e+02 -1.110913278928936307e+02 7.118246235397927535e+01 1.182091347918426720e+02 -4.278687720933174887e+01 7.339391911655302358e+00 -1.225969455410452724e+01 1.118906329744202282e+02 3.519441454822453075e+00 1.614964234659544218e+02 -1.354682523525618763e+02 1.117408210990162445e+02 -8.743560135792509413e+01 9.181231766789530013e+01 -1.313423528532572391e+02 2.827694029422864830e+01 2.373068629069519986e+01 1.697865671744641425e+00 3.481034838253592767e+01 4.411902317318358513e+01 -1.185889781283654720e+01 1.046605366993217068e+01 1.036467079456456020e+02 1.220060059794680001e+02 -8.316471811768927580e+01 -5.194139158587291405e+01 4.538130420337508752e+01 1.448819263587603157e+00 -1.314140012017211347e+02 -5.291079557120227861e+01 -3.396156973461958017e+01 4.690549185552520584e+01 -6.286227144631702402e+01 2.198180387216207166e+01 1.539380562555129472e+02 -7.626255740390648441e+01 7.762358636597967632e+01 8.071012340392306328e+01 1.084177646649417248e+01 1.185748792707135948e+02 6.040938382267658824e+01 1.614596075535078228e+02 -3.328060432112476263e+01 1.080652004055581301e+02 5.341862712307860050e+01 -1.543911083022075736e+01 1.963139815669757979e+02 -1.334846346972420008e+02 4.704464342061746862e+01 -1.805096304418857471e+02 -8.100764353711068111e+01 3.951839876313064792e+01 -6.953475062979573806e+01 -1.500290044671989733e+02 1.919931720215038524e+02 -8.262947703054145165e+01 -4.575814776433606568e+01 -4.458478927857181162e+01 1.173151691927188693e+02 1.876836683021813030e+02 6.239542474195584276e+01 1.409457698235169119e+02 2.115380504506759962e+02 -1.533040135443649143e+00 1.569832922016353507e+02 6.832394839988799617e+01 1.835275386083998228e+02 -1.212797670150754215e+02 -1.139924780231650914e+01 6.133601647675797963e+00 1.830848754575093835e+02 -8.756788766667219193e+01 -5.835833993057538294e+01 -5.102135638645282967e+01 -1.292157314934469525e+02 4.506325715741457572e+00 -9.728764932364715889e+01 1.486407212021540545e+02 2.269039948142513197e+01 1.155215576047009129e+01 6.970020829680673558e+01 -4.728146669601605012e+00 1.128053244405352018e+02 -1.531709905471098523e+02 4.379956304589200755e+01 -1.646288577600510337e+02 1.131988011549539124e+02 9.266302268989110758e+01 -6.485388988669855337e+01 4.512768145738016301e+01 2.295769022675052042e+02 -2.938441037515304188e+01 4.014902446966257088e+01 -3.150720994545828901e+01 5.586230927226736043e+01 6.194161454824602231e+01 -6.063169832575031393e+00 9.821293512323042307e+01 9.777882441961460813e+01 -1.868698067236803126e+02 -1.477011545976413345e+02 -1.155238926748963877e+02 -9.079185477388200809e+00 -1.443384475833983061e+02 1.113721521208766490e+02 1.063259095438859845e+02 5.687799498791500241e+01 1.076190296794354673e+01 1.519523430246561020e+02 8.091258361308670999e+01 6.506660853314713222e+01 -9.789277756622743709e+01 1.469085451909521112e+02 -3.481373773610062727e+00 1.053891115385238919e+02 8.502687607798792513e+00 3.540232420870946584e+01 -7.291139394240923366e+01 -8.741171232009000391e+01 6.896751245774542838e+01 -3.732128879857663506e+00 1.408049061283411731e+02 -1.208884097962906878e+01 -2.735107813399628274e+00 4.416231697957069713e+01 2.178293079464024018e+01 1.361714627293262367e+02 1.416237870494645712e+01 3.452417381657969031e+01 -1.488976828310698863e+02 6.334370614325322890e+01 1.286159117627410353e+02 -1.690715531828081097e+01 -2.193534892536535210e+02 8.117950151182967033e+01 1.308835658585141459e+02 1.959043170450546612e+01 1.815297217778049230e+02 -4.121113219733230082e+00 4.113203803335860442e+01 -4.185478206859141181e+01 -1.328913685682881294e+02 5.370875658837013589e+01 -4.550083171246488689e+01 -7.756985448242457437e+01 3.948568941089870066e+01 -1.769022711433914026e+02 6.857019194504908910e+01 1.574046656121980732e+02 -9.685410812372055034e+01 1.655347862455665791e+02 -9.334437686930110090e+01 -5.697264219121056072e+00 -1.009128623680939008e+01 7.329206296761434203e+01 -4.457882128677086797e+01 -1.029936874687444828e+02 -8.466701557802296918e+01 1.392852891137072220e+02 5.646321146176769901e+01 -1.259113299809031190e+02 4.212950566052838575e+00 4.143416500004131109e+01 7.879360628025277435e+01 -3.848575558011219044e+01 5.719427840377846195e+01 -6.580750115973519598e+01 -1.548361868945035837e+02 -3.302615668446924246e+01 1.344405768605253400e+02 -1.081697994846093565e+02 -6.081792948159831624e+00 -1.552705104365194586e+02 -4.635610951160641591e+00 -1.390795968517339247e+02 3.141589178071494359e+01 5.742330356183456530e+01 -4.796137318175713915e+01 -7.848475844278489433e+01 5.378850127469041453e+00 7.089056940831393661e+01 -6.456064338381902701e+01 1.282724656313164644e+02 1.005542249570732878e+02 -1.215476293531148713e+02 -1.004197944629694206e+02 1.285934737251219531e+02 6.786392773350080176e+01 1.429584660688178417e+02 9.512365961623069666e+01 7.718257392120233362e+01 -5.734207814824986116e+01 -7.773420425424225755e+01 -7.325922810870022772e+01 1.944117349080149779e+02 2.910695585378409334e+01 -2.368711588595054351e+01 -6.506762274106796440e+01 -4.741459392496241065e+01 -1.246652648420332241e+02 -1.562744270610938280e+01 -1.660943149814602293e+02 1.183380792682034865e+02 4.350694582016222256e+01 -1.090373109057125447e+02 -4.581855268794327429e+01 1.133161683971139269e+02 -9.170486151405599173e+01 9.732667649547083499e+01 -1.121297475049713199e+02 -1.114988768116136875e+01 -9.037792777159026514e+01 8.493436455861869661e+01 -4.018670452996301634e+01 9.694692637706452842e+00 2.778119482433722709e+01 -1.198123026029625322e+02 1.182301343735488608e+01 4.577533281370096319e+01 -2.112576156123630611e+01 -6.502914811927821859e+01 1.916644473975480309e+02 8.178829784898336186e+01 4.454210199240222323e+01 -2.970574626142724739e+01 7.584927574928003935e+01 1.585276074024247634e+02 -8.721361043406039926e+01 1.981265909376122352e+02 -1.258873343440271668e+02 -1.739142232474993932e+02 1.435220397773844638e+02 -2.212716816649918314e+02 -8.824141306356352299e-01 -2.316298709288056443e+02 -1.445625882375082938e+02 6.787935396934690857e+01 -1.376730086850092789e+02 5.519005694148364682e+01 1.040019729634619381e+02 -1.515975367436233512e+02 -2.844222557301734966e+01 7.132394139858153892e+01 1.266243678525743093e+02 -1.760189797161176841e+02 8.275356624916155113e+01 -9.264903623663916221e+01 -9.305643613074638054e+00 -1.308832005814906552e+01 -7.523070443894812342e+01 -8.536836437907739139e+01 1.715130981365154241e+02 -2.054388461230493945e+01 1.284160433444766491e+00 1.231878378208717066e+02 -8.206305886351030665e+01 -3.257201968361773226e+01 -1.019080289485359430e+02 -4.619620758208007061e+01 4.861297183964920166e+00 5.617634066736174958e+01 -1.279352984471980790e+02 2.247583178234487491e+02 -5.107336010210912036e+01 1.162614727549784277e+02 -4.630928372637940527e+01 1.136164545127887067e+02 1.320819041307133830e+02 4.548440266246846164e+01 1.158590782625014697e+02 -4.103847695978614496e+01 1.328991015162914380e+02 -1.486286630792900496e+02 -6.211293798226249407e+01 -5.981065071872493633e+01 2.431019558374262957e+01 -1.541638753123580727e+02 6.890702307297593165e+01 -2.930373169480431983e+01 -7.851413991624059463e+01 8.510022331741924972e+01 -1.435733492778502125e+02 -8.669107591642301713e+01 -5.004694383159623783e+01 3.142057765727413710e+01 1.233323111922462800e+02 1.109944272542048935e+02 6.563605237031676154e+01 -1.465519699369610018e+00 1.662188196684235493e+02 1.164247605776988337e+02 -8.979745015821222864e+01 -7.420260130902126150e+01 5.231785052694691274e+01 9.435381491577116364e+00 9.309641387899192466e+01 1.584643234041871551e+02 6.708636893463587114e+01 2.324762938053992656e+01 -9.713735882144965217e+01 1.631873020937780723e+02 -1.079813584114854876e+02 -1.570014302297137760e+02 6.244366588319856248e+01 1.059227503916540343e+02 1.867450350417364291e+01 -1.318731844659553758e+02 2.820467046480689888e+01 4.026044710987989816e+01 -3.617874926979175454e-01 1.243260583618633746e+02 9.287909256162905081e+01 1.624820875438710388e+01 7.436573383218676270e+01 -1.014790185566525054e+02 -6.062997075352923204e+00 9.334359899933308213e+01 2.818382144380414189e+01 -6.170379947522629749e+01 1.879486871786848781e+02 2.192878385913969055e+02 -1.190100948193188088e+02 -2.622376447354882245e+01 -1.993314100568461811e+02 -6.846079100069798073e+01 1.484583673116305249e+02 3.175312587712121104e+00 -6.731831093380424136e+01 1.552645251730616565e+02 -5.923114752393554738e+01 -1.522801939583561932e+02 1.294664696663907080e+02 -6.367311110817058051e+01 3.274249553867275608e+01 8.181459022499674916e+01 1.307861291824527861e+01 -2.258089496582038578e+02 4.012463501128765131e+01 -5.867925003403618334e+00 8.541496624166835261e+01 -2.233435429580716303e+01 9.577682585141261029e+01 1.611959219819399891e+01 -8.021443872553541610e+01 -1.941592770590312966e+01 -1.660562337287363164e+02 1.089349695078411884e+02 2.396183730428977654e+01 -3.942256846321594566e+01 -4.907069599799198301e+01 -5.963321211429138913e+01 3.897952064253526316e+01 1.522568516624925792e+02 1.257143336963620328e+02 4.076777961389156246e+01 -1.874660523342894862e+02 -3.675661777480173953e+01 4.152479457021826903e+01 1.111394201352464250e+02 8.258231664368645397e+01 1.461585365663141545e+01 -1.762177891675946455e+02 1.247178311552329575e+02 -2.119583926822117235e+02 -1.949748858263788236e+02 -1.722340855257450842e+00 -6.987943168052004239e+01 -2.287233403097882700e+01 8.252407276184382567e+01 5.297138892752068529e+01 -1.053187425770526460e+02 -1.435036637463514353e+02 1.380603422526042223e+01 1.171711080750779388e+02 1.956356149880726036e+01 -5.372125651341121966e+01 -4.895301659138499417e+01 -1.106088117799951043e+01 1.528749734894988705e+02 2.117998145100709095e+01 -1.675677021980338566e+02 1.238132357157765284e+02 -6.447955065735501989e+01 -4.024066183506475269e+00 1.485241163627289609e+02 -5.040843188367807670e+01 -1.890433997516898046e+01 -1.059511804246457984e+02 -5.782612525757521382e+00 -2.299367085003249755e+01 1.269808133948612863e+02 1.157850552585522195e+02 6.518059867881653702e+01 6.314163089661116857e+01 -1.803911882577892101e+01 1.303390114109517413e+02 -1.087753372654904354e+02 -4.098441073388825018e+00 -8.781503114957364176e+01 1.514764232454243995e+02 7.033142176653993261e+01 4.981585534885655164e+01 7.945291856419951060e+00 -5.142103566103771328e+01 3.315568479159163218e+01 6.473061162810767044e+00 3.551332130926172947e+00 2.323206283741318856e+01 5.764318279658652955e+01 1.641905298543979370e+02 -3.749275735214778393e+01 -5.011064098959056423e+01 6.441352560368227387e+01 1.115308025765628344e+02 -1.236151228755809051e+01 8.868674580512761452e+01 1.004097677053055833e+02 2.032836605111705808e+02 -8.344202169511174816e+01 -1.182737844297288348e+02 -2.762602196705546831e+01 5.995438170807425848e+01 -9.786129763735031517e+00 1.035591808854760529e+02 3.592095046539165537e+01 -1.567792628124802263e+02 4.343014574047926146e+01 -8.623612141291971511e+01 -1.304098059207634037e+02 1.296475253212738039e+02 -7.331269032300586730e+01 5.705319067123419785e+01 1.071065304845698876e+02 -9.536922584077976239e+01 2.265908786575284850e+01 -6.949911666138051203e+01 3.882430822557080319e+01 -1.104635062868377986e+02 5.935077348293835087e+01 5.268013832668798102e+01 3.707473623139570407e+00 8.090503800185032901e+01 -1.471925570305771771e+02 7.352544088106347431e+01 -2.824995025656741277e+01 -1.614986919988176339e+02 9.036259070806386262e+01 2.348149433591183666e+01 -1.874523298725006555e+02 2.249343048981837114e+02 -5.180990238533763614e-01 1.005200717467665754e+02 -1.152741830672605232e+02 -1.856311595229472005e+02 -8.920536471098066045e+01 2.401130628215483842e+00 1.365564766119681224e+02 3.772889272841023267e+00 -9.136746771811654355e+01 4.811155382920270540e+01 1.309973831936402462e+02 6.208985172860149504e+01 -4.942975342964720653e+01 -5.654212108195461894e+01 8.077449307948846524e+01 2.934966344421974682e+01 -1.869771419933040022e+02 -1.981462993151947316e+01 1.615624217170478119e+02 9.442104985227666702e+01 -5.481860973410516635e+01 -1.068718310748580080e+02 -4.078428813108532580e+01 -4.596119924633308784e+01 -1.093977725912857437e+02 -1.760638725799410764e+01 -4.364193855189921578e+01 -1.086097247802356094e+02 -1.261246881391181205e+02 -2.578125240906204496e+01 -1.201434096959414859e+02 -1.279575486883313573e+02 -3.664131095930859061e+01 -5.287685638079027939e+01 -1.061471014054154409e+02 1.843343031681180264e+02 1.041535882330213170e+01 -2.784958106830651658e+01 -1.682784439456705883e+01 7.790114000743861311e+01 1.550011953386133357e+01 2.480214463446557716e+01 -2.101641276679301740e+01 -4.585412936093183589e+01 2.070172988643315293e+01 -1.439692996524086368e+02 -1.576210960274852368e+02 -8.947658009461950712e+01 -1.889776904307504992e+02 -8.872490388063697253e+01 8.490814314569125543e+01 6.079152570352354701e+01 -2.578916382320457501e+01 6.017011844884572724e+01 -1.550609640888107492e+02 -4.050285868335120654e+01 -1.150149754894934802e+02 -6.609031348109407134e+01 2.089473701513603885e+02 -2.032748774601348885e+02 2.032492253802406879e+02 2.470767022721669548e+01 -5.588242829071693762e+01 9.128388335914716833e+01 1.228613910703136440e+02 -5.137589404471292909e+01 -2.017838930877919381e+02 -1.476324576894736254e+02 1.012874072623765755e+02 8.293565680193214007e+01 -1.342299602617932237e+02 3.161268107005030714e+01 -3.930891058181716602e+01 -7.664472000250546557e+01 -2.815037242109498550e+01 -5.427134879994636663e+01 -8.556653907427352124e+01 -3.373749059408586248e+01 4.494127534177644101e+00 -3.232596052139496834e+01 -3.577543306447035221e-01 -1.416400921271528901e+01 9.102576139949727008e+01 1.258835189720551426e+02 1.302710816097596869e+01 1.664311565785166991e+01 -6.253872844033209333e+01 -1.941638708704217606e+02 3.351513085497131783e+01 -9.081213453123017132e+01 2.559369851141853047e+01 -8.027892059922180579e+00 1.060961977808686507e+00 7.169424088696385411e+01 1.207068280292374567e+02 -6.980729607236528977e+01 3.762831020597116805e+01 -1.910418395112413634e+02 9.597935692004790909e+00 6.848220276258316197e+00 -1.213736209601320439e+02 -3.337631609669544019e+01 -4.389676277449248687e+01 4.714331548247153059e+00 -1.012419618089654278e+02 2.678486461698003041e+01 -9.668639693267434154e+01 5.549075574647324771e+01 6.721842042838819964e+01 3.654395532208162223e+01 -2.873073577590627536e+01 1.064359654990886384e+02 6.050765483458949490e+01 7.922352087302834889e+01 -6.635462358615944822e+01 2.004154199776548495e+01 1.266043022258749886e+02 -5.791793146779446744e+01 -6.850847368811314730e+00 3.166204245252327354e+01 -1.271382781986902728e+02 9.680856654132368533e+01 8.866235314229116682e+01 -1.001521909800554084e+02 -8.149746400939922353e+01 -5.496716660158146794e+01 -4.517638302704078512e+01 -1.585329636707820953e+02 -1.344627628775534447e+02 -1.310905265918094642e+02 1.045378947463130572e+02 5.917426557152447941e+01 1.578192983421156157e+02 7.131687455945278309e+00 -8.473749558475282129e+01 1.855759337438572487e+01 1.367243964490586627e+01 -6.286573450022256537e+01 7.321703431762708192e+01 1.167168789052749673e+02 9.838111962457995574e+00 1.416931866138161524e+02 2.222404768284545895e+01 1.096474147619934882e+02 1.488637468907001704e+01 -2.053321062479732859e+02 2.157826206201401078e+02 -4.835048292220227495e+01 -1.472611652223418730e+02 -6.637478259955000226e+01 -4.232064216188280170e+01 4.073082565754447160e+01 2.517275162968844171e+01 4.499364786142794514e+01 -7.279149152841483783e+01 1.202340132152148442e+02 -8.472874495865518440e+01 -6.887321758709222586e+00 1.397936095114918658e+02 1.075326400701214595e+02 5.694075908253574880e+01 -1.736178925949407130e+02 2.493429868374337133e+01 1.375909169177361662e+02 2.295026439209810576e+01 9.557743047938014058e+01 1.041817193140583413e+02 -2.069730850142897793e+02 7.525286305513748175e+01 -5.648116384833351589e+01 -2.199138726575947089e+02 8.647441600750394741e+01 2.397977284755731020e+01 -1.186044782148236294e+02 -5.683569387545626483e+01 1.345051074780227225e+02 1.428473472434458245e+02 -7.335598664740889774e+01 -1.234340474611326499e+02 -8.048448547762919247e+01 -1.598322746238634977e+02 1.884958383796535131e+01 3.651924692602101885e+01 -1.634946101217847314e+01 -1.189576096232021740e+01 -8.591444749304655204e+01 -8.464643873289864473e+01 -2.362519321806053796e+01 1.278839327136693100e+02 1.299018296519489581e+02 7.730047885229743088e+01 9.247854627839389252e+01 -7.469192186643245179e+01 -1.716789150477224837e+02 -1.252442458164664529e+01 -2.192814813968135113e+01 -6.738846804602269458e+01 1.405293016923290894e+00 6.927149797692581501e+01 -5.017179961607353533e+01 2.343822145801138390e+01 7.509346578584819554e+01 6.648018984436380663e+01 1.048337076217375312e+02 -1.414353388208212152e+02 3.758050749201849072e+01 7.899913249526464654e+01 8.985074048392029056e+01 5.598480850835265699e+01 -9.788721126209514978e+01 1.298285562006983298e+02 1.208865607856705395e+02 9.089016887401260192e+01 9.627986179867848193e+01 -7.984510955164483903e+01 -1.408695709479305336e+01 -1.228318882506296283e+01 7.304350727908830265e+01 6.161018059280971926e+01 5.312543827177756839e+01 9.250423422050265287e+01 1.104799972822526541e+02 1.175479382497607759e+02 -6.146731397124706575e+01 7.644092028540067929e+01 6.184845680384649569e+01 -1.115721679056656086e+02 1.247967788859093616e+02 -9.502701557161543633e+00 -2.649044478115161638e+01 1.890705374517238795e+02 8.397747807773265549e+01 1.177904925981493847e+02 -1.370120946639677868e+02 -1.497993747880970545e+02 -1.458944296173544899e+02 -1.159873913465943644e+02 -4.205877611146580364e+01 1.042587539836392523e+02 -1.602699875515393444e+02 3.088480694420444550e+01 1.372028103508819186e+02 -5.643465663975339908e+01 -8.685364324901793509e+01 -3.342133924859601990e+01 1.292268662026347386e+02 2.162447206064936722e+02 -6.348547116013882174e+01 1.887064249375280056e+01 -2.634341803920866099e+01 6.521704493421309223e+01 5.735369189271256118e+01 -2.030839811435828040e+02 -8.446433415287896196e+01 1.310849045512506166e+02 1.331928592505052791e+02 9.008201743818410989e+01 -4.750633732672927323e+01 -7.223127637150284386e+01 -4.324825160012604641e+01 -1.683490777835744723e+02 6.781466121380965717e+01 -2.445113751241088451e+01 1.586514609515481595e+02 -2.665337013702886182e+01 -3.000905268319117454e+02 1.381802714336654958e+02 4.789489877647420712e+01 -1.125152686158025688e+02 -2.116991574589751934e+01 3.367720225692851699e+01 -1.981792654739045076e+02 -1.090287027025208033e+02 -1.046462989405516595e+02 -5.380911695378209458e+01 5.991498897109603661e+01 -1.573528455573872975e+02 1.029751208529810356e+02 -5.185504349800526569e+01 2.798174771734087685e+00 -1.273679517974688622e+02 -9.898889072734583294e+01 1.678876356165012567e+02 8.275186671723251663e+01 -4.032617904863485592e+01 3.546521538209169222e+01 -2.678014358540128370e+01 4.137327128758797556e+01 -9.992743825215278264e+01 9.450572750364166552e+01 4.822624308429480777e+01 -1.135755343164546076e+02 1.115313158595529046e+02 -4.691041042528679128e+01 9.544375606541711932e+01 -4.719248414055031304e+01 8.442976732087684866e+01 -1.465705755122549476e+02 1.363976158914683765e+02 2.366052713859091128e+01 9.621431032104186443e+01 1.246649978914696391e+02 -1.401894551168576015e+02 -8.212112642269090657e+01 -1.009889738188002042e+02 6.392370489234119901e+01 -1.638322681842976181e+02 1.449185732199079837e+02 1.361091765738883339e+02 5.065272571376041810e+01 -8.118874095311534234e+01 5.457868257215586993e+01 -1.026675378853401810e+02 -1.044333960500084402e+01 3.344122765809440523e+01 -1.757509952667042796e+02 -7.801527491966676564e+01 -1.294668519949657970e+01 9.775116235855099944e+01 -4.804890760755782964e+01 1.040635167383965154e+02 -6.154137803542452190e+01 -2.017023884475352986e+02 -1.024860999899474763e+02 -3.255751966315847312e+01 -5.759382610067395092e+01 2.879226519393820993e+01 4.923901427992911550e+01 6.060863407876526665e+00 2.432874471543691897e+01 -1.123945600836564296e+02 5.161598571795307322e+01 3.126154516844763265e+01 -6.910295723988258487e+01 8.899121593939003816e+00 5.403423867686953486e+01 -9.140500556353880768e+01 -5.280307205112693225e+01 -2.317420935001496218e+01 9.350560460934030971e+01 -1.642125686756445901e+01 4.022612092399174166e+00 -2.187081432349658598e+02 -9.109025611922535859e+01 9.486768710559293538e+01 -8.547702166435485083e+01 3.004451029234535753e+01 2.977797625774893575e+01 3.633632162962542367e+01 6.336727966751676178e+01 -1.701831486691108637e+02 1.380961108851510630e+02 7.823297491433810080e+01 -7.237956728321326416e+00 -7.750351098415276851e+01 1.072885169756672639e+02 5.956845417027123801e+01 -1.929457738856760045e+02 -4.831917884770167859e+01 -7.839627147051052702e+01 -4.968834238601102271e+01 -5.938128727830016373e+01 -9.497219209542396356e+01 -5.790383124170806894e+01 1.837697723703840325e+02 -1.638087430933557300e+02 6.280756745829652488e+01 2.662354998587868238e+01 -7.215068185235884357e+01 9.981239718471542233e+00 -3.784791788068306317e+01 3.303039786465558070e+00 -9.227195193187783673e+01 -1.896043198533238296e+02 1.765376533690584182e+01 4.019911215273519645e+01 -1.227793971939652629e+01 -8.585791772821734114e+00 -3.817485570727636457e+01 -1.822447327371032486e+02 -2.939363915664621629e+01 -6.272227893378585861e+01 1.336766686990349484e+01 -1.499090568926579614e+01 8.696520351012303252e+01 -6.050816313448945039e+01 -9.951862690275541468e+01 -3.425137881450004329e+01 -8.609042134177284922e+00 4.360071762119071792e+01 -2.122498276914724258e+01 -7.088444677229253443e+01 -1.524887710158497001e+01 1.923463333858729385e+01 4.560208198606858332e+01 -1.094221745006040862e+02 -1.334671731620636308e+02 2.211684084504437067e+02 -2.095977957168514934e+02 -7.289439793198930317e+01 -4.446882713987332636e+01 1.342804927243559519e+02 6.075774780216600135e+01 2.198548634868110128e+02 2.350509718935900594e+02 -5.989549556160933719e+01 1.243004620268847162e+02 -5.383203884874003364e+01 -3.920771058935422815e+01 -9.661999590265331506e+01 -7.667333603215223548e+01 -6.677791546409262935e+01 -8.550675796196208012e+01 -2.341359851537532109e+02 -2.601088952978629436e+02 1.293411292086662741e+02 -2.549594030234780107e+01 5.116491285663615685e+01 1.257505202014903603e+02
