# 
#                 ----------------------------------------------------
#                 Data from a 3D direct N-body simulation. 
# 
#                 rows are i-particle; 
#                 coumns are :mass, tag, x ,y, z, vx, vy, vz, ax, ay, az
# 
#                 NTHU, Computational Physics Lab
# 
#                 ----------------------------------------------------
#                 Time = 1.0000000000000007
1.000000000000000000e+00 2.000000000000000000e+00 3.000000000000000000e+00 4.000000000000000000e+00 5.000000000000000000e+00 6.000000000000000000e+00 7.000000000000000000e+00 8.000000000000000000e+00 9.000000000000000000e+00 1.000000000000000000e+01 1.100000000000000000e+01 1.200000000000000000e+01 1.300000000000000000e+01 1.400000000000000000e+01 1.500000000000000000e+01 1.600000000000000000e+01 1.700000000000000000e+01 1.800000000000000000e+01 1.900000000000000000e+01 2.000000000000000000e+01 2.100000000000000000e+01 2.200000000000000000e+01 2.300000000000000000e+01 2.400000000000000000e+01 2.500000000000000000e+01 2.600000000000000000e+01 2.700000000000000000e+01 2.800000000000000000e+01 2.900000000000000000e+01 3.000000000000000000e+01 3.100000000000000000e+01 3.200000000000000000e+01 3.300000000000000000e+01 3.400000000000000000e+01 3.500000000000000000e+01 3.600000000000000000e+01 3.700000000000000000e+01 3.800000000000000000e+01 3.900000000000000000e+01 4.000000000000000000e+01 4.100000000000000000e+01 4.200000000000000000e+01 4.300000000000000000e+01 4.400000000000000000e+01 4.500000000000000000e+01 4.600000000000000000e+01 4.700000000000000000e+01 4.800000000000000000e+01 4.900000000000000000e+01 5.000000000000000000e+01 5.100000000000000000e+01 5.200000000000000000e+01 5.300000000000000000e+01 5.400000000000000000e+01 5.500000000000000000e+01 5.600000000000000000e+01 5.700000000000000000e+01 5.800000000000000000e+01 5.900000000000000000e+01 6.000000000000000000e+01 6.100000000000000000e+01 6.200000000000000000e+01 6.300000000000000000e+01 6.400000000000000000e+01 6.500000000000000000e+01 6.600000000000000000e+01 6.700000000000000000e+01 6.800000000000000000e+01 6.900000000000000000e+01 7.000000000000000000e+01 7.100000000000000000e+01 7.200000000000000000e+01 7.300000000000000000e+01 7.400000000000000000e+01 7.500000000000000000e+01 7.600000000000000000e+01 7.700000000000000000e+01 7.800000000000000000e+01 7.900000000000000000e+01 8.000000000000000000e+01 8.100000000000000000e+01 8.200000000000000000e+01 8.300000000000000000e+01 8.400000000000000000e+01 8.500000000000000000e+01 8.600000000000000000e+01 8.700000000000000000e+01 8.800000000000000000e+01 8.900000000000000000e+01 9.000000000000000000e+01 9.100000000000000000e+01 9.200000000000000000e+01 9.300000000000000000e+01 9.400000000000000000e+01 9.500000000000000000e+01 9.600000000000000000e+01 9.700000000000000000e+01 9.800000000000000000e+01 9.900000000000000000e+01 1.000000000000000000e+02 1.010000000000000000e+02 1.020000000000000000e+02 1.030000000000000000e+02 1.040000000000000000e+02 1.050000000000000000e+02 1.060000000000000000e+02 1.070000000000000000e+02 1.080000000000000000e+02 1.090000000000000000e+02 1.100000000000000000e+02 1.110000000000000000e+02 1.120000000000000000e+02 1.130000000000000000e+02 1.140000000000000000e+02 1.150000000000000000e+02 1.160000000000000000e+02 1.170000000000000000e+02 1.180000000000000000e+02 1.190000000000000000e+02 1.200000000000000000e+02 1.210000000000000000e+02 1.220000000000000000e+02 1.230000000000000000e+02 1.240000000000000000e+02 1.250000000000000000e+02 1.260000000000000000e+02 1.270000000000000000e+02 1.280000000000000000e+02 1.290000000000000000e+02 1.300000000000000000e+02 1.310000000000000000e+02 1.320000000000000000e+02 1.330000000000000000e+02 1.340000000000000000e+02 1.350000000000000000e+02 1.360000000000000000e+02 1.370000000000000000e+02 1.380000000000000000e+02 1.390000000000000000e+02 1.400000000000000000e+02 1.410000000000000000e+02 1.420000000000000000e+02 1.430000000000000000e+02 1.440000000000000000e+02 1.450000000000000000e+02 1.460000000000000000e+02 1.470000000000000000e+02 1.480000000000000000e+02 1.490000000000000000e+02 1.500000000000000000e+02 1.510000000000000000e+02 1.520000000000000000e+02 1.530000000000000000e+02 1.540000000000000000e+02 1.550000000000000000e+02 1.560000000000000000e+02 1.570000000000000000e+02 1.580000000000000000e+02 1.590000000000000000e+02 1.600000000000000000e+02 1.610000000000000000e+02 1.620000000000000000e+02 1.630000000000000000e+02 1.640000000000000000e+02 1.650000000000000000e+02 1.660000000000000000e+02 1.670000000000000000e+02 1.680000000000000000e+02 1.690000000000000000e+02 1.700000000000000000e+02 1.710000000000000000e+02 1.720000000000000000e+02 1.730000000000000000e+02 1.740000000000000000e+02 1.750000000000000000e+02 1.760000000000000000e+02 1.770000000000000000e+02 1.780000000000000000e+02 1.790000000000000000e+02 1.800000000000000000e+02 1.810000000000000000e+02 1.820000000000000000e+02 1.830000000000000000e+02 1.840000000000000000e+02 1.850000000000000000e+02 1.860000000000000000e+02 1.870000000000000000e+02 1.880000000000000000e+02 1.890000000000000000e+02 1.900000000000000000e+02 1.910000000000000000e+02 1.920000000000000000e+02 1.930000000000000000e+02 1.940000000000000000e+02 1.950000000000000000e+02 1.960000000000000000e+02 1.970000000000000000e+02 1.980000000000000000e+02 1.990000000000000000e+02 2.000000000000000000e+02 2.010000000000000000e+02 2.020000000000000000e+02 2.030000000000000000e+02 2.040000000000000000e+02 2.050000000000000000e+02 2.060000000000000000e+02 2.070000000000000000e+02 2.080000000000000000e+02 2.090000000000000000e+02 2.100000000000000000e+02 2.110000000000000000e+02 2.120000000000000000e+02 2.130000000000000000e+02 2.140000000000000000e+02 2.150000000000000000e+02 2.160000000000000000e+02 2.170000000000000000e+02 2.180000000000000000e+02 2.190000000000000000e+02 2.200000000000000000e+02 2.210000000000000000e+02 2.220000000000000000e+02 2.230000000000000000e+02 2.240000000000000000e+02 2.250000000000000000e+02 2.260000000000000000e+02 2.270000000000000000e+02 2.280000000000000000e+02 2.290000000000000000e+02 2.300000000000000000e+02 2.310000000000000000e+02 2.320000000000000000e+02 2.330000000000000000e+02 2.340000000000000000e+02 2.350000000000000000e+02 2.360000000000000000e+02 2.370000000000000000e+02 2.380000000000000000e+02 2.390000000000000000e+02 2.400000000000000000e+02 2.410000000000000000e+02 2.420000000000000000e+02 2.430000000000000000e+02 2.440000000000000000e+02 2.450000000000000000e+02 2.460000000000000000e+02 2.470000000000000000e+02 2.480000000000000000e+02 2.490000000000000000e+02 2.500000000000000000e+02 2.510000000000000000e+02 2.520000000000000000e+02 2.530000000000000000e+02 2.540000000000000000e+02 2.550000000000000000e+02 2.560000000000000000e+02 2.570000000000000000e+02 2.580000000000000000e+02 2.590000000000000000e+02 2.600000000000000000e+02 2.610000000000000000e+02 2.620000000000000000e+02 2.630000000000000000e+02 2.640000000000000000e+02 2.650000000000000000e+02 2.660000000000000000e+02 2.670000000000000000e+02 2.680000000000000000e+02 2.690000000000000000e+02 2.700000000000000000e+02 2.710000000000000000e+02 2.720000000000000000e+02 2.730000000000000000e+02 2.740000000000000000e+02 2.750000000000000000e+02 2.760000000000000000e+02 2.770000000000000000e+02 2.780000000000000000e+02 2.790000000000000000e+02 2.800000000000000000e+02 2.810000000000000000e+02 2.820000000000000000e+02 2.830000000000000000e+02 2.840000000000000000e+02 2.850000000000000000e+02 2.860000000000000000e+02 2.870000000000000000e+02 2.880000000000000000e+02 2.890000000000000000e+02 2.900000000000000000e+02 2.910000000000000000e+02 2.920000000000000000e+02 2.930000000000000000e+02 2.940000000000000000e+02 2.950000000000000000e+02 2.960000000000000000e+02 2.970000000000000000e+02 2.980000000000000000e+02 2.990000000000000000e+02 3.000000000000000000e+02 3.010000000000000000e+02 3.020000000000000000e+02 3.030000000000000000e+02 3.040000000000000000e+02 3.050000000000000000e+02 3.060000000000000000e+02 3.070000000000000000e+02 3.080000000000000000e+02 3.090000000000000000e+02 3.100000000000000000e+02 3.110000000000000000e+02 3.120000000000000000e+02 3.130000000000000000e+02 3.140000000000000000e+02 3.150000000000000000e+02 3.160000000000000000e+02 3.170000000000000000e+02 3.180000000000000000e+02 3.190000000000000000e+02 3.200000000000000000e+02 3.210000000000000000e+02 3.220000000000000000e+02 3.230000000000000000e+02 3.240000000000000000e+02 3.250000000000000000e+02 3.260000000000000000e+02 3.270000000000000000e+02 3.280000000000000000e+02 3.290000000000000000e+02 3.300000000000000000e+02 3.310000000000000000e+02 3.320000000000000000e+02 3.330000000000000000e+02 3.340000000000000000e+02 3.350000000000000000e+02 3.360000000000000000e+02 3.370000000000000000e+02 3.380000000000000000e+02 3.390000000000000000e+02 3.400000000000000000e+02 3.410000000000000000e+02 3.420000000000000000e+02 3.430000000000000000e+02 3.440000000000000000e+02 3.450000000000000000e+02 3.460000000000000000e+02 3.470000000000000000e+02 3.480000000000000000e+02 3.490000000000000000e+02 3.500000000000000000e+02 3.510000000000000000e+02 3.520000000000000000e+02 3.530000000000000000e+02 3.540000000000000000e+02 3.550000000000000000e+02 3.560000000000000000e+02 3.570000000000000000e+02 3.580000000000000000e+02 3.590000000000000000e+02 3.600000000000000000e+02 3.610000000000000000e+02 3.620000000000000000e+02 3.630000000000000000e+02 3.640000000000000000e+02 3.650000000000000000e+02 3.660000000000000000e+02 3.670000000000000000e+02 3.680000000000000000e+02 3.690000000000000000e+02 3.700000000000000000e+02 3.710000000000000000e+02 3.720000000000000000e+02 3.730000000000000000e+02 3.740000000000000000e+02 3.750000000000000000e+02 3.760000000000000000e+02 3.770000000000000000e+02 3.780000000000000000e+02 3.790000000000000000e+02 3.800000000000000000e+02 3.810000000000000000e+02 3.820000000000000000e+02 3.830000000000000000e+02 3.840000000000000000e+02 3.850000000000000000e+02 3.860000000000000000e+02 3.870000000000000000e+02 3.880000000000000000e+02 3.890000000000000000e+02 3.900000000000000000e+02 3.910000000000000000e+02 3.920000000000000000e+02 3.930000000000000000e+02 3.940000000000000000e+02 3.950000000000000000e+02 3.960000000000000000e+02 3.970000000000000000e+02 3.980000000000000000e+02 3.990000000000000000e+02 4.000000000000000000e+02 4.010000000000000000e+02 4.020000000000000000e+02 4.030000000000000000e+02 4.040000000000000000e+02 4.050000000000000000e+02 4.060000000000000000e+02 4.070000000000000000e+02 4.080000000000000000e+02 4.090000000000000000e+02 4.100000000000000000e+02 4.110000000000000000e+02 4.120000000000000000e+02 4.130000000000000000e+02 4.140000000000000000e+02 4.150000000000000000e+02 4.160000000000000000e+02 4.170000000000000000e+02 4.180000000000000000e+02 4.190000000000000000e+02 4.200000000000000000e+02 4.210000000000000000e+02 4.220000000000000000e+02 4.230000000000000000e+02 4.240000000000000000e+02 4.250000000000000000e+02 4.260000000000000000e+02 4.270000000000000000e+02 4.280000000000000000e+02 4.290000000000000000e+02 4.300000000000000000e+02 4.310000000000000000e+02 4.320000000000000000e+02 4.330000000000000000e+02 4.340000000000000000e+02 4.350000000000000000e+02 4.360000000000000000e+02 4.370000000000000000e+02 4.380000000000000000e+02 4.390000000000000000e+02 4.400000000000000000e+02 4.410000000000000000e+02 4.420000000000000000e+02 4.430000000000000000e+02 4.440000000000000000e+02 4.450000000000000000e+02 4.460000000000000000e+02 4.470000000000000000e+02 4.480000000000000000e+02 4.490000000000000000e+02 4.500000000000000000e+02 4.510000000000000000e+02 4.520000000000000000e+02 4.530000000000000000e+02 4.540000000000000000e+02 4.550000000000000000e+02 4.560000000000000000e+02 4.570000000000000000e+02 4.580000000000000000e+02 4.590000000000000000e+02 4.600000000000000000e+02 4.610000000000000000e+02 4.620000000000000000e+02 4.630000000000000000e+02 4.640000000000000000e+02 4.650000000000000000e+02 4.660000000000000000e+02 4.670000000000000000e+02 4.680000000000000000e+02 4.690000000000000000e+02 4.700000000000000000e+02 4.710000000000000000e+02 4.720000000000000000e+02 4.730000000000000000e+02 4.740000000000000000e+02 4.750000000000000000e+02 4.760000000000000000e+02 4.770000000000000000e+02 4.780000000000000000e+02 4.790000000000000000e+02 4.800000000000000000e+02 4.810000000000000000e+02 4.820000000000000000e+02 4.830000000000000000e+02 4.840000000000000000e+02 4.850000000000000000e+02 4.860000000000000000e+02 4.870000000000000000e+02 4.880000000000000000e+02 4.890000000000000000e+02 4.900000000000000000e+02 4.910000000000000000e+02 4.920000000000000000e+02 4.930000000000000000e+02 4.940000000000000000e+02 4.950000000000000000e+02 4.960000000000000000e+02 4.970000000000000000e+02 4.980000000000000000e+02 4.990000000000000000e+02 5.000000000000000000e+02 5.010000000000000000e+02 5.020000000000000000e+02 5.030000000000000000e+02 5.040000000000000000e+02 5.050000000000000000e+02 5.060000000000000000e+02 5.070000000000000000e+02 5.080000000000000000e+02 5.090000000000000000e+02 5.100000000000000000e+02 5.110000000000000000e+02 5.120000000000000000e+02 5.130000000000000000e+02 5.140000000000000000e+02 5.150000000000000000e+02 5.160000000000000000e+02 5.170000000000000000e+02 5.180000000000000000e+02 5.190000000000000000e+02 5.200000000000000000e+02 5.210000000000000000e+02 5.220000000000000000e+02 5.230000000000000000e+02 5.240000000000000000e+02 5.250000000000000000e+02 5.260000000000000000e+02 5.270000000000000000e+02 5.280000000000000000e+02 5.290000000000000000e+02 5.300000000000000000e+02 5.310000000000000000e+02 5.320000000000000000e+02 5.330000000000000000e+02 5.340000000000000000e+02 5.350000000000000000e+02 5.360000000000000000e+02 5.370000000000000000e+02 5.380000000000000000e+02 5.390000000000000000e+02 5.400000000000000000e+02 5.410000000000000000e+02 5.420000000000000000e+02 5.430000000000000000e+02 5.440000000000000000e+02 5.450000000000000000e+02 5.460000000000000000e+02 5.470000000000000000e+02 5.480000000000000000e+02 5.490000000000000000e+02 5.500000000000000000e+02 5.510000000000000000e+02 5.520000000000000000e+02 5.530000000000000000e+02 5.540000000000000000e+02 5.550000000000000000e+02 5.560000000000000000e+02 5.570000000000000000e+02 5.580000000000000000e+02 5.590000000000000000e+02 5.600000000000000000e+02 5.610000000000000000e+02 5.620000000000000000e+02 5.630000000000000000e+02 5.640000000000000000e+02 5.650000000000000000e+02 5.660000000000000000e+02 5.670000000000000000e+02 5.680000000000000000e+02 5.690000000000000000e+02 5.700000000000000000e+02 5.710000000000000000e+02 5.720000000000000000e+02 5.730000000000000000e+02 5.740000000000000000e+02 5.750000000000000000e+02 5.760000000000000000e+02 5.770000000000000000e+02 5.780000000000000000e+02 5.790000000000000000e+02 5.800000000000000000e+02 5.810000000000000000e+02 5.820000000000000000e+02 5.830000000000000000e+02 5.840000000000000000e+02 5.850000000000000000e+02 5.860000000000000000e+02 5.870000000000000000e+02 5.880000000000000000e+02 5.890000000000000000e+02 5.900000000000000000e+02 5.910000000000000000e+02 5.920000000000000000e+02 5.930000000000000000e+02 5.940000000000000000e+02 5.950000000000000000e+02 5.960000000000000000e+02 5.970000000000000000e+02 5.980000000000000000e+02 5.990000000000000000e+02 6.000000000000000000e+02 6.010000000000000000e+02 6.020000000000000000e+02 6.030000000000000000e+02 6.040000000000000000e+02 6.050000000000000000e+02 6.060000000000000000e+02 6.070000000000000000e+02 6.080000000000000000e+02 6.090000000000000000e+02 6.100000000000000000e+02 6.110000000000000000e+02 6.120000000000000000e+02 6.130000000000000000e+02 6.140000000000000000e+02 6.150000000000000000e+02 6.160000000000000000e+02 6.170000000000000000e+02 6.180000000000000000e+02 6.190000000000000000e+02 6.200000000000000000e+02 6.210000000000000000e+02 6.220000000000000000e+02 6.230000000000000000e+02 6.240000000000000000e+02 6.250000000000000000e+02 6.260000000000000000e+02 6.270000000000000000e+02 6.280000000000000000e+02 6.290000000000000000e+02 6.300000000000000000e+02 6.310000000000000000e+02 6.320000000000000000e+02 6.330000000000000000e+02 6.340000000000000000e+02 6.350000000000000000e+02 6.360000000000000000e+02 6.370000000000000000e+02 6.380000000000000000e+02 6.390000000000000000e+02 6.400000000000000000e+02 6.410000000000000000e+02 6.420000000000000000e+02 6.430000000000000000e+02 6.440000000000000000e+02 6.450000000000000000e+02 6.460000000000000000e+02 6.470000000000000000e+02 6.480000000000000000e+02 6.490000000000000000e+02 6.500000000000000000e+02 6.510000000000000000e+02 6.520000000000000000e+02 6.530000000000000000e+02 6.540000000000000000e+02 6.550000000000000000e+02 6.560000000000000000e+02 6.570000000000000000e+02 6.580000000000000000e+02 6.590000000000000000e+02 6.600000000000000000e+02 6.610000000000000000e+02 6.620000000000000000e+02 6.630000000000000000e+02 6.640000000000000000e+02 6.650000000000000000e+02 6.660000000000000000e+02 6.670000000000000000e+02 6.680000000000000000e+02 6.690000000000000000e+02 6.700000000000000000e+02 6.710000000000000000e+02 6.720000000000000000e+02 6.730000000000000000e+02 6.740000000000000000e+02 6.750000000000000000e+02 6.760000000000000000e+02 6.770000000000000000e+02 6.780000000000000000e+02 6.790000000000000000e+02 6.800000000000000000e+02 6.810000000000000000e+02 6.820000000000000000e+02 6.830000000000000000e+02 6.840000000000000000e+02 6.850000000000000000e+02 6.860000000000000000e+02 6.870000000000000000e+02 6.880000000000000000e+02 6.890000000000000000e+02 6.900000000000000000e+02 6.910000000000000000e+02 6.920000000000000000e+02 6.930000000000000000e+02 6.940000000000000000e+02 6.950000000000000000e+02 6.960000000000000000e+02 6.970000000000000000e+02 6.980000000000000000e+02 6.990000000000000000e+02 7.000000000000000000e+02 7.010000000000000000e+02 7.020000000000000000e+02 7.030000000000000000e+02 7.040000000000000000e+02 7.050000000000000000e+02 7.060000000000000000e+02 7.070000000000000000e+02 7.080000000000000000e+02 7.090000000000000000e+02 7.100000000000000000e+02 7.110000000000000000e+02 7.120000000000000000e+02 7.130000000000000000e+02 7.140000000000000000e+02 7.150000000000000000e+02 7.160000000000000000e+02 7.170000000000000000e+02 7.180000000000000000e+02 7.190000000000000000e+02 7.200000000000000000e+02 7.210000000000000000e+02 7.220000000000000000e+02 7.230000000000000000e+02 7.240000000000000000e+02 7.250000000000000000e+02 7.260000000000000000e+02 7.270000000000000000e+02 7.280000000000000000e+02 7.290000000000000000e+02 7.300000000000000000e+02 7.310000000000000000e+02 7.320000000000000000e+02 7.330000000000000000e+02 7.340000000000000000e+02 7.350000000000000000e+02 7.360000000000000000e+02 7.370000000000000000e+02 7.380000000000000000e+02 7.390000000000000000e+02 7.400000000000000000e+02 7.410000000000000000e+02 7.420000000000000000e+02 7.430000000000000000e+02 7.440000000000000000e+02 7.450000000000000000e+02 7.460000000000000000e+02 7.470000000000000000e+02 7.480000000000000000e+02 7.490000000000000000e+02 7.500000000000000000e+02 7.510000000000000000e+02 7.520000000000000000e+02 7.530000000000000000e+02 7.540000000000000000e+02 7.550000000000000000e+02 7.560000000000000000e+02 7.570000000000000000e+02 7.580000000000000000e+02 7.590000000000000000e+02 7.600000000000000000e+02 7.610000000000000000e+02 7.620000000000000000e+02 7.630000000000000000e+02 7.640000000000000000e+02 7.650000000000000000e+02 7.660000000000000000e+02 7.670000000000000000e+02 7.680000000000000000e+02 7.690000000000000000e+02 7.700000000000000000e+02 7.710000000000000000e+02 7.720000000000000000e+02 7.730000000000000000e+02 7.740000000000000000e+02 7.750000000000000000e+02 7.760000000000000000e+02 7.770000000000000000e+02 7.780000000000000000e+02 7.790000000000000000e+02 7.800000000000000000e+02 7.810000000000000000e+02 7.820000000000000000e+02 7.830000000000000000e+02 7.840000000000000000e+02 7.850000000000000000e+02 7.860000000000000000e+02 7.870000000000000000e+02 7.880000000000000000e+02 7.890000000000000000e+02 7.900000000000000000e+02 7.910000000000000000e+02 7.920000000000000000e+02 7.930000000000000000e+02 7.940000000000000000e+02 7.950000000000000000e+02 7.960000000000000000e+02 7.970000000000000000e+02 7.980000000000000000e+02 7.990000000000000000e+02 8.000000000000000000e+02 8.010000000000000000e+02 8.020000000000000000e+02 8.030000000000000000e+02 8.040000000000000000e+02 8.050000000000000000e+02 8.060000000000000000e+02 8.070000000000000000e+02 8.080000000000000000e+02 8.090000000000000000e+02 8.100000000000000000e+02 8.110000000000000000e+02 8.120000000000000000e+02 8.130000000000000000e+02 8.140000000000000000e+02 8.150000000000000000e+02 8.160000000000000000e+02 8.170000000000000000e+02 8.180000000000000000e+02 8.190000000000000000e+02 8.200000000000000000e+02 8.210000000000000000e+02 8.220000000000000000e+02 8.230000000000000000e+02 8.240000000000000000e+02 8.250000000000000000e+02 8.260000000000000000e+02 8.270000000000000000e+02 8.280000000000000000e+02 8.290000000000000000e+02 8.300000000000000000e+02 8.310000000000000000e+02 8.320000000000000000e+02 8.330000000000000000e+02 8.340000000000000000e+02 8.350000000000000000e+02 8.360000000000000000e+02 8.370000000000000000e+02 8.380000000000000000e+02 8.390000000000000000e+02 8.400000000000000000e+02 8.410000000000000000e+02 8.420000000000000000e+02 8.430000000000000000e+02 8.440000000000000000e+02 8.450000000000000000e+02 8.460000000000000000e+02 8.470000000000000000e+02 8.480000000000000000e+02 8.490000000000000000e+02 8.500000000000000000e+02 8.510000000000000000e+02 8.520000000000000000e+02 8.530000000000000000e+02 8.540000000000000000e+02 8.550000000000000000e+02 8.560000000000000000e+02 8.570000000000000000e+02 8.580000000000000000e+02 8.590000000000000000e+02 8.600000000000000000e+02 8.610000000000000000e+02 8.620000000000000000e+02 8.630000000000000000e+02 8.640000000000000000e+02 8.650000000000000000e+02 8.660000000000000000e+02 8.670000000000000000e+02 8.680000000000000000e+02 8.690000000000000000e+02 8.700000000000000000e+02 8.710000000000000000e+02 8.720000000000000000e+02 8.730000000000000000e+02 8.740000000000000000e+02 8.750000000000000000e+02 8.760000000000000000e+02 8.770000000000000000e+02 8.780000000000000000e+02 8.790000000000000000e+02 8.800000000000000000e+02 8.810000000000000000e+02 8.820000000000000000e+02 8.830000000000000000e+02 8.840000000000000000e+02 8.850000000000000000e+02 8.860000000000000000e+02 8.870000000000000000e+02 8.880000000000000000e+02 8.890000000000000000e+02 8.900000000000000000e+02 8.910000000000000000e+02 8.920000000000000000e+02 8.930000000000000000e+02 8.940000000000000000e+02 8.950000000000000000e+02 8.960000000000000000e+02 8.970000000000000000e+02 8.980000000000000000e+02 8.990000000000000000e+02 9.000000000000000000e+02 9.010000000000000000e+02 9.020000000000000000e+02 9.030000000000000000e+02 9.040000000000000000e+02 9.050000000000000000e+02 9.060000000000000000e+02 9.070000000000000000e+02 9.080000000000000000e+02 9.090000000000000000e+02 9.100000000000000000e+02 9.110000000000000000e+02 9.120000000000000000e+02 9.130000000000000000e+02 9.140000000000000000e+02 9.150000000000000000e+02 9.160000000000000000e+02 9.170000000000000000e+02 9.180000000000000000e+02 9.190000000000000000e+02 9.200000000000000000e+02 9.210000000000000000e+02 9.220000000000000000e+02 9.230000000000000000e+02 9.240000000000000000e+02 9.250000000000000000e+02 9.260000000000000000e+02 9.270000000000000000e+02 9.280000000000000000e+02 9.290000000000000000e+02 9.300000000000000000e+02 9.310000000000000000e+02 9.320000000000000000e+02 9.330000000000000000e+02 9.340000000000000000e+02 9.350000000000000000e+02 9.360000000000000000e+02 9.370000000000000000e+02 9.380000000000000000e+02 9.390000000000000000e+02 9.400000000000000000e+02 9.410000000000000000e+02 9.420000000000000000e+02 9.430000000000000000e+02 9.440000000000000000e+02 9.450000000000000000e+02 9.460000000000000000e+02 9.470000000000000000e+02 9.480000000000000000e+02 9.490000000000000000e+02 9.500000000000000000e+02 9.510000000000000000e+02 9.520000000000000000e+02 9.530000000000000000e+02 9.540000000000000000e+02 9.550000000000000000e+02 9.560000000000000000e+02 9.570000000000000000e+02 9.580000000000000000e+02 9.590000000000000000e+02 9.600000000000000000e+02 9.610000000000000000e+02 9.620000000000000000e+02 9.630000000000000000e+02 9.640000000000000000e+02 9.650000000000000000e+02 9.660000000000000000e+02 9.670000000000000000e+02 9.680000000000000000e+02 9.690000000000000000e+02 9.700000000000000000e+02 9.710000000000000000e+02 9.720000000000000000e+02 9.730000000000000000e+02 9.740000000000000000e+02 9.750000000000000000e+02 9.760000000000000000e+02 9.770000000000000000e+02 9.780000000000000000e+02 9.790000000000000000e+02 9.800000000000000000e+02 9.810000000000000000e+02 9.820000000000000000e+02 9.830000000000000000e+02 9.840000000000000000e+02 9.850000000000000000e+02 9.860000000000000000e+02 9.870000000000000000e+02 9.880000000000000000e+02 9.890000000000000000e+02 9.900000000000000000e+02 9.910000000000000000e+02 9.920000000000000000e+02 9.930000000000000000e+02 9.940000000000000000e+02 9.950000000000000000e+02 9.960000000000000000e+02 9.970000000000000000e+02 9.980000000000000000e+02 9.990000000000000000e+02 1.000000000000000000e+03
1.000000000000000021e-02 1.000000000000000021e-02 1.000000000000000021e-02 1.000000000000000021e-02 1.000000000000000021e-02 1.000000000000000021e-02 1.000000000000000021e-02 1.000000000000000021e-02 1.000000000000000021e-02 1.000000000000000021e-02 1.000000000000000021e-02 1.000000000000000021e-02 1.000000000000000021e-02 1.000000000000000021e-02 1.000000000000000021e-02 1.000000000000000021e-02 1.000000000000000021e-02 1.000000000000000021e-02 1.000000000000000021e-02 1.000000000000000021e-02 1.000000000000000021e-02 1.000000000000000021e-02 1.000000000000000021e-02 1.000000000000000021e-02 1.000000000000000021e-02 1.000000000000000021e-02 1.000000000000000021e-02 1.000000000000000021e-02 1.000000000000000021e-02 1.000000000000000021e-02 1.000000000000000021e-02 1.000000000000000021e-02 1.000000000000000021e-02 1.000000000000000021e-02 1.000000000000000021e-02 1.000000000000000021e-02 1.000000000000000021e-02 1.000000000000000021e-02 1.000000000000000021e-02 1.000000000000000021e-02 1.000000000000000021e-02 1.000000000000000021e-02 1.000000000000000021e-02 1.000000000000000021e-02 1.000000000000000021e-02 1.000000000000000021e-02 1.000000000000000021e-02 1.000000000000000021e-02 1.000000000000000021e-02 1.000000000000000021e-02 1.000000000000000021e-02 1.000000000000000021e-02 1.000000000000000021e-02 1.000000000000000021e-02 1.000000000000000021e-02 1.000000000000000021e-02 1.000000000000000021e-02 1.000000000000000021e-02 1.000000000000000021e-02 1.000000000000000021e-02 1.000000000000000021e-02 1.000000000000000021e-02 1.000000000000000021e-02 1.000000000000000021e-02 1.000000000000000021e-02 1.000000000000000021e-02 1.000000000000000021e-02 1.000000000000000021e-02 1.000000000000000021e-02 1.000000000000000021e-02 1.000000000000000021e-02 1.000000000000000021e-02 1.000000000000000021e-02 1.000000000000000021e-02 1.000000000000000021e-02 1.000000000000000021e-02 1.000000000000000021e-02 1.000000000000000021e-02 1.000000000000000021e-02 1.000000000000000021e-02 1.000000000000000021e-02 1.000000000000000021e-02 1.000000000000000021e-02 1.000000000000000021e-02 1.000000000000000021e-02 1.000000000000000021e-02 1.000000000000000021e-02 1.000000000000000021e-02 1.000000000000000021e-02 1.000000000000000021e-02 1.000000000000000021e-02 1.000000000000000021e-02 1.000000000000000021e-02 1.000000000000000021e-02 1.000000000000000021e-02 1.000000000000000021e-02 1.000000000000000021e-02 1.000000000000000021e-02 1.000000000000000021e-02 1.000000000000000021e-02 1.000000000000000021e-02 1.000000000000000021e-02 1.000000000000000021e-02 1.000000000000000021e-02 1.000000000000000021e-02 1.000000000000000021e-02 1.000000000000000021e-02 1.000000000000000021e-02 1.000000000000000021e-02 1.000000000000000021e-02 1.000000000000000021e-02 1.000000000000000021e-02 1.000000000000000021e-02 1.000000000000000021e-02 1.000000000000000021e-02 1.000000000000000021e-02 1.000000000000000021e-02 1.000000000000000021e-02 1.000000000000000021e-02 1.000000000000000021e-02 1.000000000000000021e-02 1.000000000000000021e-02 1.000000000000000021e-02 1.000000000000000021e-02 1.000000000000000021e-02 1.000000000000000021e-02 1.000000000000000021e-02 1.000000000000000021e-02 1.000000000000000021e-02 1.000000000000000021e-02 1.000000000000000021e-02 1.000000000000000021e-02 1.000000000000000021e-02 1.000000000000000021e-02 1.000000000000000021e-02 1.000000000000000021e-02 1.000000000000000021e-02 1.000000000000000021e-02 1.000000000000000021e-02 1.000000000000000021e-02 1.000000000000000021e-02 1.000000000000000021e-02 1.000000000000000021e-02 1.000000000000000021e-02 1.000000000000000021e-02 1.000000000000000021e-02 1.000000000000000021e-02 1.000000000000000021e-02 1.000000000000000021e-02 1.000000000000000021e-02 1.000000000000000021e-02 1.000000000000000021e-02 1.000000000000000021e-02 1.000000000000000021e-02 1.000000000000000021e-02 1.000000000000000021e-02 1.000000000000000021e-02 1.000000000000000021e-02 1.000000000000000021e-02 1.000000000000000021e-02 1.000000000000000021e-02 1.000000000000000021e-02 1.000000000000000021e-02 1.000000000000000021e-02 1.000000000000000021e-02 1.000000000000000021e-02 1.000000000000000021e-02 1.000000000000000021e-02 1.000000000000000021e-02 1.000000000000000021e-02 1.000000000000000021e-02 1.000000000000000021e-02 1.000000000000000021e-02 1.000000000000000021e-02 1.000000000000000021e-02 1.000000000000000021e-02 1.000000000000000021e-02 1.000000000000000021e-02 1.000000000000000021e-02 1.000000000000000021e-02 1.000000000000000021e-02 1.000000000000000021e-02 1.000000000000000021e-02 1.000000000000000021e-02 1.000000000000000021e-02 1.000000000000000021e-02 1.000000000000000021e-02 1.000000000000000021e-02 1.000000000000000021e-02 1.000000000000000021e-02 1.000000000000000021e-02 1.000000000000000021e-02 1.000000000000000021e-02 1.000000000000000021e-02 1.000000000000000021e-02 1.000000000000000021e-02 1.000000000000000021e-02 1.000000000000000021e-02 1.000000000000000021e-02 1.000000000000000021e-02 1.000000000000000021e-02 1.000000000000000021e-02 1.000000000000000021e-02 1.000000000000000021e-02 1.000000000000000021e-02 1.000000000000000021e-02 1.000000000000000021e-02 1.000000000000000021e-02 1.000000000000000021e-02 1.000000000000000021e-02 1.000000000000000021e-02 1.000000000000000021e-02 1.000000000000000021e-02 1.000000000000000021e-02 1.000000000000000021e-02 1.000000000000000021e-02 1.000000000000000021e-02 1.000000000000000021e-02 1.000000000000000021e-02 1.000000000000000021e-02 1.000000000000000021e-02 1.000000000000000021e-02 1.000000000000000021e-02 1.000000000000000021e-02 1.000000000000000021e-02 1.000000000000000021e-02 1.000000000000000021e-02 1.000000000000000021e-02 1.000000000000000021e-02 1.000000000000000021e-02 1.000000000000000021e-02 1.000000000000000021e-02 1.000000000000000021e-02 1.000000000000000021e-02 1.000000000000000021e-02 1.000000000000000021e-02 1.000000000000000021e-02 1.000000000000000021e-02 1.000000000000000021e-02 1.000000000000000021e-02 1.000000000000000021e-02 1.000000000000000021e-02 1.000000000000000021e-02 1.000000000000000021e-02 1.000000000000000021e-02 1.000000000000000021e-02 1.000000000000000021e-02 1.000000000000000021e-02 1.000000000000000021e-02 1.000000000000000021e-02 1.000000000000000021e-02 1.000000000000000021e-02 1.000000000000000021e-02 1.000000000000000021e-02 1.000000000000000021e-02 1.000000000000000021e-02 1.000000000000000021e-02 1.000000000000000021e-02 1.000000000000000021e-02 1.000000000000000021e-02 1.000000000000000021e-02 1.000000000000000021e-02 1.000000000000000021e-02 1.000000000000000021e-02 1.000000000000000021e-02 1.000000000000000021e-02 1.000000000000000021e-02 1.000000000000000021e-02 1.000000000000000021e-02 1.000000000000000021e-02 1.000000000000000021e-02 1.000000000000000021e-02 1.000000000000000021e-02 1.000000000000000021e-02 1.000000000000000021e-02 1.000000000000000021e-02 1.000000000000000021e-02 1.000000000000000021e-02 1.000000000000000021e-02 1.000000000000000021e-02 1.000000000000000021e-02 1.000000000000000021e-02 1.000000000000000021e-02 1.000000000000000021e-02 1.000000000000000021e-02 1.000000000000000021e-02 1.000000000000000021e-02 1.000000000000000021e-02 1.000000000000000021e-02 1.000000000000000021e-02 1.000000000000000021e-02 1.000000000000000021e-02 1.000000000000000021e-02 1.000000000000000021e-02 1.000000000000000021e-02 1.000000000000000021e-02 1.000000000000000021e-02 1.000000000000000021e-02 1.000000000000000021e-02 1.000000000000000021e-02 1.000000000000000021e-02 1.000000000000000021e-02 1.000000000000000021e-02 1.000000000000000021e-02 1.000000000000000021e-02 1.000000000000000021e-02 1.000000000000000021e-02 1.000000000000000021e-02 1.000000000000000021e-02 1.000000000000000021e-02 1.000000000000000021e-02 1.000000000000000021e-02 1.000000000000000021e-02 1.000000000000000021e-02 1.000000000000000021e-02 1.000000000000000021e-02 1.000000000000000021e-02 1.000000000000000021e-02 1.000000000000000021e-02 1.000000000000000021e-02 1.000000000000000021e-02 1.000000000000000021e-02 1.000000000000000021e-02 1.000000000000000021e-02 1.000000000000000021e-02 1.000000000000000021e-02 1.000000000000000021e-02 1.000000000000000021e-02 1.000000000000000021e-02 1.000000000000000021e-02 1.000000000000000021e-02 1.000000000000000021e-02 1.000000000000000021e-02 1.000000000000000021e-02 1.000000000000000021e-02 1.000000000000000021e-02 1.000000000000000021e-02 1.000000000000000021e-02 1.000000000000000021e-02 1.000000000000000021e-02 1.000000000000000021e-02 1.000000000000000021e-02 1.000000000000000021e-02 1.000000000000000021e-02 1.000000000000000021e-02 1.000000000000000021e-02 1.000000000000000021e-02 1.000000000000000021e-02 1.000000000000000021e-02 1.000000000000000021e-02 1.000000000000000021e-02 1.000000000000000021e-02 1.000000000000000021e-02 1.000000000000000021e-02 1.000000000000000021e-02 1.000000000000000021e-02 1.000000000000000021e-02 1.000000000000000021e-02 1.000000000000000021e-02 1.000000000000000021e-02 1.000000000000000021e-02 1.000000000000000021e-02 1.000000000000000021e-02 1.000000000000000021e-02 1.000000000000000021e-02 1.000000000000000021e-02 1.000000000000000021e-02 1.000000000000000021e-02 1.000000000000000021e-02 1.000000000000000021e-02 1.000000000000000021e-02 1.000000000000000021e-02 1.000000000000000021e-02 1.000000000000000021e-02 1.000000000000000021e-02 1.000000000000000021e-02 1.000000000000000021e-02 1.000000000000000021e-02 1.000000000000000021e-02 1.000000000000000021e-02 1.000000000000000021e-02 1.000000000000000021e-02 1.000000000000000021e-02 1.000000000000000021e-02 1.000000000000000021e-02 1.000000000000000021e-02 1.000000000000000021e-02 1.000000000000000021e-02 1.000000000000000021e-02 1.000000000000000021e-02 1.000000000000000021e-02 1.000000000000000021e-02 1.000000000000000021e-02 1.000000000000000021e-02 1.000000000000000021e-02 1.000000000000000021e-02 1.000000000000000021e-02 1.000000000000000021e-02 1.000000000000000021e-02 1.000000000000000021e-02 1.000000000000000021e-02 1.000000000000000021e-02 1.000000000000000021e-02 1.000000000000000021e-02 1.000000000000000021e-02 1.000000000000000021e-02 1.000000000000000021e-02 1.000000000000000021e-02 1.000000000000000021e-02 1.000000000000000021e-02 1.000000000000000021e-02 1.000000000000000021e-02 1.000000000000000021e-02 1.000000000000000021e-02 1.000000000000000021e-02 1.000000000000000021e-02 1.000000000000000021e-02 1.000000000000000021e-02 1.000000000000000021e-02 1.000000000000000021e-02 1.000000000000000021e-02 1.000000000000000021e-02 1.000000000000000021e-02 1.000000000000000021e-02 1.000000000000000021e-02 1.000000000000000021e-02 1.000000000000000021e-02 1.000000000000000021e-02 1.000000000000000021e-02 1.000000000000000021e-02 1.000000000000000021e-02 1.000000000000000021e-02 1.000000000000000021e-02 1.000000000000000021e-02 1.000000000000000021e-02 1.000000000000000021e-02 1.000000000000000021e-02 1.000000000000000021e-02 1.000000000000000021e-02 1.000000000000000021e-02 1.000000000000000021e-02 1.000000000000000021e-02 1.000000000000000021e-02 1.000000000000000021e-02 1.000000000000000021e-02 1.000000000000000021e-02 1.000000000000000021e-02 1.000000000000000021e-02 1.000000000000000021e-02 1.000000000000000021e-02 1.000000000000000021e-02 1.000000000000000021e-02 1.000000000000000021e-02 1.000000000000000021e-02 1.000000000000000021e-02 1.000000000000000021e-02 1.000000000000000021e-02 1.000000000000000021e-02 1.000000000000000021e-02 1.000000000000000021e-02 1.000000000000000021e-02 1.000000000000000021e-02 1.000000000000000021e-02 1.000000000000000021e-02 1.000000000000000021e-02 1.000000000000000021e-02 1.000000000000000021e-02 1.000000000000000021e-02 1.000000000000000021e-02 1.000000000000000021e-02 1.000000000000000021e-02 1.000000000000000021e-02 1.000000000000000021e-02 1.000000000000000021e-02 1.000000000000000021e-02 1.000000000000000021e-02 1.000000000000000021e-02 1.000000000000000021e-02 1.000000000000000021e-02 1.000000000000000021e-02 1.000000000000000021e-02 1.000000000000000021e-02 1.000000000000000021e-02 1.000000000000000021e-02 1.000000000000000021e-02 1.000000000000000021e-02 1.000000000000000021e-02 1.000000000000000021e-02 1.000000000000000021e-02 1.000000000000000021e-02 1.000000000000000021e-02 1.000000000000000021e-02 1.000000000000000021e-02 1.000000000000000021e-02 1.000000000000000021e-02 1.000000000000000021e-02 1.000000000000000021e-02 1.000000000000000021e-02 1.000000000000000021e-02 1.000000000000000021e-02 1.000000000000000021e-02 1.000000000000000021e-02 1.000000000000000021e-02 1.000000000000000021e-02 1.000000000000000021e-02 1.000000000000000021e-02 1.000000000000000021e-02 1.000000000000000021e-02 1.000000000000000021e-02 1.000000000000000021e-02 1.000000000000000021e-02 1.000000000000000021e-02 1.000000000000000021e-02 1.000000000000000021e-02 1.000000000000000021e-02 1.000000000000000021e-02 1.000000000000000021e-02 1.000000000000000021e-02 1.000000000000000021e-02 1.000000000000000021e-02 1.000000000000000021e-02 1.000000000000000021e-02 1.000000000000000021e-02 1.000000000000000021e-02 1.000000000000000021e-02 1.000000000000000021e-02 1.000000000000000021e-02 1.000000000000000021e-02 1.000000000000000021e-02 1.000000000000000021e-02 1.000000000000000021e-02 1.000000000000000021e-02 1.000000000000000021e-02 1.000000000000000021e-02 1.000000000000000021e-02 1.000000000000000021e-02 1.000000000000000021e-02 1.000000000000000021e-02 1.000000000000000021e-02 1.000000000000000021e-02 1.000000000000000021e-02 1.000000000000000021e-02 1.000000000000000021e-02 1.000000000000000021e-02 1.000000000000000021e-02 1.000000000000000021e-02 1.000000000000000021e-02 1.000000000000000021e-02 1.000000000000000021e-02 1.000000000000000021e-02 1.000000000000000021e-02 1.000000000000000021e-02 1.000000000000000021e-02 1.000000000000000021e-02 1.000000000000000021e-02 1.000000000000000021e-02 1.000000000000000021e-02 1.000000000000000021e-02 1.000000000000000021e-02 1.000000000000000021e-02 1.000000000000000021e-02 1.000000000000000021e-02 1.000000000000000021e-02 1.000000000000000021e-02 1.000000000000000021e-02 1.000000000000000021e-02 1.000000000000000021e-02 1.000000000000000021e-02 1.000000000000000021e-02 1.000000000000000021e-02 1.000000000000000021e-02 1.000000000000000021e-02 1.000000000000000021e-02 1.000000000000000021e-02 1.000000000000000021e-02 1.000000000000000021e-02 1.000000000000000021e-02 1.000000000000000021e-02 1.000000000000000021e-02 1.000000000000000021e-02 1.000000000000000021e-02 1.000000000000000021e-02 1.000000000000000021e-02 1.000000000000000021e-02 1.000000000000000021e-02 1.000000000000000021e-02 1.000000000000000021e-02 1.000000000000000021e-02 1.000000000000000021e-02 1.000000000000000021e-02 1.000000000000000021e-02 1.000000000000000021e-02 1.000000000000000021e-02 1.000000000000000021e-02 1.000000000000000021e-02 1.000000000000000021e-02 1.000000000000000021e-02 1.000000000000000021e-02 1.000000000000000021e-02 1.000000000000000021e-02 1.000000000000000021e-02 1.000000000000000021e-02 1.000000000000000021e-02 1.000000000000000021e-02 1.000000000000000021e-02 1.000000000000000021e-02 1.000000000000000021e-02 1.000000000000000021e-02 1.000000000000000021e-02 1.000000000000000021e-02 1.000000000000000021e-02 1.000000000000000021e-02 1.000000000000000021e-02 1.000000000000000021e-02 1.000000000000000021e-02 1.000000000000000021e-02 1.000000000000000021e-02 1.000000000000000021e-02 1.000000000000000021e-02 1.000000000000000021e-02 1.000000000000000021e-02 1.000000000000000021e-02 1.000000000000000021e-02 1.000000000000000021e-02 1.000000000000000021e-02 1.000000000000000021e-02 1.000000000000000021e-02 1.000000000000000021e-02 1.000000000000000021e-02 1.000000000000000021e-02 1.000000000000000021e-02 1.000000000000000021e-02 1.000000000000000021e-02 1.000000000000000021e-02 1.000000000000000021e-02 1.000000000000000021e-02 1.000000000000000021e-02 1.000000000000000021e-02 1.000000000000000021e-02 1.000000000000000021e-02 1.000000000000000021e-02 1.000000000000000021e-02 1.000000000000000021e-02 1.000000000000000021e-02 1.000000000000000021e-02 1.000000000000000021e-02 1.000000000000000021e-02 1.000000000000000021e-02 1.000000000000000021e-02 1.000000000000000021e-02 1.000000000000000021e-02 1.000000000000000021e-02 1.000000000000000021e-02 1.000000000000000021e-02 1.000000000000000021e-02 1.000000000000000021e-02 1.000000000000000021e-02 1.000000000000000021e-02 1.000000000000000021e-02 1.000000000000000021e-02 1.000000000000000021e-02 1.000000000000000021e-02 1.000000000000000021e-02 1.000000000000000021e-02 1.000000000000000021e-02 1.000000000000000021e-02 1.000000000000000021e-02 1.000000000000000021e-02 1.000000000000000021e-02 1.000000000000000021e-02 1.000000000000000021e-02 1.000000000000000021e-02 1.000000000000000021e-02 1.000000000000000021e-02 1.000000000000000021e-02 1.000000000000000021e-02 1.000000000000000021e-02 1.000000000000000021e-02 1.000000000000000021e-02 1.000000000000000021e-02 1.000000000000000021e-02 1.000000000000000021e-02 1.000000000000000021e-02 1.000000000000000021e-02 1.000000000000000021e-02 1.000000000000000021e-02 1.000000000000000021e-02 1.000000000000000021e-02 1.000000000000000021e-02 1.000000000000000021e-02 1.000000000000000021e-02 1.000000000000000021e-02 1.000000000000000021e-02 1.000000000000000021e-02 1.000000000000000021e-02 1.000000000000000021e-02 1.000000000000000021e-02 1.000000000000000021e-02 1.000000000000000021e-02 1.000000000000000021e-02 1.000000000000000021e-02 1.000000000000000021e-02 1.000000000000000021e-02 1.000000000000000021e-02 1.000000000000000021e-02 1.000000000000000021e-02 1.000000000000000021e-02 1.000000000000000021e-02 1.000000000000000021e-02 1.000000000000000021e-02 1.000000000000000021e-02 1.000000000000000021e-02 1.000000000000000021e-02 1.000000000000000021e-02 1.000000000000000021e-02 1.000000000000000021e-02 1.000000000000000021e-02 1.000000000000000021e-02 1.000000000000000021e-02 1.000000000000000021e-02 1.000000000000000021e-02 1.000000000000000021e-02 1.000000000000000021e-02 1.000000000000000021e-02 1.000000000000000021e-02 1.000000000000000021e-02 1.000000000000000021e-02 1.000000000000000021e-02 1.000000000000000021e-02 1.000000000000000021e-02 1.000000000000000021e-02 1.000000000000000021e-02 1.000000000000000021e-02 1.000000000000000021e-02 1.000000000000000021e-02 1.000000000000000021e-02 1.000000000000000021e-02 1.000000000000000021e-02 1.000000000000000021e-02 1.000000000000000021e-02 1.000000000000000021e-02 1.000000000000000021e-02 1.000000000000000021e-02 1.000000000000000021e-02 1.000000000000000021e-02 1.000000000000000021e-02 1.000000000000000021e-02 1.000000000000000021e-02 1.000000000000000021e-02 1.000000000000000021e-02 1.000000000000000021e-02 1.000000000000000021e-02 1.000000000000000021e-02 1.000000000000000021e-02 1.000000000000000021e-02 1.000000000000000021e-02 1.000000000000000021e-02 1.000000000000000021e-02 1.000000000000000021e-02 1.000000000000000021e-02 1.000000000000000021e-02 1.000000000000000021e-02 1.000000000000000021e-02 1.000000000000000021e-02 1.000000000000000021e-02 1.000000000000000021e-02 1.000000000000000021e-02 1.000000000000000021e-02 1.000000000000000021e-02 1.000000000000000021e-02 1.000000000000000021e-02 1.000000000000000021e-02 1.000000000000000021e-02 1.000000000000000021e-02 1.000000000000000021e-02 1.000000000000000021e-02 1.000000000000000021e-02 1.000000000000000021e-02 1.000000000000000021e-02 1.000000000000000021e-02 1.000000000000000021e-02 1.000000000000000021e-02 1.000000000000000021e-02 1.000000000000000021e-02 1.000000000000000021e-02 1.000000000000000021e-02 1.000000000000000021e-02 1.000000000000000021e-02 1.000000000000000021e-02 1.000000000000000021e-02 1.000000000000000021e-02 1.000000000000000021e-02 1.000000000000000021e-02 1.000000000000000021e-02 1.000000000000000021e-02 1.000000000000000021e-02 1.000000000000000021e-02 1.000000000000000021e-02 1.000000000000000021e-02 1.000000000000000021e-02 1.000000000000000021e-02 1.000000000000000021e-02 1.000000000000000021e-02 1.000000000000000021e-02 1.000000000000000021e-02 1.000000000000000021e-02 1.000000000000000021e-02 1.000000000000000021e-02 1.000000000000000021e-02 1.000000000000000021e-02 1.000000000000000021e-02 1.000000000000000021e-02 1.000000000000000021e-02 1.000000000000000021e-02 1.000000000000000021e-02 1.000000000000000021e-02 1.000000000000000021e-02 1.000000000000000021e-02 1.000000000000000021e-02 1.000000000000000021e-02 1.000000000000000021e-02 1.000000000000000021e-02 1.000000000000000021e-02 1.000000000000000021e-02 1.000000000000000021e-02 1.000000000000000021e-02 1.000000000000000021e-02 1.000000000000000021e-02 1.000000000000000021e-02 1.000000000000000021e-02 1.000000000000000021e-02 1.000000000000000021e-02 1.000000000000000021e-02 1.000000000000000021e-02 1.000000000000000021e-02 1.000000000000000021e-02 1.000000000000000021e-02 1.000000000000000021e-02 1.000000000000000021e-02 1.000000000000000021e-02 1.000000000000000021e-02 1.000000000000000021e-02 1.000000000000000021e-02 1.000000000000000021e-02 1.000000000000000021e-02 1.000000000000000021e-02 1.000000000000000021e-02 1.000000000000000021e-02 1.000000000000000021e-02 1.000000000000000021e-02 1.000000000000000021e-02 1.000000000000000021e-02 1.000000000000000021e-02 1.000000000000000021e-02 1.000000000000000021e-02 1.000000000000000021e-02 1.000000000000000021e-02 1.000000000000000021e-02 1.000000000000000021e-02 1.000000000000000021e-02 1.000000000000000021e-02 1.000000000000000021e-02 1.000000000000000021e-02 1.000000000000000021e-02 1.000000000000000021e-02 1.000000000000000021e-02 1.000000000000000021e-02 1.000000000000000021e-02 1.000000000000000021e-02 1.000000000000000021e-02 1.000000000000000021e-02 1.000000000000000021e-02 1.000000000000000021e-02 1.000000000000000021e-02 1.000000000000000021e-02 1.000000000000000021e-02 1.000000000000000021e-02 1.000000000000000021e-02 1.000000000000000021e-02 1.000000000000000021e-02 1.000000000000000021e-02 1.000000000000000021e-02 1.000000000000000021e-02 1.000000000000000021e-02 1.000000000000000021e-02 1.000000000000000021e-02 1.000000000000000021e-02 1.000000000000000021e-02 1.000000000000000021e-02 1.000000000000000021e-02 1.000000000000000021e-02 1.000000000000000021e-02 1.000000000000000021e-02 1.000000000000000021e-02 1.000000000000000021e-02 1.000000000000000021e-02 1.000000000000000021e-02 1.000000000000000021e-02 1.000000000000000021e-02 1.000000000000000021e-02 1.000000000000000021e-02 1.000000000000000021e-02 1.000000000000000021e-02 1.000000000000000021e-02 1.000000000000000021e-02 1.000000000000000021e-02 1.000000000000000021e-02 1.000000000000000021e-02 1.000000000000000021e-02 1.000000000000000021e-02 1.000000000000000021e-02 1.000000000000000021e-02 1.000000000000000021e-02 1.000000000000000021e-02 1.000000000000000021e-02 1.000000000000000021e-02 1.000000000000000021e-02 1.000000000000000021e-02 1.000000000000000021e-02 1.000000000000000021e-02 1.000000000000000021e-02 1.000000000000000021e-02 1.000000000000000021e-02 1.000000000000000021e-02 1.000000000000000021e-02 1.000000000000000021e-02 1.000000000000000021e-02 1.000000000000000021e-02 1.000000000000000021e-02 1.000000000000000021e-02 1.000000000000000021e-02 1.000000000000000021e-02 1.000000000000000021e-02 1.000000000000000021e-02 1.000000000000000021e-02 1.000000000000000021e-02 1.000000000000000021e-02 1.000000000000000021e-02 1.000000000000000021e-02 1.000000000000000021e-02 1.000000000000000021e-02 1.000000000000000021e-02 1.000000000000000021e-02 1.000000000000000021e-02 1.000000000000000021e-02 1.000000000000000021e-02 1.000000000000000021e-02 1.000000000000000021e-02 1.000000000000000021e-02 1.000000000000000021e-02 1.000000000000000021e-02 1.000000000000000021e-02 1.000000000000000021e-02 1.000000000000000021e-02 1.000000000000000021e-02 1.000000000000000021e-02 1.000000000000000021e-02 1.000000000000000021e-02 1.000000000000000021e-02 1.000000000000000021e-02 1.000000000000000021e-02 1.000000000000000021e-02 1.000000000000000021e-02 1.000000000000000021e-02 1.000000000000000021e-02 1.000000000000000021e-02 1.000000000000000021e-02 1.000000000000000021e-02 1.000000000000000021e-02 1.000000000000000021e-02 1.000000000000000021e-02 1.000000000000000021e-02 1.000000000000000021e-02 1.000000000000000021e-02 1.000000000000000021e-02 1.000000000000000021e-02 1.000000000000000021e-02 1.000000000000000021e-02 1.000000000000000021e-02 1.000000000000000021e-02 1.000000000000000021e-02 1.000000000000000021e-02 1.000000000000000021e-02 1.000000000000000021e-02 1.000000000000000021e-02 1.000000000000000021e-02 1.000000000000000021e-02 1.000000000000000021e-02 1.000000000000000021e-02 1.000000000000000021e-02 1.000000000000000021e-02 1.000000000000000021e-02 1.000000000000000021e-02 1.000000000000000021e-02 1.000000000000000021e-02 1.000000000000000021e-02 1.000000000000000021e-02 1.000000000000000021e-02 1.000000000000000021e-02 1.000000000000000021e-02
-1.050828506975007883e+02 1.599328202942427026e+02 3.699969927597665276e+01 -8.304325446557127677e+00 -8.279662029655324318e+01 -1.261319246499956392e+01 -1.960000966392017574e+02 6.829983544134176077e-01 -7.979071863074442206e+01 -1.342153910085411006e+01 -1.872061404028594822e+01 6.196896402344568955e+00 -1.681246645427884046e+00 1.581240277960130243e+02 7.976309109801428576e+01 -3.661666011572594215e+01 -4.984193120304455960e+01 7.465714149031200009e+01 3.095041003002813440e+01 -2.393534465585365822e+01 -7.428224158764973595e+01 -6.951958421585941039e+01 -1.298596900153738787e+01 2.726865179812049789e+01 -1.836861471314753373e+02 -9.301365185893999410e+01 -2.459895320353340864e+01 1.899951623328454673e+02 6.669106570207217999e+01 7.237566775035038802e+01 7.569253925599726074e+01 1.108407807458642536e+00 -7.483522280874774424e+01 1.956312081588757792e+02 -2.308744517502676104e+02 5.554548021194400320e+01 -1.131474200743365088e+02 -3.270843467199756560e+01 3.810726790452236834e+00 1.194409717356200673e+02 -1.158111633484675593e+02 -1.281635945050589243e+01 7.286662307145626016e+01 1.636605194498921492e+02 6.720862893112847303e+01 -6.440854026379652453e+01 3.876405755261038166e+01 -2.678353283251776062e+01 -6.226950158006883385e+01 1.475846413476552357e+02 -6.638429287278732716e+01 -4.907911056692166341e+01 -1.314380007201973513e+02 5.541505639521110638e+00 -4.759983894293932849e+01 3.647155374144661266e+01 -8.364635996087189085e+01 -4.716548010198965102e+01 -9.559443694773476352e+01 -1.465574116784985108e+02 1.827211486989692091e+01 4.284184420038228325e+01 -1.160840383068038761e+02 1.210577898151089826e+01 -7.468812765356126704e+01 4.631511163070634041e+01 1.571769245589885884e+02 -1.360309191632784120e+02 -4.079681525785091623e+01 6.829824654992679100e+00 2.780871339380296625e+00 3.997490605480342651e+01 7.917309186746443572e+01 6.907341635240529243e-01 -8.359907995565501793e+00 -6.598299358978042051e+01 7.375219552901215536e+01 -3.080628691996052027e+01 2.481646662344293830e+01 9.808467393702959214e+01 8.312157291685713290e+01 -4.033935619804775286e+01 5.441192260792055180e+01 1.389839367981889779e+02 1.095776308054543904e+02 -3.742221898901024524e+00 1.641949188158351660e+02 -1.051603980556118358e+02 3.901748759747579065e+00 -3.954039437733581508e+01 1.949636456206775961e+02 -2.000965085339728589e+01 2.750856038367274436e+00 -7.239125020770602248e+01 -6.754352525628937620e+00 -6.013770112330018947e+01 6.392364760750690778e+01 -8.916115850482553640e+01 6.476177267957255879e+01 -4.505868409129647745e+01 -4.688396142176017634e+01 -8.643188320471510622e+01 4.999672865840339142e+01 -5.152037124192320761e+01 -1.407787189831164767e+02 -7.488693375026751653e+01 -9.860755290768624093e+01 -1.482256710995643232e+02 1.281302382284733596e+02 -2.583369274309968944e+01 3.022410991110493583e+01 8.453374235950616367e+01 -9.805366739219734029e+01 5.366678128731400221e+01 -4.083137399513458377e+01 -6.549924394322948729e+01 -8.502129311546443091e+01 1.915157164214881220e+02 -5.348449799469165100e+01 -4.671299436804840610e+01 -4.442741313283565319e+01 7.578546168938163419e+01 -3.906524465464774210e+01 1.300370164029338582e+02 -4.712012762375821495e+01 5.201799064095735758e+01 4.284184283905998925e+00 -7.639210043922967941e+01 6.481094717077104406e+01 2.615465893121183285e+02 -8.684204661215332521e+01 4.473589078749764525e+01 -7.195526696437995895e+01 4.266865665501662619e+01 1.237305471246411628e+02 -4.853940546013776469e+01 1.381018226698000717e+01 -2.543299488128788255e+01 -9.617613408023073873e+01 -1.641778126324483722e+01 4.091395284138757305e+00 -7.354943576920332404e+00 -1.407797160067801912e+01 1.114503597348440849e+02 1.230400385017634477e+02 1.759400078380482455e+02 -2.871951114962554357e+02 3.603195633747424154e+01 -1.490522291956180823e+01 -5.881101064606841788e+01 1.701960739223413839e+02 7.180166171804390274e+01 -2.503947081607401426e+00 -1.093927421859822005e+02 -1.024296828450292729e+01 9.447909888543578916e+01 -1.267904329237584307e+02 -1.591338816441306676e+02 1.013757925944195648e+01 4.002511145650879598e+01 -5.763893345179094041e+01 3.969471562100525830e+01 -1.010873359513096972e+02 -1.428369189430831057e+02 1.988836800020779449e+01 4.586689474828211388e+01 4.574165135623435852e+00 -7.875240856849572424e+01 -8.837684477751859902e+01 -7.956254153694679587e+01 -8.270844564029493995e+01 1.199295953936998771e+01 5.366475686517784283e+01 1.101095861244881746e+02 7.503688936439665724e+01 8.462447139484480374e+01 1.016451950336412011e+02 -7.068761125267100454e+01 -7.799771484729190263e+01 6.669184406399052989e+01 6.491041923732822738e+01 5.602664719862708154e+01 -8.866540933729798013e+00 -8.617691430916005402e+01 5.111542586111551856e+01 -1.696234287441553477e+02 6.363414933173675792e+01 -4.212625012569383642e+01 -9.131669302467675209e+01 7.031103173656899230e+01 -1.629104033461012335e+01 -7.304261137905609758e+01 -5.441884502934454559e+01 -8.717906765966640492e+00 2.301981451878419023e+02 7.304962161440425916e+01 5.204416746182406683e+01 -9.853114492193503793e+01 1.407562398222304978e+02 1.038197726101137919e+00 -8.578338617526834753e+01 1.480288948939621321e+02 -1.464113690912415962e+02 1.499477537795317694e+01 -3.087300380391985044e+01 -2.111821921298730729e+02 -1.280551163395828098e+02 -8.377550041440403561e+01 -2.830569880394839899e+01 -1.144853184757353404e+02 5.535123647735895958e+01 6.245522557889899673e+01 -2.654383532099336307e+01 -9.590292163414322602e+01 1.086432509148478545e+02 1.134838885582448569e+02 4.439041600976337776e+01 1.685392714259840119e+01 2.512605150501798903e+02 4.193679165175487356e+01 -1.149402153846648105e+02 -4.336507711516621555e+01 -1.622738020216502264e+02 3.064643029671999130e+01 1.473516404716582997e+02 -1.425165880585689422e+02 1.266826604812920323e+02 -8.748439213509533374e+01 -1.823852641259602336e+01 -8.201372149335013351e-01 5.088486043183073804e+01 -1.111097203364821873e+01 -2.198620233555771719e+01 -1.803566333737300553e+01 -1.220459182169155241e+02 4.462377731329964803e+01 -2.917518465359485447e+01 -1.239198249671697383e+01 -1.032661115995180268e+01 2.175076609466219963e+02 1.677819109244963443e+02 2.239327955308268088e+02 1.268761594830784674e+02 -8.334430865252950582e+01 7.232058207625161117e+01 2.038454982584346453e+01 4.569935282735895044e+01 -3.814322871970983897e+01 2.458883700525157110e+02 -2.246923425080903769e+01 -1.316627052494132215e+02 -1.437355263757543966e+01 -4.415565075473951140e+01 -7.448930392429079461e+01 4.155003377737254056e+01 -1.127704316775853499e+01 1.751776197546763001e+02 8.886461065656919800e+01 3.935536567327475410e+01 9.432612968728859926e+01 9.122087211783009764e+01 -2.213503066717363410e+01 1.344795522289445557e+02 2.558819602069955579e+01 8.634139756716646730e+01 4.596337571697899449e+01 6.661267441633316189e+00 -1.114878592977248957e+02 -1.116503499367603069e+02 -8.676455891385205632e+01 -1.498592524181859176e+01 8.353797960065276129e+01 -2.947858245295612534e+01 9.526470071887818847e+01 4.223805784939031582e+01 -7.006542326655875286e+01 -2.883071391107316472e+01 -5.643536503839087715e+01 1.693264564130535632e+01 -4.457176957120206851e+01 -1.079495376881685047e+02 1.170478014087490237e+02 1.169259265522841531e+02 -7.611701901531118608e+01 5.160547971972905046e+00 -4.368910332284884390e+01 -3.133422232775112803e+01 -1.092647807787082037e+01 -3.012080204113764736e+01 4.290860607662796866e+01 -1.354806322212609473e+02 -5.094528346007064101e+01 -1.462562649820602587e+02 1.677043748444708342e+02 -1.939799993898147790e+01 5.669465988451442939e+01 1.144678193205822048e+01 1.390045373426330571e+02 4.290691418908248522e+01 3.433386894858215044e+01 1.486122203351986286e+02 -4.740618964487413223e+01 -9.398465219838779205e+01 2.623080388955570541e+01 -1.520312718538027070e+02 -5.139102633574835011e+01 9.847203142434307210e+01 -1.225915721683362136e+02 -3.496267060032165830e+01 8.778173534415459756e+01 -9.077758304214761154e+01 -8.598154504638675633e+01 -7.943283121142026459e+01 -6.128198213498284019e+01 2.395083312427972828e+02 1.905323135941442843e+02 9.894897496837580775e+01 -9.821748695699133691e+01 7.189909725213212255e+01 -6.368078236490162425e+01 -3.031244587454931505e+01 1.597804894771116047e+01 -3.106189202347371037e+01 -9.001787933087717875e+01 -2.755383115254602888e+00 1.413364345291064694e+01 1.045076324686604607e+02 -1.233793570127377990e+02 4.035454364166964325e+01 6.122413873012762053e+01 3.308976572124333160e+01 -8.696560028600016778e+01 -1.425503445833672629e+02 1.852555799388877062e+02 -1.706569228110583225e+01 2.415480503755026831e+01 1.502129204265012845e+02 2.555831783056879658e+01 2.657313857554409608e+01 -4.271816892694569390e+01 8.494800274169426757e+01 -1.306428882485021745e+02 -2.949981289398736806e+01 -5.883776078378085472e+00 -5.113103752355844733e+01 6.118494974865303249e+00 2.031848282992753241e+01 -3.427725489340480891e+01 1.308771598260919156e+01 2.046709340875620171e+02 -2.625045926644398975e+01 -2.684485294288034041e+01 -9.732942342913281664e+01 -1.552394069073656402e+00 -7.727496798302067305e+01 6.079319299569284851e+00 1.073024216620871698e+02 -4.978016459645856884e+01 5.775519317838742950e+00 -5.195532595225925832e+01 3.156401473095586496e+00 8.342145389543060219e+01 -1.108447366599636013e+02 -9.268421168484488248e+01 -9.817554488151424152e+01 6.823049805169782189e+01 8.280884273486577740e+01 -8.818521269477645319e+01 5.996306670036465647e+01 2.473749223088958971e+01 3.701093129887789956e+01 -1.696187575584734120e+01 8.741140974335645808e+01 7.620785802869298209e+01 -7.387114831723336295e+01 1.123921238793600885e+01 7.733306482244840652e+01 6.965195693510685260e+01 -1.906442671847533887e+01 2.385707819078945491e+01 -1.268231971163625786e+02 4.644363053389536589e+01 -3.136244732694127890e+01 -3.128822370359952032e+01 1.656270701748998704e+02 4.533085970015834221e+01 1.149362584573750041e+02 1.826592559462299903e+02 -1.316488970982465503e+02 1.426128411163259386e+02 -6.072959974514726866e+01 -1.292582727821297794e+02 7.871400397428286055e+01 -1.281705438971914646e+02 -2.746941217979591698e+01 5.391683486516814838e+01 7.665700166783297576e+00 -1.608850659968196908e+02 8.062433063503203812e+01 2.415437834697096520e+01 6.606025206782220494e+01 3.474621680741648078e+01 9.044792203889912230e+00 -6.417857087297150542e+01 1.106230125074849013e+02 5.211836809952412608e+01 -5.939362793576485444e+01 -9.682135204171106579e+01 3.717759119160569270e+01 2.464988193100420233e+01 7.881940315176861134e+01 1.758142977062622947e+02 -2.352222632370231636e+01 -1.053567315575088230e+02 -8.092938389781132003e+01 -4.906765612165678192e+01 -4.234410249656851732e+01 -1.402839725350941080e+02 -2.156072939955062040e+01 1.238847739086125728e+02 7.125034761343464140e+01 -1.170044563858156863e+02 -1.434302512926274744e+02 -6.507646351645492189e+01 -7.292323410616441492e+01 1.404415670139225369e+02 -1.630089568109929132e+02 8.280659773468615015e+01 -4.403951443643915553e+00 -4.116588019329925885e+01 1.268973059868836195e+01 8.711643020755066402e+01 4.734366488629191139e+01 1.321398574566729849e+02 -1.521665727694548593e+02 -7.741482713940797566e+01 2.429229478208623050e+01 4.007969165759237029e+01 1.970329200852226279e+02 1.390915928922901230e+02 6.269359556168043923e+01 6.893512824741593192e+01 -3.245418909090793846e+01 1.450978171278889306e+02 -1.715313481577211121e+02 -6.066354758210130882e+01 -5.131533907578273812e+01 -4.951328572866027145e+01 -9.868790926712736677e+01 -1.434806544649792848e+01 -6.559996329052485464e+01 6.801047940827652383e+01 -8.724359920519079381e+00 -5.546239587442581609e+01 -5.942313894621533166e+01 1.722432671110748288e+02 5.647885062926021504e+01 -1.315898156622461990e+01 1.996923324064922554e+02 -1.036020630269924681e+02 -3.375894529576417114e+01 6.401755638671718884e+01 -1.374174082305814060e-01 1.434555119082108554e+01 -1.196518078884453899e+02 1.684178079170658862e+02 -4.674925727483340410e+01 -2.567299283801640897e+01 -1.048229350895132512e+02 1.202533649229731338e+02 9.153736526371267246e+01 -7.403458063256069011e+01 -3.599326139767434540e+01 3.724189510472320563e+01 -1.445827342005229355e+02 -2.203561742217746144e-01 -7.134863294967954062e+01 7.322179115426921570e+00 -1.032033865129460963e+02 -1.513804887093609466e+02 -6.750235442274333764e+01 1.414961292973361253e+02 5.395285611247646074e+01 -8.559210972889727032e+01 8.508428343544387928e+01 3.262699865641388186e+01 8.436109174756404627e+01 -4.019987427701043714e+01 -8.020609120499122469e+01 1.632160377655357024e+02 3.969860082699370452e+01 2.760661306101595613e+01 -6.960506322824515735e+01 -4.036378024046252477e+01 9.044974397095936425e+00 -6.852936276276608396e+00 -1.648436117631410980e+02 -3.302801684057566689e+01 6.140155638737284960e+01 1.063583195700520179e+02 1.484960261380137183e+02 -1.267968247533269199e+01 8.542953943058016364e+01 1.503635499175912287e+02 6.041362520675123449e+01 1.406516114846279777e+02 1.530920566054325427e+01 1.250927080772953275e+02 -7.995385745628246354e+01 5.076749484306745330e+01 2.787347292716850333e+01 7.219397311544739182e+01 -1.010893063955137166e+02 1.884986939333507792e+02 -1.223725246588504376e+02 8.403333806738896783e+01 -1.020672385288659854e+02 4.391856486352183708e+01 1.313435819296965335e+01 8.618123406434496303e+01 -6.996431164043261219e+01 -7.173936643479018471e+01 -1.055642700247421040e+01 8.461534958525321315e+01 -2.810520815009862972e+01 -1.546285524803368538e+01 -1.863357172499519976e+01 4.492633325697942936e+00 9.308955794236227632e+01 -5.929646989911887545e+01 -2.556540315047040490e+00 -1.836644176463197766e+02 1.155705259810610670e+02 -1.181794083999397174e+02 -6.988660574849006935e+01 -2.224236932543912104e+01 -1.021575001564982159e+02 -5.027564591551494999e+01 -5.544796988337527921e+01 -1.864989927515823354e+01 1.288558406567889847e+02 5.114374826008177877e+01 9.497621119340578844e+01 -1.287465912476098708e+02 -1.310722572405321671e+02 -2.712749999215638468e+02 9.669710152178306828e+01 9.855991534855876068e+01 4.006602112249508707e+01 -4.021364012108216457e+01 -3.512561887857402354e+01 -1.737747790638928791e+02 1.381568104016506311e+02 -1.015924059044639733e+02 1.011829093788912672e+02 -1.505597049247421921e+02 -1.355502613687847457e+01 -5.238590816781773185e+01 -1.128298982070998164e+02 -4.362245532748323029e+01 -1.190272430576866469e+01 -8.769226319233793276e+01 -9.785669109908886298e+01 -1.169976388803915590e+01 6.733329961119891038e+01 -1.178767144769418138e+02 -1.479107705692013042e+01 -6.976980061433533820e+01 -1.243268573272958122e+02 6.191184889230862076e+00 8.992675128247442728e+01 1.566674703010019982e+02 -1.802241660351060659e+01 -4.357109267179100698e+01 -1.175516157042867178e+02 -1.549318665913640416e+02 9.829374430958223741e+01 -6.885588328585564000e+01 7.476415817771859906e+01 8.894152150305874471e+00 2.763659318116557984e+01 6.991968869209432569e+01 -8.030262443937654382e+01 7.832977812283229468e+01 1.092056655939316698e+02 1.492569822609702328e+02 -1.103414288987293190e+02 9.850289125036076143e+01 -4.529218359599497035e+01 -8.603723812705761986e+01 2.033668690857997490e+02 4.659840749278744454e+01 7.909431650565963423e+01 2.005101331459442449e+01 -6.002019608921599314e+01 -3.310065585060849713e+01 -1.993705822607924745e+02 1.001108474082887909e+02 7.719646202460656070e+01 -7.172591523896889498e+01 -6.925177422665667848e+01 1.375697845368354422e+02 9.576571980254878724e+01 4.844564110769664467e+01 7.206249365054559064e+01 -7.404935066671283650e+00 9.777372014475680828e+01 -9.818528960952053808e+01 1.765397632253193478e+02 -3.741322353535802847e+01 -1.156238679531540754e+02 -3.576092744723199246e+01 6.797546251163316811e+01 1.395948019447707225e+02 1.213004784624347288e+01 1.647070505965769200e+02 4.943332336222297840e+01 3.188655935678720610e+01 -1.054564486530665022e+02 4.240934067629196846e+01 -1.183974973580660190e+02 4.523168727201387185e+01 3.651233298765019697e+01 -1.169329124058423304e+02 -8.058128785476580447e+01 3.778605915270579629e+01 8.266724662110249255e+00 -2.197217067652920264e+01 3.970983982221849118e+01 -2.028306097329629765e+01 -5.977693815632366636e+01 -2.491721190137957009e+01 -2.121766110107354208e+01 -3.772280316149888790e+01 1.776856451775864798e+01 -7.633158031644259722e+01 1.126912256967804637e+02 -7.034114039329965351e+01 -3.933196872271840228e+00 6.224306298436807339e+01 3.655016704800380545e+00 1.514142784428770838e+01 1.514167814875098195e+01 -1.109459702449937453e+02 -4.167500943006912983e+00 6.162146802371241705e+01 -2.192555366447411984e+02 -8.045246769230615769e+01 -1.067442790413221019e+02 4.150272947769757081e+01 9.114439158480907111e+01 -8.695097410904844537e+01 -1.590432574129734462e+02 -1.754721830602482839e+02 1.889134651540250331e+01 -1.372562535458991988e+02 -5.999668606172792629e+00 1.397610311881809082e+02 -6.670522494666395907e+00 3.512058674012872217e+01 -9.348493003422771608e+01 7.549256413214965278e+01 -1.119969048161705416e+02 -1.459678365097229502e+01 -2.857117110249039271e+01 5.438768880368462533e+01 -8.313712730253209671e+00 9.970196861519183074e+01 -1.151912584255958905e+02 -4.723910093199887683e+01 8.178682820590674396e+01 6.236088771537769304e+01 -7.755407798882902171e+01 -5.128919117154287477e+01 -4.654334577986076482e+01 -2.725947930697827815e+02 1.822420449550940020e+02 7.158141166346015893e+01 -2.216017323627137614e+01 -2.792605731712340500e+01 3.906980059272642336e+01 -7.905961071642639126e+01 9.353618781978799746e+01 5.688708188366572926e+01 7.693300107572741808e+01 -7.901903708312698882e+01 -2.485026025616824086e+01 3.127062946995871684e+01 1.632448632707703950e+01 -4.026831886781088343e+01 1.483926825820061595e+02 -1.621776497994548549e+01 3.327165150964307827e+01 -2.158607602873978806e+02 -7.945454287469981125e+01 -6.864049600204344870e+01 2.162229889988396181e+01 1.024694792292650760e+02 -2.175833656573396979e+02 -1.755587595022929861e+02 2.079768672885069520e+02 -9.911502563019732648e+00 9.011124890211469562e+01 5.873538203999110152e+01 -5.191283253536987274e+01 -1.229290287300775475e+02 -8.929808930945459622e+01 -4.714301557742441418e+01 -3.508733813425824621e+01 -3.675299218038231430e+01 1.511297233136255080e+01 3.496069187460363992e+01 1.566217517814285429e+02 1.156966075220861825e+02 6.600555623781723114e+00 -4.153416620575655749e+00 -1.489322706362854092e+02 1.122849310495024753e+02 1.494683886386247309e+02 -9.712164378114589169e+01 6.917359212384070588e+01 1.545879084793976066e+00 5.158617046167350395e+01 1.176166938200263843e+02 6.657486692412710738e+01 -1.258206896945173412e+02 1.510494150106502609e+01 -2.758275663057228044e+01 1.046419303398444711e+01 -2.163846122457581345e+01 4.253973014450761525e+01 -2.447550318551588191e+02 1.700634782799454001e+02 6.787182167857493731e+00 1.496827709012947878e+02 -9.854338157970222056e+00 9.968728941930146448e+01 6.728489703886695850e+01 -3.940655134368906687e+01 2.817421734028222957e+01 -6.847568010882427814e+01 -8.368343876428276928e+01 -6.770795646378546451e+01 -3.014771457410928335e+01 4.246055015035648950e+01 1.035820711659470703e+02 2.675204343982845145e+01 5.852716269199666499e+01 -9.863519266691695009e+01 -1.290303002484510273e+02 -1.268710502645163629e+01 4.362825650625955376e+01 -4.271722360030577903e+01 8.907319557784597919e+01 5.230833642249250204e+01 -2.600988973934551751e+01 2.818265621280446709e+01 5.782049262583952753e+01 -6.786414872173314450e+01 -1.259102488386473340e+02 1.337537610412828712e+02 7.355100641055635435e+00 4.722210340920284466e+01 -1.406887196045610153e+02 -5.033104098931490000e+01 -3.918845809284910442e-01 -6.208412741511210697e+01 4.008342989522844846e+00 5.309662118327037206e+01 1.758422980565320870e+02 3.691473849208578173e+01 -1.033266511560572098e+01 6.820563103233040181e+01 -4.289052575020527058e+01 -1.028407249556536271e+02 -1.304074264902318987e+02 8.829942491429347839e+00 2.370723274747743403e+01 2.253178985822853875e+01 -5.372373463521012837e+01 1.141032144969617264e+02 -7.634313893041768040e+01 1.212361699987198165e+02 8.247719557266943013e+01 -6.146359185856976382e+01 -8.016593226150042995e+01 7.962574359902637866e+01 1.926878620556361810e+01 -4.969126238126922601e+01 -5.090766069576983455e+01 1.294048992503889224e+02 5.426488659094907518e+01 7.565078889819783114e+01 2.474452073518022388e+01 -3.977201780886766613e+01 1.016430282870942676e+02 -5.166727115730591180e+01 5.596740920740608249e-01 7.245435785542835561e+01 9.433790217414627932e+01 2.420947136810362110e+02 -1.660233129516602446e+02 1.524622013263709732e+02 -6.397816253292688771e+01 -1.444380991637904721e+01 -2.386005725709069836e+01 -1.965188225979453662e+01 -5.222120453067495305e+01 8.823920280546312256e+01 1.745447262477648849e+02 -1.126712137172129076e+02 2.935515809776980234e+01 -1.204602352913241958e+02 6.665105634075118246e+01 -4.221170503916366101e+01 -7.701091849346886420e+01 -5.125275464241761370e+01 3.918031293306654561e+01 1.839918629538985684e+01 -7.773795981989111681e+01 -1.341617449653699907e+02 1.975031143598384276e+01 1.500133393078658628e+02 1.360299292586888242e+01 1.737680774250086415e+02 7.095473940183605777e+00 1.282723985888104608e+02 -3.295226340217961791e+01 8.653306278075118030e+01 -6.810255156138094890e+01 -1.076643875823143048e+02 4.715345078589647443e+01 -5.532210952797018422e+01 -7.495705772686160628e+01 6.951002039327212856e+01 6.199618813779760096e+00 -9.000010358227811480e+01 -1.438539529886085404e+02 1.413521961546090608e+02 -8.522112781864574060e+01 -2.284623184571315413e+00 1.148414720886883771e+02 5.545982841689986031e+01 -9.396328277156855791e+01 1.021377571355776404e+01 2.699135991321988399e+02 5.099738855476802968e+01 -1.509797184945488482e+02 -4.571415776486647076e+01 -5.887201793248776482e+01 9.200536552578224558e+00 1.030640661592605625e+02 -9.920301723129824722e+01 2.071316253611740876e+01 1.250640457310689868e+02 1.799530431176950174e+01 -2.026023678303788245e+02 4.627906402391386820e+01 7.240526157277123787e+01 -1.305151974121517178e+01 3.143923037852348301e+01 1.881536408089987955e-01 2.167735806575920066e+01 2.660786780694316533e+01 1.111575423207470834e+02 9.410054805823547497e+01 1.504534577891909741e+01 1.429852243406066918e+02 -6.143168593177786363e+01 2.366947816324460518e+02 6.242839763811958420e+01 1.360477463926808639e+02 -2.107324649241518699e+01 8.646948697678578810e+01 -4.690951425494566251e+01 -1.405082760586942641e+02 2.509444505933415925e+01 9.112795803337475320e+01 -8.403226466335237888e+01 -1.005548881743321061e+02 -6.388096450250353797e+01 3.517124996689563687e+01 -1.095976974196339597e+02 7.169646367600293502e+01 2.689943820256945983e+01 -9.371430892844867344e+01 1.823137610141666300e+02 -1.128972101451442889e+01 -9.773167578230679453e+01 -1.290000459247105269e+01 -1.962182548335399090e+01 -1.346185748422228130e+02 -3.841224995425941557e+01 5.906893562209769044e+01 1.265612153440617931e+02 2.790373693878272832e+01 2.566181597098323053e+01 4.300236853971952655e+01 -3.426792566589666222e+01 -1.398399256297448403e+02 1.528652962319359254e+01 2.969718140658180161e+01 1.278433753470908698e+02 -9.465369920949752824e+00 -7.308690488376804240e+01 7.028376046236000718e+01 9.233715399851786243e-01 3.047979255270418975e+01 1.336485106686644428e+02 -1.703860231305968966e+02 -8.917938018520419519e+01 1.197872216837124597e+02 -2.013041223591392281e+02 -1.716046526552046601e+02 8.496526994872580474e+01 1.436954371181512329e+02 5.920366706761882369e+01 -4.194534476505935139e+00 1.452798214498625669e+02 -2.048796818090156364e+02 9.998838204087704185e+01 3.954033268105138887e+01 1.185715032978437762e+02 -1.759761804840927653e+02 9.932419149477425435e+01 -2.630769445036542820e+01 -1.247426041291594458e+02 -4.963517588383951740e+00 -8.619850655125424055e+01 -1.508376393648117464e+01 -4.093566288717029877e+00 -1.149563408245442844e+02 -1.150707688120520515e+02 -5.837360987276254320e+01 -1.202693032964782702e+02 1.875237373807069616e+02 -1.503952197731740341e+02 -4.683361492882755783e+01 1.610050467501587264e+02 3.166652198605745383e+01 -2.762055683882954895e+02 -1.186609823840143179e+02 3.311278993077786481e+01 5.101809544771612792e+01 7.933525203059829778e+00 -1.442283065613591191e+02 3.329736606093373297e+01 7.027022548941816105e+00 -6.936012821183339838e+01 1.891953961635471444e+02 1.890037153683427960e+02 4.068051410408817681e+00 -1.946171772849106674e+02 1.175438184062805078e+02 2.867902537007986652e+01 3.592054391538311187e+00 7.143391377119014862e+01 -1.936261045472845694e+02 -1.287732535072226199e+02 1.315650482531618479e+02 1.023277347246604023e+02 4.934507342851879486e+01 1.335693686126775219e+02 -1.663398057785958599e+02 -1.911601561631899315e+01 -1.216568473398730106e+02 4.079013966039396166e+01 -9.693247389916646739e+01 8.126386887105300616e+01 -3.167927582244431406e+01 1.155889081810390806e+01 1.655814458001459002e+02 2.667209996989474874e+01 -2.459424888537058678e+02 -1.179582579669622220e+02 -7.775889902900502193e+01 1.475358584456272695e+02 1.170472869049613429e+01 -5.032875932479239367e+01 2.825675852339376348e+01 5.828450557553751565e+01 -3.687990765968952189e+01 1.003175740645757514e+02 -9.401440396629149632e+01 4.592180418131378161e+01 1.044494740720507906e+02 -3.319087769472792360e+01 -9.156373873162394261e+01 -1.059006506923035857e+02 1.117535721800652340e+02 -4.637625708301474958e+01 1.834037947903439090e+02 5.337967514095009136e+01 1.035152767453067071e+02 1.722248346768490705e+02 7.979907934118360302e+00 -1.160192558888271748e+02 -1.546145018767462602e+02 -1.065120805740966432e+02 3.968866894991638361e+01
-1.236780910243607501e+01 -4.436248320670433287e+00 9.435386305615554647e+01 -2.087684328166325542e+02 1.416559678286793371e+02 5.784229879263365603e+01 1.386749056070784434e+02 -1.177336233600832571e+02 -2.509152531057481816e+00 -2.191723282854188426e+01 -2.000546120247753947e+02 2.978857288763870415e+01 -1.668916883845481536e+01 1.114839082126938763e+02 -1.140547927427850396e+02 5.624838990686687623e+01 1.141513624432410552e+02 -4.189158098397371077e+01 -4.514187641194055800e+01 -2.454467176164659747e+01 5.627804121013183902e+01 5.743981050639822428e+01 2.957452906920373792e+01 -2.118616980369033342e+02 -4.694404253872146882e+01 8.347058566572448512e+01 9.041460314472509197e+00 -9.477865997852735092e+00 -6.060706313217177410e+01 -1.415352353146397490e+01 6.682790841076217703e+01 -1.324901318610599503e+02 -5.648796145883509467e+01 8.156621875850923686e+00 1.891977251678744665e+02 1.932430224981879974e+02 -2.933652309503330002e+01 5.091933663362186735e+01 -2.257294286531711935e-01 -1.272224961714008487e+02 8.742994386053779010e+01 9.767362876567300134e+01 9.885969619884814108e+01 1.062528489316435376e+01 5.636588139772629091e+01 4.383409541546462407e+01 3.541375236630165801e+01 2.677822284250114393e+01 1.004652038738175008e+02 8.171536710307546514e+01 5.972470141781406738e+01 1.485157845320734111e+02 2.258680783060115971e+02 1.782082979643293470e+02 -5.388851952393914502e+01 4.488788668649140590e+01 -5.852736866516389114e+01 5.134997761280128969e+01 -1.751450870471882695e+02 5.147236902585409268e+01 -1.865132642376384524e+02 -1.537229442974715425e+02 1.180843510373705563e+01 -8.460377370716489764e+00 1.544288577604608008e+02 -1.895251770142920691e+02 6.857198458788342066e+01 2.094536899185360141e+02 -6.776781735199242540e+00 -1.775597553473671724e+02 3.233557507551785903e+01 1.796402313352078295e+02 -5.569247347181413943e+01 -2.429630311159540668e+02 -9.346578487072054031e+01 8.166267830025764951e+00 -2.096848234537421263e+02 2.929215272850763441e+01 -1.635585198091972075e+02 -1.691104803616111099e+02 -5.217110576568646962e+01 1.389235744339030134e+02 6.327868732710010136e+01 9.690715990716181949e+00 -8.089057283953911792e+01 -3.884104072747640402e+01 5.810724047030512907e+01 -2.117739132164502109e+02 4.934003057670661718e+01 -6.830877957646173115e+01 -7.131446174767631874e+01 -1.612934320758589877e+02 5.929244678167374616e+01 8.453798202864773259e+01 -1.480810957795838476e+02 1.576923970221893399e+02 -3.637056074497915148e+01 -1.544425666105465922e+01 8.004196467453813568e+01 1.427135676698612770e+02 1.988786335183340626e+01 1.382588348552252739e+02 -1.692238698508415595e+01 -8.279833046777959282e+01 -1.788897058319484401e+01 9.224806655409241785e+01 4.222395471770253295e+01 9.185218853732979483e+01 8.860174413871605736e+01 -7.804938184925988764e+01 -1.595403090340106189e+02 1.155311707834123780e+02 5.092138476101827393e+01 1.529370573703955571e+01 2.870115362197809361e+01 -6.378385149081742611e+01 9.016956295259922172e+01 8.441285396400128604e+01 -1.292935883781223083e+01 -6.693651322656681657e+01 2.879097008067708074e+01 5.911696886111941218e+00 -5.771702738675122646e+01 1.593251382499288979e+02 -3.071833863675200860e+01 1.142337049653225876e+02 -6.583637669231906386e+01 3.606963053944299702e+01 -3.385918102476284730e+01 8.410499929176980061e+01 2.204557884156378833e+01 1.086279285562688557e+02 -1.090750143864070196e+02 6.988092065955157750e+01 1.160327432571003214e+02 -4.199101742164716455e+01 7.233421212430783065e+00 -1.208352797908956155e+01 1.098607625679020856e+02 3.501506440817360399e+00 1.585070829542257229e+02 -1.329850152830616992e+02 1.096740930791312820e+02 -8.580032559054221508e+01 9.015032692353342725e+01 -1.289343422582348069e+02 2.775193433740505000e+01 2.330198541232259402e+01 1.650101049317365565e+00 3.417168576788687773e+01 4.335074671376568745e+01 -1.161888665309944280e+01 1.031511702208732295e+01 1.017454046305109472e+02 1.197533700977237459e+02 -8.165489362495824821e+01 -5.096394955949908478e+01 4.452826436752616956e+01 1.410799987122712595e+00 -1.290148676320654602e+02 -5.196250784424346136e+01 -3.331424805267621991e+01 4.603041984758512939e+01 -6.168730608507593161e+01 2.156786885868520542e+01 1.511135530216076006e+02 -7.485037936177219819e+01 7.621955028325956505e+01 7.921230966412200303e+01 1.066556124112216963e+01 1.164025596613226696e+02 5.929866571912251061e+01 1.584925955582070571e+02 -3.270002555632831331e+01 1.060685985994283556e+02 5.244765205558443455e+01 -1.514833525646479195e+01 1.927187310265266547e+02 -1.310262848474272346e+02 4.619051716767931737e+01 -1.772116449188592924e+02 -7.951983373993250837e+01 3.880659981110976986e+01 -6.826943159496002522e+01 -1.472706079869899156e+02 1.884941729591579929e+02 -8.112024204612454525e+01 -4.492532188740660359e+01 -4.376834449458888088e+01 1.151754945534373320e+02 1.842513193447918525e+02 6.125258103237153762e+01 1.383708451050757446e+02 2.076861324930462160e+02 -1.491537757941071130e+00 1.540988853811914794e+02 6.707289901883282823e+01 1.801751248859139025e+02 -1.190794980373682819e+02 -1.117371743391084316e+01 6.031516346621948799e+00 1.797298337505068275e+02 -8.594538966205939801e+01 -5.731957932802898625e+01 -5.008004617292108662e+01 -1.268880474986377322e+02 4.428356416360381687e+00 -9.550367226380993202e+01 1.459589788142601776e+02 2.226322886581142413e+01 1.133068506072045523e+01 6.842444775641178012e+01 -4.629211460886795138e+00 1.107703081903948430e+02 -1.503896070681798278e+02 4.301123603329671852e+01 -1.615912777554936781e+02 1.111305945801540247e+02 9.100799804342513255e+01 -6.365304871656850594e+01 4.432187355054176692e+01 2.253860215605446342e+02 -2.885786370204352025e+01 3.941068346676671297e+01 -3.093576692625455493e+01 5.484604309871721028e+01 6.079691960596021971e+01 -5.959393008291243632e+00 9.640186265628980777e+01 9.596173264382017010e+01 -1.834502983264108593e+02 -1.449977518610920129e+02 -1.134279264898519557e+02 -8.899957468011898243e+00 -1.416836636016247439e+02 1.093382344962135306e+02 1.043676908712996294e+02 5.585483891716051374e+01 1.056733181049623482e+01 1.491661853582635615e+02 7.943143821853368536e+01 6.388560857872966636e+01 -9.608018664815421062e+01 1.442632619207161042e+02 -3.431933065120750470e+00 1.034786652397396693e+02 8.350404090127852896e+00 3.475360363365228977e+01 -7.156459616890447251e+01 -8.580290814967564472e+01 6.770848897887373141e+01 -3.679642237257924275e+00 1.381979709887810941e+02 -1.185817193488787602e+01 -2.678314484791870953e+00 4.335483350767903232e+01 2.137524385826910844e+01 1.336790363642874695e+02 1.393215319590085777e+01 3.389961894822838673e+01 -1.461580944389839658e+02 6.216757267964626976e+01 1.262504994974368486e+02 -1.655820065697124832e+01 -2.153267292207296748e+02 7.968747701439815501e+01 1.284970453733733109e+02 1.926113803314956741e+01 1.782308654638000007e+02 -4.097995807665211210e+00 4.036706490076147702e+01 -4.110820091419398636e+01 -1.304381912272342845e+02 5.274356818047645135e+01 -4.467528571507066459e+01 -7.611896065093772279e+01 3.876937999047505201e+01 -1.736506583032984281e+02 6.728007473023727414e+01 1.545559750339582479e+02 -9.507736772173271333e+01 1.625292922035625054e+02 -9.160652784604313581e+01 -5.582388167451204808e+00 -9.919758879232302817e+00 7.197138857552987190e+01 -4.378558627434578909e+01 -1.010921027585291370e+02 -8.314387021612847661e+01 1.367478004982285711e+02 5.543497660736707644e+01 -1.236518775065883915e+02 4.124946324862827751e+00 4.066323684705528052e+01 7.734600002408507180e+01 -3.777871798026588124e+01 5.612853747546118655e+01 -6.460356208361368147e+01 -1.519774917724618319e+02 -3.241641313351412634e+01 1.319678983451716476e+02 -1.062090923495203327e+02 -5.954280956123930935e+00 -1.523947193827825686e+02 -4.582690063185768103e+00 -1.365339820162386957e+02 3.086251125504430703e+01 5.640670603130555349e+01 -4.707946544521299614e+01 -7.703225230840463666e+01 5.285526240356028360e+00 6.959610249837179197e+01 -6.337662589824740422e+01 1.259049469098342513e+02 9.873675334204571641e+01 -1.193159269977410446e+02 -9.858310139017575580e+01 1.262314265537426792e+02 6.660093412475497132e+01 1.403403716970221069e+02 9.328673501984600591e+01 7.574687815071155228e+01 -5.629506263332616101e+01 -7.628863384890721022e+01 -7.189990115804236837e+01 1.908287082447334342e+02 2.860343631826078337e+01 -2.326019414807107211e+01 -6.384648600328520729e+01 -4.650117011193923844e+01 -1.223832453148437196e+02 -1.532289186400230285e+01 -1.630543167436202907e+02 1.161593714748056669e+02 4.268842133069154698e+01 -1.070199716880090648e+02 -4.498634383237849477e+01 1.112274683975736167e+02 -8.999044227683680219e+01 9.554480379676223833e+01 -1.100819558437199817e+02 -1.095113708382188733e+01 -8.871916531585675614e+01 8.339129784005592683e+01 -3.944413255226764647e+01 9.486209633540417130e+00 2.728341804090924683e+01 -1.176034430283882273e+02 1.160377571327722812e+01 4.495397560219618782e+01 -2.071049261101869376e+01 -6.383383143164372342e+01 1.881845093398187885e+02 8.029346169371106612e+01 4.370870236757928495e+01 -2.915552778395278111e+01 7.444064590942623738e+01 1.556231902371535796e+02 -8.558677492740257264e+01 1.945041540880894786e+02 -1.235809037831820945e+02 -1.707096206814003096e+02 1.408550466184097161e+02 -2.172207954761774715e+02 -8.443011243772644558e-01 -2.273851120927978400e+02 -1.418905255054191628e+02 6.664288215371415447e+01 -1.351274049765656002e+02 5.416976356729233544e+01 1.021258880567984590e+02 -1.487922708132303455e+02 -2.789868205354770581e+01 7.002381525197384349e+01 1.242925712576318347e+02 -1.728099441757865407e+02 8.125415681551768898e+01 -9.095831930420557399e+01 -9.122270879323465920e+00 -1.283112380570563715e+01 -7.384142761449051306e+01 -8.378937235489624413e+01 1.683712758072275335e+02 -2.018503886518049129e+01 1.269982193339092014e+00 1.209401891089781031e+02 -8.058784901486670549e+01 -3.197793744372944147e+01 -1.000630977714677385e+02 -4.534242626238701490e+01 4.756101109062101706e+00 5.513324255320653577e+01 -1.255914413447510469e+02 2.206457177232430240e+02 -5.012655224145613175e+01 1.141016296706226569e+02 -4.545704849711095363e+01 1.115132626164277099e+02 1.296920523428751721e+02 4.461957962674814127e+01 1.137107433125392930e+02 -4.028507008570732495e+01 1.304583619679189894e+02 -1.459248889549872388e+02 -6.097584578818798917e+01 -5.871229659902267173e+01 2.388662897126874540e+01 -1.513280710041839257e+02 6.763561154648932927e+01 -2.876881834603865684e+01 -7.707295982155913805e+01 8.352458415864201413e+01 -1.409423486036590418e+02 -8.511080447915658453e+01 -4.915415768989975476e+01 3.083870688725981424e+01 1.210606288999752564e+02 1.089364528612500038e+02 6.441191736908024268e+01 -1.414882589249888634e+00 1.631970368009458525e+02 1.142902900398663348e+02 -8.817650353335245939e+01 -7.281835794325019151e+01 5.123208073647365524e+01 9.241961337066964433e+00 9.139071507485206780e+01 1.556005874290783879e+02 6.586628525249011545e+01 2.285099612919273682e+01 -9.537653361616470704e+01 1.601836484393272997e+02 -1.059978675372272079e+02 -1.541249049400839795e+02 6.130802604507923093e+01 1.039978107670301029e+02 1.834495008490172907e+01 -1.294656166865364924e+02 2.767557694969211113e+01 3.951304336731204359e+01 -3.787246869801677018e-01 1.220634313005055134e+02 9.126797533585776989e+01 1.595493575745544845e+01 7.300602260918063280e+01 -9.958483010532829383e+01 -5.980943974616651282e+00 9.164786950169010993e+01 2.767419196589407804e+01 -6.057232983723699959e+01 1.845325770520061042e+02 2.152887002311369713e+02 -1.168057138801744941e+02 -2.575840344573714091e+01 -1.956609427424679097e+02 -6.720797310916707090e+01 1.457124438725051334e+02 3.095687959833671510e+00 -6.608785142775913357e+01 1.524018234600733024e+02 -5.812981833036243273e+01 -1.494987759116251880e+02 1.271003945453352344e+02 -6.248756731538145459e+01 3.217380330853792714e+01 8.030035676422475888e+01 1.284662895797866078e+01 -2.216864936636453933e+02 3.940841999704943532e+01 -5.782367083395986818e+00 8.387068048714111512e+01 -2.192819061954438098e+01 9.399135375790991986e+01 1.584092493002871649e+01 -7.870730408905482989e+01 -1.906618793740625151e+01 -1.630288522669054885e+02 1.069329518017010088e+02 2.353080338626170587e+01 -3.869305524331304724e+01 -4.816394106387679841e+01 -5.856681627424180192e+01 3.828087043355456132e+01 1.494755645027032642e+02 1.234082609091459517e+02 4.000667437249885694e+01 -1.840380037730691640e+02 -3.608519761429108286e+01 4.077148721934457853e+01 1.090915888450983573e+02 8.104741605948093763e+01 1.433792856049072917e+01 -1.729764648826531754e+02 1.224059037957584763e+02 -2.080644424276960933e+02 -1.913999086532846547e+02 -1.679668642675570256e+00 -6.859314944950163806e+01 -2.247615975302774061e+01 8.100312718982618776e+01 5.199741732740886135e+01 -1.033726037351221976e+02 -1.408840143789559534e+02 1.354470915060859859e+01 1.150189492928384709e+02 1.918442836401796825e+01 -5.273488909020577609e+01 -4.807704285574538261e+01 -1.082060449611858566e+01 1.500698152976949302e+02 2.078440421986491771e+01 -1.645307432754545971e+02 1.215814240210931843e+02 -6.332106834969808773e+01 -3.948939861945815366e+00 1.458040976765193477e+02 -4.946859199170576460e+01 -1.856542868977558669e+01 -1.040116098204043169e+02 -5.671372971529790696e+00 -2.256532132994473372e+01 1.246329937292484971e+02 1.136460406709302617e+02 6.398609572109867116e+01 6.200519539745080522e+01 -1.770490741385712496e+01 1.279189198190860566e+02 -1.067950582557972865e+02 -4.017875228022563583e+00 -8.620428374204489330e+01 1.486670332620054751e+02 6.903351624399489594e+01 4.888507210290116944e+01 7.783850554884410577e+00 -5.049373935630082144e+01 3.254575361452433668e+01 6.338761954879005955e+00 3.518215046291512937e+00 2.279500856787621643e+01 5.658445344060125137e+01 1.611811528076876527e+02 -3.682543033460414250e+01 -4.918136064110863259e+01 6.323693465193125007e+01 1.094791683231105992e+02 -1.213886040876567129e+01 8.707873973270885415e+01 9.860704610879682264e+01 1.995820625092012222e+02 -8.190734620359886264e+01 -1.160926734984151807e+02 -2.712538216841236149e+01 5.887164759536851477e+01 -9.608039344031329421e+00 1.016592460742422617e+02 3.527241067222679760e+01 -1.539041828094752304e+02 4.263042263296262746e+01 -8.465573719798466357e+01 -1.280169804373734905e+02 1.272752446786701768e+02 -7.198710070517142867e+01 5.603044135749112797e+01 1.051208169779464896e+02 -9.359843498633883030e+01 2.226117467807646477e+01 -6.822150629411444811e+01 3.812929634822451419e+01 -1.084755466694506083e+02 5.828341603562671480e+01 5.172821389487524613e+01 3.610823803320084124e+00 7.940284048699049890e+01 -1.444702113720932175e+02 7.217308159095424003e+01 -2.776900314578475104e+01 -1.585453267522882186e+02 8.873040710875993398e+01 2.306916048098868544e+01 -1.839957146367428891e+02 2.208432866408126642e+02 -5.129285696035983388e-01 9.867438429093077445e+01 -1.131609320629889766e+02 -1.822308027366428291e+02 -8.757462999035431039e+01 2.371500799544927318e+00 1.340386371147269813e+02 3.679302888977993291e+00 -8.970123103450242752e+01 4.720050467368449887e+01 1.285979395705910520e+02 6.094037720246102907e+01 -4.851055001098802677e+01 -5.551171130244995311e+01 7.929345305141552558e+01 2.879305902142494844e+01 -1.835776704757505513e+02 -1.945003543122447809e+01 1.585969380725155702e+02 9.267033260216149415e+01 -5.382612687244257899e+01 -1.049151302799550649e+02 -4.003169766425298093e+01 -4.512045824859119136e+01 -1.073926838112763562e+02 -1.725775296992048879e+01 -4.283994905644256335e+01 -1.066240551973956201e+02 -1.238410431439916692e+02 -2.532685054578105621e+01 -1.179547563960728525e+02 -1.256474686167651669e+02 -3.597081477617408041e+01 -5.189442555400487578e+01 -1.042229871213380221e+02 1.809445906651466203e+02 1.021841132376017924e+01 -2.733293055329329846e+01 -1.651170619516159377e+01 7.646916539646761635e+01 1.522177389562206606e+01 2.434545365109928383e+01 -2.060231659735593723e+01 -4.504241182156545165e+01 2.031498470765942699e+01 -1.413321650522982793e+02 -1.547121127612203679e+02 -8.779877376100633057e+01 -1.854999401090822460e+02 -8.708240110686337232e+01 8.332015693795966627e+01 5.967708634073293439e+01 -2.530653991702340022e+01 5.906053916640875912e+01 -1.522237310478219001e+02 -3.979292336771653282e+01 -1.129085588382248773e+02 -6.486970451313344199e+01 2.051336903529672497e+02 -1.995321301896877344e+02 1.995040044336413416e+02 2.423349668236349075e+01 -5.483616721895142376e+01 8.957560109758848910e+01 1.205960817823413009e+02 -5.042700227653183731e+01 -1.980910642853277466e+02 -1.449113073158722216e+02 9.943190287882538314e+01 8.140597609926392408e+01 -1.317458359627395907e+02 3.101593153284499138e+01 -3.859969250589639955e+01 -7.523451426019735777e+01 -2.763408638109515891e+01 -5.326261262122208962e+01 -8.397800081057748400e+01 -3.313149031289086821e+01 4.438472852403887892e+00 -3.170310274603586365e+01 -3.358221932786050190e-01 -1.387851839700876866e+01 8.932550904044582296e+01 1.235854224090079043e+02 1.278138638042286068e+01 1.634483368845732087e+01 -6.140875630209472291e+01 -1.906147409652509737e+02 3.289459568761503760e+01 -8.912818951252008048e+01 2.513035957085122263e+01 -7.847005917737249980e+00 1.065077810293779903e+00 7.043190080729657154e+01 1.184928416597465031e+02 -6.853727681532427596e+01 3.693595239087130722e+01 -1.875631995495837430e+02 9.431750964537210180e+00 6.684514170416466783e+00 -1.191493988051641821e+02 -3.275215834921213087e+01 -4.308991352894079796e+01 4.622446999857920957e+00 -9.937297997084560564e+01 2.628854872313768709e+01 -9.490164400020644564e+01 5.443399523388455208e+01 6.599695215627323819e+01 3.588250687303161612e+01 -2.820029412616083064e+01 1.044953772442484876e+02 5.941210444334713969e+01 7.777452811314761050e+01 -6.514638696248869110e+01 1.964833499027782793e+01 1.242722189270070601e+02 -5.686828314617031310e+01 -6.728356780427063200e+00 3.107732950423412532e+01 -1.248211286277967673e+02 9.502382084289426700e+01 8.703777040427971201e+01 -9.834138344938142495e+01 -8.000067240202396590e+01 -5.397009150985915937e+01 -4.439050168836475763e+01 -1.556019842797864499e+02 -1.319867306956363677e+02 -1.287009315910253804e+02 1.026261026469893238e+02 5.811160986969417053e+01 1.549449712447704997e+02 7.007711339276569085e+00 -8.315769878747202881e+01 1.823351809043040461e+01 1.341948833649011874e+01 -6.174678633475394918e+01 7.187999839225375354e+01 1.145821033646305409e+02 9.639873871828950058e+00 1.390729273026425972e+02 2.180555914549679386e+01 1.076341433108282644e+02 1.459897299612823218e+01 -2.015807081273540291e+02 2.118378627869994091e+02 -4.746571572021358776e+01 -1.445373440201833830e+02 -6.516013777255399475e+01 -4.151083396983082707e+01 4.001569702326622746e+01 2.472115159115208627e+01 4.419146871459454928e+01 -7.145001206363689050e+01 1.180528378556858797e+02 -8.319076503384142995e+01 -6.763579005560809598e+00 1.372231995356584093e+02 1.055493948141393190e+02 5.592117936749544072e+01 -1.704511701104832184e+02 2.447853001200516587e+01 1.350607225302687766e+02 2.252454607927509045e+01 9.382886319998689828e+01 1.022674999145733210e+02 -2.032244185221843509e+02 7.387454857573901279e+01 -5.544547297212969283e+01 -2.158998105654104336e+02 8.489273309468713080e+01 2.353306325806935817e+01 -1.164241728350912410e+02 -5.578783879719116356e+01 1.320106987230061009e+02 1.402396366429002512e+02 -7.203384218345361489e+01 -1.211756105712769909e+02 -7.900193680514261985e+01 -1.568905063090117551e+02 1.851013261636875740e+01 3.586610442791409525e+01 -1.607753614992189384e+01 -1.168278220097299069e+01 -8.436426815479340746e+01 -8.306967916534649987e+01 -2.320215202213276839e+01 1.255464827454961352e+02 1.274909871589917145e+02 7.587130741188045135e+01 9.079252162440842255e+01 -7.328355944995504956e+01 -1.685528053968730831e+02 -1.227451632541000492e+01 -2.149843394082962078e+01 -6.616567292461002125e+01 1.372288695998399088e+00 6.798520180325203910e+01 -4.923986009641585326e+01 2.303830721101748580e+01 7.371466864312773737e+01 6.526012489744171319e+01 1.029158441171352365e+02 -1.388181100352875887e+02 3.688394052447389271e+01 7.754355721716220273e+01 8.819434736580946321e+01 5.494062426651841946e+01 -9.608062700631532493e+01 1.274282829158219101e+02 1.186712002152841876e+02 8.922295419461262611e+01 9.450877992812802120e+01 -7.836523605826265282e+01 -1.382028209797067575e+01 -1.206844521594009478e+01 7.168557395982792002e+01 6.047787716986620410e+01 5.217149111036841447e+01 9.078726197280484200e+01 1.084600141432032672e+02 1.154197889200871856e+02 -6.029982846370321425e+01 7.504078225978139471e+01 6.069946476899078647e+01 -1.095189012591503968e+02 1.224997697537143040e+02 -9.319891772013354725e+00 -2.600846354646296277e+01 1.856139790913439072e+02 8.245442702799724088e+01 1.156444693463027704e+02 -1.345132924625158353e+02 -1.470657929005529070e+02 -1.431887379895090646e+02 -1.138525783309058284e+02 -4.128878476635832584e+01 1.023242867136893608e+02 -1.573480453814047451e+02 3.030641018202692294e+01 1.346888087413686605e+02 -5.540979380008221256e+01 -8.525896642396077141e+01 -3.282140013692663416e+01 1.268473092922210839e+02 2.122783318973678490e+02 -6.235313635531645815e+01 1.853079379750561628e+01 -2.585151321083274212e+01 6.402944112162894896e+01 5.629321659196407523e+01 -1.993784105513711609e+02 -8.292693827209208735e+01 1.287016388750731437e+02 1.307585670052062028e+02 8.843683956827717907e+01 -4.665703938294844022e+01 -7.090226599922074513e+01 -4.244196716279693504e+01 -1.653023664785005167e+02 6.656321527494490908e+01 -2.399308170911482208e+01 1.557497761692073368e+02 -2.617584255603393473e+01 -2.946426620491921540e+02 1.356505958809160859e+02 4.698176086942610397e+01 -1.104482618752937100e+02 -2.080236941324869093e+01 3.305495444290581020e+01 -1.945677009789743011e+02 -1.070241725533847017e+02 -1.027591651093456875e+02 -5.280275630515333773e+01 5.880645372764142564e+01 -1.544920136874053469e+02 1.010707064336577190e+02 -5.090983795281849211e+01 2.755970635054789675e+00 -1.250382696224154415e+02 -9.721452745618800861e+01 1.648093617567692775e+02 8.123988091534472744e+01 -3.958657832181672376e+01 3.480030188144862535e+01 -2.628271890976345304e+01 4.065256393685177727e+01 -9.809980791934985689e+01 9.281557973142501794e+01 4.733307664534073922e+01 -1.114883636372949809e+02 1.094829372905119840e+02 -4.603444153641665082e+01 9.368736391491185600e+01 -4.631999434902245838e+01 8.286958053633577492e+01 -1.438711621631968001e+02 1.339084339841175506e+02 2.322053100543816484e+01 9.446008554572540561e+01 1.223840705440409522e+02 -1.376225666804582204e+02 -8.061821228006932927e+01 -9.913908153199538731e+01 6.274371222844010987e+01 -1.608284519938544577e+02 1.422913059159930924e+02 1.335880812674748768e+02 4.971660704279437226e+01 -7.969871318236862123e+01 5.358260721587259212e+01 -1.008023506273784591e+02 -1.023689879525963597e+01 3.281686539182202011e+01 -1.725208773965259184e+02 -7.656693599641393178e+01 -1.270824408747547629e+01 9.594042897166660566e+01 -4.717157701576106632e+01 1.021741256402420674e+02 -6.039946762423501525e+01 -1.979769958561979593e+02 -1.005976026792539955e+02 -3.193416953367482591e+01 -5.652646950120124814e+01 2.825412733201144988e+01 4.835624163997970015e+01 5.941313262427943442e+00 2.392326847680340407e+01 -1.103593784182164370e+02 5.069387366981248988e+01 3.069227915700235698e+01 -6.781668143841804408e+01 8.748097347037489868e+00 5.307677966422111382e+01 -8.972296895532124950e+01 -5.184760102189234487e+01 -2.276638279923094998e+01 9.177897009780579651e+01 -1.612211776910663019e+01 3.950346968723790209e+00 -2.147425352639783682e+02 -8.941259258858362102e+01 9.314000795290583312e+01 -8.387812166307050177e+01 2.949194594949111092e+01 2.922838059386016241e+01 3.565197449581767586e+01 6.220493539582588483e+01 -1.670682512165852245e+02 1.355786541484992824e+02 7.684030299142035858e+01 -7.118479806760920958e+00 -7.608381832993022442e+01 1.052975733681099513e+02 5.848083542941110835e+01 -1.894367011145513686e+02 -4.742824390688845426e+01 -7.697598343636435914e+01 -4.875930558300772333e+01 -5.827664174569842714e+01 -9.320824337827895079e+01 -5.683711807140264938e+01 1.804293538266571773e+02 -1.607896871301636565e+02 6.164874622899972678e+01 2.613891566788613829e+01 -7.083873275835600225e+01 9.806978470419311478e+00 -3.716729669614684184e+01 3.248856042177305170e+00 -9.059625992343094936e+01 -1.861508576141828541e+02 1.733221767390503842e+01 3.945393355498217147e+01 -1.205125826087684082e+01 -8.397318228320532540e+00 -3.747556975148471992e+01 -1.788962922656189960e+02 -2.884606427468528622e+01 -6.156899244082865152e+01 1.310613928253535576e+01 -1.472039805771515297e+01 8.539860648239181273e+01 -5.940408122162758531e+01 -9.769019655708791561e+01 -3.359923887171515133e+01 -8.432492580832287032e+00 4.276762179483009874e+01 -2.082362061890179206e+01 -6.963126594110094914e+01 -1.497476188022563370e+01 1.887004573823366727e+01 4.476730788337834355e+01 -1.074045080018155858e+02 -1.310184984096368908e+02 2.171284384222289816e+02 -2.057728259497777685e+02 -7.154594398242608122e+01 -4.364172167924269985e+01 1.318157532571897264e+02 5.964238541046746889e+01 2.158680722375716812e+02 2.307599643026946126e+02 -5.881495075908212300e+01 1.220109191607523513e+02 -5.288947348044243313e+01 -3.849723396867059222e+01 -9.483522045257889488e+01 -7.526800372121873295e+01 -6.553971633932444263e+01 -8.395867459858800430e+01 -2.298594679785193762e+02 -2.553329065046091841e+02 1.269639618965361763e+02 -2.503697707209422774e+01 5.023224894766054405e+01 1.234767052863859647e+02
