# 
#                 ----------------------------------------------------
#                 Data from a 3D direct N-body simulation. 
# 
#                 rows are i-particle; 
#                 coumns are :mass, tag, x ,y, z, vx, vy, vz, ax, ay, az
# 
#                 NTHU, Computational Physics Lab
# 
#                 ----------------------------------------------------
#                 Time = 6.29999999999991
1.000000000000000000e+00 2.000000000000000000e+00 3.000000000000000000e+00 4.000000000000000000e+00 5.000000000000000000e+00 6.000000000000000000e+00 7.000000000000000000e+00 8.000000000000000000e+00 9.000000000000000000e+00 1.000000000000000000e+01 1.100000000000000000e+01 1.200000000000000000e+01 1.300000000000000000e+01 1.400000000000000000e+01 1.500000000000000000e+01 1.600000000000000000e+01 1.700000000000000000e+01 1.800000000000000000e+01 1.900000000000000000e+01 2.000000000000000000e+01 2.100000000000000000e+01 2.200000000000000000e+01 2.300000000000000000e+01 2.400000000000000000e+01 2.500000000000000000e+01 2.600000000000000000e+01 2.700000000000000000e+01 2.800000000000000000e+01 2.900000000000000000e+01 3.000000000000000000e+01 3.100000000000000000e+01 3.200000000000000000e+01 3.300000000000000000e+01 3.400000000000000000e+01 3.500000000000000000e+01 3.600000000000000000e+01 3.700000000000000000e+01 3.800000000000000000e+01 3.900000000000000000e+01 4.000000000000000000e+01 4.100000000000000000e+01 4.200000000000000000e+01 4.300000000000000000e+01 4.400000000000000000e+01 4.500000000000000000e+01 4.600000000000000000e+01 4.700000000000000000e+01 4.800000000000000000e+01 4.900000000000000000e+01 5.000000000000000000e+01 5.100000000000000000e+01 5.200000000000000000e+01 5.300000000000000000e+01 5.400000000000000000e+01 5.500000000000000000e+01 5.600000000000000000e+01 5.700000000000000000e+01 5.800000000000000000e+01 5.900000000000000000e+01 6.000000000000000000e+01 6.100000000000000000e+01 6.200000000000000000e+01 6.300000000000000000e+01 6.400000000000000000e+01 6.500000000000000000e+01 6.600000000000000000e+01 6.700000000000000000e+01 6.800000000000000000e+01 6.900000000000000000e+01 7.000000000000000000e+01 7.100000000000000000e+01 7.200000000000000000e+01 7.300000000000000000e+01 7.400000000000000000e+01 7.500000000000000000e+01 7.600000000000000000e+01 7.700000000000000000e+01 7.800000000000000000e+01 7.900000000000000000e+01 8.000000000000000000e+01 8.100000000000000000e+01 8.200000000000000000e+01 8.300000000000000000e+01 8.400000000000000000e+01 8.500000000000000000e+01 8.600000000000000000e+01 8.700000000000000000e+01 8.800000000000000000e+01 8.900000000000000000e+01 9.000000000000000000e+01 9.100000000000000000e+01 9.200000000000000000e+01 9.300000000000000000e+01 9.400000000000000000e+01 9.500000000000000000e+01 9.600000000000000000e+01 9.700000000000000000e+01 9.800000000000000000e+01 9.900000000000000000e+01 1.000000000000000000e+02 1.010000000000000000e+02 1.020000000000000000e+02 1.030000000000000000e+02 1.040000000000000000e+02 1.050000000000000000e+02 1.060000000000000000e+02 1.070000000000000000e+02 1.080000000000000000e+02 1.090000000000000000e+02 1.100000000000000000e+02 1.110000000000000000e+02 1.120000000000000000e+02 1.130000000000000000e+02 1.140000000000000000e+02 1.150000000000000000e+02 1.160000000000000000e+02 1.170000000000000000e+02 1.180000000000000000e+02 1.190000000000000000e+02 1.200000000000000000e+02 1.210000000000000000e+02 1.220000000000000000e+02 1.230000000000000000e+02 1.240000000000000000e+02 1.250000000000000000e+02 1.260000000000000000e+02 1.270000000000000000e+02 1.280000000000000000e+02 1.290000000000000000e+02 1.300000000000000000e+02 1.310000000000000000e+02 1.320000000000000000e+02 1.330000000000000000e+02 1.340000000000000000e+02 1.350000000000000000e+02 1.360000000000000000e+02 1.370000000000000000e+02 1.380000000000000000e+02 1.390000000000000000e+02 1.400000000000000000e+02 1.410000000000000000e+02 1.420000000000000000e+02 1.430000000000000000e+02 1.440000000000000000e+02 1.450000000000000000e+02 1.460000000000000000e+02 1.470000000000000000e+02 1.480000000000000000e+02 1.490000000000000000e+02 1.500000000000000000e+02 1.510000000000000000e+02 1.520000000000000000e+02 1.530000000000000000e+02 1.540000000000000000e+02 1.550000000000000000e+02 1.560000000000000000e+02 1.570000000000000000e+02 1.580000000000000000e+02 1.590000000000000000e+02 1.600000000000000000e+02 1.610000000000000000e+02 1.620000000000000000e+02 1.630000000000000000e+02 1.640000000000000000e+02 1.650000000000000000e+02 1.660000000000000000e+02 1.670000000000000000e+02 1.680000000000000000e+02 1.690000000000000000e+02 1.700000000000000000e+02 1.710000000000000000e+02 1.720000000000000000e+02 1.730000000000000000e+02 1.740000000000000000e+02 1.750000000000000000e+02 1.760000000000000000e+02 1.770000000000000000e+02 1.780000000000000000e+02 1.790000000000000000e+02 1.800000000000000000e+02 1.810000000000000000e+02 1.820000000000000000e+02 1.830000000000000000e+02 1.840000000000000000e+02 1.850000000000000000e+02 1.860000000000000000e+02 1.870000000000000000e+02 1.880000000000000000e+02 1.890000000000000000e+02 1.900000000000000000e+02 1.910000000000000000e+02 1.920000000000000000e+02 1.930000000000000000e+02 1.940000000000000000e+02 1.950000000000000000e+02 1.960000000000000000e+02 1.970000000000000000e+02 1.980000000000000000e+02 1.990000000000000000e+02 2.000000000000000000e+02 2.010000000000000000e+02 2.020000000000000000e+02 2.030000000000000000e+02 2.040000000000000000e+02 2.050000000000000000e+02 2.060000000000000000e+02 2.070000000000000000e+02 2.080000000000000000e+02 2.090000000000000000e+02 2.100000000000000000e+02 2.110000000000000000e+02 2.120000000000000000e+02 2.130000000000000000e+02 2.140000000000000000e+02 2.150000000000000000e+02 2.160000000000000000e+02 2.170000000000000000e+02 2.180000000000000000e+02 2.190000000000000000e+02 2.200000000000000000e+02 2.210000000000000000e+02 2.220000000000000000e+02 2.230000000000000000e+02 2.240000000000000000e+02 2.250000000000000000e+02 2.260000000000000000e+02 2.270000000000000000e+02 2.280000000000000000e+02 2.290000000000000000e+02 2.300000000000000000e+02 2.310000000000000000e+02 2.320000000000000000e+02 2.330000000000000000e+02 2.340000000000000000e+02 2.350000000000000000e+02 2.360000000000000000e+02 2.370000000000000000e+02 2.380000000000000000e+02 2.390000000000000000e+02 2.400000000000000000e+02 2.410000000000000000e+02 2.420000000000000000e+02 2.430000000000000000e+02 2.440000000000000000e+02 2.450000000000000000e+02 2.460000000000000000e+02 2.470000000000000000e+02 2.480000000000000000e+02 2.490000000000000000e+02 2.500000000000000000e+02 2.510000000000000000e+02 2.520000000000000000e+02 2.530000000000000000e+02 2.540000000000000000e+02 2.550000000000000000e+02 2.560000000000000000e+02 2.570000000000000000e+02 2.580000000000000000e+02 2.590000000000000000e+02 2.600000000000000000e+02 2.610000000000000000e+02 2.620000000000000000e+02 2.630000000000000000e+02 2.640000000000000000e+02 2.650000000000000000e+02 2.660000000000000000e+02 2.670000000000000000e+02 2.680000000000000000e+02 2.690000000000000000e+02 2.700000000000000000e+02 2.710000000000000000e+02 2.720000000000000000e+02 2.730000000000000000e+02 2.740000000000000000e+02 2.750000000000000000e+02 2.760000000000000000e+02 2.770000000000000000e+02 2.780000000000000000e+02 2.790000000000000000e+02 2.800000000000000000e+02 2.810000000000000000e+02 2.820000000000000000e+02 2.830000000000000000e+02 2.840000000000000000e+02 2.850000000000000000e+02 2.860000000000000000e+02 2.870000000000000000e+02 2.880000000000000000e+02 2.890000000000000000e+02 2.900000000000000000e+02 2.910000000000000000e+02 2.920000000000000000e+02 2.930000000000000000e+02 2.940000000000000000e+02 2.950000000000000000e+02 2.960000000000000000e+02 2.970000000000000000e+02 2.980000000000000000e+02 2.990000000000000000e+02 3.000000000000000000e+02 3.010000000000000000e+02 3.020000000000000000e+02 3.030000000000000000e+02 3.040000000000000000e+02 3.050000000000000000e+02 3.060000000000000000e+02 3.070000000000000000e+02 3.080000000000000000e+02 3.090000000000000000e+02 3.100000000000000000e+02 3.110000000000000000e+02 3.120000000000000000e+02 3.130000000000000000e+02 3.140000000000000000e+02 3.150000000000000000e+02 3.160000000000000000e+02 3.170000000000000000e+02 3.180000000000000000e+02 3.190000000000000000e+02 3.200000000000000000e+02 3.210000000000000000e+02 3.220000000000000000e+02 3.230000000000000000e+02 3.240000000000000000e+02 3.250000000000000000e+02 3.260000000000000000e+02 3.270000000000000000e+02 3.280000000000000000e+02 3.290000000000000000e+02 3.300000000000000000e+02 3.310000000000000000e+02 3.320000000000000000e+02 3.330000000000000000e+02 3.340000000000000000e+02 3.350000000000000000e+02 3.360000000000000000e+02 3.370000000000000000e+02 3.380000000000000000e+02 3.390000000000000000e+02 3.400000000000000000e+02 3.410000000000000000e+02 3.420000000000000000e+02 3.430000000000000000e+02 3.440000000000000000e+02 3.450000000000000000e+02 3.460000000000000000e+02 3.470000000000000000e+02 3.480000000000000000e+02 3.490000000000000000e+02 3.500000000000000000e+02 3.510000000000000000e+02 3.520000000000000000e+02 3.530000000000000000e+02 3.540000000000000000e+02 3.550000000000000000e+02 3.560000000000000000e+02 3.570000000000000000e+02 3.580000000000000000e+02 3.590000000000000000e+02 3.600000000000000000e+02 3.610000000000000000e+02 3.620000000000000000e+02 3.630000000000000000e+02 3.640000000000000000e+02 3.650000000000000000e+02 3.660000000000000000e+02 3.670000000000000000e+02 3.680000000000000000e+02 3.690000000000000000e+02 3.700000000000000000e+02 3.710000000000000000e+02 3.720000000000000000e+02 3.730000000000000000e+02 3.740000000000000000e+02 3.750000000000000000e+02 3.760000000000000000e+02 3.770000000000000000e+02 3.780000000000000000e+02 3.790000000000000000e+02 3.800000000000000000e+02 3.810000000000000000e+02 3.820000000000000000e+02 3.830000000000000000e+02 3.840000000000000000e+02 3.850000000000000000e+02 3.860000000000000000e+02 3.870000000000000000e+02 3.880000000000000000e+02 3.890000000000000000e+02 3.900000000000000000e+02 3.910000000000000000e+02 3.920000000000000000e+02 3.930000000000000000e+02 3.940000000000000000e+02 3.950000000000000000e+02 3.960000000000000000e+02 3.970000000000000000e+02 3.980000000000000000e+02 3.990000000000000000e+02 4.000000000000000000e+02 4.010000000000000000e+02 4.020000000000000000e+02 4.030000000000000000e+02 4.040000000000000000e+02 4.050000000000000000e+02 4.060000000000000000e+02 4.070000000000000000e+02 4.080000000000000000e+02 4.090000000000000000e+02 4.100000000000000000e+02 4.110000000000000000e+02 4.120000000000000000e+02 4.130000000000000000e+02 4.140000000000000000e+02 4.150000000000000000e+02 4.160000000000000000e+02 4.170000000000000000e+02 4.180000000000000000e+02 4.190000000000000000e+02 4.200000000000000000e+02 4.210000000000000000e+02 4.220000000000000000e+02 4.230000000000000000e+02 4.240000000000000000e+02 4.250000000000000000e+02 4.260000000000000000e+02 4.270000000000000000e+02 4.280000000000000000e+02 4.290000000000000000e+02 4.300000000000000000e+02 4.310000000000000000e+02 4.320000000000000000e+02 4.330000000000000000e+02 4.340000000000000000e+02 4.350000000000000000e+02 4.360000000000000000e+02 4.370000000000000000e+02 4.380000000000000000e+02 4.390000000000000000e+02 4.400000000000000000e+02 4.410000000000000000e+02 4.420000000000000000e+02 4.430000000000000000e+02 4.440000000000000000e+02 4.450000000000000000e+02 4.460000000000000000e+02 4.470000000000000000e+02 4.480000000000000000e+02 4.490000000000000000e+02 4.500000000000000000e+02 4.510000000000000000e+02 4.520000000000000000e+02 4.530000000000000000e+02 4.540000000000000000e+02 4.550000000000000000e+02 4.560000000000000000e+02 4.570000000000000000e+02 4.580000000000000000e+02 4.590000000000000000e+02 4.600000000000000000e+02 4.610000000000000000e+02 4.620000000000000000e+02 4.630000000000000000e+02 4.640000000000000000e+02 4.650000000000000000e+02 4.660000000000000000e+02 4.670000000000000000e+02 4.680000000000000000e+02 4.690000000000000000e+02 4.700000000000000000e+02 4.710000000000000000e+02 4.720000000000000000e+02 4.730000000000000000e+02 4.740000000000000000e+02 4.750000000000000000e+02 4.760000000000000000e+02 4.770000000000000000e+02 4.780000000000000000e+02 4.790000000000000000e+02 4.800000000000000000e+02 4.810000000000000000e+02 4.820000000000000000e+02 4.830000000000000000e+02 4.840000000000000000e+02 4.850000000000000000e+02 4.860000000000000000e+02 4.870000000000000000e+02 4.880000000000000000e+02 4.890000000000000000e+02 4.900000000000000000e+02 4.910000000000000000e+02 4.920000000000000000e+02 4.930000000000000000e+02 4.940000000000000000e+02 4.950000000000000000e+02 4.960000000000000000e+02 4.970000000000000000e+02 4.980000000000000000e+02 4.990000000000000000e+02 5.000000000000000000e+02 5.010000000000000000e+02 5.020000000000000000e+02 5.030000000000000000e+02 5.040000000000000000e+02 5.050000000000000000e+02 5.060000000000000000e+02 5.070000000000000000e+02 5.080000000000000000e+02 5.090000000000000000e+02 5.100000000000000000e+02 5.110000000000000000e+02 5.120000000000000000e+02 5.130000000000000000e+02 5.140000000000000000e+02 5.150000000000000000e+02 5.160000000000000000e+02 5.170000000000000000e+02 5.180000000000000000e+02 5.190000000000000000e+02 5.200000000000000000e+02 5.210000000000000000e+02 5.220000000000000000e+02 5.230000000000000000e+02 5.240000000000000000e+02 5.250000000000000000e+02 5.260000000000000000e+02 5.270000000000000000e+02 5.280000000000000000e+02 5.290000000000000000e+02 5.300000000000000000e+02 5.310000000000000000e+02 5.320000000000000000e+02 5.330000000000000000e+02 5.340000000000000000e+02 5.350000000000000000e+02 5.360000000000000000e+02 5.370000000000000000e+02 5.380000000000000000e+02 5.390000000000000000e+02 5.400000000000000000e+02 5.410000000000000000e+02 5.420000000000000000e+02 5.430000000000000000e+02 5.440000000000000000e+02 5.450000000000000000e+02 5.460000000000000000e+02 5.470000000000000000e+02 5.480000000000000000e+02 5.490000000000000000e+02 5.500000000000000000e+02 5.510000000000000000e+02 5.520000000000000000e+02 5.530000000000000000e+02 5.540000000000000000e+02 5.550000000000000000e+02 5.560000000000000000e+02 5.570000000000000000e+02 5.580000000000000000e+02 5.590000000000000000e+02 5.600000000000000000e+02 5.610000000000000000e+02 5.620000000000000000e+02 5.630000000000000000e+02 5.640000000000000000e+02 5.650000000000000000e+02 5.660000000000000000e+02 5.670000000000000000e+02 5.680000000000000000e+02 5.690000000000000000e+02 5.700000000000000000e+02 5.710000000000000000e+02 5.720000000000000000e+02 5.730000000000000000e+02 5.740000000000000000e+02 5.750000000000000000e+02 5.760000000000000000e+02 5.770000000000000000e+02 5.780000000000000000e+02 5.790000000000000000e+02 5.800000000000000000e+02 5.810000000000000000e+02 5.820000000000000000e+02 5.830000000000000000e+02 5.840000000000000000e+02 5.850000000000000000e+02 5.860000000000000000e+02 5.870000000000000000e+02 5.880000000000000000e+02 5.890000000000000000e+02 5.900000000000000000e+02 5.910000000000000000e+02 5.920000000000000000e+02 5.930000000000000000e+02 5.940000000000000000e+02 5.950000000000000000e+02 5.960000000000000000e+02 5.970000000000000000e+02 5.980000000000000000e+02 5.990000000000000000e+02 6.000000000000000000e+02 6.010000000000000000e+02 6.020000000000000000e+02 6.030000000000000000e+02 6.040000000000000000e+02 6.050000000000000000e+02 6.060000000000000000e+02 6.070000000000000000e+02 6.080000000000000000e+02 6.090000000000000000e+02 6.100000000000000000e+02 6.110000000000000000e+02 6.120000000000000000e+02 6.130000000000000000e+02 6.140000000000000000e+02 6.150000000000000000e+02 6.160000000000000000e+02 6.170000000000000000e+02 6.180000000000000000e+02 6.190000000000000000e+02 6.200000000000000000e+02 6.210000000000000000e+02 6.220000000000000000e+02 6.230000000000000000e+02 6.240000000000000000e+02 6.250000000000000000e+02 6.260000000000000000e+02 6.270000000000000000e+02 6.280000000000000000e+02 6.290000000000000000e+02 6.300000000000000000e+02 6.310000000000000000e+02 6.320000000000000000e+02 6.330000000000000000e+02 6.340000000000000000e+02 6.350000000000000000e+02 6.360000000000000000e+02 6.370000000000000000e+02 6.380000000000000000e+02 6.390000000000000000e+02 6.400000000000000000e+02 6.410000000000000000e+02 6.420000000000000000e+02 6.430000000000000000e+02 6.440000000000000000e+02 6.450000000000000000e+02 6.460000000000000000e+02 6.470000000000000000e+02 6.480000000000000000e+02 6.490000000000000000e+02 6.500000000000000000e+02 6.510000000000000000e+02 6.520000000000000000e+02 6.530000000000000000e+02 6.540000000000000000e+02 6.550000000000000000e+02 6.560000000000000000e+02 6.570000000000000000e+02 6.580000000000000000e+02 6.590000000000000000e+02 6.600000000000000000e+02 6.610000000000000000e+02 6.620000000000000000e+02 6.630000000000000000e+02 6.640000000000000000e+02 6.650000000000000000e+02 6.660000000000000000e+02 6.670000000000000000e+02 6.680000000000000000e+02 6.690000000000000000e+02 6.700000000000000000e+02 6.710000000000000000e+02 6.720000000000000000e+02 6.730000000000000000e+02 6.740000000000000000e+02 6.750000000000000000e+02 6.760000000000000000e+02 6.770000000000000000e+02 6.780000000000000000e+02 6.790000000000000000e+02 6.800000000000000000e+02 6.810000000000000000e+02 6.820000000000000000e+02 6.830000000000000000e+02 6.840000000000000000e+02 6.850000000000000000e+02 6.860000000000000000e+02 6.870000000000000000e+02 6.880000000000000000e+02 6.890000000000000000e+02 6.900000000000000000e+02 6.910000000000000000e+02 6.920000000000000000e+02 6.930000000000000000e+02 6.940000000000000000e+02 6.950000000000000000e+02 6.960000000000000000e+02 6.970000000000000000e+02 6.980000000000000000e+02 6.990000000000000000e+02 7.000000000000000000e+02 7.010000000000000000e+02 7.020000000000000000e+02 7.030000000000000000e+02 7.040000000000000000e+02 7.050000000000000000e+02 7.060000000000000000e+02 7.070000000000000000e+02 7.080000000000000000e+02 7.090000000000000000e+02 7.100000000000000000e+02 7.110000000000000000e+02 7.120000000000000000e+02 7.130000000000000000e+02 7.140000000000000000e+02 7.150000000000000000e+02 7.160000000000000000e+02 7.170000000000000000e+02 7.180000000000000000e+02 7.190000000000000000e+02 7.200000000000000000e+02 7.210000000000000000e+02 7.220000000000000000e+02 7.230000000000000000e+02 7.240000000000000000e+02 7.250000000000000000e+02 7.260000000000000000e+02 7.270000000000000000e+02 7.280000000000000000e+02 7.290000000000000000e+02 7.300000000000000000e+02 7.310000000000000000e+02 7.320000000000000000e+02 7.330000000000000000e+02 7.340000000000000000e+02 7.350000000000000000e+02 7.360000000000000000e+02 7.370000000000000000e+02 7.380000000000000000e+02 7.390000000000000000e+02 7.400000000000000000e+02 7.410000000000000000e+02 7.420000000000000000e+02 7.430000000000000000e+02 7.440000000000000000e+02 7.450000000000000000e+02 7.460000000000000000e+02 7.470000000000000000e+02 7.480000000000000000e+02 7.490000000000000000e+02 7.500000000000000000e+02 7.510000000000000000e+02 7.520000000000000000e+02 7.530000000000000000e+02 7.540000000000000000e+02 7.550000000000000000e+02 7.560000000000000000e+02 7.570000000000000000e+02 7.580000000000000000e+02 7.590000000000000000e+02 7.600000000000000000e+02 7.610000000000000000e+02 7.620000000000000000e+02 7.630000000000000000e+02 7.640000000000000000e+02 7.650000000000000000e+02 7.660000000000000000e+02 7.670000000000000000e+02 7.680000000000000000e+02 7.690000000000000000e+02 7.700000000000000000e+02 7.710000000000000000e+02 7.720000000000000000e+02 7.730000000000000000e+02 7.740000000000000000e+02 7.750000000000000000e+02 7.760000000000000000e+02 7.770000000000000000e+02 7.780000000000000000e+02 7.790000000000000000e+02 7.800000000000000000e+02 7.810000000000000000e+02 7.820000000000000000e+02 7.830000000000000000e+02 7.840000000000000000e+02 7.850000000000000000e+02 7.860000000000000000e+02 7.870000000000000000e+02 7.880000000000000000e+02 7.890000000000000000e+02 7.900000000000000000e+02 7.910000000000000000e+02 7.920000000000000000e+02 7.930000000000000000e+02 7.940000000000000000e+02 7.950000000000000000e+02 7.960000000000000000e+02 7.970000000000000000e+02 7.980000000000000000e+02 7.990000000000000000e+02 8.000000000000000000e+02 8.010000000000000000e+02 8.020000000000000000e+02 8.030000000000000000e+02 8.040000000000000000e+02 8.050000000000000000e+02 8.060000000000000000e+02 8.070000000000000000e+02 8.080000000000000000e+02 8.090000000000000000e+02 8.100000000000000000e+02 8.110000000000000000e+02 8.120000000000000000e+02 8.130000000000000000e+02 8.140000000000000000e+02 8.150000000000000000e+02 8.160000000000000000e+02 8.170000000000000000e+02 8.180000000000000000e+02 8.190000000000000000e+02 8.200000000000000000e+02 8.210000000000000000e+02 8.220000000000000000e+02 8.230000000000000000e+02 8.240000000000000000e+02 8.250000000000000000e+02 8.260000000000000000e+02 8.270000000000000000e+02 8.280000000000000000e+02 8.290000000000000000e+02 8.300000000000000000e+02 8.310000000000000000e+02 8.320000000000000000e+02 8.330000000000000000e+02 8.340000000000000000e+02 8.350000000000000000e+02 8.360000000000000000e+02 8.370000000000000000e+02 8.380000000000000000e+02 8.390000000000000000e+02 8.400000000000000000e+02 8.410000000000000000e+02 8.420000000000000000e+02 8.430000000000000000e+02 8.440000000000000000e+02 8.450000000000000000e+02 8.460000000000000000e+02 8.470000000000000000e+02 8.480000000000000000e+02 8.490000000000000000e+02 8.500000000000000000e+02 8.510000000000000000e+02 8.520000000000000000e+02 8.530000000000000000e+02 8.540000000000000000e+02 8.550000000000000000e+02 8.560000000000000000e+02 8.570000000000000000e+02 8.580000000000000000e+02 8.590000000000000000e+02 8.600000000000000000e+02 8.610000000000000000e+02 8.620000000000000000e+02 8.630000000000000000e+02 8.640000000000000000e+02 8.650000000000000000e+02 8.660000000000000000e+02 8.670000000000000000e+02 8.680000000000000000e+02 8.690000000000000000e+02 8.700000000000000000e+02 8.710000000000000000e+02 8.720000000000000000e+02 8.730000000000000000e+02 8.740000000000000000e+02 8.750000000000000000e+02 8.760000000000000000e+02 8.770000000000000000e+02 8.780000000000000000e+02 8.790000000000000000e+02 8.800000000000000000e+02 8.810000000000000000e+02 8.820000000000000000e+02 8.830000000000000000e+02 8.840000000000000000e+02 8.850000000000000000e+02 8.860000000000000000e+02 8.870000000000000000e+02 8.880000000000000000e+02 8.890000000000000000e+02 8.900000000000000000e+02 8.910000000000000000e+02 8.920000000000000000e+02 8.930000000000000000e+02 8.940000000000000000e+02 8.950000000000000000e+02 8.960000000000000000e+02 8.970000000000000000e+02 8.980000000000000000e+02 8.990000000000000000e+02 9.000000000000000000e+02 9.010000000000000000e+02 9.020000000000000000e+02 9.030000000000000000e+02 9.040000000000000000e+02 9.050000000000000000e+02 9.060000000000000000e+02 9.070000000000000000e+02 9.080000000000000000e+02 9.090000000000000000e+02 9.100000000000000000e+02 9.110000000000000000e+02 9.120000000000000000e+02 9.130000000000000000e+02 9.140000000000000000e+02 9.150000000000000000e+02 9.160000000000000000e+02 9.170000000000000000e+02 9.180000000000000000e+02 9.190000000000000000e+02 9.200000000000000000e+02 9.210000000000000000e+02 9.220000000000000000e+02 9.230000000000000000e+02 9.240000000000000000e+02 9.250000000000000000e+02 9.260000000000000000e+02 9.270000000000000000e+02 9.280000000000000000e+02 9.290000000000000000e+02 9.300000000000000000e+02 9.310000000000000000e+02 9.320000000000000000e+02 9.330000000000000000e+02 9.340000000000000000e+02 9.350000000000000000e+02 9.360000000000000000e+02 9.370000000000000000e+02 9.380000000000000000e+02 9.390000000000000000e+02 9.400000000000000000e+02 9.410000000000000000e+02 9.420000000000000000e+02 9.430000000000000000e+02 9.440000000000000000e+02 9.450000000000000000e+02 9.460000000000000000e+02 9.470000000000000000e+02 9.480000000000000000e+02 9.490000000000000000e+02 9.500000000000000000e+02 9.510000000000000000e+02 9.520000000000000000e+02 9.530000000000000000e+02 9.540000000000000000e+02 9.550000000000000000e+02 9.560000000000000000e+02 9.570000000000000000e+02 9.580000000000000000e+02 9.590000000000000000e+02 9.600000000000000000e+02 9.610000000000000000e+02 9.620000000000000000e+02 9.630000000000000000e+02 9.640000000000000000e+02 9.650000000000000000e+02 9.660000000000000000e+02 9.670000000000000000e+02 9.680000000000000000e+02 9.690000000000000000e+02 9.700000000000000000e+02 9.710000000000000000e+02 9.720000000000000000e+02 9.730000000000000000e+02 9.740000000000000000e+02 9.750000000000000000e+02 9.760000000000000000e+02 9.770000000000000000e+02 9.780000000000000000e+02 9.790000000000000000e+02 9.800000000000000000e+02 9.810000000000000000e+02 9.820000000000000000e+02 9.830000000000000000e+02 9.840000000000000000e+02 9.850000000000000000e+02 9.860000000000000000e+02 9.870000000000000000e+02 9.880000000000000000e+02 9.890000000000000000e+02 9.900000000000000000e+02 9.910000000000000000e+02 9.920000000000000000e+02 9.930000000000000000e+02 9.940000000000000000e+02 9.950000000000000000e+02 9.960000000000000000e+02 9.970000000000000000e+02 9.980000000000000000e+02 9.990000000000000000e+02 1.000000000000000000e+03
1.000000000000000021e-02 1.000000000000000021e-02 1.000000000000000021e-02 1.000000000000000021e-02 1.000000000000000021e-02 1.000000000000000021e-02 1.000000000000000021e-02 1.000000000000000021e-02 1.000000000000000021e-02 1.000000000000000021e-02 1.000000000000000021e-02 1.000000000000000021e-02 1.000000000000000021e-02 1.000000000000000021e-02 1.000000000000000021e-02 1.000000000000000021e-02 1.000000000000000021e-02 1.000000000000000021e-02 1.000000000000000021e-02 1.000000000000000021e-02 1.000000000000000021e-02 1.000000000000000021e-02 1.000000000000000021e-02 1.000000000000000021e-02 1.000000000000000021e-02 1.000000000000000021e-02 1.000000000000000021e-02 1.000000000000000021e-02 1.000000000000000021e-02 1.000000000000000021e-02 1.000000000000000021e-02 1.000000000000000021e-02 1.000000000000000021e-02 1.000000000000000021e-02 1.000000000000000021e-02 1.000000000000000021e-02 1.000000000000000021e-02 1.000000000000000021e-02 1.000000000000000021e-02 1.000000000000000021e-02 1.000000000000000021e-02 1.000000000000000021e-02 1.000000000000000021e-02 1.000000000000000021e-02 1.000000000000000021e-02 1.000000000000000021e-02 1.000000000000000021e-02 1.000000000000000021e-02 1.000000000000000021e-02 1.000000000000000021e-02 1.000000000000000021e-02 1.000000000000000021e-02 1.000000000000000021e-02 1.000000000000000021e-02 1.000000000000000021e-02 1.000000000000000021e-02 1.000000000000000021e-02 1.000000000000000021e-02 1.000000000000000021e-02 1.000000000000000021e-02 1.000000000000000021e-02 1.000000000000000021e-02 1.000000000000000021e-02 1.000000000000000021e-02 1.000000000000000021e-02 1.000000000000000021e-02 1.000000000000000021e-02 1.000000000000000021e-02 1.000000000000000021e-02 1.000000000000000021e-02 1.000000000000000021e-02 1.000000000000000021e-02 1.000000000000000021e-02 1.000000000000000021e-02 1.000000000000000021e-02 1.000000000000000021e-02 1.000000000000000021e-02 1.000000000000000021e-02 1.000000000000000021e-02 1.000000000000000021e-02 1.000000000000000021e-02 1.000000000000000021e-02 1.000000000000000021e-02 1.000000000000000021e-02 1.000000000000000021e-02 1.000000000000000021e-02 1.000000000000000021e-02 1.000000000000000021e-02 1.000000000000000021e-02 1.000000000000000021e-02 1.000000000000000021e-02 1.000000000000000021e-02 1.000000000000000021e-02 1.000000000000000021e-02 1.000000000000000021e-02 1.000000000000000021e-02 1.000000000000000021e-02 1.000000000000000021e-02 1.000000000000000021e-02 1.000000000000000021e-02 1.000000000000000021e-02 1.000000000000000021e-02 1.000000000000000021e-02 1.000000000000000021e-02 1.000000000000000021e-02 1.000000000000000021e-02 1.000000000000000021e-02 1.000000000000000021e-02 1.000000000000000021e-02 1.000000000000000021e-02 1.000000000000000021e-02 1.000000000000000021e-02 1.000000000000000021e-02 1.000000000000000021e-02 1.000000000000000021e-02 1.000000000000000021e-02 1.000000000000000021e-02 1.000000000000000021e-02 1.000000000000000021e-02 1.000000000000000021e-02 1.000000000000000021e-02 1.000000000000000021e-02 1.000000000000000021e-02 1.000000000000000021e-02 1.000000000000000021e-02 1.000000000000000021e-02 1.000000000000000021e-02 1.000000000000000021e-02 1.000000000000000021e-02 1.000000000000000021e-02 1.000000000000000021e-02 1.000000000000000021e-02 1.000000000000000021e-02 1.000000000000000021e-02 1.000000000000000021e-02 1.000000000000000021e-02 1.000000000000000021e-02 1.000000000000000021e-02 1.000000000000000021e-02 1.000000000000000021e-02 1.000000000000000021e-02 1.000000000000000021e-02 1.000000000000000021e-02 1.000000000000000021e-02 1.000000000000000021e-02 1.000000000000000021e-02 1.000000000000000021e-02 1.000000000000000021e-02 1.000000000000000021e-02 1.000000000000000021e-02 1.000000000000000021e-02 1.000000000000000021e-02 1.000000000000000021e-02 1.000000000000000021e-02 1.000000000000000021e-02 1.000000000000000021e-02 1.000000000000000021e-02 1.000000000000000021e-02 1.000000000000000021e-02 1.000000000000000021e-02 1.000000000000000021e-02 1.000000000000000021e-02 1.000000000000000021e-02 1.000000000000000021e-02 1.000000000000000021e-02 1.000000000000000021e-02 1.000000000000000021e-02 1.000000000000000021e-02 1.000000000000000021e-02 1.000000000000000021e-02 1.000000000000000021e-02 1.000000000000000021e-02 1.000000000000000021e-02 1.000000000000000021e-02 1.000000000000000021e-02 1.000000000000000021e-02 1.000000000000000021e-02 1.000000000000000021e-02 1.000000000000000021e-02 1.000000000000000021e-02 1.000000000000000021e-02 1.000000000000000021e-02 1.000000000000000021e-02 1.000000000000000021e-02 1.000000000000000021e-02 1.000000000000000021e-02 1.000000000000000021e-02 1.000000000000000021e-02 1.000000000000000021e-02 1.000000000000000021e-02 1.000000000000000021e-02 1.000000000000000021e-02 1.000000000000000021e-02 1.000000000000000021e-02 1.000000000000000021e-02 1.000000000000000021e-02 1.000000000000000021e-02 1.000000000000000021e-02 1.000000000000000021e-02 1.000000000000000021e-02 1.000000000000000021e-02 1.000000000000000021e-02 1.000000000000000021e-02 1.000000000000000021e-02 1.000000000000000021e-02 1.000000000000000021e-02 1.000000000000000021e-02 1.000000000000000021e-02 1.000000000000000021e-02 1.000000000000000021e-02 1.000000000000000021e-02 1.000000000000000021e-02 1.000000000000000021e-02 1.000000000000000021e-02 1.000000000000000021e-02 1.000000000000000021e-02 1.000000000000000021e-02 1.000000000000000021e-02 1.000000000000000021e-02 1.000000000000000021e-02 1.000000000000000021e-02 1.000000000000000021e-02 1.000000000000000021e-02 1.000000000000000021e-02 1.000000000000000021e-02 1.000000000000000021e-02 1.000000000000000021e-02 1.000000000000000021e-02 1.000000000000000021e-02 1.000000000000000021e-02 1.000000000000000021e-02 1.000000000000000021e-02 1.000000000000000021e-02 1.000000000000000021e-02 1.000000000000000021e-02 1.000000000000000021e-02 1.000000000000000021e-02 1.000000000000000021e-02 1.000000000000000021e-02 1.000000000000000021e-02 1.000000000000000021e-02 1.000000000000000021e-02 1.000000000000000021e-02 1.000000000000000021e-02 1.000000000000000021e-02 1.000000000000000021e-02 1.000000000000000021e-02 1.000000000000000021e-02 1.000000000000000021e-02 1.000000000000000021e-02 1.000000000000000021e-02 1.000000000000000021e-02 1.000000000000000021e-02 1.000000000000000021e-02 1.000000000000000021e-02 1.000000000000000021e-02 1.000000000000000021e-02 1.000000000000000021e-02 1.000000000000000021e-02 1.000000000000000021e-02 1.000000000000000021e-02 1.000000000000000021e-02 1.000000000000000021e-02 1.000000000000000021e-02 1.000000000000000021e-02 1.000000000000000021e-02 1.000000000000000021e-02 1.000000000000000021e-02 1.000000000000000021e-02 1.000000000000000021e-02 1.000000000000000021e-02 1.000000000000000021e-02 1.000000000000000021e-02 1.000000000000000021e-02 1.000000000000000021e-02 1.000000000000000021e-02 1.000000000000000021e-02 1.000000000000000021e-02 1.000000000000000021e-02 1.000000000000000021e-02 1.000000000000000021e-02 1.000000000000000021e-02 1.000000000000000021e-02 1.000000000000000021e-02 1.000000000000000021e-02 1.000000000000000021e-02 1.000000000000000021e-02 1.000000000000000021e-02 1.000000000000000021e-02 1.000000000000000021e-02 1.000000000000000021e-02 1.000000000000000021e-02 1.000000000000000021e-02 1.000000000000000021e-02 1.000000000000000021e-02 1.000000000000000021e-02 1.000000000000000021e-02 1.000000000000000021e-02 1.000000000000000021e-02 1.000000000000000021e-02 1.000000000000000021e-02 1.000000000000000021e-02 1.000000000000000021e-02 1.000000000000000021e-02 1.000000000000000021e-02 1.000000000000000021e-02 1.000000000000000021e-02 1.000000000000000021e-02 1.000000000000000021e-02 1.000000000000000021e-02 1.000000000000000021e-02 1.000000000000000021e-02 1.000000000000000021e-02 1.000000000000000021e-02 1.000000000000000021e-02 1.000000000000000021e-02 1.000000000000000021e-02 1.000000000000000021e-02 1.000000000000000021e-02 1.000000000000000021e-02 1.000000000000000021e-02 1.000000000000000021e-02 1.000000000000000021e-02 1.000000000000000021e-02 1.000000000000000021e-02 1.000000000000000021e-02 1.000000000000000021e-02 1.000000000000000021e-02 1.000000000000000021e-02 1.000000000000000021e-02 1.000000000000000021e-02 1.000000000000000021e-02 1.000000000000000021e-02 1.000000000000000021e-02 1.000000000000000021e-02 1.000000000000000021e-02 1.000000000000000021e-02 1.000000000000000021e-02 1.000000000000000021e-02 1.000000000000000021e-02 1.000000000000000021e-02 1.000000000000000021e-02 1.000000000000000021e-02 1.000000000000000021e-02 1.000000000000000021e-02 1.000000000000000021e-02 1.000000000000000021e-02 1.000000000000000021e-02 1.000000000000000021e-02 1.000000000000000021e-02 1.000000000000000021e-02 1.000000000000000021e-02 1.000000000000000021e-02 1.000000000000000021e-02 1.000000000000000021e-02 1.000000000000000021e-02 1.000000000000000021e-02 1.000000000000000021e-02 1.000000000000000021e-02 1.000000000000000021e-02 1.000000000000000021e-02 1.000000000000000021e-02 1.000000000000000021e-02 1.000000000000000021e-02 1.000000000000000021e-02 1.000000000000000021e-02 1.000000000000000021e-02 1.000000000000000021e-02 1.000000000000000021e-02 1.000000000000000021e-02 1.000000000000000021e-02 1.000000000000000021e-02 1.000000000000000021e-02 1.000000000000000021e-02 1.000000000000000021e-02 1.000000000000000021e-02 1.000000000000000021e-02 1.000000000000000021e-02 1.000000000000000021e-02 1.000000000000000021e-02 1.000000000000000021e-02 1.000000000000000021e-02 1.000000000000000021e-02 1.000000000000000021e-02 1.000000000000000021e-02 1.000000000000000021e-02 1.000000000000000021e-02 1.000000000000000021e-02 1.000000000000000021e-02 1.000000000000000021e-02 1.000000000000000021e-02 1.000000000000000021e-02 1.000000000000000021e-02 1.000000000000000021e-02 1.000000000000000021e-02 1.000000000000000021e-02 1.000000000000000021e-02 1.000000000000000021e-02 1.000000000000000021e-02 1.000000000000000021e-02 1.000000000000000021e-02 1.000000000000000021e-02 1.000000000000000021e-02 1.000000000000000021e-02 1.000000000000000021e-02 1.000000000000000021e-02 1.000000000000000021e-02 1.000000000000000021e-02 1.000000000000000021e-02 1.000000000000000021e-02 1.000000000000000021e-02 1.000000000000000021e-02 1.000000000000000021e-02 1.000000000000000021e-02 1.000000000000000021e-02 1.000000000000000021e-02 1.000000000000000021e-02 1.000000000000000021e-02 1.000000000000000021e-02 1.000000000000000021e-02 1.000000000000000021e-02 1.000000000000000021e-02 1.000000000000000021e-02 1.000000000000000021e-02 1.000000000000000021e-02 1.000000000000000021e-02 1.000000000000000021e-02 1.000000000000000021e-02 1.000000000000000021e-02 1.000000000000000021e-02 1.000000000000000021e-02 1.000000000000000021e-02 1.000000000000000021e-02 1.000000000000000021e-02 1.000000000000000021e-02 1.000000000000000021e-02 1.000000000000000021e-02 1.000000000000000021e-02 1.000000000000000021e-02 1.000000000000000021e-02 1.000000000000000021e-02 1.000000000000000021e-02 1.000000000000000021e-02 1.000000000000000021e-02 1.000000000000000021e-02 1.000000000000000021e-02 1.000000000000000021e-02 1.000000000000000021e-02 1.000000000000000021e-02 1.000000000000000021e-02 1.000000000000000021e-02 1.000000000000000021e-02 1.000000000000000021e-02 1.000000000000000021e-02 1.000000000000000021e-02 1.000000000000000021e-02 1.000000000000000021e-02 1.000000000000000021e-02 1.000000000000000021e-02 1.000000000000000021e-02 1.000000000000000021e-02 1.000000000000000021e-02 1.000000000000000021e-02 1.000000000000000021e-02 1.000000000000000021e-02 1.000000000000000021e-02 1.000000000000000021e-02 1.000000000000000021e-02 1.000000000000000021e-02 1.000000000000000021e-02 1.000000000000000021e-02 1.000000000000000021e-02 1.000000000000000021e-02 1.000000000000000021e-02 1.000000000000000021e-02 1.000000000000000021e-02 1.000000000000000021e-02 1.000000000000000021e-02 1.000000000000000021e-02 1.000000000000000021e-02 1.000000000000000021e-02 1.000000000000000021e-02 1.000000000000000021e-02 1.000000000000000021e-02 1.000000000000000021e-02 1.000000000000000021e-02 1.000000000000000021e-02 1.000000000000000021e-02 1.000000000000000021e-02 1.000000000000000021e-02 1.000000000000000021e-02 1.000000000000000021e-02 1.000000000000000021e-02 1.000000000000000021e-02 1.000000000000000021e-02 1.000000000000000021e-02 1.000000000000000021e-02 1.000000000000000021e-02 1.000000000000000021e-02 1.000000000000000021e-02 1.000000000000000021e-02 1.000000000000000021e-02 1.000000000000000021e-02 1.000000000000000021e-02 1.000000000000000021e-02 1.000000000000000021e-02 1.000000000000000021e-02 1.000000000000000021e-02 1.000000000000000021e-02 1.000000000000000021e-02 1.000000000000000021e-02 1.000000000000000021e-02 1.000000000000000021e-02 1.000000000000000021e-02 1.000000000000000021e-02 1.000000000000000021e-02 1.000000000000000021e-02 1.000000000000000021e-02 1.000000000000000021e-02 1.000000000000000021e-02 1.000000000000000021e-02 1.000000000000000021e-02 1.000000000000000021e-02 1.000000000000000021e-02 1.000000000000000021e-02 1.000000000000000021e-02 1.000000000000000021e-02 1.000000000000000021e-02 1.000000000000000021e-02 1.000000000000000021e-02 1.000000000000000021e-02 1.000000000000000021e-02 1.000000000000000021e-02 1.000000000000000021e-02 1.000000000000000021e-02 1.000000000000000021e-02 1.000000000000000021e-02 1.000000000000000021e-02 1.000000000000000021e-02 1.000000000000000021e-02 1.000000000000000021e-02 1.000000000000000021e-02 1.000000000000000021e-02 1.000000000000000021e-02 1.000000000000000021e-02 1.000000000000000021e-02 1.000000000000000021e-02 1.000000000000000021e-02 1.000000000000000021e-02 1.000000000000000021e-02 1.000000000000000021e-02 1.000000000000000021e-02 1.000000000000000021e-02 1.000000000000000021e-02 1.000000000000000021e-02 1.000000000000000021e-02 1.000000000000000021e-02 1.000000000000000021e-02 1.000000000000000021e-02 1.000000000000000021e-02 1.000000000000000021e-02 1.000000000000000021e-02 1.000000000000000021e-02 1.000000000000000021e-02 1.000000000000000021e-02 1.000000000000000021e-02 1.000000000000000021e-02 1.000000000000000021e-02 1.000000000000000021e-02 1.000000000000000021e-02 1.000000000000000021e-02 1.000000000000000021e-02 1.000000000000000021e-02 1.000000000000000021e-02 1.000000000000000021e-02 1.000000000000000021e-02 1.000000000000000021e-02 1.000000000000000021e-02 1.000000000000000021e-02 1.000000000000000021e-02 1.000000000000000021e-02 1.000000000000000021e-02 1.000000000000000021e-02 1.000000000000000021e-02 1.000000000000000021e-02 1.000000000000000021e-02 1.000000000000000021e-02 1.000000000000000021e-02 1.000000000000000021e-02 1.000000000000000021e-02 1.000000000000000021e-02 1.000000000000000021e-02 1.000000000000000021e-02 1.000000000000000021e-02 1.000000000000000021e-02 1.000000000000000021e-02 1.000000000000000021e-02 1.000000000000000021e-02 1.000000000000000021e-02 1.000000000000000021e-02 1.000000000000000021e-02 1.000000000000000021e-02 1.000000000000000021e-02 1.000000000000000021e-02 1.000000000000000021e-02 1.000000000000000021e-02 1.000000000000000021e-02 1.000000000000000021e-02 1.000000000000000021e-02 1.000000000000000021e-02 1.000000000000000021e-02 1.000000000000000021e-02 1.000000000000000021e-02 1.000000000000000021e-02 1.000000000000000021e-02 1.000000000000000021e-02 1.000000000000000021e-02 1.000000000000000021e-02 1.000000000000000021e-02 1.000000000000000021e-02 1.000000000000000021e-02 1.000000000000000021e-02 1.000000000000000021e-02 1.000000000000000021e-02 1.000000000000000021e-02 1.000000000000000021e-02 1.000000000000000021e-02 1.000000000000000021e-02 1.000000000000000021e-02 1.000000000000000021e-02 1.000000000000000021e-02 1.000000000000000021e-02 1.000000000000000021e-02 1.000000000000000021e-02 1.000000000000000021e-02 1.000000000000000021e-02 1.000000000000000021e-02 1.000000000000000021e-02 1.000000000000000021e-02 1.000000000000000021e-02 1.000000000000000021e-02 1.000000000000000021e-02 1.000000000000000021e-02 1.000000000000000021e-02 1.000000000000000021e-02 1.000000000000000021e-02 1.000000000000000021e-02 1.000000000000000021e-02 1.000000000000000021e-02 1.000000000000000021e-02 1.000000000000000021e-02 1.000000000000000021e-02 1.000000000000000021e-02 1.000000000000000021e-02 1.000000000000000021e-02 1.000000000000000021e-02 1.000000000000000021e-02 1.000000000000000021e-02 1.000000000000000021e-02 1.000000000000000021e-02 1.000000000000000021e-02 1.000000000000000021e-02 1.000000000000000021e-02 1.000000000000000021e-02 1.000000000000000021e-02 1.000000000000000021e-02 1.000000000000000021e-02 1.000000000000000021e-02 1.000000000000000021e-02 1.000000000000000021e-02 1.000000000000000021e-02 1.000000000000000021e-02 1.000000000000000021e-02 1.000000000000000021e-02 1.000000000000000021e-02 1.000000000000000021e-02 1.000000000000000021e-02 1.000000000000000021e-02 1.000000000000000021e-02 1.000000000000000021e-02 1.000000000000000021e-02 1.000000000000000021e-02 1.000000000000000021e-02 1.000000000000000021e-02 1.000000000000000021e-02 1.000000000000000021e-02 1.000000000000000021e-02 1.000000000000000021e-02 1.000000000000000021e-02 1.000000000000000021e-02 1.000000000000000021e-02 1.000000000000000021e-02 1.000000000000000021e-02 1.000000000000000021e-02 1.000000000000000021e-02 1.000000000000000021e-02 1.000000000000000021e-02 1.000000000000000021e-02 1.000000000000000021e-02 1.000000000000000021e-02 1.000000000000000021e-02 1.000000000000000021e-02 1.000000000000000021e-02 1.000000000000000021e-02 1.000000000000000021e-02 1.000000000000000021e-02 1.000000000000000021e-02 1.000000000000000021e-02 1.000000000000000021e-02 1.000000000000000021e-02 1.000000000000000021e-02 1.000000000000000021e-02 1.000000000000000021e-02 1.000000000000000021e-02 1.000000000000000021e-02 1.000000000000000021e-02 1.000000000000000021e-02 1.000000000000000021e-02 1.000000000000000021e-02 1.000000000000000021e-02 1.000000000000000021e-02 1.000000000000000021e-02 1.000000000000000021e-02 1.000000000000000021e-02 1.000000000000000021e-02 1.000000000000000021e-02 1.000000000000000021e-02 1.000000000000000021e-02 1.000000000000000021e-02 1.000000000000000021e-02 1.000000000000000021e-02 1.000000000000000021e-02 1.000000000000000021e-02 1.000000000000000021e-02 1.000000000000000021e-02 1.000000000000000021e-02 1.000000000000000021e-02 1.000000000000000021e-02 1.000000000000000021e-02 1.000000000000000021e-02 1.000000000000000021e-02 1.000000000000000021e-02 1.000000000000000021e-02 1.000000000000000021e-02 1.000000000000000021e-02 1.000000000000000021e-02 1.000000000000000021e-02 1.000000000000000021e-02 1.000000000000000021e-02 1.000000000000000021e-02 1.000000000000000021e-02 1.000000000000000021e-02 1.000000000000000021e-02 1.000000000000000021e-02 1.000000000000000021e-02 1.000000000000000021e-02 1.000000000000000021e-02 1.000000000000000021e-02 1.000000000000000021e-02 1.000000000000000021e-02 1.000000000000000021e-02 1.000000000000000021e-02 1.000000000000000021e-02 1.000000000000000021e-02 1.000000000000000021e-02 1.000000000000000021e-02 1.000000000000000021e-02 1.000000000000000021e-02 1.000000000000000021e-02 1.000000000000000021e-02 1.000000000000000021e-02 1.000000000000000021e-02 1.000000000000000021e-02 1.000000000000000021e-02 1.000000000000000021e-02 1.000000000000000021e-02 1.000000000000000021e-02 1.000000000000000021e-02 1.000000000000000021e-02 1.000000000000000021e-02 1.000000000000000021e-02 1.000000000000000021e-02 1.000000000000000021e-02 1.000000000000000021e-02 1.000000000000000021e-02 1.000000000000000021e-02 1.000000000000000021e-02 1.000000000000000021e-02 1.000000000000000021e-02 1.000000000000000021e-02 1.000000000000000021e-02 1.000000000000000021e-02 1.000000000000000021e-02 1.000000000000000021e-02 1.000000000000000021e-02 1.000000000000000021e-02 1.000000000000000021e-02 1.000000000000000021e-02 1.000000000000000021e-02 1.000000000000000021e-02 1.000000000000000021e-02 1.000000000000000021e-02 1.000000000000000021e-02 1.000000000000000021e-02 1.000000000000000021e-02 1.000000000000000021e-02 1.000000000000000021e-02 1.000000000000000021e-02 1.000000000000000021e-02 1.000000000000000021e-02 1.000000000000000021e-02 1.000000000000000021e-02 1.000000000000000021e-02 1.000000000000000021e-02 1.000000000000000021e-02 1.000000000000000021e-02 1.000000000000000021e-02 1.000000000000000021e-02 1.000000000000000021e-02 1.000000000000000021e-02 1.000000000000000021e-02 1.000000000000000021e-02 1.000000000000000021e-02 1.000000000000000021e-02 1.000000000000000021e-02 1.000000000000000021e-02 1.000000000000000021e-02 1.000000000000000021e-02 1.000000000000000021e-02 1.000000000000000021e-02 1.000000000000000021e-02 1.000000000000000021e-02 1.000000000000000021e-02 1.000000000000000021e-02 1.000000000000000021e-02 1.000000000000000021e-02 1.000000000000000021e-02 1.000000000000000021e-02 1.000000000000000021e-02 1.000000000000000021e-02 1.000000000000000021e-02 1.000000000000000021e-02 1.000000000000000021e-02 1.000000000000000021e-02 1.000000000000000021e-02 1.000000000000000021e-02 1.000000000000000021e-02 1.000000000000000021e-02 1.000000000000000021e-02 1.000000000000000021e-02 1.000000000000000021e-02 1.000000000000000021e-02 1.000000000000000021e-02 1.000000000000000021e-02 1.000000000000000021e-02 1.000000000000000021e-02 1.000000000000000021e-02 1.000000000000000021e-02 1.000000000000000021e-02 1.000000000000000021e-02 1.000000000000000021e-02 1.000000000000000021e-02 1.000000000000000021e-02 1.000000000000000021e-02 1.000000000000000021e-02 1.000000000000000021e-02 1.000000000000000021e-02 1.000000000000000021e-02 1.000000000000000021e-02 1.000000000000000021e-02 1.000000000000000021e-02 1.000000000000000021e-02 1.000000000000000021e-02 1.000000000000000021e-02 1.000000000000000021e-02 1.000000000000000021e-02 1.000000000000000021e-02 1.000000000000000021e-02 1.000000000000000021e-02 1.000000000000000021e-02 1.000000000000000021e-02 1.000000000000000021e-02 1.000000000000000021e-02 1.000000000000000021e-02 1.000000000000000021e-02 1.000000000000000021e-02 1.000000000000000021e-02 1.000000000000000021e-02 1.000000000000000021e-02 1.000000000000000021e-02 1.000000000000000021e-02 1.000000000000000021e-02 1.000000000000000021e-02 1.000000000000000021e-02 1.000000000000000021e-02 1.000000000000000021e-02 1.000000000000000021e-02 1.000000000000000021e-02 1.000000000000000021e-02 1.000000000000000021e-02 1.000000000000000021e-02 1.000000000000000021e-02 1.000000000000000021e-02 1.000000000000000021e-02 1.000000000000000021e-02 1.000000000000000021e-02 1.000000000000000021e-02 1.000000000000000021e-02 1.000000000000000021e-02 1.000000000000000021e-02 1.000000000000000021e-02 1.000000000000000021e-02 1.000000000000000021e-02 1.000000000000000021e-02 1.000000000000000021e-02 1.000000000000000021e-02 1.000000000000000021e-02 1.000000000000000021e-02 1.000000000000000021e-02 1.000000000000000021e-02 1.000000000000000021e-02 1.000000000000000021e-02 1.000000000000000021e-02 1.000000000000000021e-02 1.000000000000000021e-02 1.000000000000000021e-02 1.000000000000000021e-02 1.000000000000000021e-02 1.000000000000000021e-02 1.000000000000000021e-02 1.000000000000000021e-02 1.000000000000000021e-02 1.000000000000000021e-02 1.000000000000000021e-02 1.000000000000000021e-02 1.000000000000000021e-02 1.000000000000000021e-02 1.000000000000000021e-02 1.000000000000000021e-02 1.000000000000000021e-02 1.000000000000000021e-02 1.000000000000000021e-02 1.000000000000000021e-02 1.000000000000000021e-02 1.000000000000000021e-02 1.000000000000000021e-02 1.000000000000000021e-02 1.000000000000000021e-02 1.000000000000000021e-02 1.000000000000000021e-02 1.000000000000000021e-02 1.000000000000000021e-02 1.000000000000000021e-02 1.000000000000000021e-02 1.000000000000000021e-02 1.000000000000000021e-02 1.000000000000000021e-02 1.000000000000000021e-02 1.000000000000000021e-02 1.000000000000000021e-02 1.000000000000000021e-02 1.000000000000000021e-02 1.000000000000000021e-02 1.000000000000000021e-02 1.000000000000000021e-02 1.000000000000000021e-02 1.000000000000000021e-02 1.000000000000000021e-02 1.000000000000000021e-02 1.000000000000000021e-02 1.000000000000000021e-02 1.000000000000000021e-02 1.000000000000000021e-02 1.000000000000000021e-02 1.000000000000000021e-02 1.000000000000000021e-02 1.000000000000000021e-02 1.000000000000000021e-02 1.000000000000000021e-02 1.000000000000000021e-02 1.000000000000000021e-02 1.000000000000000021e-02 1.000000000000000021e-02 1.000000000000000021e-02 1.000000000000000021e-02 1.000000000000000021e-02 1.000000000000000021e-02 1.000000000000000021e-02 1.000000000000000021e-02 1.000000000000000021e-02 1.000000000000000021e-02 1.000000000000000021e-02 1.000000000000000021e-02 1.000000000000000021e-02 1.000000000000000021e-02 1.000000000000000021e-02 1.000000000000000021e-02 1.000000000000000021e-02 1.000000000000000021e-02 1.000000000000000021e-02
-1.120882103929272660e+02 1.703605974942635157e+02 3.952120420009183732e+01 -8.883535301475690815e+00 -8.828062264883922694e+01 -1.345257459967594826e+01 -2.088509372182377035e+02 6.886371987219730428e-01 -8.511572791655923709e+01 -1.409525274753097612e+01 -1.992160432751077082e+01 6.545171124413988295e+00 -1.789431776279053921e+00 1.685625249479294894e+02 8.500847037542678208e+01 -3.895512339976439620e+01 -5.303129823478531080e+01 7.958316743793240278e+01 3.297284114379412756e+01 -2.548579863308113502e+01 -7.921638961480203989e+01 -7.415306638388801730e+01 -1.387146571426565700e+01 2.906731070430717523e+01 -1.958254661894179947e+02 -9.919407715313164431e+01 -2.620873457382462135e+01 2.025720315009549779e+02 7.109191870601078733e+01 7.707398760631468804e+01 8.066559001118564254e+01 1.190848622129884848e+00 -7.959249888117379612e+01 2.083937295968971455e+02 -2.459746982167661429e+02 5.909604276185191907e+01 -1.207144518803258819e+02 -3.484192534824865817e+01 4.051979776603183758e+00 1.273039532023112059e+02 -1.234795046001036667e+02 -1.371650930076715369e+01 7.772511031825220584e+01 1.744096142081675964e+02 7.169442160944348075e+01 -6.874462983738906985e+01 4.142374875429529624e+01 -2.851315410046919752e+01 -6.637514378970786311e+01 1.573294333947971495e+02 -7.090869303692403491e+01 -5.236252833352504865e+01 -1.399744978046573749e+02 5.772055673969256340e+00 -5.077926070061305808e+01 3.884770982374342196e+01 -8.914812195236004300e+01 -5.030039235623048910e+01 -1.018911920221952983e+02 -1.561854455124102969e+02 1.955369005604674015e+01 4.556867507362134972e+01 -1.237126507148736181e+02 1.292047007420605986e+01 -7.967975774097332931e+01 4.935509300404321920e+01 1.674214887404334604e+02 -1.449564029487326877e+02 -4.352226595553224797e+01 7.227078304987223589e+00 2.942222480976543597e+00 4.258554531679149591e+01 8.439046657068627155e+01 8.917980201879009972e-01 -8.839522102155035199e+00 -7.037096550299449405e+01 7.864509746774956511e+01 -3.293307182160555868e+01 2.642093416569594311e+01 1.045208975861689282e+02 8.865987546972944244e+01 -4.296227344110555890e+01 5.809197416894760124e+01 1.481593626085417839e+02 1.167767987928543505e+02 -4.046191986378140371e+00 1.750668505471587650e+02 -1.120631005680417900e+02 4.224049925782606074e+00 -4.214433067493344254e+01 2.078566442501537779e+02 -2.132768096705073546e+01 2.893845693363898075e+00 -7.716120102607960973e+01 -7.170099612319161153e+00 -6.416307163247971346e+01 6.810337745423943545e+01 -9.501549732276353666e+01 6.890520095565362624e+01 -4.798151492772319671e+01 -5.000945697608582208e+01 -9.211168934957426302e+01 5.335692257049767306e+01 -5.499038309252102152e+01 -1.500725563027443741e+02 -7.986508996042985586e+01 -1.051336608271553530e+02 -1.580091395581820848e+02 1.366172408415118582e+02 -2.763695005441807240e+01 3.218847791728747154e+01 9.011271317234084677e+01 -1.045916346703054103e+02 5.725383279760505673e+01 -4.353684254116272001e+01 -6.967232249565866198e+01 -9.053017840524192650e+01 2.042872083456173584e+02 -5.702536809461604861e+01 -4.973670314612940047e+01 -4.745063243088574723e+01 8.080270670322313720e+01 -4.161349662612838074e+01 1.386771554249865517e+02 -5.011974599117100837e+01 5.536602392689878371e+01 4.564897316222078061e+00 -8.154596585753900229e+01 6.916240099137731079e+01 2.787713565559835729e+02 -9.248346494554469643e+01 4.773269066348572665e+01 -7.661995338527984245e+01 4.546608220919640075e+01 1.318592662998608489e+02 -5.164285219273536143e+01 1.466496760392039711e+01 -2.706360338849094305e+01 -1.024666024588576079e+02 -1.738658889077058589e+01 4.298341394504689106e+00 -7.861560787167020337e+00 -1.503254080939858817e+01 1.188637625307457029e+02 1.310467450662181932e+02 1.874563575815209333e+02 -3.059666004793105571e+02 3.842037719749865232e+01 -1.583862273411490662e+01 -6.269758920641694999e+01 1.813505862526636179e+02 7.663805771276541634e+01 -2.596312404819009156e+00 -1.166295492772101028e+02 -1.096586731457774277e+01 1.006759384240680504e+02 -1.351920308788827469e+02 -1.696373188206110285e+02 1.080054621805438941e+01 4.269130671352556305e+01 -6.139314874891442742e+01 4.229631892707595142e+01 -1.077529069707325959e+02 -1.522805607527260463e+02 2.124707486867460560e+01 4.889418955781869158e+01 4.836163700290581069e+00 -8.403791356418369674e+01 -9.422013173237799322e+01 -8.489615850144578246e+01 -8.815281639180916784e+01 1.272043725675127313e+01 5.724194070626000297e+01 1.173495038245035005e+02 8.002091053047826108e+01 9.018035211151588726e+01 1.082744132924693616e+02 -7.537600870621517402e+01 -8.316904607465200172e+01 7.109012982480534504e+01 6.903425212643267628e+01 5.972691746519125644e+01 -9.471624076241331736e+00 -9.186967492601534957e+01 5.446453088490363825e+01 -1.806117697104710942e+02 6.778151246879544090e+01 -4.496252188198258892e+01 -9.736908348854032624e+01 7.493369221838155170e+01 -1.730688471218964253e+01 -7.791691905026058862e+01 -5.806314772798976520e+01 -9.246599701590250575e+00 2.452905574371756359e+02 7.768627792244237185e+01 5.544909816561436600e+01 -1.050807878863663518e+02 1.499836569804682256e+02 1.058403492351385644e+00 -9.147089119137557134e+01 1.577034695676125011e+02 -1.560558760814076322e+02 1.597354574595192034e+01 -3.296099393183916959e+01 -2.250259829900650175e+02 -1.366010176587140279e+02 -8.933035211279798204e+01 -3.000301064778258819e+01 -1.221021825721559964e+02 5.904360378845402124e+01 6.654663690559225131e+01 -2.823569089156380230e+01 -1.021241427203471375e+02 1.158136698885633109e+02 1.210553115677048623e+02 4.732933215343273048e+01 1.789078193619652168e+01 2.677242984097463818e+02 4.473632129389267931e+01 -1.223602946259007922e+02 -4.616201796981108885e+01 -1.730275056764317867e+02 3.266048468392832405e+01 1.571311377044072231e+02 -1.520753364167696873e+02 1.350328604961960082e+02 -9.324955236588351681e+01 -1.938137451218499763e+01 -7.773555397397737821e-01 5.419958216295371045e+01 -1.189393163663030784e+01 -2.337431182370422533e+01 -1.937962658613979983e+01 -1.299372310454411377e+02 4.760941518867931421e+01 -3.113794879965633200e+01 -1.330785880463004034e+01 -1.099081199638032125e+01 2.317967135319943850e+02 1.787132768391117281e+02 2.386512667873890621e+02 1.352170715042035454e+02 -8.882047993828506094e+01 7.714410101431855082e+01 2.166850173539511459e+01 4.882457289089990127e+01 -4.075840249404754445e+01 2.620945337577705914e+02 -2.390986232401848000e+01 -1.403133535011602646e+02 -1.534725027301059797e+01 -4.703135678809151443e+01 -7.943796773031374414e+01 4.429647946108821088e+01 -1.202203617896442722e+01 1.867186037598749806e+02 9.484524152970308819e+01 4.196797500529008573e+01 1.006274515131824359e+02 9.702268995036195065e+01 -2.359940803284263211e+01 1.433530084733768888e+02 2.719968748743086095e+01 9.196835050161307379e+01 4.892925353166003077e+01 7.119341517453026569e+00 -1.188642725353423657e+02 -1.189383788445309733e+02 -9.243252361596725564e+01 -1.599024402202426209e+01 8.901145814315225380e+01 -3.147921188003571658e+01 1.015453777227173475e+02 4.498639991070279365e+01 -7.467835606042237373e+01 -3.076976783052312925e+01 -6.017047695549123887e+01 1.803578992021656546e+01 -4.757345270770312595e+01 -1.150571082277760411e+02 1.248002751032576043e+02 1.245995142588332101e+02 -8.107362292156894057e+01 5.591577526194734027e+00 -4.653121344451940899e+01 -3.348344341080524345e+01 -1.164713512402445694e+01 -3.206228270465384611e+01 4.564996922803828028e+01 -1.443029952837703433e+02 -5.425232377287263574e+01 -1.559346812735043954e+02 1.787503202051733240e+02 -2.076441704591667659e+01 6.049800195182766060e+01 1.224125728050709583e+01 1.481866851005042349e+02 4.580932073406982141e+01 3.666280195886803739e+01 1.583566074115680067e+02 -5.053735830469530299e+01 -1.001105268216171282e+02 2.786912100692653027e+01 -1.620507903039054440e+02 -5.475984756281430066e+01 1.048988342446599376e+02 -1.309216397679774104e+02 -3.728232300366567387e+01 9.359292833414323809e+01 -9.685806348753831685e+01 -9.174115027358459429e+01 -8.471621199716034312e+01 -6.541907287006958427e+01 2.552452089691407764e+02 2.031077082454498282e+02 1.055495525456324373e+02 -1.047201487814759702e+02 7.669748956316847455e+01 -6.776481881606498803e+01 -3.202993905822317799e+01 1.700761925947549713e+01 -3.298158664271925744e+01 -9.600028667617367262e+01 -2.801636504557370788e+00 1.514117822620311671e+01 1.113404976637823864e+02 -1.314907293494816543e+02 4.287278251214168279e+01 6.522863375861082602e+01 3.533647001340323612e+01 -9.267350605657037477e+01 -1.518620468947419511e+02 1.975408281596322695e+02 -1.821149681237716678e+01 2.574951748091574544e+01 1.599868584999293262e+02 2.725239272109957156e+01 2.834719318340649252e+01 -4.549892261356488632e+01 9.050329873223513744e+01 -1.392653932253871574e+02 -3.146354870184304886e+01 -6.265503578573712318e+00 -5.454128233906718748e+01 6.339625663174923709e+00 2.174302098015139606e+01 -3.653616784629984693e+01 1.395087174381603212e+01 2.181447752257628849e+02 -2.795615624687627587e+01 -2.854976499108749266e+01 -1.037444899348841147e+02 -1.684579892727359196e+00 -8.240126521749238009e+01 6.530756439550492232e+00 1.143465954851201332e+02 -5.308255376618766519e+01 6.170859796189809288e+00 -5.541688091070329136e+01 3.396924887398862669e+00 8.896098268583902779e+01 -1.181791831413777345e+02 -9.875250590831700492e+01 -1.046110014334851144e+02 7.281152792887934311e+01 8.828672395313986954e+01 -9.412766912577730238e+01 6.385600727673815413e+01 2.633067281340082744e+01 3.945569563494969856e+01 -1.810664566231313088e+01 9.315009062112714844e+01 8.130468736690870912e+01 -7.880268311777409451e+01 1.207937084792864724e+01 8.249174795320419662e+01 7.429629170877689148e+01 -2.027705893363977552e+01 2.547353420804077828e+01 -1.351971385608665628e+02 4.947095575562443059e+01 -3.341332522086931078e+01 -3.329429055793942638e+01 1.765829661552852485e+02 4.836744244034571949e+01 1.225713259716980446e+02 1.946911397390383627e+02 -1.403893295215979435e+02 1.519874931144527181e+02 -6.463704791305113417e+01 -1.377766534653689234e+02 8.393089890722886537e+01 -1.366990983257155392e+02 -2.926665319403783272e+01 5.752066976713883406e+01 8.239066716323105055e+00 -1.714019639192062812e+02 8.587624736944697190e+01 2.571071174383478564e+01 7.044642506576569474e+01 3.698706593193342940e+01 9.659560487118479699e+00 -6.842811581719075775e+01 1.179945843494337083e+02 5.555016422312412772e+01 -6.333694147715618783e+01 -1.032150228831234955e+02 3.970530050934975463e+01 2.617593846493796761e+01 8.399253640833700274e+01 1.873215101238761235e+02 -2.511562826704268048e+01 -1.122913542702844865e+02 -8.638274354521104215e+01 -5.231953555011501322e+01 -4.523981349186718859e+01 -1.495868681031996061e+02 -2.293970907591394237e+01 1.320076916284581614e+02 7.599127128685366017e+01 -1.247464020349686109e+02 -1.527520939317701902e+02 -6.942638832294483109e+01 -7.784497967257971140e+01 1.495966558589718716e+02 -1.737564990401869807e+02 8.820918419655018283e+01 -4.697071820173833068e+00 -4.385442269895791156e+01 1.356193938862664261e+01 9.293599207509765847e+01 5.055255991594479781e+01 1.408727421384737113e+02 -1.621992447195208626e+02 -8.253181446876027394e+01 2.582753137157845913e+01 4.274320992302209987e+01 2.101146485996732451e+02 1.482478196880604457e+02 6.678380482601710355e+01 7.349107738431008841e+01 -3.485508473420950537e+01 1.547459129957812536e+02 -1.827694754040892064e+02 -6.461419143771804841e+01 -5.471633897787923928e+01 -5.278724561606871646e+01 -1.052666216449313765e+02 -1.527101085012181336e+01 -6.995764403781140572e+01 7.254551469568924915e+01 -9.336974159123787587e+00 -5.921312291679428341e+01 -6.349192366097783236e+01 1.836355271994226257e+02 6.012064512901414304e+01 -1.396546251955719775e+01 2.128610600747195747e+02 -1.103907737807387406e+02 -3.600998162594210328e+01 6.823126578021224020e+01 -1.323523614159700657e-01 1.522421753662009181e+01 -1.274353848668773992e+02 1.795218025344074420e+02 -4.991888532239244824e+01 -2.745311135322899432e+01 -1.117647864313122881e+02 1.281983605235585912e+02 9.767228932447987688e+01 -7.896020336114450799e+01 -3.826101867313192173e+01 3.965618725024241087e+01 -1.541740961380669717e+02 -1.503492519565332031e-01 -7.606165790176814312e+01 7.844503205829106207e+00 -1.100755286858165789e+02 -1.613880224471962208e+02 -7.194436059240543102e+01 1.508100714743989386e+02 5.759062288798707385e+01 -9.119906252732761232e+01 9.075327318319877179e+01 3.484104016729327213e+01 8.984172826954929292e+01 -4.284544655768205246e+01 -8.554727067189134004e+01 1.739552421095546322e+02 4.237290190745807195e+01 2.944713335747469785e+01 -7.424357794090906282e+01 -4.302134138193309099e+01 9.716343937971302580e+00 -7.278752040130873624e+00 -1.756914900367002019e+02 -3.517450481655515659e+01 6.547613169357776997e+01 1.134374326852277193e+02 1.582318178403695015e+02 -1.348251604222159905e+01 9.105266642092149709e+01 1.602175260563071788e+02 6.442327723187095501e+01 1.500893537993734412e+02 1.631197940267323432e+01 1.333153522462636431e+02 -8.521614155144000335e+01 5.416726340193211797e+01 2.977652538076842248e+01 7.698048540339495105e+01 -1.077420679656543143e+02 2.008455678313710564e+02 -1.305985399968710396e+02 8.952356342513233756e+01 -1.089108019937400940e+02 4.676611501830046791e+01 1.398360767073744704e+01 9.191147862830990789e+01 -7.463894402051930399e+01 -7.648757574320589470e+01 -1.130793593475765135e+01 9.021566066204522372e+01 -2.995409796001014868e+01 -1.651125327839187662e+01 -1.987121737706199198e+01 4.794097854613111664e+00 9.928848922931685195e+01 -6.328460157384883900e+01 -2.745293968670818430e+00 -1.958060864258106903e+02 1.230825559047799231e+02 -1.259724089792290869e+02 -7.453111750123883894e+01 -2.374975687994944451e+01 -1.088715727942201426e+02 -5.362458864085488841e+01 -5.907761894033721717e+01 -1.984019110337883163e+01 1.374428397982250374e+02 5.452605400125254675e+01 1.012974389044186836e+02 -1.372651024246555664e+02 -1.397713169003206986e+02 -2.890072865102887363e+02 1.030260481130080024e+02 1.051674221568718934e+02 4.264308109766612631e+01 -4.278759345032662509e+01 -3.753541242191313643e+01 -1.852215244675069812e+02 1.473953460723278113e+02 -1.083492779491186582e+02 1.078866707223303223e+02 -1.606051177317839063e+02 -1.443333480479404329e+01 -5.585813305419471675e+01 -1.202909738576286145e+02 -4.649997796207664180e+01 -1.260274580304130865e+01 -9.347110578594208619e+01 -1.044095754835701939e+02 -1.246363238190316913e+01 7.183143981689066493e+01 -1.257377682214332140e+02 -1.580731005531158395e+01 -7.441495159133916104e+01 -1.325921605819176818e+02 6.727212572282774694e+00 9.603311237768181741e+01 1.670142108628045605e+02 -1.924629069188092956e+01 -4.647963472974898735e+01 -1.252907824498334293e+02 -1.651007401563214785e+02 1.047414105592019098e+02 -7.343062122569665462e+01 7.976607276192773099e+01 9.493458994242775617e+00 2.952925955697659788e+01 7.456223591188219757e+01 -8.555135860853968666e+01 8.347154233908699439e+01 1.164010822343073386e+02 1.589773324093239921e+02 -1.177325976686225033e+02 1.049715024253727478e+02 -4.823809977819914963e+01 -9.169787413234681139e+01 2.167001435939470184e+02 4.974420327515670692e+01 8.430037213959666076e+01 2.149525431318657098e+01 -6.382182447482138343e+01 -3.528645780249283348e+01 -2.124774276466995957e+02 1.066868247138191919e+02 8.232233189670850493e+01 -7.645852049158555985e+01 -7.388536631969220991e+01 1.466511956884766334e+02 1.020788472159471922e+02 5.162626958919290132e+01 7.684703290734427128e+01 -7.974840945711416218e+00 1.042331811406362476e+02 -1.045775642420439624e+02 1.882773999339915463e+02 -3.987962946261995967e+01 -1.232167032217383422e+02 -3.804626073538302933e+01 7.246773544130850553e+01 1.488269714628802660e+02 1.304955079828690856e+01 1.755751532488508815e+02 5.273229459248602780e+01 3.395513851246414561e+01 -1.124435304632198722e+02 4.526479124986251890e+01 -1.262998152875226907e+02 4.817533438288296566e+01 3.902907123122737687e+01 -1.245897451163985039e+02 -8.589555705296551480e+01 4.023867907993357562e+01 8.814359050553321140e+00 -2.347035299937787656e+01 4.227887709396829763e+01 -2.161549774663746248e+01 -6.373122307199530212e+01 -2.641550543559556985e+01 -2.268285717143882252e+01 -4.023256549391430070e+01 1.896905652066243064e+01 -8.130946737010791026e+01 1.201564028904908099e+02 -7.507922952802587702e+01 -4.325918306583860229e+00 6.618972330772623991e+01 3.937526338847769924e+00 1.610630638388649416e+01 1.611913605083135437e+01 -1.183214141185381436e+02 -4.463141038857367349e+00 6.571037179674543438e+01 -2.337760097139229742e+02 -8.570951679875054197e+01 -1.138614959208369157e+02 4.423133519663738866e+01 9.719233787403466351e+01 -9.267175134078776466e+01 -1.695764610673712411e+02 -1.870021619719634032e+02 2.017259073620425625e+01 -1.463793201309669598e+02 -6.381113385764228596e+00 1.490065345615481363e+02 -7.174931192263983348e+00 3.748223341913174522e+01 -9.977021005022162115e+01 8.048517975749609832e+01 -1.194476945458661845e+02 -1.551992695470592487e+01 -3.052186207459997291e+01 5.795342589223334784e+01 -8.936173715616920532e+00 1.063231573177833411e+02 -1.227591099990216179e+02 -5.035649738743865811e+01 8.700492764925695610e+01 6.647605738220212857e+01 -8.274157147077424668e+01 -5.464049745349461062e+01 -4.956505116672266098e+01 -2.905095855161486043e+02 1.942445661559771395e+02 7.637624847499581904e+01 -2.367805981607434873e+01 -2.975515045451916762e+01 4.164993820852007644e+01 -8.438324748128489716e+01 9.978424146721754084e+01 6.058839880691935065e+01 8.218114561794480721e+01 -8.425370665522484614e+01 -2.661204008065607596e+01 3.340207053695204564e+01 1.740742265306568015e+01 -4.287380132695276558e+01 1.580979692447368450e+02 -1.731269507225388438e+01 3.542144192155145532e+01 -2.300172527422811868e+02 -8.475344291778336014e+01 -7.321402600269156835e+01 2.303183927357564187e+01 1.092454919403276392e+02 -2.317861629199883566e+02 -1.871145129559977818e+02 2.217580165917415513e+02 -1.057352816344908852e+01 9.610684351666819225e+01 6.273781113626476014e+01 -5.538784022972392052e+01 -1.310463573857454662e+02 -9.519317095500872483e+01 -5.027883162932093342e+01 -3.744943768813750040e+01 -3.916817762042282425e+01 1.617594340322489543e+01 3.715855770025675753e+01 1.668673274918476181e+02 1.232372358237511065e+02 6.935832359605996089e+00 -4.387901106603735002e+00 -1.588407794297777968e+02 1.196845218085103824e+02 1.593686063425089969e+02 -1.034471931850289224e+02 7.375273164685270899e+01 1.767205399878439609e+00 5.491027405409683837e+01 1.254718683800760886e+02 7.096356386320054810e+01 -1.340684335010795678e+02 1.615166079220660578e+01 -2.939655672361029204e+01 1.114471957223889831e+01 -2.317518091016369297e+01 4.537866188402594503e+01 -2.607097507846778512e+02 1.813444110135565666e+02 7.317464121533858723e+00 1.595927834034462478e+02 -1.057169402394960045e+01 1.063284300041078723e+02 7.173912703653698486e+01 -4.207468760748145797e+01 2.995304429852787464e+01 -7.293302787456799763e+01 -8.915378577796947468e+01 -7.223576521850534959e+01 -3.212424495156513871e+01 4.529412415827837179e+01 1.104613602537926766e+02 2.857391459507788767e+01 6.227813487849343943e+01 -1.051283753456969379e+02 -1.375581735088211701e+02 -1.352675459757180221e+01 4.655389133186729822e+01 -4.566346116477139105e+01 9.486498979391099340e+01 5.571320256396172255e+01 -2.775018780573431343e+01 3.006038284192979759e+01 6.159751419024961194e+01 -7.238783560771310022e+01 -1.342380043413011776e+02 1.426462849592600719e+02 7.847205711166528985e+00 5.035564413116903637e+01 -1.499462875689381178e+02 -5.364827361738004186e+01 -4.643711656460525750e-01 -6.604374150319591763e+01 4.293013397459953140e+00 5.656962611688224740e+01 1.874136020342747599e+02 3.933594795941284161e+01 -1.102408015068002278e+01 7.260971952360127091e+01 -4.574703560602370800e+01 -1.096233736144531434e+02 -1.390362279856478551e+02 9.431917275347593943e+00 2.527249335834617838e+01 2.395118517145037984e+01 -5.725658580903480299e+01 1.216511834808245709e+02 -8.140045038079641415e+01 1.292381455103178212e+02 8.793070682390836623e+01 -6.552258779212839102e+01 -8.532940733291479773e+01 8.483798478915494456e+01 2.063587361939608655e+01 -5.290395182294550835e+01 -5.427914222444726278e+01 1.377929170613949736e+02 5.777730704410328855e+01 8.055366046599911556e+01 2.636864741624843944e+01 -4.244431734522233768e+01 1.084074523553003644e+02 -5.505069956809524712e+01 5.420295260856983210e-01 7.727199701993176006e+01 1.005089217741667085e+02 2.578780866247568611e+02 -1.768255743798873425e+02 1.625065047803238656e+02 -6.826235800711550894e+01 -1.537703603805918817e+01 -2.531258261980381263e+01 -2.094675567193680976e+01 -5.575106853419922714e+01 9.393089204568666162e+01 1.860875494389945572e+02 -1.201325679708977106e+02 3.128588458073812006e+01 -1.283919340503248350e+02 7.103314685334967749e+01 -4.504355999003522726e+01 -8.200388975373226685e+01 -5.457624729680360787e+01 4.171736805736136944e+01 1.965004480600382308e+01 -8.291336567558226989e+01 -1.430376796408102962e+02 2.106884575466101595e+01 1.599101148774634282e+02 1.449754827551116954e+01 1.852335282020316640e+02 7.579450832788030112e+00 1.367112088728625565e+02 -3.514529464833054107e+01 9.216839998012771673e+01 -7.260694657174038014e+01 -1.147739577526193528e+02 5.026374215448976202e+01 -5.900512503393565567e+01 -7.987358965566241409e+01 7.417967796385245549e+01 6.557649752215630734e+00 -9.599373386775526740e+01 -1.532903079506211554e+02 1.506326609957828850e+02 -9.084548910765694529e+01 -2.386334764784398210e+00 1.223850506963671165e+02 5.916376911614774059e+01 -1.001283023362260138e+02 1.083156911965800617e+01 2.877005839162106327e+02 5.440786341322696273e+01 -1.609801505453332879e+02 -4.870355068324706593e+01 -6.281984077859758742e+01 9.836666531592705098e+00 1.098561048621143357e+02 -1.056968025160481517e+02 2.203061539198144558e+01 1.333486760018301140e+02 1.919128755216384263e+01 -2.159337088638383761e+02 4.942239565347018271e+01 7.716603344565000100e+01 -1.387890922725929066e+01 3.353932400200879016e+01 1.391151087872126990e-01 2.300439599573089566e+01 2.836161018478675189e+01 1.184312077004324379e+02 1.002311444548442552e+02 1.589640736579224800e+01 1.524010056596671063e+02 -6.547201365087555303e+01 2.522436080893800465e+02 6.650352008328006548e+01 1.449167528774544849e+02 -2.247582150340040386e+01 9.211998521328865763e+01 -5.016028028020124196e+01 -1.497322328372718232e+02 2.679445323068636498e+01 9.726764877342444038e+01 -8.963347227597014921e+01 -1.071564590049091947e+02 -6.807541297501995814e+01 3.743719110129519834e+01 -1.168818466879801150e+02 7.646334795737831769e+01 2.872677055659989165e+01 -9.988023104147686126e+01 1.943620920608313725e+02 -1.203739171570815181e+01 -1.041147425635610233e+02 -1.369044833031306396e+01 -2.091121306434677862e+01 -1.435042029102791048e+02 -4.097197213200522015e+01 6.293773524479884429e+01 1.348492832031602120e+02 2.969498114774164677e+01 2.739360334397991181e+01 4.583720415677542093e+01 -3.659554015634306978e+01 -1.489968189009223067e+02 1.622151083530869897e+01 3.172229410543995343e+01 1.362117838585038214e+02 -1.017431819025777706e+01 -7.792988595017638431e+01 7.492831950755227410e+01 1.021922567916426772e+00 3.268736198168719653e+01 1.425628253248171688e+02 -1.817238902786661470e+02 -9.503635364268556884e+01 1.276666184994212330e+02 -2.145739116323598523e+02 -1.829159573440145152e+02 9.049496082742439285e+01 1.531628572651745230e+02 6.303753679429608070e+01 -4.423459057803355243e+00 1.549352053976676586e+02 -2.182967643937054163e+02 1.065770276036678013e+02 4.215203086842181790e+01 1.263912013361728128e+02 -1.875724641018849184e+02 1.059977018773136024e+02 -2.813208690801285172e+01 -1.329773377875871745e+02 -5.297794411728357744e+00 -9.190828164303758285e+01 -1.622720503837260608e+01 -4.259195310490058617e+00 -1.225253639432132076e+02 -1.226513619215397313e+02 -6.223831615730919253e+01 -1.282308872692124169e+02 1.999117682814007537e+02 -1.601514718870582499e+02 -4.989578092708408974e+01 1.716032662964346116e+02 3.374148176680384381e+01 -2.943817407085184072e+02 -1.263925846502067856e+02 3.533242035124464309e+01 5.434940905187148985e+01 8.558072290400600579e+00 -1.537950506942086122e+02 3.549448162088839354e+01 7.425497850576148196e+00 -7.392496020793107903e+01 2.016100908930171158e+02 2.015017898804909464e+02 4.306681185084360486e+00 -2.073966466944326612e+02 1.253088598312902207e+02 3.060592724680552479e+01 3.731293121882227837e+00 7.621593206989965097e+01 -2.063397524686286886e+02 -1.372895787721738827e+02 1.402800313737579927e+02 1.090457748512775993e+02 5.264646494438219548e+01 1.424526054949956517e+02 -1.772937729720176776e+02 -2.032126790855524234e+01 -1.297253095597474157e+02 4.334829001670262016e+01 -1.032982874689579518e+02 8.657079923803306087e+01 -3.369077166231383558e+01 1.231467972808523292e+01 1.764598611378860937e+02 2.833693044499678138e+01 -2.621307133757314887e+02 -1.256665181007553542e+02 -8.289998636603333182e+01 1.572413916817993140e+02 1.246606769108473678e+01 -5.351854744576458245e+01 3.021900024525973194e+01 6.217847466406842472e+01 -3.936755151140571485e+01 1.069264972377828684e+02 -1.001845593112339117e+02 4.894362596711012259e+01 1.113144871355763570e+02 -3.524845012340229999e+01 -9.758639104553782317e+01 -1.127926290892823289e+02 1.191027318807829545e+02 -4.938631275730133297e+01 1.954748137311576102e+02 5.689124015053956640e+01 1.103490285488720559e+02 1.833985708451450591e+02 8.514785917237110979e+00 -1.235941418853216760e+02 -1.648594619306756215e+02 -1.135659938387657064e+02 4.223891951683292945e+01
-1.323344703571470049e+01 -4.676125428654483329e+00 1.006072253290212899e+02 -2.224756153116046846e+02 1.509757337389399083e+02 6.170830031610842070e+01 1.477881037309675492e+02 -1.254626697571288645e+02 -2.704230628547623638e+00 -2.338773399723756796e+01 -2.132032488169538169e+02 3.180146932737153520e+01 -1.780143356389031695e+01 1.187963955189521812e+02 -1.214802535191403621e+02 5.994299681205821884e+01 1.217177723087454950e+02 -4.462782724799551204e+01 -4.823847554116242264e+01 -2.627439562133991302e+01 5.993555373891852156e+01 6.130639965900456190e+01 3.148719508998657091e+01 -2.258662394400823246e+02 -5.014330560428886230e+01 8.887412191770884817e+01 9.619618209876223958e+00 -1.005566690251349904e+01 -6.462679814838193693e+01 -1.501580313845490089e+01 7.123432386934180727e+01 -1.412340419000570932e+02 -6.013118792710276495e+01 8.735269412550147550e+00 2.015552149004294051e+02 2.059518719479940501e+02 -3.115342623128493926e+01 5.428114325116894889e+01 -2.672788111042816439e-01 -1.356496737217073303e+02 9.322518016013260933e+01 1.041590496631885259e+02 1.054003950859492704e+02 1.135610294014665023e+01 6.011752299864022575e+01 4.674135384616786837e+01 3.776762886515171402e+01 2.848417973104743695e+01 1.071163066758058449e+02 8.714087008798533418e+01 6.371582814418104590e+01 1.582900069170275970e+02 2.405573159875501688e+02 1.899453828198094811e+02 -5.742817746314548799e+01 4.784843928644134081e+01 -6.244161301078782600e+01 5.479315418310636687e+01 -1.866222763231477870e+02 5.487522102765221632e+01 -1.988822042470251006e+02 -1.638567850346015859e+02 1.257092118307669892e+01 -8.974196058173335544e+00 1.646620467180583773e+02 -2.019554455321953412e+02 7.311941425471387390e+01 2.232066548566706103e+02 -7.123876924801568755e+00 -1.891270731808462529e+02 3.456094117675901600e+01 1.915577820250890682e+02 -5.934930181467824895e+01 -2.588516144811166555e+02 -9.962707328196175638e+01 8.589802658146478365e+00 -2.235141617281950630e+02 3.111374190703043396e+01 -1.743491309954346491e+02 -1.803187046911953075e+02 -5.549491075010931240e+01 1.481725636600688460e+02 6.754604476272025693e+01 1.030781483882663174e+01 -8.614709994699849460e+01 -4.141603577555972038e+01 6.197707588530354883e+01 -2.256504431787976444e+02 5.260842010555886361e+01 -7.293542081962486634e+01 -7.595549206438631984e+01 -1.719387996286893099e+02 6.329714239821228716e+01 9.021222511091231411e+01 -1.578944360232098632e+02 1.680568318719753336e+02 -3.881357413110400500e+01 -1.645735485437633372e+01 8.519843513113163169e+01 1.520814391400722627e+02 2.110563627327775293e+01 1.473586810315798914e+02 -1.797267932425765480e+01 -8.826645430640783729e+01 -1.909067174912424392e+01 9.837027017612474822e+01 4.499560226848970501e+01 9.787951513564557615e+01 9.445171879293218353e+01 -8.310250751716903039e+01 -1.700130998171523800e+02 1.231316003838603308e+02 5.428875478201675975e+01 1.618124020759816872e+01 3.060010248247085229e+01 -6.797476455492238756e+01 9.611102702038206758e+01 8.991181007401759473e+01 -1.369000793928493920e+01 -7.130609058582325588e+01 3.079045930992067426e+01 6.281125198635020723e+00 -6.159410226899458962e+01 1.697333879498908971e+02 -3.299436197013817207e+01 1.217575403306249626e+02 -7.020456906449729217e+01 3.843940261450880058e+01 -3.616326371203631140e+01 8.959998330976168290e+01 2.352252780612996119e+01 1.157692661666456218e+02 -1.161998256819701396e+02 7.447980525000123464e+01 1.237229707746094221e+02 -4.480327785733009449e+01 7.607738096423807939e+00 -1.270578623843409538e+01 1.170332748002079768e+02 3.563698967219882441e+00 1.690698841864653161e+02 -1.417596083923813239e+02 1.169769194583819854e+02 -9.157849556804826818e+01 9.602292891430752775e+01 -1.374429034357898729e+02 2.960697628323546127e+01 2.481658445827684289e+01 1.820019905214959266e+00 3.642838357686827067e+01 4.606445077373207653e+01 -1.246704386530262276e+01 1.084810796179960235e+01 1.084636382407373674e+02 1.277131919283836226e+02 -8.698975368837473354e+01 -5.441779896516302273e+01 4.754248144279063837e+01 1.545104959852490634e+00 -1.374923775397630550e+02 -5.531329979463924928e+01 -3.560162044431788075e+01 4.912258144771330137e+01 -6.583903218090406995e+01 2.303045708501176492e+01 1.610939346003616777e+02 -7.984028462448432606e+01 8.118070171843562832e+01 8.450493735509601834e+01 1.128826646851576676e+01 1.240784648409969719e+02 6.322310536053366548e+01 1.689763888903658540e+02 -3.475143349109560376e+01 1.131236312751145618e+02 5.587856998670581277e+01 -1.617586424890651742e+01 2.054223942842234578e+02 -1.397128326274379333e+02 4.920848735126039486e+01 -1.888648666361186770e+02 -8.477703644006454908e+01 4.132157625251539912e+01 -7.274047493275961074e+01 -1.570171810335735358e+02 2.008575744285985536e+02 -8.645308277096798122e+01 -4.786845552077183186e+01 -4.665333095201329883e+01 1.227360554924786982e+02 1.963794551048158326e+02 6.529079470697502074e+01 1.474695473817832010e+02 2.212968279229314987e+02 -1.638207963104354681e+00 1.642908238866799877e+02 7.149340422544553064e+01 1.920207184125595461e+02 -1.268540655453467707e+02 -1.197054602448584326e+01 6.392219253285710501e+00 1.915846736338861831e+02 -9.167855131796933676e+01 -6.098994657965467781e+01 -5.340599881385225700e+01 -1.351127187073859943e+02 4.703943096166626425e+00 -1.018074158504343387e+02 1.554349216777727349e+02 2.377256985267145595e+01 1.211336118068582657e+01 7.293231665670418806e+01 -4.979067564701735726e+00 1.179610230459692133e+02 -1.602174411151374613e+02 4.579672203316572165e+01 -1.723243704349178245e+02 1.184385908713793327e+02 9.685582503570610413e+01 -6.789627109810031413e+01 4.716914445235728692e+01 2.401942333163970602e+02 -3.071840488900609145e+01 4.201959651580729371e+01 -3.295473620291314631e+01 5.843707841746977039e+01 6.484172295772542327e+01 -6.326054481279608233e+00 1.028015953907504212e+02 1.023826842777425128e+02 -1.955329437352628759e+02 -1.545502139538641870e+02 -1.208340517779746648e+02 -9.533119142933786705e+00 -1.510642612901295934e+02 1.165250230950945820e+02 1.112870537941047928e+02 5.947022330796030332e+01 1.125476588952097146e+01 1.590108338237315309e+02 8.466473929465321646e+01 6.805857228217054455e+01 -1.024849384603660383e+02 1.536103643447147533e+02 -3.606801974119327792e+00 1.102292973235409903e+02 8.888324394069416101e+00 3.704611808008364449e+01 -7.632336448631897952e+01 -9.148776956976514896e+01 7.215719190407898509e+01 -3.865149312979464291e+00 1.474096763857333769e+02 -1.267328974986444123e+01 -2.879028804863066782e+00 4.620871880332543213e+01 2.281577546466867901e+01 1.424861889898427592e+02 1.474552823884655517e+01 3.610629415518361185e+01 -1.558385359570352762e+02 6.632340798107442481e+01 1.346086551869504433e+02 -1.779239456893906279e+01 -2.295549965215455472e+02 8.495984523953282519e+01 1.369301222182883748e+02 2.042469752929337545e+01 1.898872000500949753e+02 -4.179641762342991562e+00 4.306995849770933660e+01 -4.374625814615725972e+01 -1.391063981583722295e+02 5.615407607480070595e+01 -4.759250951435327437e+01 -8.124598404594480883e+01 4.130038462409981292e+01 -1.851399050193741971e+02 7.183913087047847057e+01 1.646220161988311190e+02 -1.013555782685564850e+02 1.731491294155281082e+02 -9.774760901286353487e+01 -5.988536451277792771e+00 -1.052582690975643409e+01 7.663794459166076933e+01 -4.658854502744183890e+01 -1.078116609860093149e+02 -8.852590088736759810e+01 1.457141779662274814e+02 5.906834598033642436e+01 -1.316353913434666367e+02 4.435846349812685219e+00 4.338822544572219897e+01 8.246112245475188729e+01 -4.027684798175822323e+01 5.989437334222051845e+01 -6.885766508109276174e+01 -1.620787749758657412e+02 -3.457106870550503430e+01 1.407049476254006208e+02 -1.131375629735204882e+02 -6.404491851214578979e+00 -1.625564112197709505e+02 -4.769675073837087886e+00 -1.455289895374160096e+02 3.281789416058101239e+01 5.999909574147158509e+01 -5.019587621451276505e+01 -8.216489537255006326e+01 5.615321848719571740e+00 7.417039273327988269e+01 -6.756057470794914366e+01 1.342706315849792418e+02 1.051586480549375580e+02 -1.272014894967943519e+02 -1.050732297823488040e+02 1.345776370069953600e+02 7.106396388824515498e+01 1.495913818228071364e+02 9.977852265992957825e+01 8.082020006299518400e+01 -5.999506375549854909e+01 -8.139664329658153008e+01 -7.670339011854248668e+01 2.034893020956345140e+02 3.038258878595919654e+01 -2.476868243831027172e+01 -6.816146516881288164e+01 -4.972896371195003695e+01 -1.304466602040680243e+02 -1.639914057135175440e+01 -1.737958420115556919e+02 1.238576917368754806e+02 4.558103837722732266e+01 -1.141482848574711966e+02 -4.792707434980673042e+01 1.186080178482420848e+02 -9.604844509656292928e+01 1.018412316576399093e+02 -1.173178537180915129e+02 -1.165353140989388336e+01 -9.458108602059891723e+01 8.884371135881218606e+01 -4.206830506161594485e+01 1.022283625150233988e+01 2.904192285843876320e+01 -1.254084362325470181e+02 1.237845134131700320e+01 4.785616327013575244e+01 -2.217810712715256471e+01 -6.805794496423364137e+01 2.004807985221083300e+02 8.557580403277434300e+01 4.665348517248089166e+01 -3.109990592324756875e+01 7.941802503788503032e+01 1.658857032915254308e+02 -9.133533695997223845e+01 2.073040948593645112e+02 -1.317309422301249242e+02 -1.820329672375436303e+02 1.502789505665272998e+02 -2.315343729759597409e+02 -9.794562605631340624e-01 -2.423835279031731318e+02 -1.513324000596886094e+02 7.101214910013955262e+01 -1.441221695197671977e+02 5.777505673122045948e+01 1.087549626212019689e+02 -1.587047562085483037e+02 -2.981939031645699245e+01 7.461783267489845173e+01 1.325320499201965276e+02 -1.841490492069910374e+02 8.655218430970896293e+01 -9.693262479320128477e+01 -9.769981886972496810e+00 -1.373921727447802255e+01 -7.875043674623066181e+01 -8.936904606493725112e+01 1.794729834729133415e+02 -2.145309046216108229e+01 1.320004633934397598e+00 1.288822487130454135e+02 -8.580032306517874474e+01 -3.407705709231270674e+01 -1.065823170318205655e+02 -4.835939733101243831e+01 5.127874022385369379e+00 5.881912243751814628e+01 -1.338734802672340720e+02 2.351772460999506791e+02 -5.347206159422901806e+01 1.217336297004012238e+02 -4.846857445732415215e+01 1.189447772090728250e+02 1.381365607623002631e+02 4.767566798060972388e+01 1.213020234936867041e+02 -4.294741688859451756e+01 1.390828420910548857e+02 -1.554787879974737166e+02 -6.499383167327479782e+01 -6.259339282722285702e+01 2.538337249034087861e+01 -1.613483790619755212e+02 7.212829342411168909e+01 -3.065869044399523347e+01 -8.216551536614366569e+01 8.909204085825767550e+01 -1.502388294499397716e+02 -9.069479843106722683e+01 -5.230893321782544803e+01 3.289481407043596306e+01 1.290878519676496126e+02 1.162082738180007908e+02 6.873753360837891080e+01 -1.594575087498349530e+00 1.738747248545622881e+02 1.218325415471019966e+02 -9.390411120910268039e+01 -7.770977707702262194e+01 5.506877015068931058e+01 9.925317778935630386e+00 9.741787680345805711e+01 1.657195007696895175e+02 7.017753731978763199e+01 2.425276530988466206e+01 -1.015985628083395795e+02 1.707972836495141848e+02 -1.130065034241158202e+02 -1.642890458434925733e+02 6.532085471700057155e+01 1.107995993568616626e+02 1.950953625393518465e+01 -1.379729428725432570e+02 2.954511848514015782e+01 4.215397628509748529e+01 -3.188835963274712082e-01 1.300585681252192387e+02 9.696022495420386633e+01 1.699118067390591236e+01 7.781053386200450461e+01 -1.062780785779804660e+02 -6.270858107573859641e+00 9.763996321805237244e+01 2.947453277863528598e+01 -6.457036170482707860e+01 1.966033429338099836e+02 2.294193713619541484e+02 -1.245949809867773581e+02 -2.740283261397228642e+01 -2.086305163783979992e+02 -7.163476977602890372e+01 1.554157912994043613e+02 3.377130207820093766e+00 -7.043568705306827837e+01 1.625172668501958810e+02 -6.202157544707606007e+01 -1.593271677082842928e+02 1.354609083034662262e+02 -6.667662789244599253e+01 3.418315651173705305e+01 8.565117013046251770e+01 1.366669502370595168e+01 -2.362530561844659189e+02 4.193914417472224443e+01 -6.083894086574241911e+00 8.932750350775482673e+01 -2.336334384703787848e+01 1.003005751792951941e+02 1.682560044958030332e+01 -8.403271684993042356e+01 -2.030196936905398530e+01 -1.737261297187942546e+02 1.140074054546557107e+02 2.505444190171641594e+01 -4.127086338665630194e+01 -5.136644087432149774e+01 -6.233496805721345169e+01 4.074969975200216510e+01 1.593033387010122226e+02 1.315569481948224393e+02 4.269629948625451732e+01 -1.961509649603746652e+02 -3.845773903095079049e+01 4.343334990259185702e+01 1.163274497244228058e+02 8.647106167838840918e+01 1.532009222938881088e+01 -1.844296534788973361e+02 1.305753567681844061e+02 -2.218237188279623524e+02 -2.040321508851417605e+02 -1.830539013562752837e+00 -7.313857436465166018e+01 -2.387610227876918145e+01 8.637747028616772127e+01 5.543912752496519403e+01 -1.102495118335712618e+02 -1.501405622891538201e+02 1.446798963465324661e+01 1.226237752751862615e+02 2.052416002607186130e+01 -5.622063386192028389e+01 -5.117228433733951931e+01 -1.166996063286189056e+01 1.599818201288252340e+02 2.218206776596386831e+01 -1.752614381888926971e+02 1.294675054631877913e+02 -6.741450665931517960e+01 -4.214565246465904913e+00 1.554154230853156378e+02 -5.278963365033323640e+01 -1.976310516880357682e+01 -1.108653227646046417e+02 -6.064386399967509611e+00 -2.407900670087284922e+01 1.329292437606576982e+02 1.212046883744901891e+02 6.820672880123871096e+01 6.602106588339013626e+01 -1.888599547990765259e+01 1.364703997845437868e+02 -1.137925373147667756e+02 -4.302587374127299746e+00 -9.189593769428549308e+01 1.585943087692357096e+02 7.361960452748002126e+01 5.217397554594831632e+01 8.354368797123751023e+00 -5.377192211059197291e+01 3.470103014355569115e+01 6.813107576265609033e+00 3.635106388388343213e+00 2.433936265547721689e+01 6.032542337904369845e+01 1.718148552495599688e+02 -3.918357361367569069e+01 -5.246507380184743852e+01 6.739450372374896858e+01 1.167286595462472860e+02 -1.292558987469186782e+01 9.276005211074475199e+01 1.049766128033833752e+02 2.126615730965166051e+02 -8.733018244288160759e+01 -1.237999277623644474e+02 -2.889437586480575604e+01 6.269752548801808700e+01 -1.023745634358270529e+01 1.083733968888116266e+02 3.756372428994338719e+01 -1.640633133245930253e+02 4.545631492174786104e+01 -9.024025747902263106e+01 -1.364720196339828533e+02 1.356578334234810939e+02 -7.667107906964170638e+01 5.964432833530104716e+01 1.121376196580408475e+02 -9.985585682331685575e+01 2.366707140971655221e+01 -7.273634476860424058e+01 4.058527988261013064e+01 -1.155000399627780467e+02 6.205498658629646513e+01 5.509204337451497935e+01 3.952237799001715235e+00 8.471115846044288844e+01 -1.540897979735135266e+02 7.695132690315121238e+01 -2.946848769716362071e+01 -1.689810146343879182e+02 9.449788827208202235e+01 2.452626352947164889e+01 -1.962095422210061031e+02 2.352985920814463441e+02 -5.310337152724752263e-01 1.051961525546403067e+02 -1.206280190979643550e+02 -1.942458820154384966e+02 -9.333693540295180924e+01 2.476266852527295281e+00 1.429355923758527638e+02 4.009674364843819561e+00 -9.558897624631399026e+01 5.041953092675282733e+01 1.370763330641387938e+02 6.500201818692789857e+01 -5.175856553673845184e+01 -5.915285038441485455e+01 8.452718715870074107e+01 3.075978686642258353e+01 -1.955895316361840059e+02 -2.073840732888948324e+01 1.690755141887943296e+02 9.885659457943307871e+01 -5.733293226197437065e+01 -1.118293177037872539e+02 -4.269105671376221522e+01 -4.809130207296646375e+01 -1.144776762377544372e+02 -1.848981979246601171e+01 -4.567377787519845356e+01 -1.136404389682885210e+02 -1.319099270460381490e+02 -2.693254805588248146e+01 -1.256883606766711523e+02 -1.338102360642308497e+02 -3.833995943606380763e+01 -5.536589741432057110e+01 -1.110217405408991880e+02 1.929223042417385443e+02 1.091412189322030457e+01 -2.915873605945035152e+01 -1.762894987125238444e+01 8.152912393169697225e+01 1.620598112590610640e+01 2.595926908252567955e+01 -2.206546403051665806e+01 -4.791083756816350814e+01 2.168190205884135935e+01 -1.506506381936320054e+02 -1.649912250176643624e+02 -9.372721093733296982e+01 -1.977888256687918442e+02 -9.288643982155777223e+01 8.893120500605554923e+01 6.361517846943875298e+01 -2.701220153923047818e+01 6.298139433443662938e+01 -1.622487461375082205e+02 -4.230137847120998629e+01 -1.203517513422860219e+02 -6.918302805980762571e+01 2.186092338394561239e+02 -2.127570890595707169e+02 2.127377884987592722e+02 2.590930672765139064e+01 -5.853330293635030301e+01 9.561196570585509846e+01 1.286008600803982347e+02 -5.377993804178154136e+01 -2.111395873356858317e+02 -1.545264561559234551e+02 1.059884305787676340e+02 8.681141560885592412e+01 -1.405235183469962692e+02 3.312455424361179013e+01 -4.110578428030878229e+01 -8.021774332449133738e+01 -2.945859264467306815e+01 -5.682705427684969379e+01 -8.959114805038944951e+01 -3.527274385575649518e+01 4.635722612176220281e+00 -3.390402894324025596e+01 -4.132583438073333948e-01 -1.488718593991992023e+01 9.533332209095631526e+01 1.317059212914118405e+02 1.364964660403240870e+01 1.739882226974286539e+01 -6.540160088824271156e+01 -2.031553804529606850e+02 3.508734959210027426e+01 -9.507860055367432039e+01 2.676760530828641649e+01 -8.486221219288140105e+00 1.050367792756313312e+00 7.489234474259372121e+01 1.263156848722571937e+02 -7.302484283719847724e+01 3.938247591241201917e+01 -1.998546622975848095e+02 1.001901855660114649e+01 7.261701212244869197e+00 -1.270085755723468566e+02 -3.495746834012075510e+01 -4.594105604119094011e+01 4.947056107994058038e+00 -1.059771796523734508e+02 2.804191868360022966e+01 -1.012083727117028928e+02 5.816812439694442105e+01 7.031306733467042136e+01 3.822025470527913171e+01 -3.007472728673326756e+01 1.113525207134759825e+02 6.328311666458699847e+01 8.289462018090388540e+01 -6.941564910781357867e+01 2.103771316945757519e+01 1.325124882139168108e+02 -6.057703824597131614e+01 -7.161220014968701086e+00 3.314343378193287748e+01 -1.330086881383597870e+02 1.013302265919058982e+02 9.277862398343415862e+01 -1.047396132313704129e+02 -8.528948846965724329e+01 -5.749347273553600957e+01 -4.716746770596515148e+01 -1.659585635425942201e+02 -1.407361840197229981e+02 -1.371446999344701680e+02 1.093812027776101132e+02 6.186643833463259767e+01 1.651012083643253732e+02 7.446059324271540270e+00 -8.874016956852997851e+01 1.937877255818969502e+01 1.431332886033785456e+01 -6.570065478275454041e+01 7.660452367388108996e+01 1.221253506785003680e+02 1.034021360017055713e+01 1.483317554461687564e+02 2.328425067290086758e+01 1.147479566378336102e+02 1.561449544734355932e+01 -2.148361417174293706e+02 2.257764916570938567e+02 -5.059222250672205234e+01 -1.541621387069616844e+02 -6.945219824835176325e+01 -4.437222978014366248e+01 4.254255904013165690e+01 2.631706501535494525e+01 4.702549861559807454e+01 -7.619008135044251162e+01 1.257601601848764972e+02 -8.862544233107878711e+01 -7.200842684411846051e+00 1.463058425567581651e+02 1.125571974600046019e+02 5.952393077066471250e+01 -1.816406392285209677e+02 2.608946194530416918e+01 1.440013732817663197e+02 2.402888962330228750e+01 1.000076275519086977e+02 1.090313691263987721e+02 -2.164701406137020570e+02 7.874473162116700564e+01 -5.910523007044052690e+01 -2.300832992641822727e+02 9.048169453518661953e+01 2.511155552149913106e+01 -1.241285676026776486e+02 -5.949045319996446324e+01 1.408249099279028655e+02 1.494538148110881934e+02 -7.670582014560902451e+01 -1.291557504291619978e+02 -8.424047009457706281e+01 -1.672853489697160967e+02 1.970960389213309227e+01 3.817398057067851624e+01 -1.703847352857474107e+01 -1.243541145331794162e+01 -8.984180657635715761e+01 -8.864134102025926154e+01 -2.469680867694395587e+01 1.338056991798181343e+02 1.360095474734367542e+02 8.092134397770045950e+01 9.675018534369594647e+01 -7.826003370904044232e+01 -1.795987111581729891e+02 -1.315750441606537358e+01 -2.301680925086364127e+01 -7.048668902967526151e+01 1.488718462048390867e+00 7.253044440892267630e+01 -5.253298002317400517e+01 2.445129702475772149e+01 7.858656331035332698e+01 6.957122402773289593e+01 1.096929089978920331e+02 -1.480664087999161609e+02 3.934524900562473704e+01 8.268647008902529194e+01 9.404739127654005415e+01 5.863019062424685046e+01 -1.024641982825562252e+02 1.359097099416602248e+02 1.264994211525491039e+02 9.511404344039864611e+01 1.007669504514805965e+02 -8.359443360511545507e+01 -1.476249137683677226e+01 -1.282719436068206065e+01 7.648390866581334535e+01 6.447889559753060951e+01 5.554219429131769203e+01 9.685403282704534433e+01 1.155976064654406059e+02 1.229396240161309208e+02 -6.442529331884078658e+01 7.998825055917031079e+01 6.475913210740546333e+01 -1.167744856423086190e+02 1.306163613748066723e+02 -9.965886520385565106e+00 -2.771153719967946572e+01 1.978275278451835959e+02 8.783637361399750887e+01 1.232272663547242502e+02 -1.433428788194261472e+02 -1.567248496418324635e+02 -1.527493059308585259e+02 -1.213959617518051175e+02 -4.400914291044086468e+01 1.091597500412750037e+02 -1.676725460123084872e+02 3.235017343239639587e+01 1.435719358000821444e+02 -5.903129223198789077e+01 -9.089365903337136388e+01 -3.494115933974232746e+01 1.352554669269991905e+02 2.262932560591882236e+02 -6.635414287346364404e+01 1.973170483046306600e+01 -2.758970201576673986e+01 6.822583913913506137e+01 6.004032299321811195e+01 -2.124717854355399993e+02 -8.835926307437135563e+01 1.371229889165358315e+02 1.393601183721061432e+02 9.425007066904015574e+01 -4.965803890733453585e+01 -7.559828366936903876e+01 -4.529101815147228649e+01 -1.760676956718296822e+02 7.098513474211974028e+01 -2.561162051115724836e+01 1.660027594606245032e+02 -2.786311936726330529e+01 -3.138920509952380939e+02 1.445890421251183398e+02 5.020842686082972506e+01 -1.177519913983313558e+02 -2.210154438379903752e+01 3.525377608004352226e+01 -2.073289576042337785e+02 -1.141071379177561056e+02 -1.094273152556414317e+02 -5.635889318338445264e+01 6.272346971396132886e+01 -1.646006029593137612e+02 1.078000990312984158e+02 -5.424974640171324580e+01 2.905003327659170242e+00 -1.332701630275839193e+02 -1.034844959019243475e+02 1.756865130019245953e+02 8.658244954303712859e+01 -4.220013235119488115e+01 3.714959653057635336e+01 -2.804034199769630931e+01 4.319919608029788094e+01 -1.045575396196936140e+02 9.878713866364623186e+01 5.049064013142326246e+01 -1.188632286744980604e+02 1.167207364940668839e+02 -4.912964606817480018e+01 9.989369795800209317e+01 -4.940353304278313118e+01 8.838239331943228194e+01 -1.534093993198989665e+02 1.427039827309470752e+02 2.477527487456368860e+01 1.006586122299798944e+02 1.304439673286387631e+02 -1.466926273407229928e+02 -8.592871280777862353e+01 -1.056755954166705891e+02 6.691322011256097824e+01 -1.714423968196539079e+02 1.515743881851110473e+02 1.424964836908399661e+02 5.302478376531698245e+01 -8.496372811884511123e+01 5.710234034308227535e+01 -1.073931597461410092e+02 -1.096632395623566758e+01 3.502298762586146808e+01 -1.839342378171932353e+02 -8.168481530897331311e+01 -1.355089471962508973e+01 1.023386754071164120e+02 -5.027158847842246558e+01 1.088503249626388083e+02 -6.443435777096043182e+01 -2.111404156479395056e+02 -1.072704831787857529e+02 -3.413677084891797620e+01 -6.029789670076311836e+01 3.015595595769638493e+01 5.147374515536320416e+01 6.363728126763556148e+00 2.535596619500952542e+01 -1.175507801783187176e+02 5.395203536622802432e+01 3.270372411283730685e+01 -7.236191208877337999e+01 9.281814155044660453e+00 5.646009189643528003e+01 -9.566621802731108914e+01 -5.522370551483799517e+01 -2.420748020093898845e+01 9.788000142217919120e+01 -1.717910200724156411e+01 4.205692525206026211e+00 -2.287545702124332365e+02 -9.534071264612245500e+01 9.924492810901027440e+01 -8.952766012951542507e+01 3.144449855159755458e+01 3.117044131931016793e+01 3.807009497435310408e+01 6.631210003068314052e+01 -1.780745006779576727e+02 1.444741329636219120e+02 8.176141171944824748e+01 -7.540638665676437924e+00 -8.110017849952552638e+01 1.123324038415001382e+02 6.232397277721321416e+01 -2.018357017780706713e+02 -5.057635278516375621e+01 -8.199442298121282136e+01 -5.204222563173869531e+01 -6.217993341699890664e+01 -9.944115082025875552e+01 -6.060617587583008259e+01 1.922324289396652830e+02 -1.714573763418864587e+02 6.574343422755646316e+01 2.785131155908293010e+01 -7.547447380482770996e+01 1.042269878393866378e+01 -3.957221115247984500e+01 3.440332667134371469e+00 -9.651734584970691344e+01 -1.983535900625000465e+02 1.846821839850934666e+01 4.208695510960926356e+01 -1.285215019179299745e+01 -9.063265113608487411e+00 -3.994640161712332116e+01 -1.907278191180132865e+02 -3.078095360753613718e+01 -6.564413313074578582e+01 1.403021894611148568e+01 -1.567615380434581240e+01 9.093422499919039126e+01 -6.330518925566570942e+01 -1.041508399194423191e+02 -3.590358117843568664e+01 -9.056331748229553114e+00 4.571145626820047170e+01 -2.224186388644521628e+01 -7.405922945372793720e+01 -1.594330752872289914e+01 2.015830185763122984e+01 4.771697600017191832e+01 -1.145338169650829059e+02 -1.396708696335131208e+02 2.314032979344991361e+02 -2.192881588601401575e+02 -7.631065210765287077e+01 -4.656431442944308685e+01 1.405248827267811293e+02 6.358348842454999783e+01 2.299550673018673876e+02 2.459218224484197322e+02 -6.263297459570735271e+01 1.301009365904950243e+02 -5.622005533236284691e+01 -4.100772190139796436e+01 -1.011417479509526629e+02 -8.023365458713566056e+01 -6.991485594313347463e+01 -8.942861986343559977e+01 -2.449699787139111038e+02 -2.722084192353752314e+02 1.353632140589843686e+02 -2.665871011395210743e+01 5.352781396221033106e+01 1.315112368566221619e+02
