# 
#                 ----------------------------------------------------
#                 Data from a 3D direct N-body simulation. 
# 
#                 rows are i-particle; 
#                 coumns are :mass, tag, x ,y, z, vx, vy, vz, ax, ay, az
# 
#                 NTHU, Computational Physics Lab
# 
#                 ----------------------------------------------------
#                 Time = 2.399999999999993
1.000000000000000000e+00 2.000000000000000000e+00 3.000000000000000000e+00 4.000000000000000000e+00 5.000000000000000000e+00 6.000000000000000000e+00 7.000000000000000000e+00 8.000000000000000000e+00 9.000000000000000000e+00 1.000000000000000000e+01 1.100000000000000000e+01 1.200000000000000000e+01 1.300000000000000000e+01 1.400000000000000000e+01 1.500000000000000000e+01 1.600000000000000000e+01 1.700000000000000000e+01 1.800000000000000000e+01 1.900000000000000000e+01 2.000000000000000000e+01 2.100000000000000000e+01 2.200000000000000000e+01 2.300000000000000000e+01 2.400000000000000000e+01 2.500000000000000000e+01 2.600000000000000000e+01 2.700000000000000000e+01 2.800000000000000000e+01 2.900000000000000000e+01 3.000000000000000000e+01 3.100000000000000000e+01 3.200000000000000000e+01 3.300000000000000000e+01 3.400000000000000000e+01 3.500000000000000000e+01 3.600000000000000000e+01 3.700000000000000000e+01 3.800000000000000000e+01 3.900000000000000000e+01 4.000000000000000000e+01 4.100000000000000000e+01 4.200000000000000000e+01 4.300000000000000000e+01 4.400000000000000000e+01 4.500000000000000000e+01 4.600000000000000000e+01 4.700000000000000000e+01 4.800000000000000000e+01 4.900000000000000000e+01 5.000000000000000000e+01 5.100000000000000000e+01 5.200000000000000000e+01 5.300000000000000000e+01 5.400000000000000000e+01 5.500000000000000000e+01 5.600000000000000000e+01 5.700000000000000000e+01 5.800000000000000000e+01 5.900000000000000000e+01 6.000000000000000000e+01 6.100000000000000000e+01 6.200000000000000000e+01 6.300000000000000000e+01 6.400000000000000000e+01 6.500000000000000000e+01 6.600000000000000000e+01 6.700000000000000000e+01 6.800000000000000000e+01 6.900000000000000000e+01 7.000000000000000000e+01 7.100000000000000000e+01 7.200000000000000000e+01 7.300000000000000000e+01 7.400000000000000000e+01 7.500000000000000000e+01 7.600000000000000000e+01 7.700000000000000000e+01 7.800000000000000000e+01 7.900000000000000000e+01 8.000000000000000000e+01 8.100000000000000000e+01 8.200000000000000000e+01 8.300000000000000000e+01 8.400000000000000000e+01 8.500000000000000000e+01 8.600000000000000000e+01 8.700000000000000000e+01 8.800000000000000000e+01 8.900000000000000000e+01 9.000000000000000000e+01 9.100000000000000000e+01 9.200000000000000000e+01 9.300000000000000000e+01 9.400000000000000000e+01 9.500000000000000000e+01 9.600000000000000000e+01 9.700000000000000000e+01 9.800000000000000000e+01 9.900000000000000000e+01 1.000000000000000000e+02 1.010000000000000000e+02 1.020000000000000000e+02 1.030000000000000000e+02 1.040000000000000000e+02 1.050000000000000000e+02 1.060000000000000000e+02 1.070000000000000000e+02 1.080000000000000000e+02 1.090000000000000000e+02 1.100000000000000000e+02 1.110000000000000000e+02 1.120000000000000000e+02 1.130000000000000000e+02 1.140000000000000000e+02 1.150000000000000000e+02 1.160000000000000000e+02 1.170000000000000000e+02 1.180000000000000000e+02 1.190000000000000000e+02 1.200000000000000000e+02 1.210000000000000000e+02 1.220000000000000000e+02 1.230000000000000000e+02 1.240000000000000000e+02 1.250000000000000000e+02 1.260000000000000000e+02 1.270000000000000000e+02 1.280000000000000000e+02 1.290000000000000000e+02 1.300000000000000000e+02 1.310000000000000000e+02 1.320000000000000000e+02 1.330000000000000000e+02 1.340000000000000000e+02 1.350000000000000000e+02 1.360000000000000000e+02 1.370000000000000000e+02 1.380000000000000000e+02 1.390000000000000000e+02 1.400000000000000000e+02 1.410000000000000000e+02 1.420000000000000000e+02 1.430000000000000000e+02 1.440000000000000000e+02 1.450000000000000000e+02 1.460000000000000000e+02 1.470000000000000000e+02 1.480000000000000000e+02 1.490000000000000000e+02 1.500000000000000000e+02 1.510000000000000000e+02 1.520000000000000000e+02 1.530000000000000000e+02 1.540000000000000000e+02 1.550000000000000000e+02 1.560000000000000000e+02 1.570000000000000000e+02 1.580000000000000000e+02 1.590000000000000000e+02 1.600000000000000000e+02 1.610000000000000000e+02 1.620000000000000000e+02 1.630000000000000000e+02 1.640000000000000000e+02 1.650000000000000000e+02 1.660000000000000000e+02 1.670000000000000000e+02 1.680000000000000000e+02 1.690000000000000000e+02 1.700000000000000000e+02 1.710000000000000000e+02 1.720000000000000000e+02 1.730000000000000000e+02 1.740000000000000000e+02 1.750000000000000000e+02 1.760000000000000000e+02 1.770000000000000000e+02 1.780000000000000000e+02 1.790000000000000000e+02 1.800000000000000000e+02 1.810000000000000000e+02 1.820000000000000000e+02 1.830000000000000000e+02 1.840000000000000000e+02 1.850000000000000000e+02 1.860000000000000000e+02 1.870000000000000000e+02 1.880000000000000000e+02 1.890000000000000000e+02 1.900000000000000000e+02 1.910000000000000000e+02 1.920000000000000000e+02 1.930000000000000000e+02 1.940000000000000000e+02 1.950000000000000000e+02 1.960000000000000000e+02 1.970000000000000000e+02 1.980000000000000000e+02 1.990000000000000000e+02 2.000000000000000000e+02 2.010000000000000000e+02 2.020000000000000000e+02 2.030000000000000000e+02 2.040000000000000000e+02 2.050000000000000000e+02 2.060000000000000000e+02 2.070000000000000000e+02 2.080000000000000000e+02 2.090000000000000000e+02 2.100000000000000000e+02 2.110000000000000000e+02 2.120000000000000000e+02 2.130000000000000000e+02 2.140000000000000000e+02 2.150000000000000000e+02 2.160000000000000000e+02 2.170000000000000000e+02 2.180000000000000000e+02 2.190000000000000000e+02 2.200000000000000000e+02 2.210000000000000000e+02 2.220000000000000000e+02 2.230000000000000000e+02 2.240000000000000000e+02 2.250000000000000000e+02 2.260000000000000000e+02 2.270000000000000000e+02 2.280000000000000000e+02 2.290000000000000000e+02 2.300000000000000000e+02 2.310000000000000000e+02 2.320000000000000000e+02 2.330000000000000000e+02 2.340000000000000000e+02 2.350000000000000000e+02 2.360000000000000000e+02 2.370000000000000000e+02 2.380000000000000000e+02 2.390000000000000000e+02 2.400000000000000000e+02 2.410000000000000000e+02 2.420000000000000000e+02 2.430000000000000000e+02 2.440000000000000000e+02 2.450000000000000000e+02 2.460000000000000000e+02 2.470000000000000000e+02 2.480000000000000000e+02 2.490000000000000000e+02 2.500000000000000000e+02 2.510000000000000000e+02 2.520000000000000000e+02 2.530000000000000000e+02 2.540000000000000000e+02 2.550000000000000000e+02 2.560000000000000000e+02 2.570000000000000000e+02 2.580000000000000000e+02 2.590000000000000000e+02 2.600000000000000000e+02 2.610000000000000000e+02 2.620000000000000000e+02 2.630000000000000000e+02 2.640000000000000000e+02 2.650000000000000000e+02 2.660000000000000000e+02 2.670000000000000000e+02 2.680000000000000000e+02 2.690000000000000000e+02 2.700000000000000000e+02 2.710000000000000000e+02 2.720000000000000000e+02 2.730000000000000000e+02 2.740000000000000000e+02 2.750000000000000000e+02 2.760000000000000000e+02 2.770000000000000000e+02 2.780000000000000000e+02 2.790000000000000000e+02 2.800000000000000000e+02 2.810000000000000000e+02 2.820000000000000000e+02 2.830000000000000000e+02 2.840000000000000000e+02 2.850000000000000000e+02 2.860000000000000000e+02 2.870000000000000000e+02 2.880000000000000000e+02 2.890000000000000000e+02 2.900000000000000000e+02 2.910000000000000000e+02 2.920000000000000000e+02 2.930000000000000000e+02 2.940000000000000000e+02 2.950000000000000000e+02 2.960000000000000000e+02 2.970000000000000000e+02 2.980000000000000000e+02 2.990000000000000000e+02 3.000000000000000000e+02 3.010000000000000000e+02 3.020000000000000000e+02 3.030000000000000000e+02 3.040000000000000000e+02 3.050000000000000000e+02 3.060000000000000000e+02 3.070000000000000000e+02 3.080000000000000000e+02 3.090000000000000000e+02 3.100000000000000000e+02 3.110000000000000000e+02 3.120000000000000000e+02 3.130000000000000000e+02 3.140000000000000000e+02 3.150000000000000000e+02 3.160000000000000000e+02 3.170000000000000000e+02 3.180000000000000000e+02 3.190000000000000000e+02 3.200000000000000000e+02 3.210000000000000000e+02 3.220000000000000000e+02 3.230000000000000000e+02 3.240000000000000000e+02 3.250000000000000000e+02 3.260000000000000000e+02 3.270000000000000000e+02 3.280000000000000000e+02 3.290000000000000000e+02 3.300000000000000000e+02 3.310000000000000000e+02 3.320000000000000000e+02 3.330000000000000000e+02 3.340000000000000000e+02 3.350000000000000000e+02 3.360000000000000000e+02 3.370000000000000000e+02 3.380000000000000000e+02 3.390000000000000000e+02 3.400000000000000000e+02 3.410000000000000000e+02 3.420000000000000000e+02 3.430000000000000000e+02 3.440000000000000000e+02 3.450000000000000000e+02 3.460000000000000000e+02 3.470000000000000000e+02 3.480000000000000000e+02 3.490000000000000000e+02 3.500000000000000000e+02 3.510000000000000000e+02 3.520000000000000000e+02 3.530000000000000000e+02 3.540000000000000000e+02 3.550000000000000000e+02 3.560000000000000000e+02 3.570000000000000000e+02 3.580000000000000000e+02 3.590000000000000000e+02 3.600000000000000000e+02 3.610000000000000000e+02 3.620000000000000000e+02 3.630000000000000000e+02 3.640000000000000000e+02 3.650000000000000000e+02 3.660000000000000000e+02 3.670000000000000000e+02 3.680000000000000000e+02 3.690000000000000000e+02 3.700000000000000000e+02 3.710000000000000000e+02 3.720000000000000000e+02 3.730000000000000000e+02 3.740000000000000000e+02 3.750000000000000000e+02 3.760000000000000000e+02 3.770000000000000000e+02 3.780000000000000000e+02 3.790000000000000000e+02 3.800000000000000000e+02 3.810000000000000000e+02 3.820000000000000000e+02 3.830000000000000000e+02 3.840000000000000000e+02 3.850000000000000000e+02 3.860000000000000000e+02 3.870000000000000000e+02 3.880000000000000000e+02 3.890000000000000000e+02 3.900000000000000000e+02 3.910000000000000000e+02 3.920000000000000000e+02 3.930000000000000000e+02 3.940000000000000000e+02 3.950000000000000000e+02 3.960000000000000000e+02 3.970000000000000000e+02 3.980000000000000000e+02 3.990000000000000000e+02 4.000000000000000000e+02 4.010000000000000000e+02 4.020000000000000000e+02 4.030000000000000000e+02 4.040000000000000000e+02 4.050000000000000000e+02 4.060000000000000000e+02 4.070000000000000000e+02 4.080000000000000000e+02 4.090000000000000000e+02 4.100000000000000000e+02 4.110000000000000000e+02 4.120000000000000000e+02 4.130000000000000000e+02 4.140000000000000000e+02 4.150000000000000000e+02 4.160000000000000000e+02 4.170000000000000000e+02 4.180000000000000000e+02 4.190000000000000000e+02 4.200000000000000000e+02 4.210000000000000000e+02 4.220000000000000000e+02 4.230000000000000000e+02 4.240000000000000000e+02 4.250000000000000000e+02 4.260000000000000000e+02 4.270000000000000000e+02 4.280000000000000000e+02 4.290000000000000000e+02 4.300000000000000000e+02 4.310000000000000000e+02 4.320000000000000000e+02 4.330000000000000000e+02 4.340000000000000000e+02 4.350000000000000000e+02 4.360000000000000000e+02 4.370000000000000000e+02 4.380000000000000000e+02 4.390000000000000000e+02 4.400000000000000000e+02 4.410000000000000000e+02 4.420000000000000000e+02 4.430000000000000000e+02 4.440000000000000000e+02 4.450000000000000000e+02 4.460000000000000000e+02 4.470000000000000000e+02 4.480000000000000000e+02 4.490000000000000000e+02 4.500000000000000000e+02 4.510000000000000000e+02 4.520000000000000000e+02 4.530000000000000000e+02 4.540000000000000000e+02 4.550000000000000000e+02 4.560000000000000000e+02 4.570000000000000000e+02 4.580000000000000000e+02 4.590000000000000000e+02 4.600000000000000000e+02 4.610000000000000000e+02 4.620000000000000000e+02 4.630000000000000000e+02 4.640000000000000000e+02 4.650000000000000000e+02 4.660000000000000000e+02 4.670000000000000000e+02 4.680000000000000000e+02 4.690000000000000000e+02 4.700000000000000000e+02 4.710000000000000000e+02 4.720000000000000000e+02 4.730000000000000000e+02 4.740000000000000000e+02 4.750000000000000000e+02 4.760000000000000000e+02 4.770000000000000000e+02 4.780000000000000000e+02 4.790000000000000000e+02 4.800000000000000000e+02 4.810000000000000000e+02 4.820000000000000000e+02 4.830000000000000000e+02 4.840000000000000000e+02 4.850000000000000000e+02 4.860000000000000000e+02 4.870000000000000000e+02 4.880000000000000000e+02 4.890000000000000000e+02 4.900000000000000000e+02 4.910000000000000000e+02 4.920000000000000000e+02 4.930000000000000000e+02 4.940000000000000000e+02 4.950000000000000000e+02 4.960000000000000000e+02 4.970000000000000000e+02 4.980000000000000000e+02 4.990000000000000000e+02 5.000000000000000000e+02 5.010000000000000000e+02 5.020000000000000000e+02 5.030000000000000000e+02 5.040000000000000000e+02 5.050000000000000000e+02 5.060000000000000000e+02 5.070000000000000000e+02 5.080000000000000000e+02 5.090000000000000000e+02 5.100000000000000000e+02 5.110000000000000000e+02 5.120000000000000000e+02 5.130000000000000000e+02 5.140000000000000000e+02 5.150000000000000000e+02 5.160000000000000000e+02 5.170000000000000000e+02 5.180000000000000000e+02 5.190000000000000000e+02 5.200000000000000000e+02 5.210000000000000000e+02 5.220000000000000000e+02 5.230000000000000000e+02 5.240000000000000000e+02 5.250000000000000000e+02 5.260000000000000000e+02 5.270000000000000000e+02 5.280000000000000000e+02 5.290000000000000000e+02 5.300000000000000000e+02 5.310000000000000000e+02 5.320000000000000000e+02 5.330000000000000000e+02 5.340000000000000000e+02 5.350000000000000000e+02 5.360000000000000000e+02 5.370000000000000000e+02 5.380000000000000000e+02 5.390000000000000000e+02 5.400000000000000000e+02 5.410000000000000000e+02 5.420000000000000000e+02 5.430000000000000000e+02 5.440000000000000000e+02 5.450000000000000000e+02 5.460000000000000000e+02 5.470000000000000000e+02 5.480000000000000000e+02 5.490000000000000000e+02 5.500000000000000000e+02 5.510000000000000000e+02 5.520000000000000000e+02 5.530000000000000000e+02 5.540000000000000000e+02 5.550000000000000000e+02 5.560000000000000000e+02 5.570000000000000000e+02 5.580000000000000000e+02 5.590000000000000000e+02 5.600000000000000000e+02 5.610000000000000000e+02 5.620000000000000000e+02 5.630000000000000000e+02 5.640000000000000000e+02 5.650000000000000000e+02 5.660000000000000000e+02 5.670000000000000000e+02 5.680000000000000000e+02 5.690000000000000000e+02 5.700000000000000000e+02 5.710000000000000000e+02 5.720000000000000000e+02 5.730000000000000000e+02 5.740000000000000000e+02 5.750000000000000000e+02 5.760000000000000000e+02 5.770000000000000000e+02 5.780000000000000000e+02 5.790000000000000000e+02 5.800000000000000000e+02 5.810000000000000000e+02 5.820000000000000000e+02 5.830000000000000000e+02 5.840000000000000000e+02 5.850000000000000000e+02 5.860000000000000000e+02 5.870000000000000000e+02 5.880000000000000000e+02 5.890000000000000000e+02 5.900000000000000000e+02 5.910000000000000000e+02 5.920000000000000000e+02 5.930000000000000000e+02 5.940000000000000000e+02 5.950000000000000000e+02 5.960000000000000000e+02 5.970000000000000000e+02 5.980000000000000000e+02 5.990000000000000000e+02 6.000000000000000000e+02 6.010000000000000000e+02 6.020000000000000000e+02 6.030000000000000000e+02 6.040000000000000000e+02 6.050000000000000000e+02 6.060000000000000000e+02 6.070000000000000000e+02 6.080000000000000000e+02 6.090000000000000000e+02 6.100000000000000000e+02 6.110000000000000000e+02 6.120000000000000000e+02 6.130000000000000000e+02 6.140000000000000000e+02 6.150000000000000000e+02 6.160000000000000000e+02 6.170000000000000000e+02 6.180000000000000000e+02 6.190000000000000000e+02 6.200000000000000000e+02 6.210000000000000000e+02 6.220000000000000000e+02 6.230000000000000000e+02 6.240000000000000000e+02 6.250000000000000000e+02 6.260000000000000000e+02 6.270000000000000000e+02 6.280000000000000000e+02 6.290000000000000000e+02 6.300000000000000000e+02 6.310000000000000000e+02 6.320000000000000000e+02 6.330000000000000000e+02 6.340000000000000000e+02 6.350000000000000000e+02 6.360000000000000000e+02 6.370000000000000000e+02 6.380000000000000000e+02 6.390000000000000000e+02 6.400000000000000000e+02 6.410000000000000000e+02 6.420000000000000000e+02 6.430000000000000000e+02 6.440000000000000000e+02 6.450000000000000000e+02 6.460000000000000000e+02 6.470000000000000000e+02 6.480000000000000000e+02 6.490000000000000000e+02 6.500000000000000000e+02 6.510000000000000000e+02 6.520000000000000000e+02 6.530000000000000000e+02 6.540000000000000000e+02 6.550000000000000000e+02 6.560000000000000000e+02 6.570000000000000000e+02 6.580000000000000000e+02 6.590000000000000000e+02 6.600000000000000000e+02 6.610000000000000000e+02 6.620000000000000000e+02 6.630000000000000000e+02 6.640000000000000000e+02 6.650000000000000000e+02 6.660000000000000000e+02 6.670000000000000000e+02 6.680000000000000000e+02 6.690000000000000000e+02 6.700000000000000000e+02 6.710000000000000000e+02 6.720000000000000000e+02 6.730000000000000000e+02 6.740000000000000000e+02 6.750000000000000000e+02 6.760000000000000000e+02 6.770000000000000000e+02 6.780000000000000000e+02 6.790000000000000000e+02 6.800000000000000000e+02 6.810000000000000000e+02 6.820000000000000000e+02 6.830000000000000000e+02 6.840000000000000000e+02 6.850000000000000000e+02 6.860000000000000000e+02 6.870000000000000000e+02 6.880000000000000000e+02 6.890000000000000000e+02 6.900000000000000000e+02 6.910000000000000000e+02 6.920000000000000000e+02 6.930000000000000000e+02 6.940000000000000000e+02 6.950000000000000000e+02 6.960000000000000000e+02 6.970000000000000000e+02 6.980000000000000000e+02 6.990000000000000000e+02 7.000000000000000000e+02 7.010000000000000000e+02 7.020000000000000000e+02 7.030000000000000000e+02 7.040000000000000000e+02 7.050000000000000000e+02 7.060000000000000000e+02 7.070000000000000000e+02 7.080000000000000000e+02 7.090000000000000000e+02 7.100000000000000000e+02 7.110000000000000000e+02 7.120000000000000000e+02 7.130000000000000000e+02 7.140000000000000000e+02 7.150000000000000000e+02 7.160000000000000000e+02 7.170000000000000000e+02 7.180000000000000000e+02 7.190000000000000000e+02 7.200000000000000000e+02 7.210000000000000000e+02 7.220000000000000000e+02 7.230000000000000000e+02 7.240000000000000000e+02 7.250000000000000000e+02 7.260000000000000000e+02 7.270000000000000000e+02 7.280000000000000000e+02 7.290000000000000000e+02 7.300000000000000000e+02 7.310000000000000000e+02 7.320000000000000000e+02 7.330000000000000000e+02 7.340000000000000000e+02 7.350000000000000000e+02 7.360000000000000000e+02 7.370000000000000000e+02 7.380000000000000000e+02 7.390000000000000000e+02 7.400000000000000000e+02 7.410000000000000000e+02 7.420000000000000000e+02 7.430000000000000000e+02 7.440000000000000000e+02 7.450000000000000000e+02 7.460000000000000000e+02 7.470000000000000000e+02 7.480000000000000000e+02 7.490000000000000000e+02 7.500000000000000000e+02 7.510000000000000000e+02 7.520000000000000000e+02 7.530000000000000000e+02 7.540000000000000000e+02 7.550000000000000000e+02 7.560000000000000000e+02 7.570000000000000000e+02 7.580000000000000000e+02 7.590000000000000000e+02 7.600000000000000000e+02 7.610000000000000000e+02 7.620000000000000000e+02 7.630000000000000000e+02 7.640000000000000000e+02 7.650000000000000000e+02 7.660000000000000000e+02 7.670000000000000000e+02 7.680000000000000000e+02 7.690000000000000000e+02 7.700000000000000000e+02 7.710000000000000000e+02 7.720000000000000000e+02 7.730000000000000000e+02 7.740000000000000000e+02 7.750000000000000000e+02 7.760000000000000000e+02 7.770000000000000000e+02 7.780000000000000000e+02 7.790000000000000000e+02 7.800000000000000000e+02 7.810000000000000000e+02 7.820000000000000000e+02 7.830000000000000000e+02 7.840000000000000000e+02 7.850000000000000000e+02 7.860000000000000000e+02 7.870000000000000000e+02 7.880000000000000000e+02 7.890000000000000000e+02 7.900000000000000000e+02 7.910000000000000000e+02 7.920000000000000000e+02 7.930000000000000000e+02 7.940000000000000000e+02 7.950000000000000000e+02 7.960000000000000000e+02 7.970000000000000000e+02 7.980000000000000000e+02 7.990000000000000000e+02 8.000000000000000000e+02 8.010000000000000000e+02 8.020000000000000000e+02 8.030000000000000000e+02 8.040000000000000000e+02 8.050000000000000000e+02 8.060000000000000000e+02 8.070000000000000000e+02 8.080000000000000000e+02 8.090000000000000000e+02 8.100000000000000000e+02 8.110000000000000000e+02 8.120000000000000000e+02 8.130000000000000000e+02 8.140000000000000000e+02 8.150000000000000000e+02 8.160000000000000000e+02 8.170000000000000000e+02 8.180000000000000000e+02 8.190000000000000000e+02 8.200000000000000000e+02 8.210000000000000000e+02 8.220000000000000000e+02 8.230000000000000000e+02 8.240000000000000000e+02 8.250000000000000000e+02 8.260000000000000000e+02 8.270000000000000000e+02 8.280000000000000000e+02 8.290000000000000000e+02 8.300000000000000000e+02 8.310000000000000000e+02 8.320000000000000000e+02 8.330000000000000000e+02 8.340000000000000000e+02 8.350000000000000000e+02 8.360000000000000000e+02 8.370000000000000000e+02 8.380000000000000000e+02 8.390000000000000000e+02 8.400000000000000000e+02 8.410000000000000000e+02 8.420000000000000000e+02 8.430000000000000000e+02 8.440000000000000000e+02 8.450000000000000000e+02 8.460000000000000000e+02 8.470000000000000000e+02 8.480000000000000000e+02 8.490000000000000000e+02 8.500000000000000000e+02 8.510000000000000000e+02 8.520000000000000000e+02 8.530000000000000000e+02 8.540000000000000000e+02 8.550000000000000000e+02 8.560000000000000000e+02 8.570000000000000000e+02 8.580000000000000000e+02 8.590000000000000000e+02 8.600000000000000000e+02 8.610000000000000000e+02 8.620000000000000000e+02 8.630000000000000000e+02 8.640000000000000000e+02 8.650000000000000000e+02 8.660000000000000000e+02 8.670000000000000000e+02 8.680000000000000000e+02 8.690000000000000000e+02 8.700000000000000000e+02 8.710000000000000000e+02 8.720000000000000000e+02 8.730000000000000000e+02 8.740000000000000000e+02 8.750000000000000000e+02 8.760000000000000000e+02 8.770000000000000000e+02 8.780000000000000000e+02 8.790000000000000000e+02 8.800000000000000000e+02 8.810000000000000000e+02 8.820000000000000000e+02 8.830000000000000000e+02 8.840000000000000000e+02 8.850000000000000000e+02 8.860000000000000000e+02 8.870000000000000000e+02 8.880000000000000000e+02 8.890000000000000000e+02 8.900000000000000000e+02 8.910000000000000000e+02 8.920000000000000000e+02 8.930000000000000000e+02 8.940000000000000000e+02 8.950000000000000000e+02 8.960000000000000000e+02 8.970000000000000000e+02 8.980000000000000000e+02 8.990000000000000000e+02 9.000000000000000000e+02 9.010000000000000000e+02 9.020000000000000000e+02 9.030000000000000000e+02 9.040000000000000000e+02 9.050000000000000000e+02 9.060000000000000000e+02 9.070000000000000000e+02 9.080000000000000000e+02 9.090000000000000000e+02 9.100000000000000000e+02 9.110000000000000000e+02 9.120000000000000000e+02 9.130000000000000000e+02 9.140000000000000000e+02 9.150000000000000000e+02 9.160000000000000000e+02 9.170000000000000000e+02 9.180000000000000000e+02 9.190000000000000000e+02 9.200000000000000000e+02 9.210000000000000000e+02 9.220000000000000000e+02 9.230000000000000000e+02 9.240000000000000000e+02 9.250000000000000000e+02 9.260000000000000000e+02 9.270000000000000000e+02 9.280000000000000000e+02 9.290000000000000000e+02 9.300000000000000000e+02 9.310000000000000000e+02 9.320000000000000000e+02 9.330000000000000000e+02 9.340000000000000000e+02 9.350000000000000000e+02 9.360000000000000000e+02 9.370000000000000000e+02 9.380000000000000000e+02 9.390000000000000000e+02 9.400000000000000000e+02 9.410000000000000000e+02 9.420000000000000000e+02 9.430000000000000000e+02 9.440000000000000000e+02 9.450000000000000000e+02 9.460000000000000000e+02 9.470000000000000000e+02 9.480000000000000000e+02 9.490000000000000000e+02 9.500000000000000000e+02 9.510000000000000000e+02 9.520000000000000000e+02 9.530000000000000000e+02 9.540000000000000000e+02 9.550000000000000000e+02 9.560000000000000000e+02 9.570000000000000000e+02 9.580000000000000000e+02 9.590000000000000000e+02 9.600000000000000000e+02 9.610000000000000000e+02 9.620000000000000000e+02 9.630000000000000000e+02 9.640000000000000000e+02 9.650000000000000000e+02 9.660000000000000000e+02 9.670000000000000000e+02 9.680000000000000000e+02 9.690000000000000000e+02 9.700000000000000000e+02 9.710000000000000000e+02 9.720000000000000000e+02 9.730000000000000000e+02 9.740000000000000000e+02 9.750000000000000000e+02 9.760000000000000000e+02 9.770000000000000000e+02 9.780000000000000000e+02 9.790000000000000000e+02 9.800000000000000000e+02 9.810000000000000000e+02 9.820000000000000000e+02 9.830000000000000000e+02 9.840000000000000000e+02 9.850000000000000000e+02 9.860000000000000000e+02 9.870000000000000000e+02 9.880000000000000000e+02 9.890000000000000000e+02 9.900000000000000000e+02 9.910000000000000000e+02 9.920000000000000000e+02 9.930000000000000000e+02 9.940000000000000000e+02 9.950000000000000000e+02 9.960000000000000000e+02 9.970000000000000000e+02 9.980000000000000000e+02 9.990000000000000000e+02 1.000000000000000000e+03
1.000000000000000021e-02 1.000000000000000021e-02 1.000000000000000021e-02 1.000000000000000021e-02 1.000000000000000021e-02 1.000000000000000021e-02 1.000000000000000021e-02 1.000000000000000021e-02 1.000000000000000021e-02 1.000000000000000021e-02 1.000000000000000021e-02 1.000000000000000021e-02 1.000000000000000021e-02 1.000000000000000021e-02 1.000000000000000021e-02 1.000000000000000021e-02 1.000000000000000021e-02 1.000000000000000021e-02 1.000000000000000021e-02 1.000000000000000021e-02 1.000000000000000021e-02 1.000000000000000021e-02 1.000000000000000021e-02 1.000000000000000021e-02 1.000000000000000021e-02 1.000000000000000021e-02 1.000000000000000021e-02 1.000000000000000021e-02 1.000000000000000021e-02 1.000000000000000021e-02 1.000000000000000021e-02 1.000000000000000021e-02 1.000000000000000021e-02 1.000000000000000021e-02 1.000000000000000021e-02 1.000000000000000021e-02 1.000000000000000021e-02 1.000000000000000021e-02 1.000000000000000021e-02 1.000000000000000021e-02 1.000000000000000021e-02 1.000000000000000021e-02 1.000000000000000021e-02 1.000000000000000021e-02 1.000000000000000021e-02 1.000000000000000021e-02 1.000000000000000021e-02 1.000000000000000021e-02 1.000000000000000021e-02 1.000000000000000021e-02 1.000000000000000021e-02 1.000000000000000021e-02 1.000000000000000021e-02 1.000000000000000021e-02 1.000000000000000021e-02 1.000000000000000021e-02 1.000000000000000021e-02 1.000000000000000021e-02 1.000000000000000021e-02 1.000000000000000021e-02 1.000000000000000021e-02 1.000000000000000021e-02 1.000000000000000021e-02 1.000000000000000021e-02 1.000000000000000021e-02 1.000000000000000021e-02 1.000000000000000021e-02 1.000000000000000021e-02 1.000000000000000021e-02 1.000000000000000021e-02 1.000000000000000021e-02 1.000000000000000021e-02 1.000000000000000021e-02 1.000000000000000021e-02 1.000000000000000021e-02 1.000000000000000021e-02 1.000000000000000021e-02 1.000000000000000021e-02 1.000000000000000021e-02 1.000000000000000021e-02 1.000000000000000021e-02 1.000000000000000021e-02 1.000000000000000021e-02 1.000000000000000021e-02 1.000000000000000021e-02 1.000000000000000021e-02 1.000000000000000021e-02 1.000000000000000021e-02 1.000000000000000021e-02 1.000000000000000021e-02 1.000000000000000021e-02 1.000000000000000021e-02 1.000000000000000021e-02 1.000000000000000021e-02 1.000000000000000021e-02 1.000000000000000021e-02 1.000000000000000021e-02 1.000000000000000021e-02 1.000000000000000021e-02 1.000000000000000021e-02 1.000000000000000021e-02 1.000000000000000021e-02 1.000000000000000021e-02 1.000000000000000021e-02 1.000000000000000021e-02 1.000000000000000021e-02 1.000000000000000021e-02 1.000000000000000021e-02 1.000000000000000021e-02 1.000000000000000021e-02 1.000000000000000021e-02 1.000000000000000021e-02 1.000000000000000021e-02 1.000000000000000021e-02 1.000000000000000021e-02 1.000000000000000021e-02 1.000000000000000021e-02 1.000000000000000021e-02 1.000000000000000021e-02 1.000000000000000021e-02 1.000000000000000021e-02 1.000000000000000021e-02 1.000000000000000021e-02 1.000000000000000021e-02 1.000000000000000021e-02 1.000000000000000021e-02 1.000000000000000021e-02 1.000000000000000021e-02 1.000000000000000021e-02 1.000000000000000021e-02 1.000000000000000021e-02 1.000000000000000021e-02 1.000000000000000021e-02 1.000000000000000021e-02 1.000000000000000021e-02 1.000000000000000021e-02 1.000000000000000021e-02 1.000000000000000021e-02 1.000000000000000021e-02 1.000000000000000021e-02 1.000000000000000021e-02 1.000000000000000021e-02 1.000000000000000021e-02 1.000000000000000021e-02 1.000000000000000021e-02 1.000000000000000021e-02 1.000000000000000021e-02 1.000000000000000021e-02 1.000000000000000021e-02 1.000000000000000021e-02 1.000000000000000021e-02 1.000000000000000021e-02 1.000000000000000021e-02 1.000000000000000021e-02 1.000000000000000021e-02 1.000000000000000021e-02 1.000000000000000021e-02 1.000000000000000021e-02 1.000000000000000021e-02 1.000000000000000021e-02 1.000000000000000021e-02 1.000000000000000021e-02 1.000000000000000021e-02 1.000000000000000021e-02 1.000000000000000021e-02 1.000000000000000021e-02 1.000000000000000021e-02 1.000000000000000021e-02 1.000000000000000021e-02 1.000000000000000021e-02 1.000000000000000021e-02 1.000000000000000021e-02 1.000000000000000021e-02 1.000000000000000021e-02 1.000000000000000021e-02 1.000000000000000021e-02 1.000000000000000021e-02 1.000000000000000021e-02 1.000000000000000021e-02 1.000000000000000021e-02 1.000000000000000021e-02 1.000000000000000021e-02 1.000000000000000021e-02 1.000000000000000021e-02 1.000000000000000021e-02 1.000000000000000021e-02 1.000000000000000021e-02 1.000000000000000021e-02 1.000000000000000021e-02 1.000000000000000021e-02 1.000000000000000021e-02 1.000000000000000021e-02 1.000000000000000021e-02 1.000000000000000021e-02 1.000000000000000021e-02 1.000000000000000021e-02 1.000000000000000021e-02 1.000000000000000021e-02 1.000000000000000021e-02 1.000000000000000021e-02 1.000000000000000021e-02 1.000000000000000021e-02 1.000000000000000021e-02 1.000000000000000021e-02 1.000000000000000021e-02 1.000000000000000021e-02 1.000000000000000021e-02 1.000000000000000021e-02 1.000000000000000021e-02 1.000000000000000021e-02 1.000000000000000021e-02 1.000000000000000021e-02 1.000000000000000021e-02 1.000000000000000021e-02 1.000000000000000021e-02 1.000000000000000021e-02 1.000000000000000021e-02 1.000000000000000021e-02 1.000000000000000021e-02 1.000000000000000021e-02 1.000000000000000021e-02 1.000000000000000021e-02 1.000000000000000021e-02 1.000000000000000021e-02 1.000000000000000021e-02 1.000000000000000021e-02 1.000000000000000021e-02 1.000000000000000021e-02 1.000000000000000021e-02 1.000000000000000021e-02 1.000000000000000021e-02 1.000000000000000021e-02 1.000000000000000021e-02 1.000000000000000021e-02 1.000000000000000021e-02 1.000000000000000021e-02 1.000000000000000021e-02 1.000000000000000021e-02 1.000000000000000021e-02 1.000000000000000021e-02 1.000000000000000021e-02 1.000000000000000021e-02 1.000000000000000021e-02 1.000000000000000021e-02 1.000000000000000021e-02 1.000000000000000021e-02 1.000000000000000021e-02 1.000000000000000021e-02 1.000000000000000021e-02 1.000000000000000021e-02 1.000000000000000021e-02 1.000000000000000021e-02 1.000000000000000021e-02 1.000000000000000021e-02 1.000000000000000021e-02 1.000000000000000021e-02 1.000000000000000021e-02 1.000000000000000021e-02 1.000000000000000021e-02 1.000000000000000021e-02 1.000000000000000021e-02 1.000000000000000021e-02 1.000000000000000021e-02 1.000000000000000021e-02 1.000000000000000021e-02 1.000000000000000021e-02 1.000000000000000021e-02 1.000000000000000021e-02 1.000000000000000021e-02 1.000000000000000021e-02 1.000000000000000021e-02 1.000000000000000021e-02 1.000000000000000021e-02 1.000000000000000021e-02 1.000000000000000021e-02 1.000000000000000021e-02 1.000000000000000021e-02 1.000000000000000021e-02 1.000000000000000021e-02 1.000000000000000021e-02 1.000000000000000021e-02 1.000000000000000021e-02 1.000000000000000021e-02 1.000000000000000021e-02 1.000000000000000021e-02 1.000000000000000021e-02 1.000000000000000021e-02 1.000000000000000021e-02 1.000000000000000021e-02 1.000000000000000021e-02 1.000000000000000021e-02 1.000000000000000021e-02 1.000000000000000021e-02 1.000000000000000021e-02 1.000000000000000021e-02 1.000000000000000021e-02 1.000000000000000021e-02 1.000000000000000021e-02 1.000000000000000021e-02 1.000000000000000021e-02 1.000000000000000021e-02 1.000000000000000021e-02 1.000000000000000021e-02 1.000000000000000021e-02 1.000000000000000021e-02 1.000000000000000021e-02 1.000000000000000021e-02 1.000000000000000021e-02 1.000000000000000021e-02 1.000000000000000021e-02 1.000000000000000021e-02 1.000000000000000021e-02 1.000000000000000021e-02 1.000000000000000021e-02 1.000000000000000021e-02 1.000000000000000021e-02 1.000000000000000021e-02 1.000000000000000021e-02 1.000000000000000021e-02 1.000000000000000021e-02 1.000000000000000021e-02 1.000000000000000021e-02 1.000000000000000021e-02 1.000000000000000021e-02 1.000000000000000021e-02 1.000000000000000021e-02 1.000000000000000021e-02 1.000000000000000021e-02 1.000000000000000021e-02 1.000000000000000021e-02 1.000000000000000021e-02 1.000000000000000021e-02 1.000000000000000021e-02 1.000000000000000021e-02 1.000000000000000021e-02 1.000000000000000021e-02 1.000000000000000021e-02 1.000000000000000021e-02 1.000000000000000021e-02 1.000000000000000021e-02 1.000000000000000021e-02 1.000000000000000021e-02 1.000000000000000021e-02 1.000000000000000021e-02 1.000000000000000021e-02 1.000000000000000021e-02 1.000000000000000021e-02 1.000000000000000021e-02 1.000000000000000021e-02 1.000000000000000021e-02 1.000000000000000021e-02 1.000000000000000021e-02 1.000000000000000021e-02 1.000000000000000021e-02 1.000000000000000021e-02 1.000000000000000021e-02 1.000000000000000021e-02 1.000000000000000021e-02 1.000000000000000021e-02 1.000000000000000021e-02 1.000000000000000021e-02 1.000000000000000021e-02 1.000000000000000021e-02 1.000000000000000021e-02 1.000000000000000021e-02 1.000000000000000021e-02 1.000000000000000021e-02 1.000000000000000021e-02 1.000000000000000021e-02 1.000000000000000021e-02 1.000000000000000021e-02 1.000000000000000021e-02 1.000000000000000021e-02 1.000000000000000021e-02 1.000000000000000021e-02 1.000000000000000021e-02 1.000000000000000021e-02 1.000000000000000021e-02 1.000000000000000021e-02 1.000000000000000021e-02 1.000000000000000021e-02 1.000000000000000021e-02 1.000000000000000021e-02 1.000000000000000021e-02 1.000000000000000021e-02 1.000000000000000021e-02 1.000000000000000021e-02 1.000000000000000021e-02 1.000000000000000021e-02 1.000000000000000021e-02 1.000000000000000021e-02 1.000000000000000021e-02 1.000000000000000021e-02 1.000000000000000021e-02 1.000000000000000021e-02 1.000000000000000021e-02 1.000000000000000021e-02 1.000000000000000021e-02 1.000000000000000021e-02 1.000000000000000021e-02 1.000000000000000021e-02 1.000000000000000021e-02 1.000000000000000021e-02 1.000000000000000021e-02 1.000000000000000021e-02 1.000000000000000021e-02 1.000000000000000021e-02 1.000000000000000021e-02 1.000000000000000021e-02 1.000000000000000021e-02 1.000000000000000021e-02 1.000000000000000021e-02 1.000000000000000021e-02 1.000000000000000021e-02 1.000000000000000021e-02 1.000000000000000021e-02 1.000000000000000021e-02 1.000000000000000021e-02 1.000000000000000021e-02 1.000000000000000021e-02 1.000000000000000021e-02 1.000000000000000021e-02 1.000000000000000021e-02 1.000000000000000021e-02 1.000000000000000021e-02 1.000000000000000021e-02 1.000000000000000021e-02 1.000000000000000021e-02 1.000000000000000021e-02 1.000000000000000021e-02 1.000000000000000021e-02 1.000000000000000021e-02 1.000000000000000021e-02 1.000000000000000021e-02 1.000000000000000021e-02 1.000000000000000021e-02 1.000000000000000021e-02 1.000000000000000021e-02 1.000000000000000021e-02 1.000000000000000021e-02 1.000000000000000021e-02 1.000000000000000021e-02 1.000000000000000021e-02 1.000000000000000021e-02 1.000000000000000021e-02 1.000000000000000021e-02 1.000000000000000021e-02 1.000000000000000021e-02 1.000000000000000021e-02 1.000000000000000021e-02 1.000000000000000021e-02 1.000000000000000021e-02 1.000000000000000021e-02 1.000000000000000021e-02 1.000000000000000021e-02 1.000000000000000021e-02 1.000000000000000021e-02 1.000000000000000021e-02 1.000000000000000021e-02 1.000000000000000021e-02 1.000000000000000021e-02 1.000000000000000021e-02 1.000000000000000021e-02 1.000000000000000021e-02 1.000000000000000021e-02 1.000000000000000021e-02 1.000000000000000021e-02 1.000000000000000021e-02 1.000000000000000021e-02 1.000000000000000021e-02 1.000000000000000021e-02 1.000000000000000021e-02 1.000000000000000021e-02 1.000000000000000021e-02 1.000000000000000021e-02 1.000000000000000021e-02 1.000000000000000021e-02 1.000000000000000021e-02 1.000000000000000021e-02 1.000000000000000021e-02 1.000000000000000021e-02 1.000000000000000021e-02 1.000000000000000021e-02 1.000000000000000021e-02 1.000000000000000021e-02 1.000000000000000021e-02 1.000000000000000021e-02 1.000000000000000021e-02 1.000000000000000021e-02 1.000000000000000021e-02 1.000000000000000021e-02 1.000000000000000021e-02 1.000000000000000021e-02 1.000000000000000021e-02 1.000000000000000021e-02 1.000000000000000021e-02 1.000000000000000021e-02 1.000000000000000021e-02 1.000000000000000021e-02 1.000000000000000021e-02 1.000000000000000021e-02 1.000000000000000021e-02 1.000000000000000021e-02 1.000000000000000021e-02 1.000000000000000021e-02 1.000000000000000021e-02 1.000000000000000021e-02 1.000000000000000021e-02 1.000000000000000021e-02 1.000000000000000021e-02 1.000000000000000021e-02 1.000000000000000021e-02 1.000000000000000021e-02 1.000000000000000021e-02 1.000000000000000021e-02 1.000000000000000021e-02 1.000000000000000021e-02 1.000000000000000021e-02 1.000000000000000021e-02 1.000000000000000021e-02 1.000000000000000021e-02 1.000000000000000021e-02 1.000000000000000021e-02 1.000000000000000021e-02 1.000000000000000021e-02 1.000000000000000021e-02 1.000000000000000021e-02 1.000000000000000021e-02 1.000000000000000021e-02 1.000000000000000021e-02 1.000000000000000021e-02 1.000000000000000021e-02 1.000000000000000021e-02 1.000000000000000021e-02 1.000000000000000021e-02 1.000000000000000021e-02 1.000000000000000021e-02 1.000000000000000021e-02 1.000000000000000021e-02 1.000000000000000021e-02 1.000000000000000021e-02 1.000000000000000021e-02 1.000000000000000021e-02 1.000000000000000021e-02 1.000000000000000021e-02 1.000000000000000021e-02 1.000000000000000021e-02 1.000000000000000021e-02 1.000000000000000021e-02 1.000000000000000021e-02 1.000000000000000021e-02 1.000000000000000021e-02 1.000000000000000021e-02 1.000000000000000021e-02 1.000000000000000021e-02 1.000000000000000021e-02 1.000000000000000021e-02 1.000000000000000021e-02 1.000000000000000021e-02 1.000000000000000021e-02 1.000000000000000021e-02 1.000000000000000021e-02 1.000000000000000021e-02 1.000000000000000021e-02 1.000000000000000021e-02 1.000000000000000021e-02 1.000000000000000021e-02 1.000000000000000021e-02 1.000000000000000021e-02 1.000000000000000021e-02 1.000000000000000021e-02 1.000000000000000021e-02 1.000000000000000021e-02 1.000000000000000021e-02 1.000000000000000021e-02 1.000000000000000021e-02 1.000000000000000021e-02 1.000000000000000021e-02 1.000000000000000021e-02 1.000000000000000021e-02 1.000000000000000021e-02 1.000000000000000021e-02 1.000000000000000021e-02 1.000000000000000021e-02 1.000000000000000021e-02 1.000000000000000021e-02 1.000000000000000021e-02 1.000000000000000021e-02 1.000000000000000021e-02 1.000000000000000021e-02 1.000000000000000021e-02 1.000000000000000021e-02 1.000000000000000021e-02 1.000000000000000021e-02 1.000000000000000021e-02 1.000000000000000021e-02 1.000000000000000021e-02 1.000000000000000021e-02 1.000000000000000021e-02 1.000000000000000021e-02 1.000000000000000021e-02 1.000000000000000021e-02 1.000000000000000021e-02 1.000000000000000021e-02 1.000000000000000021e-02 1.000000000000000021e-02 1.000000000000000021e-02 1.000000000000000021e-02 1.000000000000000021e-02 1.000000000000000021e-02 1.000000000000000021e-02 1.000000000000000021e-02 1.000000000000000021e-02 1.000000000000000021e-02 1.000000000000000021e-02 1.000000000000000021e-02 1.000000000000000021e-02 1.000000000000000021e-02 1.000000000000000021e-02 1.000000000000000021e-02 1.000000000000000021e-02 1.000000000000000021e-02 1.000000000000000021e-02 1.000000000000000021e-02 1.000000000000000021e-02 1.000000000000000021e-02 1.000000000000000021e-02 1.000000000000000021e-02 1.000000000000000021e-02 1.000000000000000021e-02 1.000000000000000021e-02 1.000000000000000021e-02 1.000000000000000021e-02 1.000000000000000021e-02 1.000000000000000021e-02 1.000000000000000021e-02 1.000000000000000021e-02 1.000000000000000021e-02 1.000000000000000021e-02 1.000000000000000021e-02 1.000000000000000021e-02 1.000000000000000021e-02 1.000000000000000021e-02 1.000000000000000021e-02 1.000000000000000021e-02 1.000000000000000021e-02 1.000000000000000021e-02 1.000000000000000021e-02 1.000000000000000021e-02 1.000000000000000021e-02 1.000000000000000021e-02 1.000000000000000021e-02 1.000000000000000021e-02 1.000000000000000021e-02 1.000000000000000021e-02 1.000000000000000021e-02 1.000000000000000021e-02 1.000000000000000021e-02 1.000000000000000021e-02 1.000000000000000021e-02 1.000000000000000021e-02 1.000000000000000021e-02 1.000000000000000021e-02 1.000000000000000021e-02 1.000000000000000021e-02 1.000000000000000021e-02 1.000000000000000021e-02 1.000000000000000021e-02 1.000000000000000021e-02 1.000000000000000021e-02 1.000000000000000021e-02 1.000000000000000021e-02 1.000000000000000021e-02 1.000000000000000021e-02 1.000000000000000021e-02 1.000000000000000021e-02 1.000000000000000021e-02 1.000000000000000021e-02 1.000000000000000021e-02 1.000000000000000021e-02 1.000000000000000021e-02 1.000000000000000021e-02 1.000000000000000021e-02 1.000000000000000021e-02 1.000000000000000021e-02 1.000000000000000021e-02 1.000000000000000021e-02 1.000000000000000021e-02 1.000000000000000021e-02 1.000000000000000021e-02 1.000000000000000021e-02 1.000000000000000021e-02 1.000000000000000021e-02 1.000000000000000021e-02 1.000000000000000021e-02 1.000000000000000021e-02 1.000000000000000021e-02 1.000000000000000021e-02 1.000000000000000021e-02 1.000000000000000021e-02 1.000000000000000021e-02 1.000000000000000021e-02 1.000000000000000021e-02 1.000000000000000021e-02 1.000000000000000021e-02 1.000000000000000021e-02 1.000000000000000021e-02 1.000000000000000021e-02 1.000000000000000021e-02 1.000000000000000021e-02 1.000000000000000021e-02 1.000000000000000021e-02 1.000000000000000021e-02 1.000000000000000021e-02 1.000000000000000021e-02 1.000000000000000021e-02 1.000000000000000021e-02 1.000000000000000021e-02 1.000000000000000021e-02 1.000000000000000021e-02 1.000000000000000021e-02 1.000000000000000021e-02 1.000000000000000021e-02 1.000000000000000021e-02 1.000000000000000021e-02 1.000000000000000021e-02 1.000000000000000021e-02 1.000000000000000021e-02 1.000000000000000021e-02 1.000000000000000021e-02 1.000000000000000021e-02 1.000000000000000021e-02 1.000000000000000021e-02 1.000000000000000021e-02 1.000000000000000021e-02 1.000000000000000021e-02 1.000000000000000021e-02 1.000000000000000021e-02 1.000000000000000021e-02 1.000000000000000021e-02 1.000000000000000021e-02 1.000000000000000021e-02 1.000000000000000021e-02 1.000000000000000021e-02 1.000000000000000021e-02 1.000000000000000021e-02 1.000000000000000021e-02 1.000000000000000021e-02 1.000000000000000021e-02 1.000000000000000021e-02 1.000000000000000021e-02 1.000000000000000021e-02 1.000000000000000021e-02 1.000000000000000021e-02 1.000000000000000021e-02 1.000000000000000021e-02 1.000000000000000021e-02 1.000000000000000021e-02 1.000000000000000021e-02 1.000000000000000021e-02 1.000000000000000021e-02 1.000000000000000021e-02 1.000000000000000021e-02 1.000000000000000021e-02 1.000000000000000021e-02 1.000000000000000021e-02 1.000000000000000021e-02 1.000000000000000021e-02 1.000000000000000021e-02 1.000000000000000021e-02 1.000000000000000021e-02 1.000000000000000021e-02 1.000000000000000021e-02 1.000000000000000021e-02 1.000000000000000021e-02 1.000000000000000021e-02 1.000000000000000021e-02 1.000000000000000021e-02 1.000000000000000021e-02 1.000000000000000021e-02 1.000000000000000021e-02 1.000000000000000021e-02 1.000000000000000021e-02 1.000000000000000021e-02 1.000000000000000021e-02 1.000000000000000021e-02 1.000000000000000021e-02 1.000000000000000021e-02 1.000000000000000021e-02 1.000000000000000021e-02 1.000000000000000021e-02 1.000000000000000021e-02 1.000000000000000021e-02 1.000000000000000021e-02 1.000000000000000021e-02 1.000000000000000021e-02 1.000000000000000021e-02 1.000000000000000021e-02 1.000000000000000021e-02 1.000000000000000021e-02 1.000000000000000021e-02 1.000000000000000021e-02 1.000000000000000021e-02 1.000000000000000021e-02 1.000000000000000021e-02 1.000000000000000021e-02 1.000000000000000021e-02 1.000000000000000021e-02 1.000000000000000021e-02 1.000000000000000021e-02 1.000000000000000021e-02 1.000000000000000021e-02 1.000000000000000021e-02 1.000000000000000021e-02 1.000000000000000021e-02 1.000000000000000021e-02 1.000000000000000021e-02 1.000000000000000021e-02 1.000000000000000021e-02 1.000000000000000021e-02 1.000000000000000021e-02 1.000000000000000021e-02 1.000000000000000021e-02 1.000000000000000021e-02 1.000000000000000021e-02 1.000000000000000021e-02 1.000000000000000021e-02 1.000000000000000021e-02 1.000000000000000021e-02 1.000000000000000021e-02 1.000000000000000021e-02 1.000000000000000021e-02 1.000000000000000021e-02 1.000000000000000021e-02 1.000000000000000021e-02 1.000000000000000021e-02 1.000000000000000021e-02 1.000000000000000021e-02 1.000000000000000021e-02 1.000000000000000021e-02 1.000000000000000021e-02 1.000000000000000021e-02 1.000000000000000021e-02 1.000000000000000021e-02 1.000000000000000021e-02 1.000000000000000021e-02 1.000000000000000021e-02 1.000000000000000021e-02 1.000000000000000021e-02 1.000000000000000021e-02 1.000000000000000021e-02 1.000000000000000021e-02 1.000000000000000021e-02 1.000000000000000021e-02 1.000000000000000021e-02 1.000000000000000021e-02 1.000000000000000021e-02 1.000000000000000021e-02 1.000000000000000021e-02 1.000000000000000021e-02 1.000000000000000021e-02 1.000000000000000021e-02 1.000000000000000021e-02 1.000000000000000021e-02 1.000000000000000021e-02 1.000000000000000021e-02 1.000000000000000021e-02 1.000000000000000021e-02 1.000000000000000021e-02 1.000000000000000021e-02 1.000000000000000021e-02 1.000000000000000021e-02 1.000000000000000021e-02 1.000000000000000021e-02 1.000000000000000021e-02 1.000000000000000021e-02 1.000000000000000021e-02 1.000000000000000021e-02 1.000000000000000021e-02 1.000000000000000021e-02 1.000000000000000021e-02 1.000000000000000021e-02 1.000000000000000021e-02 1.000000000000000021e-02 1.000000000000000021e-02 1.000000000000000021e-02 1.000000000000000021e-02 1.000000000000000021e-02 1.000000000000000021e-02 1.000000000000000021e-02 1.000000000000000021e-02 1.000000000000000021e-02 1.000000000000000021e-02 1.000000000000000021e-02 1.000000000000000021e-02 1.000000000000000021e-02 1.000000000000000021e-02 1.000000000000000021e-02 1.000000000000000021e-02 1.000000000000000021e-02 1.000000000000000021e-02 1.000000000000000021e-02 1.000000000000000021e-02 1.000000000000000021e-02 1.000000000000000021e-02 1.000000000000000021e-02 1.000000000000000021e-02 1.000000000000000021e-02 1.000000000000000021e-02 1.000000000000000021e-02 1.000000000000000021e-02 1.000000000000000021e-02 1.000000000000000021e-02 1.000000000000000021e-02 1.000000000000000021e-02 1.000000000000000021e-02 1.000000000000000021e-02 1.000000000000000021e-02 1.000000000000000021e-02 1.000000000000000021e-02 1.000000000000000021e-02 1.000000000000000021e-02 1.000000000000000021e-02 1.000000000000000021e-02 1.000000000000000021e-02 1.000000000000000021e-02 1.000000000000000021e-02 1.000000000000000021e-02 1.000000000000000021e-02 1.000000000000000021e-02 1.000000000000000021e-02 1.000000000000000021e-02 1.000000000000000021e-02 1.000000000000000021e-02 1.000000000000000021e-02 1.000000000000000021e-02 1.000000000000000021e-02 1.000000000000000021e-02 1.000000000000000021e-02 1.000000000000000021e-02 1.000000000000000021e-02 1.000000000000000021e-02 1.000000000000000021e-02 1.000000000000000021e-02 1.000000000000000021e-02 1.000000000000000021e-02 1.000000000000000021e-02 1.000000000000000021e-02 1.000000000000000021e-02 1.000000000000000021e-02 1.000000000000000021e-02 1.000000000000000021e-02 1.000000000000000021e-02 1.000000000000000021e-02 1.000000000000000021e-02 1.000000000000000021e-02 1.000000000000000021e-02 1.000000000000000021e-02 1.000000000000000021e-02 1.000000000000000021e-02 1.000000000000000021e-02 1.000000000000000021e-02 1.000000000000000021e-02 1.000000000000000021e-02 1.000000000000000021e-02 1.000000000000000021e-02 1.000000000000000021e-02 1.000000000000000021e-02 1.000000000000000021e-02 1.000000000000000021e-02 1.000000000000000021e-02 1.000000000000000021e-02 1.000000000000000021e-02 1.000000000000000021e-02 1.000000000000000021e-02 1.000000000000000021e-02 1.000000000000000021e-02 1.000000000000000021e-02 1.000000000000000021e-02 1.000000000000000021e-02 1.000000000000000021e-02 1.000000000000000021e-02 1.000000000000000021e-02 1.000000000000000021e-02 1.000000000000000021e-02 1.000000000000000021e-02 1.000000000000000021e-02 1.000000000000000021e-02 1.000000000000000021e-02 1.000000000000000021e-02 1.000000000000000021e-02 1.000000000000000021e-02 1.000000000000000021e-02 1.000000000000000021e-02 1.000000000000000021e-02 1.000000000000000021e-02 1.000000000000000021e-02 1.000000000000000021e-02 1.000000000000000021e-02 1.000000000000000021e-02
-1.069332230593449395e+02 1.626872298517905904e+02 3.766571590703976113e+01 -8.457315084928938020e+00 -8.424515169681929194e+01 -1.283490498878554398e+01 -1.993945821207863105e+02 6.844755765263249581e-01 -8.119726570614238881e+01 -1.359949205119102444e+01 -1.903784571372400691e+01 6.288891578401282878e+00 -1.709850836053153911e+00 1.608812758211102505e+02 8.114859711359841299e+01 -3.723430814559173285e+01 -5.068437802620596955e+01 7.595826960181329923e+01 3.148458945452480862e+01 -2.434488974018813678e+01 -7.558553240770098114e+01 -7.074347602698212256e+01 -1.321989189124188790e+01 2.774376259604820660e+01 -1.868926570930348419e+02 -9.464609321266870268e+01 -2.502414482717258792e+01 1.933172581054176362e+02 6.785349777731268262e+01 7.361670559378785583e+01 7.700606736966824428e+01 1.130177779394369253e+00 -7.609175266008412564e+01 1.990023543066090497e+02 -2.348631441973524261e+02 5.648334374116978296e+01 -1.151461537805250970e+02 -3.327198770511549242e+01 3.874442618660149495e+00 1.215179133718361442e+02 -1.178366814661834354e+02 -1.305413990128399959e+01 7.414991095292644729e+01 1.664998202617849188e+02 6.839350717080607467e+01 -6.555390718364445490e+01 3.946650496762766380e+01 -2.724036476982647059e+01 -6.335395349046328306e+01 1.501586713522213188e+02 -6.757938674231263576e+01 -4.994645942203583644e+01 -1.336928978288364931e+02 5.602398607321285695e+00 -4.843961084049472277e+01 3.709919294585522209e+01 -8.509959782865072953e+01 -4.799357256330794996e+01 -9.725766954657606789e+01 -1.491004953282037491e+02 1.861065367182047936e+01 4.356209866334653924e+01 -1.180990245129353582e+02 1.232096901622168339e+01 -7.600661751002050437e+01 4.711809130598789608e+01 1.598829471166886833e+02 -1.383885364543703531e+02 -4.151661797615767568e+01 6.934718091263812667e+00 2.823458649521227493e+00 4.066448120320603721e+01 8.055120854778982675e+01 7.438484561323484012e-01 -8.486596636200628652e+00 -6.714207251820482725e+01 7.504463263981678267e+01 -3.136794390242712893e+01 2.524029136956617592e+01 9.978475416422104161e+01 8.458448891761358368e+01 -4.103215778168551253e+01 5.538398682181426125e+01 1.414075367967315060e+02 1.114792521950289057e+02 -3.822526481160618772e+00 1.670666406584631147e+02 -1.069837077744914069e+02 3.986853896889847704e+00 -4.022814870270911314e+01 1.983692427525725464e+02 -2.035779872520294376e+01 2.788621261982334509e+00 -7.365122509464123368e+01 -6.864169374592189676e+00 -6.120092380122159170e+01 6.502764386143017816e+01 -9.070749112683097337e+01 6.585624121504375239e+01 -4.583073298665253503e+01 -4.770950111469417010e+01 -8.793212961763907742e+01 5.088426124480371726e+01 -5.243690210479690705e+01 -1.432335881429482072e+02 -7.620188414460876913e+01 -1.003313147657605811e+02 -1.508099075522572718e+02 1.303720246618368606e+02 -2.630995594683019334e+01 3.074300891019525039e+01 8.600730514705843177e+01 -9.978052323509318455e+01 5.461423984929204067e+01 -4.154600259552468344e+01 -6.660151554123741846e+01 -8.647641276901006790e+01 1.948892097746082186e+02 -5.441976961233921628e+01 -4.751173595961749641e+01 -4.522596266983967439e+01 7.711071203030502375e+01 -3.973833573318957235e+01 1.323192538376354435e+02 -4.791239803828673871e+01 5.290232750171895759e+01 4.358334572632762693e+00 -7.775341470319703774e+01 6.596039603890497460e+01 2.660964500002602904e+02 -8.833213650756810864e+01 4.552740484566857759e+01 -7.318736681389698617e+01 4.340754885630089177e+01 1.258776816495125246e+02 -4.935912615240225421e+01 1.403593904595045139e+01 -2.586373662595141099e+01 -9.783771663184302270e+01 -1.667399975854512206e+01 4.146047172400882275e+00 -7.488764904784248166e+00 -1.433010543560715355e+01 1.134085125600470434e+02 1.251549255313665441e+02 1.789819736341312932e+02 -2.921535409437224757e+02 3.666285825959521105e+01 -1.515152500149032733e+01 -5.983755446462776462e+01 1.731426738059363686e+02 7.307909992737076266e+01 -2.528276077966380875e+00 -1.113042505351081104e+02 -1.043393941846593798e+01 9.611592099259313215e+01 -1.290096058409059196e+02 -1.619082983761305741e+02 1.031267064817857992e+01 4.072926640404762821e+01 -5.863056297133318395e+01 4.038189160626433249e+01 -1.028479950227524000e+02 -1.453313328350402287e+02 2.024723454673505074e+01 4.666649495703956063e+01 4.643344194318848928e+00 -8.014851471983978115e+01 -8.992024141054771746e+01 -8.097125479570028972e+01 -8.414650652926101770e+01 1.218511033524248610e+01 5.460964082726528090e+01 1.120219292857031235e+02 7.635335594959248340e+01 8.609194728688449061e+01 1.033961934862354610e+02 -7.192602040008630127e+01 -7.936365918988448698e+01 6.785354874032843497e+01 6.599969883649099245e+01 5.700399051272984963e+01 -9.026449817842211232e+00 -8.768058340806437911e+01 5.200004815156102467e+01 -1.725259499600452102e+02 6.472962965258194856e+01 -4.287545543394895731e+01 -9.291532568530961100e+01 7.153208812083508406e+01 -1.655934735880524045e+01 -7.433005599342509129e+01 -5.538143367507758796e+01 -8.857548092164705622e+00 2.341847120557805226e+02 7.427436321024913468e+01 5.294349201886559086e+01 -1.002611549888969336e+02 1.431935811675859611e+02 1.043502339415978808e+00 -8.728571949789638040e+01 1.505843557026005044e+02 -1.489588365740548284e+02 1.525332784808387387e+01 -3.142447533976737262e+01 -2.148389603736388551e+02 -1.303123488949927093e+02 -8.524270459816122525e+01 -2.875403173892673792e+01 -1.164972362753428570e+02 5.632640038070606892e+01 6.353590519422997573e+01 -2.699090449337283459e+01 -9.754621437944916806e+01 1.105372391842514190e+02 1.154837895747209160e+02 4.516670015016796214e+01 1.712786809580385849e+01 2.556093973152359240e+02 4.267619492300129025e+01 -1.169001259709313842e+02 -4.410388147084223931e+01 -1.651142467242360965e+02 3.117837687047875406e+01 1.499347546368373116e+02 -1.450414034769685827e+02 1.288882496211225259e+02 -8.900713904701083834e+01 -1.854038407641981578e+01 -8.088953075502516299e-01 5.176040649351519107e+01 -1.131773202424580305e+01 -2.235287277953637641e+01 -1.839058571664587305e+01 -1.241303376775839240e+02 4.541235072905865167e+01 -2.969363405017492852e+01 -1.263388966937923996e+01 -1.050218623327893575e+01 2.212820429978619927e+02 1.706693876369139389e+02 2.278205822249373966e+02 1.290792876741644761e+02 -8.479076689876920625e+01 7.359459448132302839e+01 2.072370980599529844e+01 4.652484500346237439e+01 -3.883397081611402513e+01 2.501691478922222132e+02 -2.284976916431031668e+01 -1.339476170637295240e+02 -1.463074893856807535e+01 -4.491525709263522970e+01 -7.579632513078101397e+01 4.227542678355579397e+01 -1.147385985030674682e+01 1.782260117374339075e+02 9.044430692485960321e+01 4.004536129754981744e+01 9.599053616255426391e+01 9.275336593768896876e+01 -2.252183606825879636e+01 1.368233343301325817e+02 2.601380486307913742e+01 8.782772329370493480e+01 4.674674054970063963e+01 6.782197394818074265e+00 -1.134361411484053406e+02 -1.135754051280987653e+02 -8.826173242682669695e+01 -1.525111737949100998e+01 8.498370446667827594e+01 -3.000699629930273815e+01 9.692361392739780968e+01 4.296398935764023008e+01 -7.128380601689804053e+01 -2.934287680864549230e+01 -5.742198169435225452e+01 1.722393542487236573e+01 -4.536462633343052886e+01 -1.098269118131232034e+02 1.190955278241792996e+02 1.189528025004271399e+02 -7.742621744362493530e+01 5.274372109358586691e+00 -4.443974132624660456e+01 -3.190191716277212919e+01 -1.111680470709195845e+01 -3.063366089854032381e+01 4.363269476793517754e+01 -1.378108581223108331e+02 -5.181882720471464410e+01 -1.488126836012660590e+02 1.706217876197323449e+02 -1.975891096400933478e+01 5.769912001308716043e+01 1.165660203376941872e+01 1.414298773406401608e+02 4.367349018017004170e+01 3.494894788574494271e+01 1.511861562805267738e+02 -4.823327160547307102e+01 -9.560260397492004358e+01 2.666357531370423217e+01 -1.546778601578699863e+02 -5.228086393584570146e+01 1.001695383679075064e+02 -1.247917917885212944e+02 -3.557534367767008376e+01 8.931668297247546207e+01 -9.238361083048592093e+01 -8.750283258887884585e+01 -8.082829741258937872e+01 -6.237469437637974323e+01 2.436651358037966304e+02 1.938540134675702404e+02 1.006924425254637185e+02 -9.993511458475863662e+01 7.316646806639212741e+01 -6.475955237654511620e+01 -3.076629677097609772e+01 1.624994037814135339e+01 -3.156894241241276333e+01 -9.159806531515394568e+01 -2.767635527880689672e+00 1.439975730917129582e+01 1.063124101646033779e+02 -1.255219113598951708e+02 4.101973592962676918e+01 6.228181169241314308e+01 3.368325364175000658e+01 -8.847326083850182954e+01 -1.450099777594622878e+02 1.885006189709277464e+02 -1.736837403275971425e+01 2.457599648599959963e+01 1.527946393999092152e+02 2.600568212151654635e+01 2.704172462553849243e+01 -4.345261777070835763e+01 8.641532058642464165e+01 -1.329203471248713129e+02 -3.001853141491268318e+01 -5.984608131989096691e+00 -5.203174866372588525e+01 6.176921738575891219e+00 2.069474075879983843e+01 -3.487395021721673061e+01 1.331569520105966831e+01 2.082299638878367887e+02 -2.670101049401509741e+01 -2.729520591711957422e+01 -9.902393435037474489e+01 -1.587332384893029413e+00 -7.862902173705647613e+01 6.198489057401123326e+00 1.091629982430327175e+02 -5.065248048170585804e+01 5.879916855482211879e+00 -5.286967951947161737e+01 3.219907149495725651e+00 8.488463932427528391e+01 -1.127819866075933390e+02 -9.428709914539493298e+01 -9.987543037105760391e+01 6.944055057517697094e+01 8.425574026045732978e+01 -8.975477163876048792e+01 6.099135721789377840e+01 2.515826771442451459e+01 3.765673881633384923e+01 -1.726425773599680369e+01 8.892713342652903918e+01 7.755407448039493090e+01 -7.517369903066291670e+01 1.146113752963065835e+01 7.869565756756894359e+01 7.087862711677651362e+01 -1.938477412568809299e+01 2.428415894018216648e+01 -1.290350345724286285e+02 4.724324289042613145e+01 -3.190415227352779226e+01 -3.181808005452974442e+01 1.685209474443792601e+02 4.613288182518342495e+01 1.169528807212950454e+02 1.858373591792133936e+02 -1.339575667555565133e+02 1.450889215995587165e+02 -6.176162866090794523e+01 -1.315082957085484452e+02 8.009195410477654775e+01 -1.304233166090525344e+02 -2.794421499288904087e+01 5.486878478239685819e+01 7.817111073725664383e+00 -1.636629999516382838e+02 8.201147803907863931e+01 2.456545540703417885e+01 6.721878218662426718e+01 3.533807458852336936e+01 9.207209217292730230e+00 -6.530098807777260106e+01 1.125700816045096389e+02 5.302475123122601985e+01 -6.043516897465520543e+01 -9.851013405279645951e+01 3.784521731987129556e+01 2.505296156436698141e+01 8.018576727362561485e+01 1.788538196294975364e+02 -2.394316293114997052e+01 -1.071883771974916186e+02 -8.236976241915520802e+01 -4.992656585406439973e+01 -4.310893366264838278e+01 -1.427411777783266018e+02 -2.192498847157279940e+01 1.260304675881831997e+02 7.250256092775141781e+01 -1.190493683128552931e+02 -1.458924455643605711e+02 -6.622538081086574380e+01 -7.422324714640035381e+01 1.428597716386611580e+02 -1.658478201170543400e+02 8.423363267510197261e+01 -4.481351423881228868e+00 -4.187599165247134181e+01 1.292005741201388425e+01 8.865359019843839405e+01 4.819122530053069653e+01 1.344465472019686842e+02 -1.548165115520295103e+02 -7.876639799676837583e+01 2.469777827403027715e+01 4.078322000329733754e+01 2.004883058126480080e+02 1.415101051613873722e+02 6.377390402196068919e+01 7.013849541507613594e+01 -3.308797090957903464e+01 1.476462250941645777e+02 -1.744997455418011612e+02 -6.170697076232864475e+01 -5.221360941347674611e+01 -5.037809441541998012e+01 -1.004254124333786677e+02 -1.459189842217622157e+01 -6.675098369606571680e+01 6.920837347742272527e+01 -8.886149113423321921e+00 -5.645301716348012633e+01 -6.049787714926349480e+01 1.752524058166705458e+02 5.744089406117460328e+01 -1.337205956098846826e+01 2.031706580336317529e+02 -1.053952116474809344e+02 -3.435349030223352429e+01 6.513054171112023027e+01 -1.360384766992934480e-01 1.457764588864891664e+01 -1.217076463181401493e+02 1.713507434205888273e+02 -4.758643006904181050e+01 -2.614319491251677263e+01 -1.066564989408278166e+02 1.223517032531165256e+02 9.315775828709051609e+01 -7.533561533987968062e+01 -3.659222964413855550e+01 3.787963685680250592e+01 -1.471161249655916095e+02 -2.019452617617197576e-01 -7.259351349280601085e+01 7.460148248040264995e+00 -1.050186287013256532e+02 -1.540238018144190448e+02 -6.867596389087732689e+01 1.439562764259309517e+02 5.491360574129897287e+01 -8.707306860608930776e+01 8.658169411591585174e+01 3.321173438796878230e+01 8.580873100096064832e+01 -4.089860064473423051e+01 -8.161681914176966757e+01 1.660526765263883533e+02 4.040499197739057280e+01 2.809275350608464805e+01 -7.083026072145361240e+01 -4.106573596112423985e+01 9.222293276396278827e+00 -6.965390318708461592e+00 -1.677089025967303257e+02 -3.359492489445162278e+01 6.247775100394911618e+01 1.082281382764573010e+02 1.510675859330384583e+02 -1.289173445100766102e+01 8.691478899943184899e+01 1.529662561607128737e+02 6.147270539641435505e+01 1.431444697336412446e+02 1.557407758073921578e+01 1.272646013120725001e+02 -8.134377985714013448e+01 5.166538746336068755e+01 2.837615111474000429e+01 7.345832585389061364e+01 -1.028465582505881741e+02 1.917600314885536079e+02 -1.245452329102440387e+02 8.548350697131948550e+01 -1.038748258046831410e+02 4.467060560146846626e+01 1.335867100508711935e+01 8.769477530811009558e+01 -7.119898308042081680e+01 -7.299357090475479026e+01 -1.075490716485650822e+01 8.609456768380556468e+01 -2.859354478973866875e+01 -1.573977519885939813e+01 -1.896050423620971870e+01 4.572311138085006554e+00 9.472686365985899215e+01 -6.034984871847414212e+01 -2.606384827327365983e+00 -1.868714644907608431e+02 1.175546843675051889e+02 -1.202378288238079307e+02 -7.111285280644344198e+01 -2.264049018048279649e+01 -1.039309080970296009e+02 -5.116018538567247020e+01 -5.640663928638876712e+01 -1.896427889573288894e+01 1.311239448532041934e+02 5.203711238679797901e+01 9.664585956503458419e+01 -1.309965848512887874e+02 -1.333699572811960081e+02 -2.759589375204106432e+02 9.836884085857862203e+01 1.003052864685521826e+02 4.074672902145563569e+01 -4.089347582693510219e+01 -3.576211375919437785e+01 -1.767983396108269289e+02 1.405970311050786563e+02 -1.033770864912269758e+02 1.029534350021076961e+02 -1.532129813681898156e+02 -1.378702126482323820e+01 -5.330302845278094992e+01 -1.148006725050598646e+02 -4.438250414687898626e+01 -1.208759343262527430e+01 -8.921860854109932859e+01 -9.958754671213031884e+01 -1.190153647798120673e+01 6.852138972507120229e+01 -1.199530488770299002e+02 -1.505948950302329514e+01 -7.099667657020648903e+01 -1.265100133515776974e+02 6.332735351510773825e+00 9.153968221427950880e+01 1.594003844835365271e+02 -1.834568847039442119e+01 -4.433933739638806060e+01 -1.195957882521961437e+02 -1.576178257790445514e+02 9.999681071062532567e+01 -7.006419514612038313e+01 7.608529930980850509e+01 9.052420370234031566e+00 2.813654046447576107e+01 7.114586429357605368e+01 -8.168899324466362089e+01 7.968786675696878774e+01 1.111062461790940006e+02 1.518244698088630003e+02 -1.122935616559774701e+02 1.002114718295679836e+02 -4.607027408122550582e+01 -8.753236729646484093e+01 2.068888020947443067e+02 4.742936650786435138e+01 8.046935682435891124e+01 2.043246416157209921e+01 -6.102435021827660222e+01 -3.367800659339515335e+01 -2.028326389254780509e+02 1.018478477215346061e+02 7.855032920459812829e+01 -7.297596124387467853e+01 -7.047560915447692764e+01 1.399685602683376260e+02 9.743321228820975932e+01 4.928569527949218099e+01 7.332622208711667611e+01 -7.555453361885874131e+00 9.947978727328504078e+01 -9.987365657066975189e+01 1.796401373786441127e+02 -3.806465951750018917e+01 -1.176294576980452291e+02 -3.636457673101609345e+01 6.916201612488941919e+01 1.420333569682594543e+02 1.237295659673056569e+01 1.675777655529498418e+02 5.030470052474669984e+01 3.243293674861804732e+01 -1.073019763361487549e+02 4.316351272004637707e+01 -1.204847958044448006e+02 4.600920345243592635e+01 3.717699315572748020e+01 -1.189553654667111289e+02 -8.198506187197072848e+01 3.843372567847452359e+01 8.411365181118300782e+00 -2.236789376382230898e+01 4.038835691586956500e+01 -2.063494821356486142e+01 -6.082140142795454096e+01 -2.531306625868645099e+01 -2.160465077530369271e+01 -3.838566085472812972e+01 1.808561285854909784e+01 -7.764640954161704656e+01 1.146629950624294878e+02 -7.159261471561298151e+01 -4.036933827535984065e+00 6.328553651561898619e+01 3.729654170425172666e+00 1.539630552338435798e+01 1.539988993216543811e+01 -1.128940679061108767e+02 -4.245584636025173886e+00 6.270155942536187865e+01 -2.230910075305241662e+02 -8.184104526680899028e+01 -1.086241909810526636e+02 4.222359010296209192e+01 9.274175720127217915e+01 -8.846198335960785641e+01 -1.618255222633530082e+02 -1.785176905684625979e+02 1.922974747677086782e+01 -1.396659587555192559e+02 -6.100441529231138915e+00 1.422031128385273746e+02 -6.803739052990254166e+00 3.574398690627936048e+01 -9.514498704821332353e+01 7.681125524661179327e+01 -1.139649699851740650e+02 -1.484062086442896877e+01 -2.908640671534708133e+01 5.532948133492483578e+01 -8.478125874534544693e+00 1.014508326957547553e+02 -1.171902351926362797e+02 -4.806251245565815111e+01 8.316511424622670745e+01 6.344781591266377063e+01 -7.892424082950655873e+01 -5.217439111544337038e+01 -4.734144384158867780e+01 -2.773269328901871518e+02 1.854123901789018589e+02 7.284771489429262203e+01 -2.256114935221451034e+01 -2.840920086825776991e+01 3.975165341824961729e+01 -8.046577632998315721e+01 9.518654423268070275e+01 5.786473939322877413e+01 7.831922247053870478e+01 -8.040165533031064626e+01 -2.531527904594897294e+01 3.183361796286849454e+01 1.661054050488171541e+01 -4.095649918454546423e+01 1.509561755819742643e+02 -1.650692720967696303e+01 3.383947390891152196e+01 -2.196000844866259172e+02 -8.085410381324481932e+01 -6.984847516716406801e+01 2.199463294666779234e+01 1.042592631053281309e+02 -2.213349273915048343e+02 -1.786111377897809973e+02 2.116170588641431038e+02 -1.008634253905036182e+01 9.169487308326326058e+01 5.979248778050581592e+01 -5.283062790418905763e+01 -1.250730340911904790e+02 -9.085513137611449963e+01 -4.797124920215004096e+01 -3.571126955445608075e+01 -3.739094689122449466e+01 1.539372676914172722e+01 3.554114790054754280e+01 1.593279993295834629e+02 1.176884148024715415e+02 6.689279423833078830e+00 -4.215319612162345742e+00 -1.515494116311628261e+02 1.142393943862810772e+02 1.520833428872281843e+02 -9.879246777640007338e+01 7.038313125224598821e+01 1.604237635247715232e+00 5.246416705929321722e+01 1.196914923395041370e+02 6.773413638001785841e+01 -1.279991585622056789e+02 1.538142935762650687e+01 -2.806186464597191232e+01 1.064424397827277602e+01 -2.204430302719602963e+01 4.328954582018493369e+01 -2.489694227645793205e+02 1.730431859696746244e+02 6.927319071929119332e+00 1.523003482664624926e+02 -1.004379560228586499e+01 1.014414328239150933e+02 6.846141289146031284e+01 -4.011124538623287350e+01 2.864405326177395139e+01 -6.965320551280261441e+01 -8.512830910756871106e+01 -6.890391654415397227e+01 -3.067006906509616826e+01 4.320908547694387636e+01 1.053992294499714433e+02 2.723322015506897387e+01 5.951793813278601419e+01 -1.003503306100835601e+02 -1.312828594970818870e+02 -1.290883036318817112e+01 4.440103463030367692e+01 -4.349543996772967347e+01 9.060304144944016969e+01 5.320766948871566626e+01 -2.646956443208626908e+01 2.867863215764545615e+01 5.881818279962379137e+01 -6.905901593147632411e+01 -1.281099248214073327e+02 1.361026866053369133e+02 7.485081513762249728e+00 4.804972090308934440e+01 -1.431339778546025627e+02 -5.120720967464998097e+01 -4.110006790923992348e-01 -6.313005555932142698e+01 4.083503308142363508e+00 5.401399891531212916e+01 1.788987766649254354e+02 3.755423923850199941e+01 -1.051529137553530191e+01 6.936892993591965251e+01 -4.364503080429477677e+01 -1.046323115835663344e+02 -1.326865902808801536e+02 8.988977225241134406e+00 2.412069059334098498e+01 2.290673450187627935e+01 -5.465687483864346063e+01 1.160969009791767235e+02 -7.767891948893013421e+01 1.233497691340191551e+02 8.391765264754370435e+01 -6.253552901345526749e+01 -8.152981797663782970e+01 8.100262067703627622e+01 1.962991426977147214e+01 -5.053987428472652255e+01 -5.179819767970732158e+01 1.316204849144410787e+02 5.519253436303102234e+01 7.694585876556028836e+01 2.517352652638413346e+01 -4.047782094777617345e+01 1.034297345681686551e+02 -5.256093834388235564e+01 5.550587744805974832e-01 7.372684332503894211e+01 9.596787408941398212e+01 2.462637967948604967e+02 -1.688766473537004060e+02 1.551152887793334685e+02 -6.510974932141876081e+01 -1.469027099995812868e+01 -2.424372256933841641e+01 -1.999386507404105373e+01 -5.315356763173301857e+01 8.974262825720911962e+01 1.775936663650303160e+02 -1.146420409151193098e+02 2.986515381172760186e+01 -1.225553280277258779e+02 6.780846008538767933e+01 -4.295965840569644456e+01 -7.832975750721300301e+01 -5.213067904415552078e+01 3.985042808207704468e+01 1.872962406461794416e+01 -7.910495525733607280e+01 -1.365062280986939527e+02 2.009853648909535195e+01 1.526275004256728778e+02 1.383935210699043594e+01 1.767966037347642043e+02 7.223280444927820731e+00 1.305014066501681214e+02 -3.353153207139558845e+01 8.802150922760097274e+01 -6.929232789117764924e+01 -1.095423094577931096e+02 4.797497945551855736e+01 -5.629496364284843679e+01 -7.625571454450611952e+01 7.074341689746506745e+01 6.294186548802005454e+00 -9.158327815428407348e+01 -1.463464427843333340e+02 1.438035218466295078e+02 -8.670671474950709978e+01 -2.311453461654609853e+00 1.168340222056044126e+02 5.643817937756763570e+01 -9.559167312052601062e+01 1.037694080768546634e+01 2.746119647510303707e+02 5.189825571322331399e+01 -1.536212670464840642e+02 -4.650371677170269891e+01 -5.991478953927718720e+01 9.368507219980918066e+00 1.048580803137199524e+02 -1.009183059682111718e+02 2.106113309554186586e+01 1.272523412402300949e+02 1.831113249417591504e+01 -2.061237397209259825e+02 4.710935746939667013e+01 7.366275415892587830e+01 -1.327009010009704504e+01 3.199391860240938001e+01 1.751777999707419819e-01 2.202794574943500905e+01 2.707110914460353612e+01 1.130787597927337487e+02 9.571983827346653584e+01 1.527012802880434528e+01 1.454722738311626529e+02 -6.249891726521364888e+01 2.408019587207730865e+02 6.350484990218752301e+01 1.383914990581259303e+02 -2.144372353630132011e+01 8.796196432265537624e+01 -4.776815537116406318e+01 -1.429447149319941559e+02 2.554345814852605301e+01 9.274968984003628236e+01 -8.551176764942057673e+01 -1.022986759553027838e+02 -6.498885514577426648e+01 3.576979893917514630e+01 -1.115216231060558272e+02 7.295557353747132368e+01 2.738205412926093629e+01 -9.534296837052730211e+01 1.854962291425453316e+02 -1.148721868644618027e+01 -9.941772538812446669e+01 -1.310876852194904352e+01 -1.996235929512199903e+01 -1.369656813649911840e+02 -3.908838596239222341e+01 6.009084361291299814e+01 1.287504071395529479e+02 2.837683860996025587e+01 2.611925420141821874e+01 4.375117347708188476e+01 -3.488268139819138014e+01 -1.422585735675679359e+02 1.553322865418521204e+01 3.023211649819594271e+01 1.300538197759714478e+02 -9.652640541320034018e+00 -7.436614210359644517e+01 7.151049321896964273e+01 9.493925483285953204e-01 3.106291232187226115e+01 1.360020622301894377e+02 -1.733808061960807549e+02 -9.072639875734063253e+01 1.218684878168668320e+02 -2.048092467942125836e+02 -1.745924653961708373e+02 8.642589114962862595e+01 1.461961693149177961e+02 6.021635940342876836e+01 -4.254988001939094211e+00 1.478301746145364746e+02 -2.084236812624987465e+02 1.017286731057897242e+02 4.023017136253716330e+01 1.206369544736115245e+02 -1.790392935407562902e+02 1.010869173108582828e+02 -2.678957690355111509e+01 -1.269176447076197576e+02 -5.051741784515366263e+00 -8.770663104765883133e+01 -1.538578750386272453e+01 -4.137307565322000613e+00 -1.169556363870021585e+02 -1.170731029979986602e+02 -5.939440953180865534e+01 -1.223722843212229776e+02 1.907959798902898001e+02 -1.529722761831732214e+02 -4.764242643389591336e+01 1.638045105831768069e+02 3.221459818563786826e+01 -2.810067528361952327e+02 -1.207032022671139657e+02 3.369903054959382871e+01 5.189801194741779966e+01 8.098446567805344998e+00 -1.467553113978053716e+02 3.387771142247324718e+01 7.132271316780736115e+00 -7.056585972157414233e+01 1.924746444786535449e+02 1.923049829794465779e+02 4.131091495252837476e+00 -1.979927452517765403e+02 1.195948897338663812e+02 2.918797919247063177e+01 3.628829057047524120e+00 7.269702645870327729e+01 -1.969843520715324985e+02 -1.310227498657295371e+02 1.338670072302554104e+02 1.041022719444536335e+02 5.021707630882062290e+01 1.359158066501774158e+02 -1.692331984292191862e+02 -1.943435295632319537e+01 -1.237880431820559295e+02 4.146593790351257525e+01 -9.861394443082275529e+01 8.266562831936109035e+01 -3.221062203179871375e+01 1.175850684708109384e+01 1.684548787616767243e+02 2.711185345620586418e+01 -2.502185992770990310e+02 -1.199943231956912086e+02 -7.911684975167329981e+01 1.500994861602682420e+02 1.190582797622667321e+01 -5.117132373550793289e+01 2.877506628419191870e+01 5.931305998381851907e+01 -3.753697029330366064e+01 1.020632475389954266e+02 -9.564416197505192940e+01 4.672000409745577798e+01 1.062628341239246055e+02 -3.373442789323269153e+01 -9.315456433574574646e+01 -1.077210802109229064e+02 1.136947994442992211e+02 -4.717132529779213712e+01 1.865922552804666168e+02 5.430718623071175699e+01 1.053203303998236464e+02 1.751763512844847810e+02 8.121194625800995937e+00 -1.180201729157160173e+02 -1.573206225929498601e+02 -1.083752964166643409e+02 4.036234338561031620e+01
-1.259644332563832059e+01 -4.499609316091806477e+00 9.600561239243602074e+01 -2.123891168354786601e+02 1.441176924159756538e+02 5.886343370560456378e+01 1.410821197109607681e+02 -1.197751763020862228e+02 -2.560672418955814766e+00 -2.230566006741219454e+01 -2.035277346196575365e+02 3.032024289399769401e+01 -1.698293923751295154e+01 1.134154544823397543e+02 -1.160161500598863142e+02 5.722425090214021282e+01 1.161499587793635442e+02 -4.261430805010203926e+01 -4.595977754776014024e+01 -2.500152550909619009e+01 5.724414480969166874e+01 5.846109213517802772e+01 3.007972222748177060e+01 -2.155609246679587727e+02 -4.778909969663405377e+01 8.489785319798568253e+01 9.194172961707888447e+00 -9.630481967942378319e+00 -6.166883864723870801e+01 -1.438134959022107573e+01 6.799181661429076939e+01 -1.347997749606115292e+02 -5.745031130273832076e+01 8.309471570885426317e+00 1.924619268213162400e+02 1.965999876530598556e+02 -2.981644175517027051e+01 5.180731778075004001e+01 -2.366749648257371608e-01 -1.294484845448518513e+02 8.896069996495351972e+01 9.938670884167048314e+01 1.005873696334409146e+02 1.081832757489498675e+01 5.735684940678402910e+01 4.460204264172230637e+01 3.603543520927479449e+01 2.722880219430973625e+01 1.022220259873424197e+02 8.314848913524177476e+01 6.077887241853424882e+01 1.510975947351513753e+02 2.297482081933737561e+02 1.813085653646288904e+02 -5.482347254532788128e+01 4.566989289072548530e+01 -5.956127683917947024e+01 5.225946121460824401e+01 -1.781767018116304371e+02 5.237120905513215519e+01 -1.897804086982074523e+02 -1.563996770570410320e+02 1.200983483021938802e+01 -8.596099821345864811e+00 1.571318573704920709e+02 -1.928085101258690486e+02 6.977315997997844477e+01 2.130864700976404151e+02 -6.868420973583007516e+00 -1.806152639733346348e+02 3.292333403531614522e+01 1.827881246549958121e+02 -5.665841113127212481e+01 -2.471599833872844556e+02 -9.509318547362366303e+01 8.278134624363140404e+00 -2.133377751647365130e+02 2.977327758925537893e+01 -1.664087460881960112e+02 -1.720710555746018713e+02 -5.304906567910227722e+01 1.413665717649002431e+02 6.440583911810655593e+01 9.853725165674500630e+00 -8.227906007723990456e+01 -3.952120178585373367e+01 5.912942941237261607e+01 -2.154393173473504817e+02 5.020345281934626769e+01 -6.953078732719907862e+01 -7.254036099743098021e+01 -1.641052832369267946e+02 6.035013610341658818e+01 8.603672952623759329e+01 -1.506731921806923253e+02 1.604300176988508042e+02 -3.701586572682230525e+01 -1.571185314729207683e+01 8.140402097502050083e+01 1.451880035419029866e+02 2.020958119391449159e+01 1.406624810134171071e+02 -1.719979637820712171e+01 -8.424268819623772231e+01 -1.820637618164674620e+01 9.386519899296798997e+01 4.295603252209431133e+01 9.344426538657560855e+01 9.014698381910777414e+01 -7.938413829875781857e+01 -1.623066083832657682e+02 1.175387346513018372e+02 5.181094308268875892e+01 1.552811860608167116e+01 2.920274419816562173e+01 -6.489080550676690962e+01 9.173892929333112534e+01 8.586536753052213555e+01 -1.313025095813274845e+01 -6.809065834556635366e+01 2.931908162758919545e+01 6.009284670727183197e+00 -5.874113103965611771e+01 1.620743990642661174e+02 -3.131956283638216121e+01 1.162210434988951988e+02 -6.699020724470641142e+01 3.669562621603865438e+01 -3.446771746717704588e+01 8.555648140046227468e+01 2.243568842852166156e+01 1.105141330407850404e+02 -1.109569033804604459e+02 7.109569216443428274e+01 1.180640397945821434e+02 -4.273381829438406498e+01 7.332328006623705541e+00 -1.224795154682721865e+01 1.117553060925476416e+02 3.518254193160848864e+00 1.612971307656900422e+02 -1.353026997094233650e+02 1.116030364497235041e+02 -8.732658157155343304e+01 9.170151660083382694e+01 -1.311818169699804457e+02 2.824193974733908874e+01 2.370210726735605533e+01 1.694673179397355733e+00 3.476777023270752665e+01 4.406781094183629932e+01 -1.184289622537333919e+01 1.045599352485312927e+01 1.035199522762960243e+02 1.218558266090101654e+02 -8.306406209841024690e+01 -5.187622720013435895e+01 4.532443385312097917e+01 1.446284856030226829e+00 -1.312540548634141544e+02 -5.284757512145914404e+01 -3.391841374354292782e+01 4.684715200079001818e+01 -6.278393911803667038e+01 2.195420807613795589e+01 1.537497526679862005e+02 -7.616841069875181347e+01 7.752998235427163820e+01 8.061026662879110916e+01 1.083002821905579793e+01 1.184300552695224695e+02 6.033533666171028642e+01 1.612618042377621350e+02 -3.324189885914109510e+01 1.079320909429046793e+02 5.335389445273339248e+01 -1.541972491887534247e+01 1.960742950093504930e+02 -1.333207419949054042e+02 4.698770125985000590e+01 -1.802897623043570832e+02 -8.090845424824929921e+01 3.947094583261421974e+01 -6.945039423952958657e+01 -1.498451096604302109e+02 1.917599034714016284e+02 -8.252885986069399848e+01 -4.570262260500886242e+01 -4.453035808126288231e+01 1.171725215120126791e+02 1.874548414321263010e+02 6.231923397029466116e+01 1.407741036254075482e+02 2.112812517232413256e+02 -1.530273106195987332e+00 1.567909957789239854e+02 6.824054416483815544e+01 1.833040415087986332e+02 -1.211330803814505117e+02 -1.138421276389032855e+01 6.126795950515742106e+00 1.828612034353659510e+02 -8.745971872833469263e+01 -5.828908864775609544e+01 -5.095860244958529250e+01 -1.290605512141384281e+02 4.501127080179066375e+00 -9.716871495294884653e+01 1.484619351267802756e+02 2.266192140672091071e+01 1.153739000738299936e+01 6.961515629068526323e+01 -4.721548972366282904e+00 1.126696543691961523e+02 -1.529855629799056089e+02 4.374700745270477142e+01 -1.644263501940645540e+02 1.130609183234181643e+02 9.255268718837771758e+01 -6.477383201432093074e+01 4.507396033710698902e+01 2.292975071137426539e+02 -2.934930671620938014e+01 4.009980096032870733e+01 -3.146911467534818740e+01 5.579455654809392939e+01 6.186530001409724377e+01 -6.056251493988496826e+00 9.809219258181069279e+01 9.765768094608307592e+01 -1.866418367588522926e+02 -1.475209245993722504e+02 -1.153841588823531481e+02 -9.067237721914494841e+00 -1.441614593966293967e+02 1.112365556015318475e+02 1.061953593113147178e+02 5.680978291426014692e+01 1.074893190471792437e+01 1.517665975691424478e+02 8.081384121289563893e+01 6.498787450591430570e+01 -9.777193627876577864e+01 1.467321898518860621e+02 -3.478076450017633103e+00 1.052617456668840390e+02 8.492536427450765757e+00 3.535907352763431533e+01 -7.282160683015281677e+01 -8.730445569661232241e+01 6.888357646984495375e+01 -3.728629379877362204e+00 1.406311066224411377e+02 -1.207346241862083680e+01 -2.731321277231554490e+00 4.410847915442604261e+01 2.175575139387103007e+01 1.360052968144913450e+02 1.414703096585095210e+01 3.448253743620886524e+01 -1.487150395743980198e+02 6.326529607297052138e+01 1.284582149905663186e+02 -1.688388278838928613e+01 -2.190850358469659511e+02 8.108002928337822368e+01 1.307244594555733386e+02 1.956847839669360667e+01 1.813097953287582982e+02 -4.119572307457297633e+00 4.108103991313244308e+01 -4.180500900642468309e+01 -1.327278211630388682e+02 5.364440943628021330e+01 -4.544579319592359212e+01 -7.747312441146392814e+01 3.943793513617983848e+01 -1.766854954153490382e+02 6.848417951758011668e+01 1.572147481148208215e+02 -9.673565593388323691e+01 1.653344169285585110e+02 -9.322851537422275214e+01 -5.689604006865585539e+00 -1.007985104858962622e+01 7.320401677312591460e+01 -4.452593755696328515e+01 -1.028669106704647760e+02 -8.456547077032929849e+01 1.391161190145057844e+02 5.639466050541368247e+01 -1.257606989917202043e+02 4.207083962198140625e+00 4.138276237639572486e+01 7.869709743446837535e+01 -3.843862024151613355e+01 5.712322744709301503e+01 -6.572723723199244716e+01 -1.546456032008497345e+02 -3.298550547873961136e+01 1.342757298194967177e+02 -1.080390810930687735e+02 -6.073294499875365737e+00 -1.550787869923242681e+02 -4.632082907099853486e+00 -1.389098855994454880e+02 3.137899899197664055e+01 5.735552742792052072e+01 -4.790257692110205312e+01 -7.838792144239357640e+01 5.372628168427998396e+00 7.080426797151142182e+01 -6.448170586768557655e+01 1.281146278086354187e+02 1.004330590233898874e+02 -1.213988476604683768e+02 -1.002973448147881470e+02 1.284360017013009951e+02 6.777972492345243438e+01 1.427839235066244044e+02 9.500118769409840525e+01 7.708685706579822750e+01 -5.727227319120947868e+01 -7.763783055199030514e+01 -7.316860248362152674e+01 1.941728624021958467e+02 2.907338752468008281e+01 -2.365865420890991544e+01 -6.498621150257775980e+01 -4.735369640449431472e+01 -1.245131282090651013e+02 -1.560713810237463406e+01 -1.658916470118916777e+02 1.181928305081556942e+02 4.345237395499033539e+01 -1.089028188905383274e+02 -4.576307024395331524e+01 1.131769183148519033e+02 -9.159056411657499552e+01 9.720788155703922939e+01 -1.119932254297860510e+02 -1.113663662131268595e+01 -9.026733673100386568e+01 8.483149168687823760e+01 -4.013719673637865526e+01 9.680793864189313425e+00 2.774801190925655803e+01 -1.196650427467497906e+02 1.180839733481782439e+01 4.572057524428078779e+01 -2.109807459485516290e+01 -6.494945559590730966e+01 1.914324478806509831e+02 8.168863788548836169e+01 4.448654127879753162e+01 -2.966906307172692436e+01 7.575536551442530708e+01 1.583339778710660823e+02 -8.710515179375002504e+01 1.978850903868255386e+02 -1.257335676416458341e+02 -1.737005800799122426e+02 1.433442364454943174e+02 -2.210016193857465510e+02 -8.798697816918242820e-01 -2.313468850853229526e+02 -1.443844465167676390e+02 6.779691965184069602e+01 -1.375032996329811965e+02 5.512203553908680931e+01 1.038768989082004452e+02 -1.514105151007717041e+02 -2.840598798422718119e+01 7.123726461376678287e+01 1.264689114130789420e+02 -1.758050403344563222e+02 8.265360479861308818e+01 -9.253631862165129007e+01 -9.293420237344975021e+00 -1.307117859985584474e+01 -7.513808432861820563e+01 -8.526309416705768740e+01 1.713036390014564745e+02 -2.051996062636590779e+01 1.283215747382984606e+00 1.230379919336546948e+02 -8.196471106957520192e+01 -3.253241399334286399e+01 -1.017850302220470553e+02 -4.613928683398417974e+01 4.854283559310765384e+00 5.610679889715108004e+01 -1.277790383673854393e+02 2.244841420355107857e+02 -5.101023871963690937e+01 1.161174792470754511e+02 -4.625246592992071015e+01 1.134762400249492202e+02 1.319225780649023534e+02 4.542674506707370341e+01 1.157158523736805193e+02 -4.098824762041149228e+01 1.327363817029662698e+02 -1.484484074297209304e+02 -6.203712996932915047e+01 -5.973742535522820418e+01 2.428195679306694288e+01 -1.539748183488090660e+02 6.882225971775743290e+01 -2.926807189936259235e+01 -7.841805847446737232e+01 8.499517928181137449e+01 -1.433979472360208831e+02 -8.658572184564931717e+01 -4.998742285968342713e+01 3.138178509689594264e+01 1.231808613132512278e+02 1.108572267291066851e+02 6.555444094003348710e+01 -1.462138397920519806e+00 1.660173623034316961e+02 1.162824592734232567e+02 -8.968938516235711234e+01 -7.411031536558762411e+01 5.224546370815106400e+01 9.422487256463689675e+00 9.298269804776404612e+01 1.582734049516820676e+02 6.700502794907173154e+01 2.322118478326317970e+01 -9.701996726880001631e+01 1.629870533088653133e+02 -1.078491235264565802e+02 -1.568096588780738614e+02 6.236795487931863136e+01 1.057944186815818455e+02 1.865253210245277060e+01 -1.317126757398253858e+02 2.816939700615043307e+01 4.021061943217391388e+01 -3.629166131325920475e-01 1.241752128147535217e+02 9.277168814990967860e+01 1.622865712293683771e+01 7.427508499710583578e+01 -1.013527361063301413e+02 -6.057526943127220065e+00 9.323054665991247703e+01 2.814984864534697806e+01 -6.162836693038570957e+01 1.877209428476264179e+02 2.190212266266525489e+02 -1.188631328480326630e+02 -2.619273930463807076e+01 -1.990867080112079464e+02 -6.837726856520302476e+01 1.482752979956161710e+02 3.170003549660157738e+00 -6.723627878027922122e+01 1.550736743476825552e+02 -5.915772274850876755e+01 -1.520947609628739485e+02 1.293087285878080763e+02 -6.359407386186507694e+01 3.270458290952947777e+01 8.171363752638920630e+01 1.306314457590270273e+01 -2.255341153042147084e+02 4.007688664460583539e+01 -5.862226653127287079e+00 8.531201137081919228e+01 -2.230727641923344606e+01 9.565779039846000842e+01 1.610101401566377533e+01 -8.011396162269284105e+01 -1.939261147413426301e+01 -1.658544044990113377e+02 1.088014969452306673e+02 2.393309704614960864e+01 -3.937393285191843262e+01 -4.901025606991903061e+01 -5.956211748267948991e+01 3.893294206096305032e+01 1.520714285087696283e+02 1.255605914712901949e+02 4.071703649488851795e+01 -1.872375120136712781e+02 -3.671185506360278339e+01 4.147457280872355767e+01 1.110028966851528764e+02 8.247998756732577874e+01 1.459732415747378198e+01 -1.760016972280785694e+02 1.245636980517952281e+02 -2.116987913216414370e+02 -1.947365493083158867e+02 -1.719495358972616073e+00 -6.979367551288663662e+01 -2.284592150166617941e+01 8.242267398265265399e+01 5.290645502342007234e+01 -1.051889960196796352e+02 -1.433290172023800437e+02 1.378861303584676179e+01 1.170276270082211596e+02 1.953828504962088886e+01 -5.365549451350484844e+01 -4.889461737767602756e+01 -1.104486001647883420e+01 1.526879597150368681e+02 2.115360993638444853e+01 -1.673652375095066134e+02 1.236644457834202342e+02 -6.440231754068086900e+01 -4.019056474772114029e+00 1.483427775307465879e+02 -5.034577392677162777e+01 -1.888174452402849113e+01 -1.058218716779941246e+02 -5.775196788198398323e+00 -2.296511289920271537e+01 1.268242876344788357e+02 1.156424485733569014e+02 6.510096475351608092e+01 6.306586519154701165e+01 -1.801683657247111725e+01 1.301776684662642936e+02 -1.086433151277007880e+02 -4.093069687812274537e+00 -8.770764550195023901e+01 1.512891250988743366e+02 7.024489361728565484e+01 4.975380215776718984e+01 7.934528439328321525e+00 -5.135920286305432825e+01 3.311502137783774913e+01 6.464109153812092501e+00 3.549125205954081874e+00 2.320292519556967292e+01 5.757259993997887193e+01 1.639899006246468787e+02 -3.744826713057742040e+01 -5.004868713032056604e+01 6.433508419067902651e+01 1.113940242104053198e+02 -1.234666864153938803e+01 8.857954763442454293e+01 1.002895852335389293e+02 2.030368835024995917e+02 -8.333970772750775780e+01 -1.181283722881292135e+02 -2.759264550453511333e+01 5.988219787508018044e+01 -9.774255893417132413e+00 1.034325124359839094e+02 3.587771587374594873e+01 -1.565875871228085146e+02 4.337682940244564378e+01 -8.613075890732942241e+01 -1.302502814285744819e+02 1.294893694733303562e+02 -7.322431604220727763e+01 5.698500614861600155e+01 1.069741451752699817e+02 -9.525116861674004554e+01 2.263256077226798268e+01 -6.941393822767929578e+01 3.877797213426082124e+01 -1.103309729982350689e+02 5.927961459317546655e+01 5.261667408865820761e+01 3.701030892153967411e+00 8.080488753307480465e+01 -1.470110627896448250e+02 7.343528425548771565e+01 -2.821788612395716456e+01 -1.613017976553044548e+02 9.025377536716679572e+01 2.345400404722436605e+01 -1.872218856012452761e+02 2.246615676648177384e+02 -5.177555007771302842e-01 1.003970234853000250e+02 -1.151332977530486659e+02 -1.854044655910547306e+02 -8.909664636600601284e+01 2.399154779739538501e+00 1.363886164213469101e+02 3.766652293949278807e+00 -9.125638257696675737e+01 4.805081731769243447e+01 1.308374177026977634e+02 6.201321891348155191e+01 -4.936847203192754563e+01 -5.647342452561206017e+01 8.067575185455470432e+01 2.931255606085798959e+01 -1.867505077248170551e+02 -1.979032264454044920e+01 1.613647189790119967e+02 9.430433253691010975e+01 -5.475244397052627221e+01 -1.067413806879074940e+02 -4.073411395279823211e+01 -4.590514822700009745e+01 -1.092640975306736237e+02 -1.758314335608379864e+01 -4.358847163836028216e+01 -1.084773442885344963e+02 -1.259724451232663114e+02 -2.575095793829759927e+01 -1.199974968695433688e+02 -1.278035398755711043e+02 -3.659661079714947363e+01 -5.281135944221310297e+01 -1.060188255691334405e+02 1.841083171034749455e+02 1.040223020820252309e+01 -2.781513549982272693e+01 -1.680676689805429547e+01 7.780567277360140110e+01 1.548155803526479879e+01 2.477169731873311065e+01 -2.098880630448359952e+01 -4.580001230808944968e+01 2.067594387044580273e+01 -1.437934863925600268e+02 -1.574271587553674578e+02 -8.936472498150050114e+01 -1.887458344121313019e+02 -8.861539988707060900e+01 8.480227626784160577e+01 6.071722682646549885e+01 -2.575698609949300888e+01 6.009614404537715870e+01 -1.548718143184926817e+02 -4.045552954103989407e+01 -1.148745439801913051e+02 -6.600893593932096337e+01 2.086931209480792120e+02 -2.030253567805117996e+02 2.029995391789940697e+02 2.467605571735024128e+01 -5.581267506901740205e+01 9.116999476869591490e+01 1.227103655209416786e+02 -5.131263326630466537e+01 -2.015377007153130364e+02 -1.474510446700400053e+02 1.011637040106035528e+02 8.283367399655762142e+01 -1.340643487991368374e+02 3.157289698971400682e+01 -3.926162802791572659e+01 -7.655070268338108974e+01 -2.811595123271692032e+01 -5.420409798957543757e+01 -8.546063428406540652e+01 -3.369709020001428712e+01 4.490413002045525737e+00 -3.228443550490029423e+01 -3.562925996965400355e-01 -1.414497694579775455e+01 9.091240941429812494e+01 1.257303085364834061e+02 1.301072639679889420e+01 1.662322978064232259e+01 -6.246339498561368941e+01 -1.939272594814695481e+02 3.347376043637699183e+01 -9.069986814588366997e+01 2.556280841007358973e+01 -8.015832378194621910e+00 1.061237564268033173e+00 7.161008362587051579e+01 1.205592282827881547e+02 -6.972262694087943657e+01 3.758215164943449338e+01 -1.908099282729868094e+02 9.586856122054475904e+00 6.837315308381539225e+00 -1.212253376255701909e+02 -3.333470592288616530e+01 -4.384297085189807319e+01 4.708206263895484689e+00 -1.011173596923236033e+02 2.675177884874312539e+01 -9.656740910691442537e+01 5.542030330857379283e+01 6.713698733507487759e+01 3.649985424976602388e+01 -2.869537152460541662e+01 1.063065900987357963e+02 6.043461765682688025e+01 7.912691907064395025e+01 -6.627407333910655041e+01 2.001532786137837050e+01 1.264488282730753781e+02 -5.784795493180931203e+01 -6.842680877063158640e+00 3.162306073958215791e+01 -1.269837994242528794e+02 9.668958131271359946e+01 8.855404292520442766e+01 -1.000314701798921817e+02 -8.139767681005328370e+01 -5.490069218545245633e+01 -4.512398961041758838e+01 -1.583375618025693257e+02 -1.342976882609291920e+02 -1.309312164415769359e+02 1.044104412198069269e+02 5.910342106219153635e+01 1.576276745227104641e+02 7.123420289202775812e+00 -8.463217205563574908e+01 1.853598700013329648e+01 1.365557565571128151e+01 -6.279113615466468445e+01 7.312789621000219142e+01 1.165745578520353263e+02 9.824896723632384976e+00 1.415184985080294098e+02 2.219614821684376338e+01 1.095131948432771054e+02 1.486721431517424818e+01 -2.050820095007787529e+02 2.155196332898011065e+02 -4.829149614230166065e+01 -1.470795726525632006e+02 -6.629380401440546677e+01 -4.226665442265263550e+01 4.068314988390184084e+01 2.514264309606060266e+01 4.494017165178653528e+01 -7.270205830862975915e+01 1.200885979231198633e+02 -8.462620950754822502e+01 -6.879071956785837827e+00 1.396222450609369901e+02 1.074004212936465166e+02 5.687278540533475990e+01 -1.734067750151675682e+02 2.490391020874601224e+01 1.374222327673666086e+02 2.292188217560714492e+01 9.546085579238514640e+01 1.040541025756561169e+02 -2.067231708037643045e+02 7.516097443438150094e+01 -5.641211553004331591e+01 -2.196462651530976302e+02 8.636896797932321590e+01 2.394999135881519692e+01 -1.184591198678354971e+02 -5.676583548186639661e+01 1.343388090178215180e+02 1.426734979524712799e+02 -7.326784080686529421e+01 -1.232834826395538101e+02 -8.038564750305036455e+01 -1.596361524713477422e+02 1.882695320345819567e+01 3.647570333084421179e+01 -1.633133170994374694e+01 -1.188156163153459843e+01 -8.581110050140246415e+01 -8.454131823870331175e+01 -2.359699106176524452e+01 1.277281010911309949e+02 1.297411050183276586e+02 7.720519862272954015e+01 9.236614193585066346e+01 -7.459802917185314186e+01 -1.714705054540101230e+02 -1.250776418078096874e+01 -2.189950015582995846e+01 -6.730694497895487416e+01 1.403094051622135074e+00 6.918574253490604065e+01 -5.010966840172053338e+01 2.341156079814997426e+01 7.500154493527999477e+01 6.639885072786341880e+01 1.047058456697381246e+02 -1.412608514752015196e+02 3.753406894432220042e+01 7.890209499969665785e+01 8.974031101420233369e+01 5.591519540044598813e+01 -9.776677011179762644e+01 1.296685346725891463e+02 1.207388656797700577e+02 9.077901933512895027e+01 9.616178717942865717e+01 -7.974644908572263091e+01 -1.406917906784609329e+01 -1.226887267298916839e+01 7.295297621246459130e+01 6.153469217131401336e+01 5.306184115000657187e+01 9.238976843052340371e+01 1.103453294554202131e+02 1.174060589417684071e+02 -6.138947909078154908e+01 7.634757549727108028e+01 6.177185808472128770e+01 -1.114352783880069211e+02 1.246436414112488507e+02 -9.490513759136810279e+00 -2.645831216934680086e+01 1.888400975339410195e+02 8.387593775286626396e+01 1.176474230808460817e+02 -1.368455043691344883e+02 -1.496171331191558238e+02 -1.457140468997439484e+02 -1.158450677721585720e+02 -4.200744536215581348e+01 1.041297870203190854e+02 -1.600751892191040326e+02 3.084624648207523734e+01 1.370352079391729490e+02 -5.636633017768478027e+01 -8.674733025517237195e+01 -3.338134349916615662e+01 1.290682262797260478e+02 2.159802921774295044e+02 -6.340998152964446888e+01 1.884798510807709704e+01 -2.631062348769427217e+01 6.513786992645977136e+01 5.728299286715760985e+01 -2.028369405313823393e+02 -8.436183971391753289e+01 1.309260167440759801e+02 1.330305703353890294e+02 8.997233698489723963e+01 -4.744971640588551764e+01 -7.214267438270691457e+01 -4.319449801987659754e+01 -1.681459616715099230e+02 6.773123045260567210e+01 -2.442059992267009960e+01 1.584580126909845603e+02 -2.662153487381458561e+01 -2.997273339342823988e+02 1.380116245375377559e+02 4.783402115451735881e+01 -1.123774659723685971e+02 -2.114540898928456869e+01 3.363571754554003235e+01 -1.979384916707222715e+02 -1.088950652655245790e+02 -1.045204880307511530e+02 -5.374202385688269601e+01 5.984108524931080808e+01 -1.571621211622501164e+02 1.028481565792966137e+02 -5.179202849366988204e+01 2.795361800724621038e+00 -1.272126371432000838e+02 -9.887059587983095810e+01 1.676824131750494757e+02 8.265106609656059788e+01 -4.027687019802122848e+01 3.542088840370372083e+01 -2.674698153732200012e+01 4.132522317843636728e+01 -9.980559548049104990e+01 9.439305309395409438e+01 4.816668685170578357e+01 -1.134363882044359428e+02 1.113947558898469197e+02 -4.685201168006431516e+01 9.532666027891255567e+01 -4.713431283838150421e+01 8.432575377267602335e+01 -1.463906124000411353e+02 1.362316672831516087e+02 2.363119340962920845e+01 9.609736009617064667e+01 1.245129316409888673e+02 -1.400183264363114120e+02 -8.202093068412260379e+01 -1.008656460317815942e+02 6.384503727942260554e+01 -1.636320104660115931e+02 1.447434215531022232e+02 1.359410997372710881e+02 5.059031379996595490e+01 -8.108940397743219819e+01 5.451227563251046604e+01 -1.025431886132653290e+02 -1.042957687828142355e+01 3.339960321207232141e+01 -1.755356520849771016e+02 -7.791871601380994150e+01 -1.293078798407942642e+01 9.763044449171044903e+01 -4.799041807425159334e+01 1.039375548129980729e+02 -6.146524967202033451e+01 -2.014540263169292302e+02 -1.023601988067130009e+02 -3.251596229251138936e+01 -5.752266826179345571e+01 2.875638640123130330e+01 4.918017399435082382e+01 6.052893366265765351e+00 2.430171285568994932e+01 -1.122588782475281164e+02 5.155451134870076402e+01 3.122359382593389299e+01 -6.901720272659517263e+01 8.889052610391894760e+00 5.397040599459609922e+01 -9.129286942006258698e+01 -5.273937321305362502e+01 -2.314702012258592134e+01 9.339049380381391074e+01 -1.640131407376615158e+01 4.017794356143701506e+00 -2.184437677917088934e+02 -9.097840918810442190e+01 9.475250524049106104e+01 -8.537042767205645077e+01 3.000767153702437184e+01 2.974133542547379605e+01 3.629069781319079624e+01 6.328978850901717124e+01 -1.699754868424810752e+02 1.379282771068758109e+02 7.814012771469867857e+01 -7.229991549891724212e+00 -7.740886399860418976e+01 1.071557862335598941e+02 5.949594468966356686e+01 -1.927118337149884724e+02 -4.825978218934930908e+01 -7.830158496698548731e+01 -4.962640428055482289e+01 -5.930764273139137543e+01 -9.485459344497981249e+01 -5.783271700228134193e+01 1.835470759153300833e+02 -1.636074701276508563e+02 6.273031137686783154e+01 2.659124087776155321e+01 -7.206321723560168380e+01 9.969622321681757882e+00 -3.780254275446188217e+01 3.299427339018111915e+00 -9.216023692582696469e+01 -1.893740854589032949e+02 1.763232978915042182e+01 4.014943317143502099e+01 -1.226282797628626753e+01 -8.573226819140828070e+00 -3.812823649336999665e+01 -1.820215007130142908e+02 -2.935713326921113264e+01 -6.264539176589786251e+01 1.335023158534780485e+01 -1.497287211617786795e+01 8.686076149048462014e+01 -6.043455753979328193e+01 -9.939673018745793343e+01 -3.420790199761034245e+01 -8.597271942687404689e+00 4.354517625232318068e+01 -2.119822459685567750e+01 -7.080090096409161049e+01 -1.523060271620188999e+01 1.921032716486049807e+01 4.554642942704286668e+01 -1.092876618181081056e+02 -1.333039254023659623e+02 2.208990749730346579e+02 -2.093427945788762941e+02 -7.280449977748364176e+01 -4.441368567545191581e+01 1.341161740101120756e+02 6.068338919106736995e+01 2.195890750184474314e+02 2.347649025841629111e+02 -5.982345852717448764e+01 1.241478236895022604e+02 -5.376919984069247960e+01 -3.916034449539795759e+01 -9.650100857155021572e+01 -7.657964618267176604e+01 -6.669536764000842766e+01 -8.540355203663811778e+01 -2.338508829328185641e+02 -2.597904935183863131e+02 1.291826518859811301e+02 -2.546534230258035336e+01 5.110273416787184431e+01 1.255989297769950497e+02
