# 
#                 ----------------------------------------------------
#                 Data from a 3D direct N-body simulation. 
# 
#                 rows are i-particle; 
#                 coumns are :mass, tag, x ,y, z, vx, vy, vz, ax, ay, az
# 
#                 NTHU, Computational Physics Lab
# 
#                 ----------------------------------------------------
#                 Time = 4.799999999999942
1.000000000000000000e+00 2.000000000000000000e+00 3.000000000000000000e+00 4.000000000000000000e+00 5.000000000000000000e+00 6.000000000000000000e+00 7.000000000000000000e+00 8.000000000000000000e+00 9.000000000000000000e+00 1.000000000000000000e+01 1.100000000000000000e+01 1.200000000000000000e+01 1.300000000000000000e+01 1.400000000000000000e+01 1.500000000000000000e+01 1.600000000000000000e+01 1.700000000000000000e+01 1.800000000000000000e+01 1.900000000000000000e+01 2.000000000000000000e+01 2.100000000000000000e+01 2.200000000000000000e+01 2.300000000000000000e+01 2.400000000000000000e+01 2.500000000000000000e+01 2.600000000000000000e+01 2.700000000000000000e+01 2.800000000000000000e+01 2.900000000000000000e+01 3.000000000000000000e+01 3.100000000000000000e+01 3.200000000000000000e+01 3.300000000000000000e+01 3.400000000000000000e+01 3.500000000000000000e+01 3.600000000000000000e+01 3.700000000000000000e+01 3.800000000000000000e+01 3.900000000000000000e+01 4.000000000000000000e+01 4.100000000000000000e+01 4.200000000000000000e+01 4.300000000000000000e+01 4.400000000000000000e+01 4.500000000000000000e+01 4.600000000000000000e+01 4.700000000000000000e+01 4.800000000000000000e+01 4.900000000000000000e+01 5.000000000000000000e+01 5.100000000000000000e+01 5.200000000000000000e+01 5.300000000000000000e+01 5.400000000000000000e+01 5.500000000000000000e+01 5.600000000000000000e+01 5.700000000000000000e+01 5.800000000000000000e+01 5.900000000000000000e+01 6.000000000000000000e+01 6.100000000000000000e+01 6.200000000000000000e+01 6.300000000000000000e+01 6.400000000000000000e+01 6.500000000000000000e+01 6.600000000000000000e+01 6.700000000000000000e+01 6.800000000000000000e+01 6.900000000000000000e+01 7.000000000000000000e+01 7.100000000000000000e+01 7.200000000000000000e+01 7.300000000000000000e+01 7.400000000000000000e+01 7.500000000000000000e+01 7.600000000000000000e+01 7.700000000000000000e+01 7.800000000000000000e+01 7.900000000000000000e+01 8.000000000000000000e+01 8.100000000000000000e+01 8.200000000000000000e+01 8.300000000000000000e+01 8.400000000000000000e+01 8.500000000000000000e+01 8.600000000000000000e+01 8.700000000000000000e+01 8.800000000000000000e+01 8.900000000000000000e+01 9.000000000000000000e+01 9.100000000000000000e+01 9.200000000000000000e+01 9.300000000000000000e+01 9.400000000000000000e+01 9.500000000000000000e+01 9.600000000000000000e+01 9.700000000000000000e+01 9.800000000000000000e+01 9.900000000000000000e+01 1.000000000000000000e+02 1.010000000000000000e+02 1.020000000000000000e+02 1.030000000000000000e+02 1.040000000000000000e+02 1.050000000000000000e+02 1.060000000000000000e+02 1.070000000000000000e+02 1.080000000000000000e+02 1.090000000000000000e+02 1.100000000000000000e+02 1.110000000000000000e+02 1.120000000000000000e+02 1.130000000000000000e+02 1.140000000000000000e+02 1.150000000000000000e+02 1.160000000000000000e+02 1.170000000000000000e+02 1.180000000000000000e+02 1.190000000000000000e+02 1.200000000000000000e+02 1.210000000000000000e+02 1.220000000000000000e+02 1.230000000000000000e+02 1.240000000000000000e+02 1.250000000000000000e+02 1.260000000000000000e+02 1.270000000000000000e+02 1.280000000000000000e+02 1.290000000000000000e+02 1.300000000000000000e+02 1.310000000000000000e+02 1.320000000000000000e+02 1.330000000000000000e+02 1.340000000000000000e+02 1.350000000000000000e+02 1.360000000000000000e+02 1.370000000000000000e+02 1.380000000000000000e+02 1.390000000000000000e+02 1.400000000000000000e+02 1.410000000000000000e+02 1.420000000000000000e+02 1.430000000000000000e+02 1.440000000000000000e+02 1.450000000000000000e+02 1.460000000000000000e+02 1.470000000000000000e+02 1.480000000000000000e+02 1.490000000000000000e+02 1.500000000000000000e+02 1.510000000000000000e+02 1.520000000000000000e+02 1.530000000000000000e+02 1.540000000000000000e+02 1.550000000000000000e+02 1.560000000000000000e+02 1.570000000000000000e+02 1.580000000000000000e+02 1.590000000000000000e+02 1.600000000000000000e+02 1.610000000000000000e+02 1.620000000000000000e+02 1.630000000000000000e+02 1.640000000000000000e+02 1.650000000000000000e+02 1.660000000000000000e+02 1.670000000000000000e+02 1.680000000000000000e+02 1.690000000000000000e+02 1.700000000000000000e+02 1.710000000000000000e+02 1.720000000000000000e+02 1.730000000000000000e+02 1.740000000000000000e+02 1.750000000000000000e+02 1.760000000000000000e+02 1.770000000000000000e+02 1.780000000000000000e+02 1.790000000000000000e+02 1.800000000000000000e+02 1.810000000000000000e+02 1.820000000000000000e+02 1.830000000000000000e+02 1.840000000000000000e+02 1.850000000000000000e+02 1.860000000000000000e+02 1.870000000000000000e+02 1.880000000000000000e+02 1.890000000000000000e+02 1.900000000000000000e+02 1.910000000000000000e+02 1.920000000000000000e+02 1.930000000000000000e+02 1.940000000000000000e+02 1.950000000000000000e+02 1.960000000000000000e+02 1.970000000000000000e+02 1.980000000000000000e+02 1.990000000000000000e+02 2.000000000000000000e+02 2.010000000000000000e+02 2.020000000000000000e+02 2.030000000000000000e+02 2.040000000000000000e+02 2.050000000000000000e+02 2.060000000000000000e+02 2.070000000000000000e+02 2.080000000000000000e+02 2.090000000000000000e+02 2.100000000000000000e+02 2.110000000000000000e+02 2.120000000000000000e+02 2.130000000000000000e+02 2.140000000000000000e+02 2.150000000000000000e+02 2.160000000000000000e+02 2.170000000000000000e+02 2.180000000000000000e+02 2.190000000000000000e+02 2.200000000000000000e+02 2.210000000000000000e+02 2.220000000000000000e+02 2.230000000000000000e+02 2.240000000000000000e+02 2.250000000000000000e+02 2.260000000000000000e+02 2.270000000000000000e+02 2.280000000000000000e+02 2.290000000000000000e+02 2.300000000000000000e+02 2.310000000000000000e+02 2.320000000000000000e+02 2.330000000000000000e+02 2.340000000000000000e+02 2.350000000000000000e+02 2.360000000000000000e+02 2.370000000000000000e+02 2.380000000000000000e+02 2.390000000000000000e+02 2.400000000000000000e+02 2.410000000000000000e+02 2.420000000000000000e+02 2.430000000000000000e+02 2.440000000000000000e+02 2.450000000000000000e+02 2.460000000000000000e+02 2.470000000000000000e+02 2.480000000000000000e+02 2.490000000000000000e+02 2.500000000000000000e+02 2.510000000000000000e+02 2.520000000000000000e+02 2.530000000000000000e+02 2.540000000000000000e+02 2.550000000000000000e+02 2.560000000000000000e+02 2.570000000000000000e+02 2.580000000000000000e+02 2.590000000000000000e+02 2.600000000000000000e+02 2.610000000000000000e+02 2.620000000000000000e+02 2.630000000000000000e+02 2.640000000000000000e+02 2.650000000000000000e+02 2.660000000000000000e+02 2.670000000000000000e+02 2.680000000000000000e+02 2.690000000000000000e+02 2.700000000000000000e+02 2.710000000000000000e+02 2.720000000000000000e+02 2.730000000000000000e+02 2.740000000000000000e+02 2.750000000000000000e+02 2.760000000000000000e+02 2.770000000000000000e+02 2.780000000000000000e+02 2.790000000000000000e+02 2.800000000000000000e+02 2.810000000000000000e+02 2.820000000000000000e+02 2.830000000000000000e+02 2.840000000000000000e+02 2.850000000000000000e+02 2.860000000000000000e+02 2.870000000000000000e+02 2.880000000000000000e+02 2.890000000000000000e+02 2.900000000000000000e+02 2.910000000000000000e+02 2.920000000000000000e+02 2.930000000000000000e+02 2.940000000000000000e+02 2.950000000000000000e+02 2.960000000000000000e+02 2.970000000000000000e+02 2.980000000000000000e+02 2.990000000000000000e+02 3.000000000000000000e+02 3.010000000000000000e+02 3.020000000000000000e+02 3.030000000000000000e+02 3.040000000000000000e+02 3.050000000000000000e+02 3.060000000000000000e+02 3.070000000000000000e+02 3.080000000000000000e+02 3.090000000000000000e+02 3.100000000000000000e+02 3.110000000000000000e+02 3.120000000000000000e+02 3.130000000000000000e+02 3.140000000000000000e+02 3.150000000000000000e+02 3.160000000000000000e+02 3.170000000000000000e+02 3.180000000000000000e+02 3.190000000000000000e+02 3.200000000000000000e+02 3.210000000000000000e+02 3.220000000000000000e+02 3.230000000000000000e+02 3.240000000000000000e+02 3.250000000000000000e+02 3.260000000000000000e+02 3.270000000000000000e+02 3.280000000000000000e+02 3.290000000000000000e+02 3.300000000000000000e+02 3.310000000000000000e+02 3.320000000000000000e+02 3.330000000000000000e+02 3.340000000000000000e+02 3.350000000000000000e+02 3.360000000000000000e+02 3.370000000000000000e+02 3.380000000000000000e+02 3.390000000000000000e+02 3.400000000000000000e+02 3.410000000000000000e+02 3.420000000000000000e+02 3.430000000000000000e+02 3.440000000000000000e+02 3.450000000000000000e+02 3.460000000000000000e+02 3.470000000000000000e+02 3.480000000000000000e+02 3.490000000000000000e+02 3.500000000000000000e+02 3.510000000000000000e+02 3.520000000000000000e+02 3.530000000000000000e+02 3.540000000000000000e+02 3.550000000000000000e+02 3.560000000000000000e+02 3.570000000000000000e+02 3.580000000000000000e+02 3.590000000000000000e+02 3.600000000000000000e+02 3.610000000000000000e+02 3.620000000000000000e+02 3.630000000000000000e+02 3.640000000000000000e+02 3.650000000000000000e+02 3.660000000000000000e+02 3.670000000000000000e+02 3.680000000000000000e+02 3.690000000000000000e+02 3.700000000000000000e+02 3.710000000000000000e+02 3.720000000000000000e+02 3.730000000000000000e+02 3.740000000000000000e+02 3.750000000000000000e+02 3.760000000000000000e+02 3.770000000000000000e+02 3.780000000000000000e+02 3.790000000000000000e+02 3.800000000000000000e+02 3.810000000000000000e+02 3.820000000000000000e+02 3.830000000000000000e+02 3.840000000000000000e+02 3.850000000000000000e+02 3.860000000000000000e+02 3.870000000000000000e+02 3.880000000000000000e+02 3.890000000000000000e+02 3.900000000000000000e+02 3.910000000000000000e+02 3.920000000000000000e+02 3.930000000000000000e+02 3.940000000000000000e+02 3.950000000000000000e+02 3.960000000000000000e+02 3.970000000000000000e+02 3.980000000000000000e+02 3.990000000000000000e+02 4.000000000000000000e+02 4.010000000000000000e+02 4.020000000000000000e+02 4.030000000000000000e+02 4.040000000000000000e+02 4.050000000000000000e+02 4.060000000000000000e+02 4.070000000000000000e+02 4.080000000000000000e+02 4.090000000000000000e+02 4.100000000000000000e+02 4.110000000000000000e+02 4.120000000000000000e+02 4.130000000000000000e+02 4.140000000000000000e+02 4.150000000000000000e+02 4.160000000000000000e+02 4.170000000000000000e+02 4.180000000000000000e+02 4.190000000000000000e+02 4.200000000000000000e+02 4.210000000000000000e+02 4.220000000000000000e+02 4.230000000000000000e+02 4.240000000000000000e+02 4.250000000000000000e+02 4.260000000000000000e+02 4.270000000000000000e+02 4.280000000000000000e+02 4.290000000000000000e+02 4.300000000000000000e+02 4.310000000000000000e+02 4.320000000000000000e+02 4.330000000000000000e+02 4.340000000000000000e+02 4.350000000000000000e+02 4.360000000000000000e+02 4.370000000000000000e+02 4.380000000000000000e+02 4.390000000000000000e+02 4.400000000000000000e+02 4.410000000000000000e+02 4.420000000000000000e+02 4.430000000000000000e+02 4.440000000000000000e+02 4.450000000000000000e+02 4.460000000000000000e+02 4.470000000000000000e+02 4.480000000000000000e+02 4.490000000000000000e+02 4.500000000000000000e+02 4.510000000000000000e+02 4.520000000000000000e+02 4.530000000000000000e+02 4.540000000000000000e+02 4.550000000000000000e+02 4.560000000000000000e+02 4.570000000000000000e+02 4.580000000000000000e+02 4.590000000000000000e+02 4.600000000000000000e+02 4.610000000000000000e+02 4.620000000000000000e+02 4.630000000000000000e+02 4.640000000000000000e+02 4.650000000000000000e+02 4.660000000000000000e+02 4.670000000000000000e+02 4.680000000000000000e+02 4.690000000000000000e+02 4.700000000000000000e+02 4.710000000000000000e+02 4.720000000000000000e+02 4.730000000000000000e+02 4.740000000000000000e+02 4.750000000000000000e+02 4.760000000000000000e+02 4.770000000000000000e+02 4.780000000000000000e+02 4.790000000000000000e+02 4.800000000000000000e+02 4.810000000000000000e+02 4.820000000000000000e+02 4.830000000000000000e+02 4.840000000000000000e+02 4.850000000000000000e+02 4.860000000000000000e+02 4.870000000000000000e+02 4.880000000000000000e+02 4.890000000000000000e+02 4.900000000000000000e+02 4.910000000000000000e+02 4.920000000000000000e+02 4.930000000000000000e+02 4.940000000000000000e+02 4.950000000000000000e+02 4.960000000000000000e+02 4.970000000000000000e+02 4.980000000000000000e+02 4.990000000000000000e+02 5.000000000000000000e+02 5.010000000000000000e+02 5.020000000000000000e+02 5.030000000000000000e+02 5.040000000000000000e+02 5.050000000000000000e+02 5.060000000000000000e+02 5.070000000000000000e+02 5.080000000000000000e+02 5.090000000000000000e+02 5.100000000000000000e+02 5.110000000000000000e+02 5.120000000000000000e+02 5.130000000000000000e+02 5.140000000000000000e+02 5.150000000000000000e+02 5.160000000000000000e+02 5.170000000000000000e+02 5.180000000000000000e+02 5.190000000000000000e+02 5.200000000000000000e+02 5.210000000000000000e+02 5.220000000000000000e+02 5.230000000000000000e+02 5.240000000000000000e+02 5.250000000000000000e+02 5.260000000000000000e+02 5.270000000000000000e+02 5.280000000000000000e+02 5.290000000000000000e+02 5.300000000000000000e+02 5.310000000000000000e+02 5.320000000000000000e+02 5.330000000000000000e+02 5.340000000000000000e+02 5.350000000000000000e+02 5.360000000000000000e+02 5.370000000000000000e+02 5.380000000000000000e+02 5.390000000000000000e+02 5.400000000000000000e+02 5.410000000000000000e+02 5.420000000000000000e+02 5.430000000000000000e+02 5.440000000000000000e+02 5.450000000000000000e+02 5.460000000000000000e+02 5.470000000000000000e+02 5.480000000000000000e+02 5.490000000000000000e+02 5.500000000000000000e+02 5.510000000000000000e+02 5.520000000000000000e+02 5.530000000000000000e+02 5.540000000000000000e+02 5.550000000000000000e+02 5.560000000000000000e+02 5.570000000000000000e+02 5.580000000000000000e+02 5.590000000000000000e+02 5.600000000000000000e+02 5.610000000000000000e+02 5.620000000000000000e+02 5.630000000000000000e+02 5.640000000000000000e+02 5.650000000000000000e+02 5.660000000000000000e+02 5.670000000000000000e+02 5.680000000000000000e+02 5.690000000000000000e+02 5.700000000000000000e+02 5.710000000000000000e+02 5.720000000000000000e+02 5.730000000000000000e+02 5.740000000000000000e+02 5.750000000000000000e+02 5.760000000000000000e+02 5.770000000000000000e+02 5.780000000000000000e+02 5.790000000000000000e+02 5.800000000000000000e+02 5.810000000000000000e+02 5.820000000000000000e+02 5.830000000000000000e+02 5.840000000000000000e+02 5.850000000000000000e+02 5.860000000000000000e+02 5.870000000000000000e+02 5.880000000000000000e+02 5.890000000000000000e+02 5.900000000000000000e+02 5.910000000000000000e+02 5.920000000000000000e+02 5.930000000000000000e+02 5.940000000000000000e+02 5.950000000000000000e+02 5.960000000000000000e+02 5.970000000000000000e+02 5.980000000000000000e+02 5.990000000000000000e+02 6.000000000000000000e+02 6.010000000000000000e+02 6.020000000000000000e+02 6.030000000000000000e+02 6.040000000000000000e+02 6.050000000000000000e+02 6.060000000000000000e+02 6.070000000000000000e+02 6.080000000000000000e+02 6.090000000000000000e+02 6.100000000000000000e+02 6.110000000000000000e+02 6.120000000000000000e+02 6.130000000000000000e+02 6.140000000000000000e+02 6.150000000000000000e+02 6.160000000000000000e+02 6.170000000000000000e+02 6.180000000000000000e+02 6.190000000000000000e+02 6.200000000000000000e+02 6.210000000000000000e+02 6.220000000000000000e+02 6.230000000000000000e+02 6.240000000000000000e+02 6.250000000000000000e+02 6.260000000000000000e+02 6.270000000000000000e+02 6.280000000000000000e+02 6.290000000000000000e+02 6.300000000000000000e+02 6.310000000000000000e+02 6.320000000000000000e+02 6.330000000000000000e+02 6.340000000000000000e+02 6.350000000000000000e+02 6.360000000000000000e+02 6.370000000000000000e+02 6.380000000000000000e+02 6.390000000000000000e+02 6.400000000000000000e+02 6.410000000000000000e+02 6.420000000000000000e+02 6.430000000000000000e+02 6.440000000000000000e+02 6.450000000000000000e+02 6.460000000000000000e+02 6.470000000000000000e+02 6.480000000000000000e+02 6.490000000000000000e+02 6.500000000000000000e+02 6.510000000000000000e+02 6.520000000000000000e+02 6.530000000000000000e+02 6.540000000000000000e+02 6.550000000000000000e+02 6.560000000000000000e+02 6.570000000000000000e+02 6.580000000000000000e+02 6.590000000000000000e+02 6.600000000000000000e+02 6.610000000000000000e+02 6.620000000000000000e+02 6.630000000000000000e+02 6.640000000000000000e+02 6.650000000000000000e+02 6.660000000000000000e+02 6.670000000000000000e+02 6.680000000000000000e+02 6.690000000000000000e+02 6.700000000000000000e+02 6.710000000000000000e+02 6.720000000000000000e+02 6.730000000000000000e+02 6.740000000000000000e+02 6.750000000000000000e+02 6.760000000000000000e+02 6.770000000000000000e+02 6.780000000000000000e+02 6.790000000000000000e+02 6.800000000000000000e+02 6.810000000000000000e+02 6.820000000000000000e+02 6.830000000000000000e+02 6.840000000000000000e+02 6.850000000000000000e+02 6.860000000000000000e+02 6.870000000000000000e+02 6.880000000000000000e+02 6.890000000000000000e+02 6.900000000000000000e+02 6.910000000000000000e+02 6.920000000000000000e+02 6.930000000000000000e+02 6.940000000000000000e+02 6.950000000000000000e+02 6.960000000000000000e+02 6.970000000000000000e+02 6.980000000000000000e+02 6.990000000000000000e+02 7.000000000000000000e+02 7.010000000000000000e+02 7.020000000000000000e+02 7.030000000000000000e+02 7.040000000000000000e+02 7.050000000000000000e+02 7.060000000000000000e+02 7.070000000000000000e+02 7.080000000000000000e+02 7.090000000000000000e+02 7.100000000000000000e+02 7.110000000000000000e+02 7.120000000000000000e+02 7.130000000000000000e+02 7.140000000000000000e+02 7.150000000000000000e+02 7.160000000000000000e+02 7.170000000000000000e+02 7.180000000000000000e+02 7.190000000000000000e+02 7.200000000000000000e+02 7.210000000000000000e+02 7.220000000000000000e+02 7.230000000000000000e+02 7.240000000000000000e+02 7.250000000000000000e+02 7.260000000000000000e+02 7.270000000000000000e+02 7.280000000000000000e+02 7.290000000000000000e+02 7.300000000000000000e+02 7.310000000000000000e+02 7.320000000000000000e+02 7.330000000000000000e+02 7.340000000000000000e+02 7.350000000000000000e+02 7.360000000000000000e+02 7.370000000000000000e+02 7.380000000000000000e+02 7.390000000000000000e+02 7.400000000000000000e+02 7.410000000000000000e+02 7.420000000000000000e+02 7.430000000000000000e+02 7.440000000000000000e+02 7.450000000000000000e+02 7.460000000000000000e+02 7.470000000000000000e+02 7.480000000000000000e+02 7.490000000000000000e+02 7.500000000000000000e+02 7.510000000000000000e+02 7.520000000000000000e+02 7.530000000000000000e+02 7.540000000000000000e+02 7.550000000000000000e+02 7.560000000000000000e+02 7.570000000000000000e+02 7.580000000000000000e+02 7.590000000000000000e+02 7.600000000000000000e+02 7.610000000000000000e+02 7.620000000000000000e+02 7.630000000000000000e+02 7.640000000000000000e+02 7.650000000000000000e+02 7.660000000000000000e+02 7.670000000000000000e+02 7.680000000000000000e+02 7.690000000000000000e+02 7.700000000000000000e+02 7.710000000000000000e+02 7.720000000000000000e+02 7.730000000000000000e+02 7.740000000000000000e+02 7.750000000000000000e+02 7.760000000000000000e+02 7.770000000000000000e+02 7.780000000000000000e+02 7.790000000000000000e+02 7.800000000000000000e+02 7.810000000000000000e+02 7.820000000000000000e+02 7.830000000000000000e+02 7.840000000000000000e+02 7.850000000000000000e+02 7.860000000000000000e+02 7.870000000000000000e+02 7.880000000000000000e+02 7.890000000000000000e+02 7.900000000000000000e+02 7.910000000000000000e+02 7.920000000000000000e+02 7.930000000000000000e+02 7.940000000000000000e+02 7.950000000000000000e+02 7.960000000000000000e+02 7.970000000000000000e+02 7.980000000000000000e+02 7.990000000000000000e+02 8.000000000000000000e+02 8.010000000000000000e+02 8.020000000000000000e+02 8.030000000000000000e+02 8.040000000000000000e+02 8.050000000000000000e+02 8.060000000000000000e+02 8.070000000000000000e+02 8.080000000000000000e+02 8.090000000000000000e+02 8.100000000000000000e+02 8.110000000000000000e+02 8.120000000000000000e+02 8.130000000000000000e+02 8.140000000000000000e+02 8.150000000000000000e+02 8.160000000000000000e+02 8.170000000000000000e+02 8.180000000000000000e+02 8.190000000000000000e+02 8.200000000000000000e+02 8.210000000000000000e+02 8.220000000000000000e+02 8.230000000000000000e+02 8.240000000000000000e+02 8.250000000000000000e+02 8.260000000000000000e+02 8.270000000000000000e+02 8.280000000000000000e+02 8.290000000000000000e+02 8.300000000000000000e+02 8.310000000000000000e+02 8.320000000000000000e+02 8.330000000000000000e+02 8.340000000000000000e+02 8.350000000000000000e+02 8.360000000000000000e+02 8.370000000000000000e+02 8.380000000000000000e+02 8.390000000000000000e+02 8.400000000000000000e+02 8.410000000000000000e+02 8.420000000000000000e+02 8.430000000000000000e+02 8.440000000000000000e+02 8.450000000000000000e+02 8.460000000000000000e+02 8.470000000000000000e+02 8.480000000000000000e+02 8.490000000000000000e+02 8.500000000000000000e+02 8.510000000000000000e+02 8.520000000000000000e+02 8.530000000000000000e+02 8.540000000000000000e+02 8.550000000000000000e+02 8.560000000000000000e+02 8.570000000000000000e+02 8.580000000000000000e+02 8.590000000000000000e+02 8.600000000000000000e+02 8.610000000000000000e+02 8.620000000000000000e+02 8.630000000000000000e+02 8.640000000000000000e+02 8.650000000000000000e+02 8.660000000000000000e+02 8.670000000000000000e+02 8.680000000000000000e+02 8.690000000000000000e+02 8.700000000000000000e+02 8.710000000000000000e+02 8.720000000000000000e+02 8.730000000000000000e+02 8.740000000000000000e+02 8.750000000000000000e+02 8.760000000000000000e+02 8.770000000000000000e+02 8.780000000000000000e+02 8.790000000000000000e+02 8.800000000000000000e+02 8.810000000000000000e+02 8.820000000000000000e+02 8.830000000000000000e+02 8.840000000000000000e+02 8.850000000000000000e+02 8.860000000000000000e+02 8.870000000000000000e+02 8.880000000000000000e+02 8.890000000000000000e+02 8.900000000000000000e+02 8.910000000000000000e+02 8.920000000000000000e+02 8.930000000000000000e+02 8.940000000000000000e+02 8.950000000000000000e+02 8.960000000000000000e+02 8.970000000000000000e+02 8.980000000000000000e+02 8.990000000000000000e+02 9.000000000000000000e+02 9.010000000000000000e+02 9.020000000000000000e+02 9.030000000000000000e+02 9.040000000000000000e+02 9.050000000000000000e+02 9.060000000000000000e+02 9.070000000000000000e+02 9.080000000000000000e+02 9.090000000000000000e+02 9.100000000000000000e+02 9.110000000000000000e+02 9.120000000000000000e+02 9.130000000000000000e+02 9.140000000000000000e+02 9.150000000000000000e+02 9.160000000000000000e+02 9.170000000000000000e+02 9.180000000000000000e+02 9.190000000000000000e+02 9.200000000000000000e+02 9.210000000000000000e+02 9.220000000000000000e+02 9.230000000000000000e+02 9.240000000000000000e+02 9.250000000000000000e+02 9.260000000000000000e+02 9.270000000000000000e+02 9.280000000000000000e+02 9.290000000000000000e+02 9.300000000000000000e+02 9.310000000000000000e+02 9.320000000000000000e+02 9.330000000000000000e+02 9.340000000000000000e+02 9.350000000000000000e+02 9.360000000000000000e+02 9.370000000000000000e+02 9.380000000000000000e+02 9.390000000000000000e+02 9.400000000000000000e+02 9.410000000000000000e+02 9.420000000000000000e+02 9.430000000000000000e+02 9.440000000000000000e+02 9.450000000000000000e+02 9.460000000000000000e+02 9.470000000000000000e+02 9.480000000000000000e+02 9.490000000000000000e+02 9.500000000000000000e+02 9.510000000000000000e+02 9.520000000000000000e+02 9.530000000000000000e+02 9.540000000000000000e+02 9.550000000000000000e+02 9.560000000000000000e+02 9.570000000000000000e+02 9.580000000000000000e+02 9.590000000000000000e+02 9.600000000000000000e+02 9.610000000000000000e+02 9.620000000000000000e+02 9.630000000000000000e+02 9.640000000000000000e+02 9.650000000000000000e+02 9.660000000000000000e+02 9.670000000000000000e+02 9.680000000000000000e+02 9.690000000000000000e+02 9.700000000000000000e+02 9.710000000000000000e+02 9.720000000000000000e+02 9.730000000000000000e+02 9.740000000000000000e+02 9.750000000000000000e+02 9.760000000000000000e+02 9.770000000000000000e+02 9.780000000000000000e+02 9.790000000000000000e+02 9.800000000000000000e+02 9.810000000000000000e+02 9.820000000000000000e+02 9.830000000000000000e+02 9.840000000000000000e+02 9.850000000000000000e+02 9.860000000000000000e+02 9.870000000000000000e+02 9.880000000000000000e+02 9.890000000000000000e+02 9.900000000000000000e+02 9.910000000000000000e+02 9.920000000000000000e+02 9.930000000000000000e+02 9.940000000000000000e+02 9.950000000000000000e+02 9.960000000000000000e+02 9.970000000000000000e+02 9.980000000000000000e+02 9.990000000000000000e+02 1.000000000000000000e+03
1.000000000000000021e-02 1.000000000000000021e-02 1.000000000000000021e-02 1.000000000000000021e-02 1.000000000000000021e-02 1.000000000000000021e-02 1.000000000000000021e-02 1.000000000000000021e-02 1.000000000000000021e-02 1.000000000000000021e-02 1.000000000000000021e-02 1.000000000000000021e-02 1.000000000000000021e-02 1.000000000000000021e-02 1.000000000000000021e-02 1.000000000000000021e-02 1.000000000000000021e-02 1.000000000000000021e-02 1.000000000000000021e-02 1.000000000000000021e-02 1.000000000000000021e-02 1.000000000000000021e-02 1.000000000000000021e-02 1.000000000000000021e-02 1.000000000000000021e-02 1.000000000000000021e-02 1.000000000000000021e-02 1.000000000000000021e-02 1.000000000000000021e-02 1.000000000000000021e-02 1.000000000000000021e-02 1.000000000000000021e-02 1.000000000000000021e-02 1.000000000000000021e-02 1.000000000000000021e-02 1.000000000000000021e-02 1.000000000000000021e-02 1.000000000000000021e-02 1.000000000000000021e-02 1.000000000000000021e-02 1.000000000000000021e-02 1.000000000000000021e-02 1.000000000000000021e-02 1.000000000000000021e-02 1.000000000000000021e-02 1.000000000000000021e-02 1.000000000000000021e-02 1.000000000000000021e-02 1.000000000000000021e-02 1.000000000000000021e-02 1.000000000000000021e-02 1.000000000000000021e-02 1.000000000000000021e-02 1.000000000000000021e-02 1.000000000000000021e-02 1.000000000000000021e-02 1.000000000000000021e-02 1.000000000000000021e-02 1.000000000000000021e-02 1.000000000000000021e-02 1.000000000000000021e-02 1.000000000000000021e-02 1.000000000000000021e-02 1.000000000000000021e-02 1.000000000000000021e-02 1.000000000000000021e-02 1.000000000000000021e-02 1.000000000000000021e-02 1.000000000000000021e-02 1.000000000000000021e-02 1.000000000000000021e-02 1.000000000000000021e-02 1.000000000000000021e-02 1.000000000000000021e-02 1.000000000000000021e-02 1.000000000000000021e-02 1.000000000000000021e-02 1.000000000000000021e-02 1.000000000000000021e-02 1.000000000000000021e-02 1.000000000000000021e-02 1.000000000000000021e-02 1.000000000000000021e-02 1.000000000000000021e-02 1.000000000000000021e-02 1.000000000000000021e-02 1.000000000000000021e-02 1.000000000000000021e-02 1.000000000000000021e-02 1.000000000000000021e-02 1.000000000000000021e-02 1.000000000000000021e-02 1.000000000000000021e-02 1.000000000000000021e-02 1.000000000000000021e-02 1.000000000000000021e-02 1.000000000000000021e-02 1.000000000000000021e-02 1.000000000000000021e-02 1.000000000000000021e-02 1.000000000000000021e-02 1.000000000000000021e-02 1.000000000000000021e-02 1.000000000000000021e-02 1.000000000000000021e-02 1.000000000000000021e-02 1.000000000000000021e-02 1.000000000000000021e-02 1.000000000000000021e-02 1.000000000000000021e-02 1.000000000000000021e-02 1.000000000000000021e-02 1.000000000000000021e-02 1.000000000000000021e-02 1.000000000000000021e-02 1.000000000000000021e-02 1.000000000000000021e-02 1.000000000000000021e-02 1.000000000000000021e-02 1.000000000000000021e-02 1.000000000000000021e-02 1.000000000000000021e-02 1.000000000000000021e-02 1.000000000000000021e-02 1.000000000000000021e-02 1.000000000000000021e-02 1.000000000000000021e-02 1.000000000000000021e-02 1.000000000000000021e-02 1.000000000000000021e-02 1.000000000000000021e-02 1.000000000000000021e-02 1.000000000000000021e-02 1.000000000000000021e-02 1.000000000000000021e-02 1.000000000000000021e-02 1.000000000000000021e-02 1.000000000000000021e-02 1.000000000000000021e-02 1.000000000000000021e-02 1.000000000000000021e-02 1.000000000000000021e-02 1.000000000000000021e-02 1.000000000000000021e-02 1.000000000000000021e-02 1.000000000000000021e-02 1.000000000000000021e-02 1.000000000000000021e-02 1.000000000000000021e-02 1.000000000000000021e-02 1.000000000000000021e-02 1.000000000000000021e-02 1.000000000000000021e-02 1.000000000000000021e-02 1.000000000000000021e-02 1.000000000000000021e-02 1.000000000000000021e-02 1.000000000000000021e-02 1.000000000000000021e-02 1.000000000000000021e-02 1.000000000000000021e-02 1.000000000000000021e-02 1.000000000000000021e-02 1.000000000000000021e-02 1.000000000000000021e-02 1.000000000000000021e-02 1.000000000000000021e-02 1.000000000000000021e-02 1.000000000000000021e-02 1.000000000000000021e-02 1.000000000000000021e-02 1.000000000000000021e-02 1.000000000000000021e-02 1.000000000000000021e-02 1.000000000000000021e-02 1.000000000000000021e-02 1.000000000000000021e-02 1.000000000000000021e-02 1.000000000000000021e-02 1.000000000000000021e-02 1.000000000000000021e-02 1.000000000000000021e-02 1.000000000000000021e-02 1.000000000000000021e-02 1.000000000000000021e-02 1.000000000000000021e-02 1.000000000000000021e-02 1.000000000000000021e-02 1.000000000000000021e-02 1.000000000000000021e-02 1.000000000000000021e-02 1.000000000000000021e-02 1.000000000000000021e-02 1.000000000000000021e-02 1.000000000000000021e-02 1.000000000000000021e-02 1.000000000000000021e-02 1.000000000000000021e-02 1.000000000000000021e-02 1.000000000000000021e-02 1.000000000000000021e-02 1.000000000000000021e-02 1.000000000000000021e-02 1.000000000000000021e-02 1.000000000000000021e-02 1.000000000000000021e-02 1.000000000000000021e-02 1.000000000000000021e-02 1.000000000000000021e-02 1.000000000000000021e-02 1.000000000000000021e-02 1.000000000000000021e-02 1.000000000000000021e-02 1.000000000000000021e-02 1.000000000000000021e-02 1.000000000000000021e-02 1.000000000000000021e-02 1.000000000000000021e-02 1.000000000000000021e-02 1.000000000000000021e-02 1.000000000000000021e-02 1.000000000000000021e-02 1.000000000000000021e-02 1.000000000000000021e-02 1.000000000000000021e-02 1.000000000000000021e-02 1.000000000000000021e-02 1.000000000000000021e-02 1.000000000000000021e-02 1.000000000000000021e-02 1.000000000000000021e-02 1.000000000000000021e-02 1.000000000000000021e-02 1.000000000000000021e-02 1.000000000000000021e-02 1.000000000000000021e-02 1.000000000000000021e-02 1.000000000000000021e-02 1.000000000000000021e-02 1.000000000000000021e-02 1.000000000000000021e-02 1.000000000000000021e-02 1.000000000000000021e-02 1.000000000000000021e-02 1.000000000000000021e-02 1.000000000000000021e-02 1.000000000000000021e-02 1.000000000000000021e-02 1.000000000000000021e-02 1.000000000000000021e-02 1.000000000000000021e-02 1.000000000000000021e-02 1.000000000000000021e-02 1.000000000000000021e-02 1.000000000000000021e-02 1.000000000000000021e-02 1.000000000000000021e-02 1.000000000000000021e-02 1.000000000000000021e-02 1.000000000000000021e-02 1.000000000000000021e-02 1.000000000000000021e-02 1.000000000000000021e-02 1.000000000000000021e-02 1.000000000000000021e-02 1.000000000000000021e-02 1.000000000000000021e-02 1.000000000000000021e-02 1.000000000000000021e-02 1.000000000000000021e-02 1.000000000000000021e-02 1.000000000000000021e-02 1.000000000000000021e-02 1.000000000000000021e-02 1.000000000000000021e-02 1.000000000000000021e-02 1.000000000000000021e-02 1.000000000000000021e-02 1.000000000000000021e-02 1.000000000000000021e-02 1.000000000000000021e-02 1.000000000000000021e-02 1.000000000000000021e-02 1.000000000000000021e-02 1.000000000000000021e-02 1.000000000000000021e-02 1.000000000000000021e-02 1.000000000000000021e-02 1.000000000000000021e-02 1.000000000000000021e-02 1.000000000000000021e-02 1.000000000000000021e-02 1.000000000000000021e-02 1.000000000000000021e-02 1.000000000000000021e-02 1.000000000000000021e-02 1.000000000000000021e-02 1.000000000000000021e-02 1.000000000000000021e-02 1.000000000000000021e-02 1.000000000000000021e-02 1.000000000000000021e-02 1.000000000000000021e-02 1.000000000000000021e-02 1.000000000000000021e-02 1.000000000000000021e-02 1.000000000000000021e-02 1.000000000000000021e-02 1.000000000000000021e-02 1.000000000000000021e-02 1.000000000000000021e-02 1.000000000000000021e-02 1.000000000000000021e-02 1.000000000000000021e-02 1.000000000000000021e-02 1.000000000000000021e-02 1.000000000000000021e-02 1.000000000000000021e-02 1.000000000000000021e-02 1.000000000000000021e-02 1.000000000000000021e-02 1.000000000000000021e-02 1.000000000000000021e-02 1.000000000000000021e-02 1.000000000000000021e-02 1.000000000000000021e-02 1.000000000000000021e-02 1.000000000000000021e-02 1.000000000000000021e-02 1.000000000000000021e-02 1.000000000000000021e-02 1.000000000000000021e-02 1.000000000000000021e-02 1.000000000000000021e-02 1.000000000000000021e-02 1.000000000000000021e-02 1.000000000000000021e-02 1.000000000000000021e-02 1.000000000000000021e-02 1.000000000000000021e-02 1.000000000000000021e-02 1.000000000000000021e-02 1.000000000000000021e-02 1.000000000000000021e-02 1.000000000000000021e-02 1.000000000000000021e-02 1.000000000000000021e-02 1.000000000000000021e-02 1.000000000000000021e-02 1.000000000000000021e-02 1.000000000000000021e-02 1.000000000000000021e-02 1.000000000000000021e-02 1.000000000000000021e-02 1.000000000000000021e-02 1.000000000000000021e-02 1.000000000000000021e-02 1.000000000000000021e-02 1.000000000000000021e-02 1.000000000000000021e-02 1.000000000000000021e-02 1.000000000000000021e-02 1.000000000000000021e-02 1.000000000000000021e-02 1.000000000000000021e-02 1.000000000000000021e-02 1.000000000000000021e-02 1.000000000000000021e-02 1.000000000000000021e-02 1.000000000000000021e-02 1.000000000000000021e-02 1.000000000000000021e-02 1.000000000000000021e-02 1.000000000000000021e-02 1.000000000000000021e-02 1.000000000000000021e-02 1.000000000000000021e-02 1.000000000000000021e-02 1.000000000000000021e-02 1.000000000000000021e-02 1.000000000000000021e-02 1.000000000000000021e-02 1.000000000000000021e-02 1.000000000000000021e-02 1.000000000000000021e-02 1.000000000000000021e-02 1.000000000000000021e-02 1.000000000000000021e-02 1.000000000000000021e-02 1.000000000000000021e-02 1.000000000000000021e-02 1.000000000000000021e-02 1.000000000000000021e-02 1.000000000000000021e-02 1.000000000000000021e-02 1.000000000000000021e-02 1.000000000000000021e-02 1.000000000000000021e-02 1.000000000000000021e-02 1.000000000000000021e-02 1.000000000000000021e-02 1.000000000000000021e-02 1.000000000000000021e-02 1.000000000000000021e-02 1.000000000000000021e-02 1.000000000000000021e-02 1.000000000000000021e-02 1.000000000000000021e-02 1.000000000000000021e-02 1.000000000000000021e-02 1.000000000000000021e-02 1.000000000000000021e-02 1.000000000000000021e-02 1.000000000000000021e-02 1.000000000000000021e-02 1.000000000000000021e-02 1.000000000000000021e-02 1.000000000000000021e-02 1.000000000000000021e-02 1.000000000000000021e-02 1.000000000000000021e-02 1.000000000000000021e-02 1.000000000000000021e-02 1.000000000000000021e-02 1.000000000000000021e-02 1.000000000000000021e-02 1.000000000000000021e-02 1.000000000000000021e-02 1.000000000000000021e-02 1.000000000000000021e-02 1.000000000000000021e-02 1.000000000000000021e-02 1.000000000000000021e-02 1.000000000000000021e-02 1.000000000000000021e-02 1.000000000000000021e-02 1.000000000000000021e-02 1.000000000000000021e-02 1.000000000000000021e-02 1.000000000000000021e-02 1.000000000000000021e-02 1.000000000000000021e-02 1.000000000000000021e-02 1.000000000000000021e-02 1.000000000000000021e-02 1.000000000000000021e-02 1.000000000000000021e-02 1.000000000000000021e-02 1.000000000000000021e-02 1.000000000000000021e-02 1.000000000000000021e-02 1.000000000000000021e-02 1.000000000000000021e-02 1.000000000000000021e-02 1.000000000000000021e-02 1.000000000000000021e-02 1.000000000000000021e-02 1.000000000000000021e-02 1.000000000000000021e-02 1.000000000000000021e-02 1.000000000000000021e-02 1.000000000000000021e-02 1.000000000000000021e-02 1.000000000000000021e-02 1.000000000000000021e-02 1.000000000000000021e-02 1.000000000000000021e-02 1.000000000000000021e-02 1.000000000000000021e-02 1.000000000000000021e-02 1.000000000000000021e-02 1.000000000000000021e-02 1.000000000000000021e-02 1.000000000000000021e-02 1.000000000000000021e-02 1.000000000000000021e-02 1.000000000000000021e-02 1.000000000000000021e-02 1.000000000000000021e-02 1.000000000000000021e-02 1.000000000000000021e-02 1.000000000000000021e-02 1.000000000000000021e-02 1.000000000000000021e-02 1.000000000000000021e-02 1.000000000000000021e-02 1.000000000000000021e-02 1.000000000000000021e-02 1.000000000000000021e-02 1.000000000000000021e-02 1.000000000000000021e-02 1.000000000000000021e-02 1.000000000000000021e-02 1.000000000000000021e-02 1.000000000000000021e-02 1.000000000000000021e-02 1.000000000000000021e-02 1.000000000000000021e-02 1.000000000000000021e-02 1.000000000000000021e-02 1.000000000000000021e-02 1.000000000000000021e-02 1.000000000000000021e-02 1.000000000000000021e-02 1.000000000000000021e-02 1.000000000000000021e-02 1.000000000000000021e-02 1.000000000000000021e-02 1.000000000000000021e-02 1.000000000000000021e-02 1.000000000000000021e-02 1.000000000000000021e-02 1.000000000000000021e-02 1.000000000000000021e-02 1.000000000000000021e-02 1.000000000000000021e-02 1.000000000000000021e-02 1.000000000000000021e-02 1.000000000000000021e-02 1.000000000000000021e-02 1.000000000000000021e-02 1.000000000000000021e-02 1.000000000000000021e-02 1.000000000000000021e-02 1.000000000000000021e-02 1.000000000000000021e-02 1.000000000000000021e-02 1.000000000000000021e-02 1.000000000000000021e-02 1.000000000000000021e-02 1.000000000000000021e-02 1.000000000000000021e-02 1.000000000000000021e-02 1.000000000000000021e-02 1.000000000000000021e-02 1.000000000000000021e-02 1.000000000000000021e-02 1.000000000000000021e-02 1.000000000000000021e-02 1.000000000000000021e-02 1.000000000000000021e-02 1.000000000000000021e-02 1.000000000000000021e-02 1.000000000000000021e-02 1.000000000000000021e-02 1.000000000000000021e-02 1.000000000000000021e-02 1.000000000000000021e-02 1.000000000000000021e-02 1.000000000000000021e-02 1.000000000000000021e-02 1.000000000000000021e-02 1.000000000000000021e-02 1.000000000000000021e-02 1.000000000000000021e-02 1.000000000000000021e-02 1.000000000000000021e-02 1.000000000000000021e-02 1.000000000000000021e-02 1.000000000000000021e-02 1.000000000000000021e-02 1.000000000000000021e-02 1.000000000000000021e-02 1.000000000000000021e-02 1.000000000000000021e-02 1.000000000000000021e-02 1.000000000000000021e-02 1.000000000000000021e-02 1.000000000000000021e-02 1.000000000000000021e-02 1.000000000000000021e-02 1.000000000000000021e-02 1.000000000000000021e-02 1.000000000000000021e-02 1.000000000000000021e-02 1.000000000000000021e-02 1.000000000000000021e-02 1.000000000000000021e-02 1.000000000000000021e-02 1.000000000000000021e-02 1.000000000000000021e-02 1.000000000000000021e-02 1.000000000000000021e-02 1.000000000000000021e-02 1.000000000000000021e-02 1.000000000000000021e-02 1.000000000000000021e-02 1.000000000000000021e-02 1.000000000000000021e-02 1.000000000000000021e-02 1.000000000000000021e-02 1.000000000000000021e-02 1.000000000000000021e-02 1.000000000000000021e-02 1.000000000000000021e-02 1.000000000000000021e-02 1.000000000000000021e-02 1.000000000000000021e-02 1.000000000000000021e-02 1.000000000000000021e-02 1.000000000000000021e-02 1.000000000000000021e-02 1.000000000000000021e-02 1.000000000000000021e-02 1.000000000000000021e-02 1.000000000000000021e-02 1.000000000000000021e-02 1.000000000000000021e-02 1.000000000000000021e-02 1.000000000000000021e-02 1.000000000000000021e-02 1.000000000000000021e-02 1.000000000000000021e-02 1.000000000000000021e-02 1.000000000000000021e-02 1.000000000000000021e-02 1.000000000000000021e-02 1.000000000000000021e-02 1.000000000000000021e-02 1.000000000000000021e-02 1.000000000000000021e-02 1.000000000000000021e-02 1.000000000000000021e-02 1.000000000000000021e-02 1.000000000000000021e-02 1.000000000000000021e-02 1.000000000000000021e-02 1.000000000000000021e-02 1.000000000000000021e-02 1.000000000000000021e-02 1.000000000000000021e-02 1.000000000000000021e-02 1.000000000000000021e-02 1.000000000000000021e-02 1.000000000000000021e-02 1.000000000000000021e-02 1.000000000000000021e-02 1.000000000000000021e-02 1.000000000000000021e-02 1.000000000000000021e-02 1.000000000000000021e-02 1.000000000000000021e-02 1.000000000000000021e-02 1.000000000000000021e-02 1.000000000000000021e-02 1.000000000000000021e-02 1.000000000000000021e-02 1.000000000000000021e-02 1.000000000000000021e-02 1.000000000000000021e-02 1.000000000000000021e-02 1.000000000000000021e-02 1.000000000000000021e-02 1.000000000000000021e-02 1.000000000000000021e-02 1.000000000000000021e-02 1.000000000000000021e-02 1.000000000000000021e-02 1.000000000000000021e-02 1.000000000000000021e-02 1.000000000000000021e-02 1.000000000000000021e-02 1.000000000000000021e-02 1.000000000000000021e-02 1.000000000000000021e-02 1.000000000000000021e-02 1.000000000000000021e-02 1.000000000000000021e-02 1.000000000000000021e-02 1.000000000000000021e-02 1.000000000000000021e-02 1.000000000000000021e-02 1.000000000000000021e-02 1.000000000000000021e-02 1.000000000000000021e-02 1.000000000000000021e-02 1.000000000000000021e-02 1.000000000000000021e-02 1.000000000000000021e-02 1.000000000000000021e-02 1.000000000000000021e-02 1.000000000000000021e-02 1.000000000000000021e-02 1.000000000000000021e-02 1.000000000000000021e-02 1.000000000000000021e-02 1.000000000000000021e-02 1.000000000000000021e-02 1.000000000000000021e-02 1.000000000000000021e-02 1.000000000000000021e-02 1.000000000000000021e-02 1.000000000000000021e-02 1.000000000000000021e-02 1.000000000000000021e-02 1.000000000000000021e-02 1.000000000000000021e-02 1.000000000000000021e-02 1.000000000000000021e-02 1.000000000000000021e-02 1.000000000000000021e-02 1.000000000000000021e-02 1.000000000000000021e-02 1.000000000000000021e-02 1.000000000000000021e-02 1.000000000000000021e-02 1.000000000000000021e-02 1.000000000000000021e-02 1.000000000000000021e-02 1.000000000000000021e-02 1.000000000000000021e-02 1.000000000000000021e-02 1.000000000000000021e-02 1.000000000000000021e-02 1.000000000000000021e-02 1.000000000000000021e-02 1.000000000000000021e-02 1.000000000000000021e-02 1.000000000000000021e-02 1.000000000000000021e-02 1.000000000000000021e-02 1.000000000000000021e-02 1.000000000000000021e-02 1.000000000000000021e-02 1.000000000000000021e-02 1.000000000000000021e-02 1.000000000000000021e-02 1.000000000000000021e-02 1.000000000000000021e-02 1.000000000000000021e-02 1.000000000000000021e-02 1.000000000000000021e-02 1.000000000000000021e-02 1.000000000000000021e-02 1.000000000000000021e-02 1.000000000000000021e-02 1.000000000000000021e-02 1.000000000000000021e-02 1.000000000000000021e-02 1.000000000000000021e-02 1.000000000000000021e-02 1.000000000000000021e-02 1.000000000000000021e-02 1.000000000000000021e-02 1.000000000000000021e-02 1.000000000000000021e-02 1.000000000000000021e-02 1.000000000000000021e-02 1.000000000000000021e-02 1.000000000000000021e-02 1.000000000000000021e-02 1.000000000000000021e-02 1.000000000000000021e-02 1.000000000000000021e-02 1.000000000000000021e-02 1.000000000000000021e-02 1.000000000000000021e-02 1.000000000000000021e-02 1.000000000000000021e-02 1.000000000000000021e-02 1.000000000000000021e-02 1.000000000000000021e-02 1.000000000000000021e-02 1.000000000000000021e-02 1.000000000000000021e-02 1.000000000000000021e-02 1.000000000000000021e-02 1.000000000000000021e-02 1.000000000000000021e-02 1.000000000000000021e-02 1.000000000000000021e-02 1.000000000000000021e-02 1.000000000000000021e-02 1.000000000000000021e-02 1.000000000000000021e-02 1.000000000000000021e-02 1.000000000000000021e-02 1.000000000000000021e-02 1.000000000000000021e-02 1.000000000000000021e-02 1.000000000000000021e-02 1.000000000000000021e-02 1.000000000000000021e-02 1.000000000000000021e-02 1.000000000000000021e-02 1.000000000000000021e-02 1.000000000000000021e-02 1.000000000000000021e-02 1.000000000000000021e-02 1.000000000000000021e-02 1.000000000000000021e-02 1.000000000000000021e-02 1.000000000000000021e-02 1.000000000000000021e-02 1.000000000000000021e-02 1.000000000000000021e-02 1.000000000000000021e-02 1.000000000000000021e-02 1.000000000000000021e-02 1.000000000000000021e-02 1.000000000000000021e-02 1.000000000000000021e-02 1.000000000000000021e-02 1.000000000000000021e-02 1.000000000000000021e-02 1.000000000000000021e-02 1.000000000000000021e-02 1.000000000000000021e-02 1.000000000000000021e-02 1.000000000000000021e-02 1.000000000000000021e-02 1.000000000000000021e-02 1.000000000000000021e-02 1.000000000000000021e-02 1.000000000000000021e-02 1.000000000000000021e-02 1.000000000000000021e-02 1.000000000000000021e-02 1.000000000000000021e-02 1.000000000000000021e-02 1.000000000000000021e-02 1.000000000000000021e-02 1.000000000000000021e-02 1.000000000000000021e-02 1.000000000000000021e-02 1.000000000000000021e-02 1.000000000000000021e-02 1.000000000000000021e-02 1.000000000000000021e-02 1.000000000000000021e-02 1.000000000000000021e-02 1.000000000000000021e-02 1.000000000000000021e-02 1.000000000000000021e-02 1.000000000000000021e-02 1.000000000000000021e-02 1.000000000000000021e-02 1.000000000000000021e-02 1.000000000000000021e-02 1.000000000000000021e-02 1.000000000000000021e-02 1.000000000000000021e-02 1.000000000000000021e-02 1.000000000000000021e-02 1.000000000000000021e-02 1.000000000000000021e-02 1.000000000000000021e-02 1.000000000000000021e-02 1.000000000000000021e-02 1.000000000000000021e-02 1.000000000000000021e-02 1.000000000000000021e-02 1.000000000000000021e-02 1.000000000000000021e-02 1.000000000000000021e-02 1.000000000000000021e-02 1.000000000000000021e-02 1.000000000000000021e-02 1.000000000000000021e-02 1.000000000000000021e-02 1.000000000000000021e-02 1.000000000000000021e-02 1.000000000000000021e-02 1.000000000000000021e-02 1.000000000000000021e-02 1.000000000000000021e-02 1.000000000000000021e-02 1.000000000000000021e-02 1.000000000000000021e-02 1.000000000000000021e-02 1.000000000000000021e-02 1.000000000000000021e-02 1.000000000000000021e-02 1.000000000000000021e-02 1.000000000000000021e-02 1.000000000000000021e-02 1.000000000000000021e-02 1.000000000000000021e-02 1.000000000000000021e-02 1.000000000000000021e-02 1.000000000000000021e-02 1.000000000000000021e-02 1.000000000000000021e-02 1.000000000000000021e-02 1.000000000000000021e-02 1.000000000000000021e-02 1.000000000000000021e-02 1.000000000000000021e-02 1.000000000000000021e-02 1.000000000000000021e-02 1.000000000000000021e-02 1.000000000000000021e-02 1.000000000000000021e-02 1.000000000000000021e-02 1.000000000000000021e-02 1.000000000000000021e-02 1.000000000000000021e-02 1.000000000000000021e-02 1.000000000000000021e-02 1.000000000000000021e-02 1.000000000000000021e-02 1.000000000000000021e-02 1.000000000000000021e-02 1.000000000000000021e-02 1.000000000000000021e-02 1.000000000000000021e-02 1.000000000000000021e-02 1.000000000000000021e-02 1.000000000000000021e-02 1.000000000000000021e-02 1.000000000000000021e-02 1.000000000000000021e-02 1.000000000000000021e-02 1.000000000000000021e-02 1.000000000000000021e-02 1.000000000000000021e-02 1.000000000000000021e-02 1.000000000000000021e-02 1.000000000000000021e-02 1.000000000000000021e-02 1.000000000000000021e-02 1.000000000000000021e-02 1.000000000000000021e-02 1.000000000000000021e-02 1.000000000000000021e-02 1.000000000000000021e-02 1.000000000000000021e-02 1.000000000000000021e-02 1.000000000000000021e-02 1.000000000000000021e-02 1.000000000000000021e-02 1.000000000000000021e-02 1.000000000000000021e-02 1.000000000000000021e-02 1.000000000000000021e-02 1.000000000000000021e-02 1.000000000000000021e-02 1.000000000000000021e-02 1.000000000000000021e-02 1.000000000000000021e-02 1.000000000000000021e-02 1.000000000000000021e-02 1.000000000000000021e-02 1.000000000000000021e-02 1.000000000000000021e-02 1.000000000000000021e-02 1.000000000000000021e-02 1.000000000000000021e-02 1.000000000000000021e-02 1.000000000000000021e-02 1.000000000000000021e-02 1.000000000000000021e-02 1.000000000000000021e-02 1.000000000000000021e-02 1.000000000000000021e-02 1.000000000000000021e-02 1.000000000000000021e-02 1.000000000000000021e-02 1.000000000000000021e-02 1.000000000000000021e-02 1.000000000000000021e-02 1.000000000000000021e-02 1.000000000000000021e-02 1.000000000000000021e-02 1.000000000000000021e-02 1.000000000000000021e-02 1.000000000000000021e-02 1.000000000000000021e-02 1.000000000000000021e-02 1.000000000000000021e-02 1.000000000000000021e-02 1.000000000000000021e-02 1.000000000000000021e-02 1.000000000000000021e-02 1.000000000000000021e-02 1.000000000000000021e-02 1.000000000000000021e-02 1.000000000000000021e-02 1.000000000000000021e-02 1.000000000000000021e-02 1.000000000000000021e-02 1.000000000000000021e-02 1.000000000000000021e-02 1.000000000000000021e-02 1.000000000000000021e-02 1.000000000000000021e-02 1.000000000000000021e-02 1.000000000000000021e-02 1.000000000000000021e-02 1.000000000000000021e-02 1.000000000000000021e-02 1.000000000000000021e-02 1.000000000000000021e-02 1.000000000000000021e-02 1.000000000000000021e-02 1.000000000000000021e-02 1.000000000000000021e-02 1.000000000000000021e-02 1.000000000000000021e-02 1.000000000000000021e-02
-1.101054590113549096e+02 1.674092398229918501e+02 3.880752846160954306e+01 -8.719598571867038572e+00 -8.672847176532503966e+01 -1.321500230401526288e+01 -2.052138288575594061e+02 6.870287472152730723e-01 -8.360858923511602825e+01 -1.390456968516168956e+01 -1.958169011000029158e+01 6.446600846447354094e+00 -1.758840981373914314e+00 1.656081402746221443e+02 8.352386161934215636e+01 -3.829323346447075238e+01 -5.212861901133133102e+01 7.818892079060344713e+01 3.240040616673586982e+01 -2.504698193606098755e+01 -7.781986192705672067e+01 -7.284165552710919656e+01 -1.362087199579478991e+01 2.855824948776383820e+01 -1.923897047694751450e+02 -9.744477339258004633e+01 -2.575310160622984412e+01 1.990124418346877349e+02 6.984633549895605142e+01 7.574424581694776748e+01 7.925801228803726417e+01 1.167509305557596688e+00 -7.824598839638916559e+01 2.047816072168267567e+02 -2.417009904037310264e+02 5.809114515264121792e+01 -1.185727316844651824e+02 -3.423809643167977868e+01 3.983688983661583638e+00 1.250785070178982750e+02 -1.213091359393082058e+02 -1.346175503836362353e+01 7.634997856510838687e+01 1.713673328840184809e+02 7.042480835675084450e+01 -6.751741900456734413e+01 4.067089075184844660e+01 -2.802358857168295003e+01 -6.521311086971637394e+01 1.545714057855961698e+02 -6.962817097482115969e+01 -5.143329088658141046e+01 -1.375584807871070439e+02 5.706798456972594913e+00 -4.987934724516651386e+01 3.817518755823103049e+01 -8.759096036521978590e+01 -4.941315553362645119e+01 -1.001090288592947957e+02 -1.534603556934719393e+02 1.919098982379911789e+01 4.479688902912755566e+01 -1.215534876488178355e+02 1.268988547798503852e+01 -7.826697695526355858e+01 4.849468580992559907e+01 1.645219929018119842e+02 -1.424302635719390366e+02 -4.275078066254811660e+01 7.114605480157228712e+00 2.896522476981905569e+00 4.184665679872315280e+01 8.291379192012051647e+01 8.348963118041243803e-01 -8.703780332750678639e+00 -6.912907840404432136e+01 7.726028568692520082e+01 -3.233101278634840270e+01 2.596684280988002058e+01 1.026992692323555616e+02 8.709239875712154344e+01 -4.221989276078133457e+01 5.705042470752633932e+01 1.455624442578523201e+02 1.147392514349129158e+02 -3.960173540419661631e+00 1.719897769473376172e+02 -1.101094587530044322e+02 4.132800777996489927e+00 -4.140728790407246862e+01 2.042075793384948668e+02 -2.095464230610549095e+01 2.853371243739020180e+00 -7.581120249326882288e+01 -7.052432120396178838e+00 -6.302373111333827893e+01 6.692034987420132097e+01 -9.335851014402304315e+01 6.773251009806509160e+01 -4.715427855583592986e+01 -4.912481847389470602e+01 -9.050411538164105707e+01 5.240585691230590015e+01 -5.400822643106948107e+01 -1.474421156896895297e+02 -7.845614274140666566e+01 -1.032865306706451491e+02 -1.552401555754296396e+02 1.342151941353601785e+02 -2.712652370416792991e+01 3.163253427960093589e+01 8.853362856889683030e+01 -1.027411084846553138e+02 5.623856248870777108e+01 -4.277111988640102425e+01 -6.849121026913351784e+01 -8.897100096421625892e+01 2.006725242695326301e+02 -5.602318120804683588e+01 -4.888096307965874843e+01 -4.659496687457757247e+01 7.938267060661610230e+01 -4.089226036959366439e+01 1.362317680902744712e+02 -4.927071378241027588e+01 5.441841692939509301e+01 4.485449899543509034e+00 -8.008723851457719434e+01 6.793086570691346537e+01 2.738963427259471928e+02 -9.088673845423956266e+01 4.688444412653629456e+01 -7.529967565923190875e+01 4.467430632063793183e+01 1.295586093025948742e+02 -5.076445919281832175e+01 1.442301077555755207e+01 -2.660212561393659669e+01 -1.006862294505612709e+02 -1.711271755202603018e+01 4.239758308870857029e+00 -7.718176390918054963e+00 -1.476236280943961532e+01 1.167655226203106906e+02 1.287806017433514967e+02 1.841969223452044275e+02 -3.006538359777197797e+02 3.774440735675909764e+01 -1.557418574432385228e+01 -6.159751199100680452e+01 1.781937798199659824e+02 7.526916365892223837e+01 -2.570099734685062032e+00 -1.145812927715445397e+02 -1.076129035379504550e+01 9.892203506885130082e+01 -1.328141002307537519e+02 -1.666645698854408693e+02 1.061288141390315687e+01 4.193659728895945449e+01 -6.033058379991376796e+01 4.155997521700609099e+01 -1.058663653616313809e+02 -1.496076957485131231e+02 2.086249709075922354e+01 4.803734393514895373e+01 4.761984378525473183e+00 -8.254194938250263647e+01 -9.256625543054576610e+01 -8.338647362959216025e+01 -8.661188013321108770e+01 1.251453364509445976e+01 5.622949688697642756e+01 1.153003803445160145e+02 7.861026955782512005e+01 8.860781506675462538e+01 1.063981008489988795e+02 -7.404906744516230788e+01 -8.170539246395856026e+01 6.984522273369846346e+01 6.786709403458884537e+01 5.867958250477062165e+01 -9.300451222469131807e+00 -9.025843541191301256e+01 5.351662295965182636e+01 -1.775018010362553298e+02 6.660767969512666298e+01 -4.415980510715498042e+01 -9.565602809561505637e+01 7.362536758478233878e+01 -1.701935163837102039e+01 -7.653728720703105637e+01 -5.703168249268371426e+01 -9.096955884148735905e+00 2.410190093253466443e+02 7.637398028549222317e+01 5.448534519003016641e+01 -1.032270293223307789e+02 1.473720320406991959e+02 1.052651205362714837e+00 -8.986119284824506792e+01 1.549652930830447985e+02 -1.533261571659988931e+02 1.569654481855173955e+01 -3.236997852555927579e+01 -2.211078448101886806e+02 -1.341821867902891086e+02 -8.775810637320132912e+01 -2.952262544963208057e+01 -1.199463802907028480e+02 5.799841105094207450e+01 6.538861806858898262e+01 -2.775703269141342133e+01 -1.003633698210128102e+02 1.137842193251564851e+02 1.189123561195393251e+02 4.649752927959998061e+01 1.759738866322931727e+01 2.630646944297325831e+02 4.394390415757486323e+01 -1.202601593022857855e+02 -4.537042047992882488e+01 -1.699838446357745738e+02 3.209039985104857351e+01 1.543632025966769845e+02 -1.493698898671756297e+02 1.326694692966158868e+02 -9.161777474971012225e+01 -1.905789963524362562e+01 -7.895238495486597285e-01 5.326141158275879661e+01 -1.167227815953747161e+01 -2.298145074573029945e+01 -1.899917056039510399e+01 -1.277037604862186697e+02 4.676433555832132072e+01 -3.058243247622563032e+01 -1.304862557678070267e+01 -1.080295978914250554e+01 2.277525553326368026e+02 1.756194387445646896e+02 2.344855476498560449e+02 1.328563012772237641e+02 -8.727054069788280799e+01 7.577882657961441737e+01 2.130512212468089217e+01 4.794003841210096084e+01 -4.001819904978749776e+01 2.575077857619916699e+02 -2.350212881876046112e+01 -1.378648879087140529e+02 -1.507166853636410586e+01 -4.621746329174614942e+01 -7.803722547494277251e+01 4.351909837096403066e+01 -1.181121526614682260e+01 1.834521136066138922e+02 9.315251489837983456e+01 4.122842763329195748e+01 9.884396260785777599e+01 9.538060277362855288e+01 -2.318495008588321227e+01 1.408414995468080235e+02 2.674353819905100238e+01 9.037577650101468407e+01 4.808977772452446686e+01 6.989625218158383113e+00 -1.167763988189983309e+02 -1.168756422350052873e+02 -9.082835720819056746e+01 -1.570590093967531864e+01 8.746225839149924752e+01 -3.091294044271445074e+01 9.976769087717659090e+01 4.420852049705397491e+01 -7.337267807505014616e+01 -3.022093811073365899e+01 -5.911335272397009533e+01 1.772347002147890649e+01 -4.672387801117759665e+01 -1.130454319949759565e+02 1.226060795899408760e+02 1.224276325006833730e+02 -7.967071515958654970e+01 5.469554664371712782e+00 -4.572673212343139681e+01 -3.287514865488742544e+01 -1.144313905344659688e+01 -3.151282227434603200e+01 4.487406569423320946e+01 -1.418058861922766880e+02 -5.331635456617399171e+01 -1.531953592115589231e+02 1.756237130250192990e+02 -2.037766503906621196e+01 5.942138331730342315e+01 1.201636340909288059e+01 1.455878278235192340e+02 4.498778514755417746e+01 3.600355640249557609e+01 1.555987076837656957e+02 -4.965115888503104458e+01 -9.837657931403445843e+01 2.740545490633218506e+01 -1.592149987113953671e+02 -5.380636689772748582e+01 1.030797853485305353e+02 -1.285638929627092466e+02 -3.662575063651766527e+01 9.194816451420292935e+01 -9.513703265116085106e+01 -9.011095295141937811e+01 -8.322076832669945645e+01 -6.424809147920177566e+01 2.507912665407492341e+02 1.995485293263484436e+02 1.036813811985859530e+02 -1.028797147761641071e+02 7.533932188794987894e+01 -6.660892660972848489e+01 -3.154401408112237348e+01 1.671615917806805385e+01 -3.243823743212279709e+01 -9.430707818116769658e+01 -2.788581209265282190e+00 1.485599879312319516e+01 1.094065346476197789e+02 -1.291949838204441789e+02 4.216007026074222352e+01 6.409516508247637034e+01 3.470062944845980724e+01 -9.105797070855247455e+01 -1.492265961751390648e+02 1.940637473281730934e+02 -1.788722978488111437e+01 2.529812912641606815e+01 1.572205721324179422e+02 2.677280725379461046e+01 2.784506943511431842e+01 -4.471182485796292383e+01 8.893092340694772702e+01 -1.368248732556435527e+02 -3.090776998732427572e+01 -6.157466225878486021e+00 -5.357600777124978464e+01 6.277056633569636723e+00 2.133981398272740293e+01 -3.589685426498999021e+01 1.370655769040943284e+01 2.143313235218743671e+02 -2.747340140648591600e+01 -2.806724165925739101e+01 -1.019288692880868012e+02 -1.647190555101859744e+00 -8.095036240393643823e+01 6.402911649634801527e+00 1.123528092457664229e+02 -5.214790178549829136e+01 6.058938133234911483e+00 -5.443717561095743207e+01 3.328822714321287624e+00 8.739310332311671914e+01 -1.161032417853886329e+02 -9.703500456238880645e+01 -1.027895989598191733e+02 7.151497844994001696e+01 8.673628808919433197e+01 -9.244569164000709804e+01 6.275419746596716664e+01 2.587970648781817573e+01 3.876380231405522636e+01 -1.778264392645134961e+01 9.152577780767190063e+01 7.986206989992913918e+01 -7.740684400043670621e+01 1.184158664660391658e+01 8.103166323217051570e+01 7.298171887938227087e+01 -1.993389146090994046e+01 2.501613828436449793e+01 -1.328270045031565019e+02 4.861410568332897242e+01 -3.283285092100265246e+01 -3.272648632544335356e+01 1.734821046783712859e+02 4.750793547792660121e+01 1.204102652703973177e+02 1.912857562538410150e+02 -1.379154954267077926e+02 1.493340409326575582e+02 -6.353103566659059709e+01 -1.353656728220167054e+02 8.245431922312909023e+01 -1.342853022210496192e+02 -2.875806120138286914e+01 5.650071020607951056e+01 8.076747701019602488e+00 -1.684253660878513017e+02 8.438970045296547084e+01 2.527020950732481452e+01 6.920497178040119479e+01 3.635279715896155039e+01 9.485595614923811425e+00 -6.722530772197234228e+01 1.159081485778119429e+02 5.457876911762635075e+01 -6.222081825110011977e+01 -1.014053785129690652e+02 3.898983864019508161e+01 2.574400529121879799e+01 8.252831515223664383e+01 1.840646300153760819e+02 -2.466470447197730920e+01 -1.103285803069449571e+02 -8.483920524430183718e+01 -5.139911326145485759e+01 -4.442019725480098913e+01 -1.469538057510216049e+02 -2.254943239902390673e+01 1.297087722989654139e+02 7.464939166884535382e+01 -1.225551519292537392e+02 -1.501136530250752799e+02 -6.819515521780829204e+01 -7.645196035733741269e+01 1.470054694079609874e+02 -1.707146290498564838e+02 8.668008539150564218e+01 -4.614084262702901285e+00 -4.309344311316763765e+01 1.331501820227215305e+01 9.128886156444478672e+01 4.964430810117802650e+01 1.384010583654654170e+02 -1.593596034089138698e+02 -8.108352219497716362e+01 2.539297845534008857e+01 4.198934043948148798e+01 2.064121034433360649e+02 1.456563183224933482e+02 6.562607126378188127e+01 7.220156467144073531e+01 -3.417517891013648068e+01 1.520151706290685070e+02 -1.795887048544317395e+02 -6.349593808675846418e+01 -5.375368277142960949e+01 -5.186064143861484155e+01 -1.034044453826390253e+02 -1.500983681648044410e+01 -6.872427152467388112e+01 7.126197338916513502e+01 -9.163558718400800274e+00 -5.815145637530508083e+01 -6.234034485097446066e+01 1.804111617905952869e+02 5.909001079085590646e+01 -1.373725969730987728e+01 2.091338506448075805e+02 -1.084693425675704077e+02 -3.537282563291994109e+01 6.703863482302183741e+01 -1.337438382382365454e-01 1.497553245867200289e+01 -1.252322801469391891e+02 1.763789627401573910e+02 -4.902173074091299299e+01 -2.694928587298771205e+01 -1.097999755850805599e+02 1.259494270080423917e+02 9.593583335729978501e+01 -7.756608427054899835e+01 -3.761913723110803431e+01 3.897290124818369605e+01 -1.514593788957452034e+02 -1.702460781230585030e-01 -7.472771180683334080e+01 7.696672343565717611e+00 -1.081305413771645902e+02 -1.585555106769914460e+02 -7.068743266881396892e+01 1.481739071769149803e+02 5.656089225694945100e+01 -8.961206312742734781e+01 8.914878252549398496e+01 3.421431673535827400e+01 8.829052683807448432e+01 -4.209659312906973838e+01 -8.403546286496197126e+01 1.709157092755121425e+02 4.161599554382495825e+01 2.892619577072139236e+01 -7.293071852970622615e+01 -4.226915888236380425e+01 9.526309070599079831e+00 -7.158211978866746428e+00 -1.726211448648568876e+02 -3.456691747771355239e+01 6.432283912074980492e+01 1.114337710514128048e+02 1.554762424733903572e+02 -1.325528123558314597e+01 8.946110808204392129e+01 1.574284283906671931e+02 6.328839515668769167e+01 1.474181613365990984e+02 1.602816362181059873e+01 1.309880598147067303e+02 -8.372669798538181851e+01 5.320490074572492034e+01 2.923791042505802196e+01 7.562580264270634700e+01 -1.058591275992945526e+02 1.973510662028998581e+02 -1.282702162102025625e+02 8.796964480683003273e+01 -1.069737942422014640e+02 4.596005881441774221e+01 1.374323631384085864e+01 9.028960037377382264e+01 -7.331579447974418429e+01 -7.514370247207683917e+01 -1.109521241465296626e+01 8.863055493598983503e+01 -2.943077665607176030e+01 -1.621452107402364362e+01 -1.952094772683658519e+01 4.708824523174866883e+00 9.753392344842941952e+01 -6.215579293308712039e+01 -2.691857799237625137e+00 -1.923695741471254337e+02 1.209563546310034070e+02 -1.237667320917593656e+02 -7.321602475130096366e+01 -2.332307941013735686e+01 -1.069712396486914088e+02 -5.267668559967743391e+01 -5.805025157111362688e+01 -1.950327828540221020e+01 1.350123936760323886e+02 5.356872080561537786e+01 9.950829966979786434e+01 -1.348540195739946341e+02 -1.373091501792133329e+02 -2.839886506859295423e+02 1.012347772596417741e+02 1.032973898230555960e+02 4.191369900145015492e+01 -4.205903784339310647e+01 -3.685333999010934747e+01 -1.819817688797405708e+02 1.447805153974777284e+02 -1.064367985456893848e+02 1.059890680991812104e+02 -1.577618422542600456e+02 -1.418474570860491113e+01 -5.487535501835593976e+01 -1.181792708632475808e+02 -4.568553204857986572e+01 -1.240458331869721675e+01 -9.183543943963083223e+01 -1.025548878995446103e+02 -1.224743918234985607e+01 7.055828105986371668e+01 -1.235127672061328781e+02 -1.551966971241564508e+01 -7.310013758018955343e+01 -1.302527890205220444e+02 6.575463800396302183e+00 9.430482512201858469e+01 1.640856964358445111e+02 -1.889989512523867177e+01 -4.565641187187087269e+01 -1.231003134321774439e+02 -1.622225947054073742e+02 1.029165064223003583e+02 -7.213577203184898679e+01 7.835031438580701035e+01 9.323803700104710046e+00 2.899359687914646244e+01 7.324814602043495881e+01 -8.406577633457382603e+01 8.201621007712130051e+01 1.143645457622469621e+02 1.562261341206614134e+02 -1.156405002911497206e+02 1.031406516416772376e+02 -4.740427237055695997e+01 -9.009567097558164050e+01 2.129265096949364988e+02 4.885387747451119367e+01 8.282681256652843160e+01 2.108645892529018084e+01 -6.274584110783200686e+01 -3.466780279311448965e+01 -2.087678110658941648e+02 1.048256475431310406e+02 8.087147471730516202e+01 -7.511902592983538796e+01 -7.257383637308502955e+01 1.440808955630881201e+02 1.002919839593559033e+02 5.072597711744090532e+01 7.549280321330002153e+01 -7.813523367433631961e+00 1.024048212550390531e+02 -1.027682674951678905e+02 1.849552904210077031e+02 -3.918152102194082431e+01 -1.210677210161718733e+02 -3.739944377040475132e+01 7.119625093893701262e+01 1.462139588567249859e+02 1.278933560882709308e+01 1.724991679966353786e+02 5.179857310138652338e+01 3.336965110534317347e+01 -1.104659351299087717e+02 4.445654538203559270e+01 -1.240632013580013933e+02 4.734217377967247131e+01 3.831664477852179829e+01 -1.224226077235958314e+02 -8.439152396920874821e+01 3.954434125004562617e+01 8.659350127487812188e+00 -2.304631539712350730e+01 4.155169179628595799e+01 -2.123831323536403204e+01 -6.261201929237005714e+01 -2.599154054907062772e+01 -2.226813471067195138e+01 -3.952215459468167325e+01 1.862923036775433161e+01 -7.990054489814868077e+01 1.180434487657437188e+02 -7.373816222463261738e+01 -4.214769943914366657e+00 6.507270247983247202e+01 3.857583347528527273e+00 1.583323171628155279e+01 1.584251249028962505e+01 -1.162338883492152206e+02 -4.379459239210921950e+00 6.455313794020190699e+01 -2.296663131624409289e+02 -8.422159395981813645e+01 -1.118470790719484569e+02 4.345918773087331743e+01 9.548044546450809378e+01 -9.105252063883301616e+01 -1.665952724489291654e+02 -1.837388095236954655e+02 1.980993255633967109e+01 -1.437971549534150597e+02 -6.273171581126380403e+00 1.463897528323103074e+02 -7.032149990940090412e+00 3.681340277858062393e+01 -9.799114665801464241e+01 7.907205954708767592e+01 -1.173389110024494357e+02 -1.525864770432210094e+01 -2.996973747095405116e+01 5.694415234169158424e+01 -8.759994163832663716e+00 1.044491037308325048e+02 -1.206171849324509111e+02 -4.947416231549226495e+01 8.552802519486310473e+01 6.531128691954617693e+01 -8.127329168435812790e+01 -5.369196259345149258e+01 -4.870976127052787064e+01 -2.854392900558400470e+02 1.908474909303211859e+02 7.501895479359308183e+01 -2.324849544106902854e+01 -2.923746921912654173e+01 4.092002326413009428e+01 -8.287647786725860044e+01 9.801584960063402718e+01 5.954080626710232593e+01 8.069573877136360807e+01 -8.277206862695980760e+01 -2.611305652027789392e+01 3.279879845149204698e+01 1.710092654488545350e+01 -4.213633856354935148e+01 1.553510179223732166e+02 -1.700274312147144684e+01 3.481296287845554360e+01 -2.260105685844183085e+02 -8.325360201109675984e+01 -7.191950458000286517e+01 2.263291526744416160e+01 1.073276437535865853e+02 -2.277663797203680076e+02 -1.838439297732670354e+02 2.178575766420211721e+02 -1.038612693733879411e+01 9.440985650583995437e+01 6.160490482829847281e+01 -5.440421341298389279e+01 -1.287488009443605961e+02 -9.352459878759782441e+01 -4.939123913099612651e+01 -3.678089904598645177e+01 -3.848461539403260900e+01 1.587507145745677661e+01 3.653640522581730465e+01 1.639675020243482777e+02 1.211030373805822649e+02 6.841107688220738225e+00 -4.321500407430177937e+00 -1.560362787201874823e+02 1.175901489050248472e+02 1.565664553824579173e+02 -1.016568657438615304e+02 7.245670262983217924e+01 1.704457317888626422e+00 5.396942000304056108e+01 1.232485488380882686e+02 6.972147067276229393e+01 -1.317339816053581387e+02 1.585541530360929308e+01 -2.888320786920905192e+01 1.095242695553766943e+01 -2.274017405858565155e+01 4.457509767129232614e+01 -2.561941996451013210e+02 1.781515289742634707e+02 7.167448357836335937e+00 1.567878976454985889e+02 -1.036863526366168031e+01 1.044487388827168814e+02 7.047842009538067032e+01 -4.131945561564630509e+01 2.944955895668108781e+01 -7.167163029134070484e+01 -8.760544463949459271e+01 -7.095424346733513232e+01 -3.156510877576771534e+01 4.449221417465905404e+01 1.085143789792590638e+02 2.805821669964225507e+01 6.121649038266966869e+01 -1.032906387240771124e+02 -1.351445357366390283e+02 -1.328904718164797671e+01 4.572584965584569971e+01 -4.482958440343965378e+01 9.322573913910247256e+01 5.474949402618050698e+01 -2.725762328652780297e+01 2.952892286147267598e+01 6.052853188928976635e+01 -7.110747624150533852e+01 -1.318809812993918342e+02 1.401294888761361221e+02 7.707921337266665951e+00 4.946868007076325569e+01 -1.473260807898325027e+02 -5.270935086980754392e+01 -4.438238947821432356e-01 -6.492308823400026085e+01 4.212409856222527615e+00 5.558667894233489903e+01 1.841386102035531849e+02 3.865063455307105045e+01 -1.082838469131275794e+01 7.136323301239738726e+01 -4.493854363503660210e+01 -1.077036982771085718e+02 -1.365939687171964749e+02 9.261570081540053678e+00 2.482948756503580157e+01 2.354948069884654771e+01 -5.625665498753740934e+01 1.195148463512389441e+02 -7.996902002842456625e+01 1.269733020400560406e+02 8.638716473128340567e+01 -6.437355848085313426e+01 -8.386799414053800206e+01 8.336288261346204820e+01 2.024897304272456111e+01 -5.199467647428716077e+01 -5.332490530705623399e+01 1.354188297638839060e+02 5.678306047020193859e+01 7.916602636735720466e+01 2.590897988141508534e+01 -4.168791683827382855e+01 1.064928671487306531e+02 -5.409305508809802632e+01 5.470698601471692957e-01 7.590841344727468254e+01 9.876229551412987462e+01 2.534109818589724625e+02 -1.737682351887473544e+02 1.596636496099610554e+02 -6.704976034584068145e+01 -1.511286287246791282e+01 -2.490146959255939763e+01 -2.058022148063978207e+01 -5.475199531368304662e+01 9.231999589703890763e+01 1.828206025753458164e+02 -1.180207649625761803e+02 3.073944486214841376e+01 -1.261470388660790860e+02 6.979280048545753345e+01 -4.424200572901728634e+01 -8.059072421018828436e+01 -5.363565741826086963e+01 4.099928202081969886e+01 1.929605042071458243e+01 -8.144853302637613979e+01 -1.405255167764501323e+02 2.069560696426673374e+01 1.571090572048923661e+02 1.424443525721463288e+01 1.819885039715248638e+02 7.442438882675169509e+00 1.343227520114155595e+02 -3.452460228303779388e+01 9.057335689312405691e+01 -7.133205246997646043e+01 -1.127617356115873406e+02 4.938341190787765811e+01 -5.796274380533013471e+01 -7.848206743382999662e+01 7.285797730457835542e+01 6.456313635780877469e+00 -9.429737378078010579e+01 -1.506195059933604909e+02 1.480059935335670218e+02 -8.925359307135234133e+01 -2.357510488218946154e+00 1.202499801256097243e+02 5.811543433867316111e+01 -9.838337756882839358e+01 1.065669570726702275e+01 2.826664464291180821e+02 5.344262137044510297e+01 -1.581497627606416927e+02 -4.785740182592041236e+01 -6.170248170304441260e+01 9.656564596457705818e+00 1.079337178472632672e+02 -1.038588867543522127e+02 2.165771469438654506e+01 1.310038696133500480e+02 1.885270758640583821e+01 -2.121605706321849425e+02 4.853275243304588571e+01 7.581857372370917858e+01 -1.364475734428722298e+01 3.294490313832702810e+01 1.529711570632915629e-01 2.262886981580525259e+01 2.786525637189864568e+01 1.163724919610801152e+02 9.849595482199721630e+01 1.565551396790928962e+01 1.497360205362596730e+02 -6.432849895850841904e+01 2.478429352923670592e+02 6.535018880340888359e+01 1.424077066250455061e+02 -2.207885149191916341e+01 9.052067780080385262e+01 -4.924019906515878375e+01 -1.471215990991192939e+02 2.631327274251204784e+01 9.552992543955366500e+01 -8.804816207374824444e+01 -1.052880660274068845e+02 -6.688822622684921271e+01 3.679588546244288949e+01 -1.148201010811124547e+02 7.511416103953325774e+01 2.820952348968449996e+01 -9.813508224757427456e+01 1.909520745803253021e+02 -1.182578655548662461e+01 -1.023081696358798780e+02 -1.346670449198822261e+01 -2.054623155410494917e+01 -1.409893611098220561e+02 -4.024750507039914993e+01 6.184275190170415470e+01 1.325034918554163710e+02 2.918796655098928383e+01 2.690345946645376429e+01 4.503487219740827641e+01 -3.593669340897284314e+01 -1.464050876270500510e+02 1.595659615449080349e+01 3.114914862401364104e+01 1.338432860954427213e+02 -9.973673705766426423e+00 -7.655918915439752936e+01 7.361368668379007829e+01 9.940190445128800345e-01 3.206256631161720350e+01 1.400386757786342002e+02 -1.785149317086770964e+02 -9.337861064919380283e+01 1.254365145333142237e+02 -2.108182055021214296e+02 -1.797145637301432259e+02 8.892990075723385246e+01 1.504833006744504758e+02 6.195245065911178273e+01 -4.358651425922540845e+00 1.522024209807510715e+02 -2.144993379572964329e+02 1.047122081603972248e+02 4.141282608717518343e+01 1.241779466949074049e+02 -1.842904394805162269e+02 1.041088821776164650e+02 -2.761571605477274716e+01 -1.306465766632236978e+02 -5.203110592099925213e+00 -9.029218660975413968e+01 -1.590357172478343983e+01 -4.212309093179062991e+00 -1.203831168986247491e+02 -1.205058223080539221e+02 -6.114446363957990371e+01 -1.259775279784631010e+02 1.964056526350299805e+02 -1.573902000550202729e+02 -4.902906618850769860e+01 1.686037027572982936e+02 3.315420198063830526e+01 -2.892374707191593757e+02 -1.242043030069188490e+02 3.470414434780993673e+01 5.340653005013522403e+01 8.381259262296541834e+00 -1.510874205010609899e+02 3.487263107503751058e+01 7.312712769675142610e+00 -7.263295170412371249e+01 1.980963905268374674e+02 1.979644857560177513e+02 4.239150386167522377e+00 -2.037796713673758120e+02 1.231111331885293794e+02 3.006053756854111825e+01 3.691880448406986037e+00 7.486246722993320191e+01 -2.027414738966230914e+02 -1.348791966740635360e+02 1.378134119650965772e+02 1.071444023016945266e+02 5.171204452578567867e+01 1.399384026275182293e+02 -1.741934828438138538e+02 -1.998012677386241975e+01 -1.274416841352496448e+02 4.262434716396910517e+01 -1.014965754213908724e+02 8.506876489756407977e+01 -3.312148847633527282e+01 1.210075022606583772e+01 1.733809509720819619e+02 2.786573875706133663e+01 -2.575491154557601021e+02 -1.234848542016130750e+02 -8.144488757924609956e+01 1.544944422584834172e+02 1.225058504454551311e+01 -5.261575558135620412e+01 2.966362806550298004e+01 6.107636574791924033e+01 -3.866344930468912366e+01 1.050559655594914261e+02 -9.843819230933320341e+01 4.808837582707856484e+01 1.093715183306582759e+02 -3.466615996063270444e+01 -9.588180158744397374e+01 -1.108419738693641960e+02 1.170227193323755017e+02 -4.853436840087511683e+01 1.920583744178732672e+02 5.589732726227072135e+01 1.084148574764519140e+02 1.802361554669719794e+02 8.363403481761020331e+00 -1.214503100698597677e+02 -1.619598474943703081e+02 -1.115695193253292530e+02 4.151717420680462567e+01
-1.298842971321079531e+01 -4.608232853499195869e+00 9.883732164811621601e+01 -2.185961409333089307e+02 1.483379613736513534e+02 6.061407416729414166e+01 1.452088498395894760e+02 -1.232751198601954314e+02 -2.649009425987428834e+00 -2.297154726234743549e+01 -2.094818318371598309e+02 3.123174232370815062e+01 -1.748660546417083950e+01 1.167267681959328911e+02 -1.193786208297029390e+02 5.889727872315899759e+01 1.195762558054666158e+02 -4.385336163927122044e+01 -4.736200946472774120e+01 -2.578479545275861184e+01 5.890037616091851191e+01 6.021199848577763447e+01 3.094583416962617761e+01 -2.219026017225474163e+02 -4.923782183832921078e+01 8.734473557400797006e+01 9.455980068694932683e+00 -9.892127406108762955e+00 -6.348909501938409505e+01 -1.477181715607828849e+01 6.998717333756192716e+01 -1.387592797342952053e+02 -5.910007387188990435e+01 8.571500599359932693e+00 1.980577702433837715e+02 2.023549361965111473e+02 -3.063918990840274859e+01 5.332964427672501273e+01 -2.554891080371423095e-01 -1.332645635390144889e+02 9.158495644644547440e+01 1.023235019811941697e+02 1.035491941252756334e+02 1.114926396763206284e+01 5.905570521406286844e+01 4.591853679658720466e+01 3.710133939467544195e+01 2.800130970746032233e+01 1.052338444450539896e+02 8.560531995829870766e+01 6.258617287274893926e+01 1.555236562039271462e+02 2.363999373326285252e+02 1.866234694288988862e+02 -5.642633542165043536e+01 4.701051984246473125e+01 -6.133376380762862112e+01 5.381863467477160157e+01 -1.833739173012848482e+02 5.391212243468769572e+01 -1.953814351853194466e+02 -1.609885829276595928e+02 1.235511123991414983e+01 -8.828772355341603983e+00 1.617657517584540869e+02 -1.984373077402758838e+02 7.183237262535952539e+01 2.193142259128438241e+02 -7.025595126492286902e+00 -1.858532944291186482e+02 3.393104531731727036e+01 1.881847480632002600e+02 -5.831433294331949924e+01 -2.543548127862424622e+02 -9.788320022941873333e+01 8.469923820853841434e+00 -2.196001150743484231e+02 3.059814683722226647e+01 -1.712950575778549762e+02 -1.771464758057584845e+02 -5.455418434152384322e+01 1.455547901140506895e+02 6.633822562128730738e+01 1.013316619917704031e+01 -8.465937334989496321e+01 -4.068723661080054654e+01 6.088180694999343245e+01 -2.217230267523309521e+02 5.168347980999725877e+01 -7.162586745371432073e+01 -7.464195883464898884e+01 -1.689258238320210523e+02 6.216357962017137595e+01 8.860619538829847386e+01 -1.551169663295845282e+02 1.651233430009841641e+02 -3.812213547255479540e+01 -1.617061424960171578e+01 8.373902577318683882e+01 1.494300561798177114e+02 2.076102652833579398e+01 1.447831640027447122e+02 -1.767539982049370195e+01 -8.671881853517163563e+01 -1.875054214327477098e+01 9.663751633134110364e+01 4.421111683751117738e+01 9.617361969317272496e+01 9.279602806605953447e+01 -8.167234584220844340e+01 -1.670490018665376795e+02 1.209804362899145360e+02 5.333579161873124974e+01 1.593002013306296050e+01 3.006264513264084925e+01 -6.678857557663536682e+01 9.442940169339289014e+01 8.835545989090024932e+01 -1.347469517645247983e+01 -7.006933243037408943e+01 3.022450956991397319e+01 6.176573033864050544e+00 -6.049678689160531064e+01 1.667875666203651974e+02 -3.235021556590748304e+01 1.196280612028038490e+02 -6.896825585370019951e+01 3.776873104995893726e+01 -3.551107358158799343e+01 8.804477549477354614e+01 2.310449466421182763e+01 1.137479416118038671e+02 -1.141832297559964360e+02 7.317820521325648997e+01 1.215464049356944258e+02 -4.400729326624660587e+01 7.501830779672974181e+00 -1.252972970730333557e+01 1.150032344817442578e+02 3.546425796167590683e+00 1.660802830081251500e+02 -1.392760971980553109e+02 1.149099742058281350e+02 -8.994311007169801542e+01 9.436080656011921519e+01 -1.350347486495192868e+02 2.908195860362581087e+01 2.438796420869102732e+01 1.771608480952427067e+00 3.578967049434899650e+01 4.529666522601048229e+01 -1.222696662877930329e+01 1.069734962535406630e+01 1.065621692850550346e+02 1.254602708869866063e+02 -8.547984682221162700e+01 -5.344023303590662977e+01 4.668936146359051520e+01 1.507102454395040425e+00 -1.350929236216162224e+02 -5.436491394254819909e+01 -3.495420389434577402e+01 4.824737444827652411e+01 -6.466396484360812735e+01 2.261651207572523958e+01 1.582691676688117184e+02 -7.842798908975014172e+01 7.977654004347073169e+01 8.300692587271156242e+01 1.111200758895523322e+01 1.219059343557617154e+02 6.211244175315695060e+01 1.660091800347137223e+02 -3.417083808086449892e+01 1.111268203020036225e+02 5.490751675481511995e+01 -1.588502023753652459e+01 2.018268943155495947e+02 -1.372542705891428909e+02 4.835432885372351564e+01 -1.855666907013077207e+02 -8.328907253220164364e+01 4.060980339624494917e+01 -7.147501599587768339e+01 -1.542586505014004672e+02 1.973584231037216909e+02 -8.494372964596487918e+01 -4.703535864297998614e+01 -4.583676572575878083e+01 1.205961692801020604e+02 1.929468241660337924e+02 6.414785796567599618e+01 1.448942664762123229e+02 2.174445816668957434e+02 -1.596689611037481749e+00 1.614062107552754810e+02 7.024228158712737979e+01 1.886680811391173052e+02 -1.246536373983132222e+02 -1.174504122672075468e+01 6.290133099471503009e+00 1.882294304461706815e+02 -9.005586519722999128e+01 -5.995114131269838964e+01 -5.246469414501513739e+01 -1.327849294011177790e+02 4.625920430249968796e+00 -1.000232379995102576e+02 1.527529251725671031e+02 2.334539651725619080e+01 1.189180818501059278e+01 7.165645424841586930e+01 -4.879971909928319640e+00 1.159258249489204928e+02 -1.574359011098553935e+02 4.500835920063445883e+01 -1.692866167539930302e+02 1.163701975947080740e+02 9.520075930772595996e+01 -6.669528955222547495e+01 4.636328995862865554e+01 2.360031095980660041e+02 -3.019181544889091384e+01 4.128119485365828467e+01 -3.238336566834523467e+01 5.742068448899527766e+01 6.369690765581568570e+01 -6.222287066133928235e+00 1.009901808366637539e+02 1.005652780476970491e+02 -1.921132207775167444e+02 -1.518465649524520131e+02 -1.187378735870125013e+02 -9.353953518751705332e+00 -1.484092748470945367e+02 1.144909487409933604e+02 1.093286536172974479e+02 5.844693654047069487e+01 1.106022350222090544e+01 1.562245501163428401e+02 8.318363709124578520e+01 6.687751780908862997e+01 -1.006721995318893903e+02 1.509648372188499934e+02 -3.557261132951090143e+00 1.083186331133648821e+02 8.736124149387487492e+00 3.639719088956668003e+01 -7.497652024151560113e+01 -8.987872982867621374e+01 7.089808221051684711e+01 -3.812632237117253187e+00 1.448024413430995594e+02 -1.244257180229646131e+01 -2.822210380460073775e+00 4.540079998431198050e+01 2.240806734738495365e+01 1.399934376410620303e+02 1.451535244252395351e+01 3.548178715219167145e+01 -1.530986319879419852e+02 6.514718264069834675e+01 1.322430377877345506e+02 -1.744275821410219152e+01 -2.255280223023763995e+02 8.346751311529884276e+01 1.345432062908412263e+02 2.009537290182435854e+01 1.865881331003641037e+02 -4.156544450368297561e+00 4.230499164986426308e+01 -4.299960009468202315e+01 -1.366530449102275497e+02 5.518878922322289071e+01 -4.676679837680501350e+01 -7.979479194813474408e+01 4.058404997947523896e+01 -1.818881717571973695e+02 7.054865380249599127e+01 1.617729511635596396e+02 -9.957861664610295804e+01 1.701433970429781652e+02 -9.600937802346827254e+01 -5.873518449046328804e+00 -1.035429695417031937e+01 7.531717292676202646e+01 -4.579520050482966553e+01 -1.059097253800693892e+02 -8.700261480337233877e+01 1.431763616017525749e+02 5.803995827549498188e+01 -1.293758742937582440e+02 4.347869211767450892e+00 4.261671134087997359e+01 8.101337745285970016e+01 -3.956984927778084682e+01 5.882851017026789009e+01 -6.765362220339980581e+01 -1.592197655359750286e+02 -3.396119705907668873e+01 1.382321278817527457e+02 -1.111764976540649172e+02 -6.277166377182727075e+00 -1.596803041294534182e+02 -4.716755386489328572e+00 -1.429830932312982554e+02 3.226445472068638054e+01 5.898226751916716637e+01 -4.931377950909188002e+01 -8.071213415526172241e+01 5.521969257383996244e+00 7.287564146295385115e+01 -6.637632149734179166e+01 1.319028594357292548e+02 1.033410857598931045e+02 -1.249696670089040538e+02 -1.032362678691194873e+02 1.322154154016129439e+02 6.980071637064737899e+01 1.469730574413928537e+02 9.794087413590489177e+01 7.938420693175662279e+01 -5.894774198053243452e+01 -7.995088918124869792e+01 -7.534376384639016067e+01 1.999059578208607491e+02 2.987904117211643040e+01 -2.434174305640554081e+01 -6.694016239602282781e+01 -4.881533635339843613e+01 -1.281644839486675664e+02 -1.609449494983011419e+01 -1.707557326156066608e+02 1.216788608972314449e+02 4.476223504588109847e+01 -1.121307317975641240e+02 -4.709471997801068710e+01 1.165190508239933820e+02 -9.433380809837143488e+01 1.000590910527706683e+02 -1.152698559488375309e+02 -1.145470105792941240e+01 -9.292178497238347745e+01 8.730050762827617916e+01 -4.132549847253464748e+01 1.001436076068676151e+01 2.854431794279446422e+01 -1.231993769578104434e+02 1.215919358031198882e+01 4.703477305437566969e+01 -2.176265253147871093e+01 -6.686225740442755239e+01 1.970005755516343413e+02 8.408063823851854579e+01 4.582002696313617207e+01 -3.054953443948764402e+01 7.800927156843022203e+01 1.629811521756128343e+02 -8.970827155196859337e+01 2.036812856321595859e+02 -1.294241468298216375e+02 -1.788281305656283848e+02 1.476116612248930551e+02 -2.274832364646325402e+02 -9.410682930173974725e-01 -2.381386188060183144e+02 -1.486600085530972990e+02 6.977545292541445576e+01 -1.415763986437503661e+02 5.675461957879050345e+01 1.068787423499250906e+02 -1.558991841681091159e+02 -2.927574162900207355e+01 7.331757281793107950e+01 1.301999931800414458e+02 -1.809397261115744868e+02 8.505271093379455749e+01 -9.524166176740929757e+01 -9.586724811920758427e+00 -1.348239113090197705e+01 -7.736103033365220938e+01 -8.778973513968001896e+01 1.763308233485335563e+02 -2.109417190683375409e+01 1.305867913010784864e+00 1.266343940338636997e+02 -8.432507621083991012e+01 -3.348295854189347409e+01 -1.047371264580498291e+02 -4.750546076641904847e+01 5.022632521671283712e+00 5.777587447142178689e+01 -1.315293928726247827e+02 2.310644545449715963e+02 -5.252518529511467449e+01 1.195734754581222177e+02 -4.761617387648521316e+01 1.168414526063422301e+02 1.357465038787843810e+02 4.681063163837721675e+01 1.191534098894206721e+02 -4.219383658411430815e+01 1.366418034989429771e+02 -1.527746976024309049e+02 -6.385659362464296152e+01 -6.149490125634308413e+01 2.495972657367664738e+01 -1.585123132970063011e+02 7.085667926266010852e+01 -3.012386446588550015e+01 -8.072411889614062375e+01 8.751629049761454837e+01 -1.476076725758178725e+02 -8.911432048325610822e+01 -5.141599870888364165e+01 3.231285147420666704e+01 1.268158263089487718e+02 1.141501247252113984e+02 6.751320825483531962e+01 -1.543501901627239992e+00 1.708525369878512947e+02 1.196978155091762375e+02 -9.228301715112442594e+01 -7.632529479041251363e+01 5.398283039033722730e+01 9.731932043489917916e+00 9.571197648952301051e+01 1.628555519035350301e+02 6.895729105827221872e+01 2.385594605589736616e+01 -9.983748709170711777e+01 1.677932231042867954e+02 -1.110228434574967622e+02 -1.614122859831453241e+02 6.418508331681412926e+01 1.088744716703792079e+02 1.917989072911935722e+01 -1.355650460070264671e+02 2.901598134170473386e+01 4.140651288776148675e+01 -3.358187588105102650e-01 1.277956488581316421e+02 9.534929536861439203e+01 1.669790002346216795e+01 7.645071142170033340e+01 -1.043836380698648583e+02 -6.188808238661422045e+00 9.594394433847921277e+01 2.896509983698423696e+01 -6.343879533670911286e+01 1.931869466615935949e+02 2.254200185978050399e+02 -1.223903447807694249e+02 -2.693738549217620459e+01 -2.049597186531159991e+02 -7.038185458430875485e+01 1.526692589805918772e+02 3.297448401043443500e+00 -6.920510861441402994e+01 1.596542488059821778e+02 -6.092002535953361786e+01 -1.565453488158563289e+02 1.330946191190151353e+02 -6.549100597247604583e+01 3.361447887754488306e+01 8.413664530137940289e+01 1.343449166267818740e+01 -2.321302909742425982e+02 4.122287425193201216e+01 -5.998773846919953634e+00 8.778302333625772746e+01 -2.295715685441993159e+01 9.851479299866016959e+01 1.654690445089622841e+01 -8.252546794170550015e+01 -1.995221040647838606e+01 -1.706984512282876096e+02 1.120050187892825875e+02 2.462304198754496909e+01 -4.054124093433635068e+01 -5.046043938462658929e+01 -6.126844889803447813e+01 4.005090077394314818e+01 1.565217376196654016e+02 1.292505593481820085e+02 4.193497737308112505e+01 -1.927226230790473380e+02 -3.778621230706391998e+01 4.267994355144686836e+01 1.142795116780779097e+02 8.493597591977221839e+01 1.504207645937265703e+01 -1.811880434635315282e+02 1.282630688179650065e+02 -2.179294027799327012e+02 -2.004568056605950233e+02 -1.787813385664529076e+00 -7.185197737101884741e+01 -2.347985692845232109e+01 8.485633662349108874e+01 5.446496305277268135e+01 -1.083030643643443369e+02 -1.475206585653016873e+02 1.420670291182806011e+01 1.204713184288503243e+02 2.014495494212432547e+01 -5.523394129864787772e+01 -5.029623531816987025e+01 -1.142947168846105477e+01 1.571764124680269958e+02 2.178651452723670090e+01 -1.722244192851073876e+02 1.272354992615400135e+02 -6.625594912530473835e+01 -4.139338559754171420e+00 1.526950720227191596e+02 -5.184964002402241334e+01 -1.942408743532038429e+01 -1.089254361349470770e+02 -5.953165503855778695e+00 -2.365055406459817178e+01 1.305810760321650150e+02 1.190652273010311148e+02 6.701219431828091899e+01 6.488436963063281837e+01 -1.855166758177736597e+01 1.340500334057401517e+02 -1.118119816579224448e+02 -4.221995607874054812e+00 -9.028499598121020142e+01 1.557844901763074574e+02 7.232161180865318784e+01 5.124311602508565500e+01 8.192875767282142618e+00 -5.284366575049899240e+01 3.409099441628969629e+01 6.678908485736102740e+00 3.602057855274513276e+00 2.390225479281586374e+01 5.926662318402320295e+01 1.688051584991797540e+02 -3.851610221902002706e+01 -5.153564990744875729e+01 6.621775514265625873e+01 1.146768101529153370e+02 -1.270292332323726292e+01 9.115221896397514456e+01 1.031739499754140468e+02 2.089596772749101490e+02 -8.579532964248792837e+01 -1.216184451986639772e+02 -2.839369881109662686e+01 6.161466948495461793e+01 -1.005927378877063560e+01 1.064728429281588120e+02 3.691529291399781698e+01 -1.611879447237877798e+02 4.465647745360795540e+01 -8.865959507111553251e+01 -1.340789759189498227e+02 1.332852552848334540e+02 -7.534536142924852697e+01 5.862148204074473767e+01 1.101515612189006532e+02 -9.808471406284628813e+01 2.326919369812992144e+01 -7.145838932408166499e+01 3.989011375083754984e+01 -1.135118731858465253e+02 6.098749400643271912e+01 5.413991545995626353e+01 3.855633976061842549e+00 8.320865053876670459e+01 -1.513670978601067532e+02 7.559901833920204695e+01 -2.898746318241749265e+01 -1.660273891310258421e+02 9.286546208560186244e+01 2.411382310887337965e+01 -1.927526725190932950e+02 2.312073638792051327e+02 -5.259551157960298262e-01 1.033502747620768503e+02 -1.185146184621626020e+02 -1.908452530346492892e+02 -9.170598975133579245e+01 2.446595421325225672e+00 1.404174224947128664e+02 3.916257469347101061e+00 -9.392252893033536054e+01 4.950848971979490187e+01 1.346766879209589263e+02 6.385245157114954395e+01 -5.083927034508012355e+01 -5.812224000959611914e+01 8.304574030572365473e+01 3.020314940716931318e+01 -1.921898384930297254e+02 -2.037373533056941710e+01 1.661097310895705448e+02 9.710565617336797573e+01 -5.634043120809197802e+01 -1.098723301608353893e+02 -4.193835078775151004e+01 -4.725043453269500304e+01 -1.124723937117652781e+02 -1.814105890220919548e+01 -4.487171398811135958e+01 -1.116545724069386551e+02 -1.296262789335818582e+02 -2.647806479492157194e+01 -1.234995041234225681e+02 -1.314998842649065409e+02 -3.766943061169288143e+01 -5.438334525767882610e+01 -1.090975049385698696e+02 1.895321826527440692e+02 1.071727012759306774e+01 -2.864191332322175043e+01 -1.731268775371692925e+01 8.009697271402026786e+01 1.592723104928112043e+01 2.550248058490234726e+01 -2.165136348009455958e+01 -4.709891951123526610e+01 2.129492280143171357e+01 -1.480131684635741749e+02 -1.620818464986670051e+02 -9.204929931934927367e+01 -1.943106075286925432e+02 -9.124364079137906458e+01 8.734312611837337670e+01 6.250051121376152707e+01 -2.652935854991490672e+01 6.187162343928329733e+01 -1.594114430116062522e+02 -4.159143363445159736e+01 -1.182450428581330755e+02 -6.796213548465664189e+01 2.147952503074293418e+02 -2.090140135802721773e+02 2.089921917376777856e+02 2.543491282424638555e+01 -5.748684745755014802e+01 9.390343991091236830e+01 1.263351666850219175e+02 -5.283094263110781696e+01 -2.074464624089165738e+02 -1.518050716196367489e+02 1.041326950284551600e+02 8.528141706852413506e+01 -1.380391454428043119e+02 3.252774446524774987e+01 -4.039646079857805461e+01 -7.880725600778862372e+01 -2.894214078686931302e+01 -5.581818338962301596e+01 -8.800243479502772459e+01 -3.466671410722346991e+01 4.579727142283484653e+00 -3.328108032488596280e+01 -3.913584188369656491e-01 -1.460173302511778637e+01 9.363292683077033018e+01 1.294075119045824920e+02 1.340390064708414641e+01 1.710050690914546578e+01 -6.427147370915895408e+01 -1.996060371304957641e+02 3.446670428248052787e+01 -9.339439078205246858e+01 2.630420229477731908e+01 -8.305287840452036718e+00 1.054577573461434659e+00 7.362990608048572483e+01 1.241016472499967165e+02 -7.175473123948557941e+01 3.869000980738168494e+01 -1.963758715975472171e+02 9.852788155301981377e+00 7.098694256712714257e+00 -1.247842085277717388e+02 -3.433333720311807014e+01 -4.513405248218201393e+01 4.855199479876930013e+00 -1.041079376441583548e+02 2.754576048324591042e+01 -9.942328189375140823e+01 5.711122821652555359e+01 6.909145301852099408e+01 3.755845269445282497e+01 -2.954417004598557028e+01 1.094117089463270673e+02 6.218752842859883145e+01 8.144544935120181606e+01 -6.820732298888658818e+01 2.064447995850990480e+01 1.301802694231516284e+02 -5.952739119185175554e+01 -7.038694017718230889e+00 3.255865434255601087e+01 -1.306913716051641075e+02 9.954531023120445354e+01 9.115366951130252460e+01 -1.029287812125720762e+02 -8.379261137021646277e+01 -5.649618305087663828e+01 -4.638148241878636213e+01 -1.630273305843425646e+02 -1.382597000985059310e+02 -1.347548060824148024e+02 1.074693536755782048e+02 6.080371987393066746e+01 1.622267233467744632e+02 7.321914218092127946e+00 -8.716007994945771031e+01 1.905459160772565852e+01 1.406033311704834787e+01 -6.458156541947738560e+01 7.526730177202583150e+01 1.199903656137568362e+02 1.014203439072123736e+01 1.457111715235345741e+02 2.286574417428479222e+01 1.127345425861839914e+02 1.532707327951968246e+01 -2.110844667499688114e+02 2.218314620593708071e+02 -4.970726926214465635e+01 -1.514379661204820309e+02 -6.823737654975050759e+01 -4.356238033790756248e+01 4.182738879142242894e+01 2.586531917460812835e+01 4.622350848555684166e+01 -7.484850364155460056e+01 1.235787028370202165e+02 -8.708719235261062863e+01 -7.077077954360142975e+00 1.437351365879365233e+02 1.105737640467779812e+02 5.850421847497393202e+01 -1.784737019618566478e+02 2.563338433613785128e+01 1.414708252536391910e+02 2.360309342880897532e+01 9.825878356512342293e+01 1.071169849375600762e+02 -2.127212307922577850e+02 7.736633935227905567e+01 -5.806936186768434993e+01 -2.260689739431265082e+02 8.889981617844672712e+01 2.466477954136143680e+01 -1.219478981333556789e+02 -5.844248987755459979e+01 1.383301457816130267e+02 1.468459542399558302e+02 -7.538345089581551406e+01 -1.268971287198999534e+02 -8.275781224067347353e+01 -1.643432471622008109e+02 1.937010956886322788e+01 3.752077867285134971e+01 -1.676647230526892685e+01 -1.222237422067567891e+01 -8.829149356678705374e+01 -8.706433204671125736e+01 -2.427381836206724586e+01 1.314681221530675543e+02 1.335985647911216461e+02 7.949200568242709153e+01 9.506394941984152069e+01 -7.685152524072705660e+01 -1.764724229712398369e+02 -1.290760803776331223e+01 -2.258706593419576336e+01 -6.926362830441929930e+01 1.455818428494080496e+00 7.124396344444944873e+01 -5.160089072906622931e+01 2.405140547870398393e+01 7.720768502454824045e+01 6.835104519588526273e+01 1.077747007493571232e+02 -1.454487554159238130e+02 3.864862293479862387e+01 8.123096201223189894e+01 9.239074299374617283e+01 5.758594164199318755e+01 -1.006574418729037887e+02 1.335091778127768407e+02 1.242837164323054395e+02 9.344668066845487431e+01 9.899567344491879339e+01 -8.211438561491794985e+01 -1.449584010273390966e+01 -1.261245717753792484e+01 7.512580511598235944e+01 6.334647268317483082e+01 5.458819671452337730e+01 9.513698454737169641e+01 1.135774446372319915e+02 1.208112648924037984e+02 -6.325761202768816815e+01 7.858793643152357333e+01 6.361019870784461716e+01 -1.147208213755541664e+02 1.283190759103588050e+02 -9.783039231204639918e+00 -2.722951490397434426e+01 1.943707586391137738e+02 8.631304252188685666e+01 1.210811409293242491e+02 -1.408438044847191293e+02 -1.539910429957144231e+02 -1.500433575963285762e+02 -1.192609370213012170e+02 -4.323930716050701761e+01 1.072250888909409383e+02 -1.647504327939252846e+02 3.177172351264036720e+01 1.410577539332878700e+02 -5.800625203712965572e+01 -8.929888810066444194e+01 -3.434123478291485299e+01 1.328756913367275558e+02 2.223266706452865833e+02 -6.522175730836060836e+01 1.939179313643021985e+01 -2.709772702563798674e+01 6.703812436570568423e+01 5.897979518114183861e+01 -2.087660135885607531e+02 -8.682175908723287705e+01 1.347394551872535544e+02 1.369256099665249167e+02 9.260474173419576971e+01 -4.880865872316836374e+01 -7.426917177160092365e+01 -4.448463306104583381e+01 -1.730208258253283020e+02 6.973360812033060085e+01 -2.515352263429857160e+01 1.631008706443115557e+02 -2.738558467293632503e+01 -3.084440366108323701e+02 1.420592211552569211e+02 4.929515133356728285e+01 -1.156848132101630426e+02 -2.173371138753530118e+01 3.463140893045219570e+01 -2.037171713455392705e+02 -1.121024439023599513e+02 -1.075400258898386738e+02 -5.535234837679978170e+01 6.161482707234559086e+01 -1.617395934693448396e+02 1.058954256124411444e+02 -5.330443857318761758e+01 2.862848816108252148e+00 -1.309402847211717358e+02 -1.017098234240668120e+02 1.726079117750686578e+02 8.507034102051984803e+01 -4.146036442535713462e+01 3.648471761788498924e+01 -2.754288602642362704e+01 4.247841417004629250e+01 -1.027298506599509977e+02 9.709715768584216278e+01 4.959650469168958864e+01 -1.167759484623632034e+02 1.146722486086025299e+02 -4.825361295904666292e+01 9.813707298443014793e+01 -4.853062742324226519e+01 8.682212082130935471e+01 -1.507098121024040722e+02 1.402145543431145143e+02 2.433522781707334204e+01 9.890423835092968829e+01 1.281626918032089009e+02 -1.441255212015634868e+02 -8.442568433858139088e+01 -1.038255753701388500e+02 6.573311496766905293e+01 -1.684383220948133726e+02 1.489470810465512898e+02 1.399750897743369933e+02 5.208835250551850038e+01 -8.347355992858616958e+01 5.610611534266340072e+01 -1.055277029058004814e+02 -1.075988258289921973e+01 3.439860152009799776e+01 -1.807039644943813528e+02 -8.023624351731862703e+01 -1.331236467462157691e+01 1.005277615302355656e+02 -4.939419708276516729e+01 1.069607372189384904e+02 -6.329236878904821140e+01 -2.074148178033237286e+02 -1.053818792963384396e+02 -3.351336597571349785e+01 -5.923048394538707839e+01 2.961758941188959326e+01 5.059189508300548255e+01 6.244175542490494557e+00 2.495048157321159366e+01 -1.155153592423497884e+02 5.302990512769514453e+01 3.213443657356570071e+01 -7.107541789404736221e+01 9.130735051317316220e+00 5.550247005221243057e+01 -9.398415142288017421e+01 -5.426817461103493656e+01 -2.379959177843213425e+01 9.615322332664524652e+01 -1.687994825856579340e+01 4.133422465286074932e+00 -2.247888387823757341e+02 -9.366283848863623973e+01 9.751699440183899981e+01 -8.792870871727640747e+01 3.089184519891285419e+01 3.062075816500081160e+01 3.738569514700099461e+01 6.514963520523137674e+01 -1.749594470421383221e+02 1.419564153660699333e+02 8.036855226616842174e+01 -7.421157770454805735e+00 -7.968042258172867776e+01 1.103413687531616745e+02 6.123623188579972521e+01 -1.983264737179388817e+02 -4.968534002229928603e+01 -8.057408531518241546e+01 -5.111300749466192173e+01 -6.107516966748684695e+01 -9.767704020682926114e+01 -5.953945992849873647e+01 1.888918629315703868e+02 -1.684381195020640121e+02 6.458450840914409241e+01 2.736666530486413507e+01 -7.416241948474748824e+01 1.024843907990261727e+01 -3.889156028069754711e+01 3.386133551934988439e+00 -9.484148140219143386e+01 -1.948998477976700201e+02 1.814674610875996663e+01 4.134174441332617533e+01 -1.262549636133655895e+01 -8.874787627986762573e+00 -3.924710355049007404e+01 -1.873791708772170637e+02 -3.023330876723366245e+01 -6.449073726710606991e+01 1.376868266749819014e+01 -1.540566746586349467e+01 8.936745469695553368e+01 -6.220109690574994232e+01 -1.023223033102875945e+02 -3.525137700065598523e+01 -8.879764905976971434e+00 4.487823197421234056e+01 -2.184044732118535492e+01 -7.280601629288136678e+01 -1.566918939142299649e+01 1.979368807241561612e+01 4.688212731341134543e+01 -1.125160266826212592e+02 -1.372219777603481248e+02 2.273631603450936325e+02 -2.154629424832851043e+02 -7.496210233046831206e+01 -4.573712289048558688e+01 1.380599282565148656e+02 6.246803859849988072e+01 2.259680894830249258e+02 2.416306477195078060e+02 -6.155237442856463304e+01 1.278112258465690729e+02 -5.527738659667134868e+01 -4.029716832604039212e+01 -9.935679251246205013e+01 -7.882824187337476474e+01 -6.867656185498510979e+01 -8.788050805076248650e+01 -2.406933773702499479e+02 -2.674322328352202476e+02 1.329860875541202745e+02 -2.619971157028024678e+01 5.259506451404696747e+01 1.292372056173292094e+02
