# 
#                 ----------------------------------------------------
#                 Data from a 3D direct N-body simulation. 
# 
#                 rows are i-particle; 
#                 coumns are :mass, tag, x ,y, z, vx, vy, vz, ax, ay, az
# 
#                 NTHU, Computational Physics Lab
# 
#                 ----------------------------------------------------
#                 Time = 9.999999999999831
1.000000000000000000e+00 2.000000000000000000e+00 3.000000000000000000e+00 4.000000000000000000e+00 5.000000000000000000e+00 6.000000000000000000e+00 7.000000000000000000e+00 8.000000000000000000e+00 9.000000000000000000e+00 1.000000000000000000e+01 1.100000000000000000e+01 1.200000000000000000e+01 1.300000000000000000e+01 1.400000000000000000e+01 1.500000000000000000e+01 1.600000000000000000e+01 1.700000000000000000e+01 1.800000000000000000e+01 1.900000000000000000e+01 2.000000000000000000e+01 2.100000000000000000e+01 2.200000000000000000e+01 2.300000000000000000e+01 2.400000000000000000e+01 2.500000000000000000e+01 2.600000000000000000e+01 2.700000000000000000e+01 2.800000000000000000e+01 2.900000000000000000e+01 3.000000000000000000e+01 3.100000000000000000e+01 3.200000000000000000e+01 3.300000000000000000e+01 3.400000000000000000e+01 3.500000000000000000e+01 3.600000000000000000e+01 3.700000000000000000e+01 3.800000000000000000e+01 3.900000000000000000e+01 4.000000000000000000e+01 4.100000000000000000e+01 4.200000000000000000e+01 4.300000000000000000e+01 4.400000000000000000e+01 4.500000000000000000e+01 4.600000000000000000e+01 4.700000000000000000e+01 4.800000000000000000e+01 4.900000000000000000e+01 5.000000000000000000e+01 5.100000000000000000e+01 5.200000000000000000e+01 5.300000000000000000e+01 5.400000000000000000e+01 5.500000000000000000e+01 5.600000000000000000e+01 5.700000000000000000e+01 5.800000000000000000e+01 5.900000000000000000e+01 6.000000000000000000e+01 6.100000000000000000e+01 6.200000000000000000e+01 6.300000000000000000e+01 6.400000000000000000e+01 6.500000000000000000e+01 6.600000000000000000e+01 6.700000000000000000e+01 6.800000000000000000e+01 6.900000000000000000e+01 7.000000000000000000e+01 7.100000000000000000e+01 7.200000000000000000e+01 7.300000000000000000e+01 7.400000000000000000e+01 7.500000000000000000e+01 7.600000000000000000e+01 7.700000000000000000e+01 7.800000000000000000e+01 7.900000000000000000e+01 8.000000000000000000e+01 8.100000000000000000e+01 8.200000000000000000e+01 8.300000000000000000e+01 8.400000000000000000e+01 8.500000000000000000e+01 8.600000000000000000e+01 8.700000000000000000e+01 8.800000000000000000e+01 8.900000000000000000e+01 9.000000000000000000e+01 9.100000000000000000e+01 9.200000000000000000e+01 9.300000000000000000e+01 9.400000000000000000e+01 9.500000000000000000e+01 9.600000000000000000e+01 9.700000000000000000e+01 9.800000000000000000e+01 9.900000000000000000e+01 1.000000000000000000e+02 1.010000000000000000e+02 1.020000000000000000e+02 1.030000000000000000e+02 1.040000000000000000e+02 1.050000000000000000e+02 1.060000000000000000e+02 1.070000000000000000e+02 1.080000000000000000e+02 1.090000000000000000e+02 1.100000000000000000e+02 1.110000000000000000e+02 1.120000000000000000e+02 1.130000000000000000e+02 1.140000000000000000e+02 1.150000000000000000e+02 1.160000000000000000e+02 1.170000000000000000e+02 1.180000000000000000e+02 1.190000000000000000e+02 1.200000000000000000e+02 1.210000000000000000e+02 1.220000000000000000e+02 1.230000000000000000e+02 1.240000000000000000e+02 1.250000000000000000e+02 1.260000000000000000e+02 1.270000000000000000e+02 1.280000000000000000e+02 1.290000000000000000e+02 1.300000000000000000e+02 1.310000000000000000e+02 1.320000000000000000e+02 1.330000000000000000e+02 1.340000000000000000e+02 1.350000000000000000e+02 1.360000000000000000e+02 1.370000000000000000e+02 1.380000000000000000e+02 1.390000000000000000e+02 1.400000000000000000e+02 1.410000000000000000e+02 1.420000000000000000e+02 1.430000000000000000e+02 1.440000000000000000e+02 1.450000000000000000e+02 1.460000000000000000e+02 1.470000000000000000e+02 1.480000000000000000e+02 1.490000000000000000e+02 1.500000000000000000e+02 1.510000000000000000e+02 1.520000000000000000e+02 1.530000000000000000e+02 1.540000000000000000e+02 1.550000000000000000e+02 1.560000000000000000e+02 1.570000000000000000e+02 1.580000000000000000e+02 1.590000000000000000e+02 1.600000000000000000e+02 1.610000000000000000e+02 1.620000000000000000e+02 1.630000000000000000e+02 1.640000000000000000e+02 1.650000000000000000e+02 1.660000000000000000e+02 1.670000000000000000e+02 1.680000000000000000e+02 1.690000000000000000e+02 1.700000000000000000e+02 1.710000000000000000e+02 1.720000000000000000e+02 1.730000000000000000e+02 1.740000000000000000e+02 1.750000000000000000e+02 1.760000000000000000e+02 1.770000000000000000e+02 1.780000000000000000e+02 1.790000000000000000e+02 1.800000000000000000e+02 1.810000000000000000e+02 1.820000000000000000e+02 1.830000000000000000e+02 1.840000000000000000e+02 1.850000000000000000e+02 1.860000000000000000e+02 1.870000000000000000e+02 1.880000000000000000e+02 1.890000000000000000e+02 1.900000000000000000e+02 1.910000000000000000e+02 1.920000000000000000e+02 1.930000000000000000e+02 1.940000000000000000e+02 1.950000000000000000e+02 1.960000000000000000e+02 1.970000000000000000e+02 1.980000000000000000e+02 1.990000000000000000e+02 2.000000000000000000e+02 2.010000000000000000e+02 2.020000000000000000e+02 2.030000000000000000e+02 2.040000000000000000e+02 2.050000000000000000e+02 2.060000000000000000e+02 2.070000000000000000e+02 2.080000000000000000e+02 2.090000000000000000e+02 2.100000000000000000e+02 2.110000000000000000e+02 2.120000000000000000e+02 2.130000000000000000e+02 2.140000000000000000e+02 2.150000000000000000e+02 2.160000000000000000e+02 2.170000000000000000e+02 2.180000000000000000e+02 2.190000000000000000e+02 2.200000000000000000e+02 2.210000000000000000e+02 2.220000000000000000e+02 2.230000000000000000e+02 2.240000000000000000e+02 2.250000000000000000e+02 2.260000000000000000e+02 2.270000000000000000e+02 2.280000000000000000e+02 2.290000000000000000e+02 2.300000000000000000e+02 2.310000000000000000e+02 2.320000000000000000e+02 2.330000000000000000e+02 2.340000000000000000e+02 2.350000000000000000e+02 2.360000000000000000e+02 2.370000000000000000e+02 2.380000000000000000e+02 2.390000000000000000e+02 2.400000000000000000e+02 2.410000000000000000e+02 2.420000000000000000e+02 2.430000000000000000e+02 2.440000000000000000e+02 2.450000000000000000e+02 2.460000000000000000e+02 2.470000000000000000e+02 2.480000000000000000e+02 2.490000000000000000e+02 2.500000000000000000e+02 2.510000000000000000e+02 2.520000000000000000e+02 2.530000000000000000e+02 2.540000000000000000e+02 2.550000000000000000e+02 2.560000000000000000e+02 2.570000000000000000e+02 2.580000000000000000e+02 2.590000000000000000e+02 2.600000000000000000e+02 2.610000000000000000e+02 2.620000000000000000e+02 2.630000000000000000e+02 2.640000000000000000e+02 2.650000000000000000e+02 2.660000000000000000e+02 2.670000000000000000e+02 2.680000000000000000e+02 2.690000000000000000e+02 2.700000000000000000e+02 2.710000000000000000e+02 2.720000000000000000e+02 2.730000000000000000e+02 2.740000000000000000e+02 2.750000000000000000e+02 2.760000000000000000e+02 2.770000000000000000e+02 2.780000000000000000e+02 2.790000000000000000e+02 2.800000000000000000e+02 2.810000000000000000e+02 2.820000000000000000e+02 2.830000000000000000e+02 2.840000000000000000e+02 2.850000000000000000e+02 2.860000000000000000e+02 2.870000000000000000e+02 2.880000000000000000e+02 2.890000000000000000e+02 2.900000000000000000e+02 2.910000000000000000e+02 2.920000000000000000e+02 2.930000000000000000e+02 2.940000000000000000e+02 2.950000000000000000e+02 2.960000000000000000e+02 2.970000000000000000e+02 2.980000000000000000e+02 2.990000000000000000e+02 3.000000000000000000e+02 3.010000000000000000e+02 3.020000000000000000e+02 3.030000000000000000e+02 3.040000000000000000e+02 3.050000000000000000e+02 3.060000000000000000e+02 3.070000000000000000e+02 3.080000000000000000e+02 3.090000000000000000e+02 3.100000000000000000e+02 3.110000000000000000e+02 3.120000000000000000e+02 3.130000000000000000e+02 3.140000000000000000e+02 3.150000000000000000e+02 3.160000000000000000e+02 3.170000000000000000e+02 3.180000000000000000e+02 3.190000000000000000e+02 3.200000000000000000e+02 3.210000000000000000e+02 3.220000000000000000e+02 3.230000000000000000e+02 3.240000000000000000e+02 3.250000000000000000e+02 3.260000000000000000e+02 3.270000000000000000e+02 3.280000000000000000e+02 3.290000000000000000e+02 3.300000000000000000e+02 3.310000000000000000e+02 3.320000000000000000e+02 3.330000000000000000e+02 3.340000000000000000e+02 3.350000000000000000e+02 3.360000000000000000e+02 3.370000000000000000e+02 3.380000000000000000e+02 3.390000000000000000e+02 3.400000000000000000e+02 3.410000000000000000e+02 3.420000000000000000e+02 3.430000000000000000e+02 3.440000000000000000e+02 3.450000000000000000e+02 3.460000000000000000e+02 3.470000000000000000e+02 3.480000000000000000e+02 3.490000000000000000e+02 3.500000000000000000e+02 3.510000000000000000e+02 3.520000000000000000e+02 3.530000000000000000e+02 3.540000000000000000e+02 3.550000000000000000e+02 3.560000000000000000e+02 3.570000000000000000e+02 3.580000000000000000e+02 3.590000000000000000e+02 3.600000000000000000e+02 3.610000000000000000e+02 3.620000000000000000e+02 3.630000000000000000e+02 3.640000000000000000e+02 3.650000000000000000e+02 3.660000000000000000e+02 3.670000000000000000e+02 3.680000000000000000e+02 3.690000000000000000e+02 3.700000000000000000e+02 3.710000000000000000e+02 3.720000000000000000e+02 3.730000000000000000e+02 3.740000000000000000e+02 3.750000000000000000e+02 3.760000000000000000e+02 3.770000000000000000e+02 3.780000000000000000e+02 3.790000000000000000e+02 3.800000000000000000e+02 3.810000000000000000e+02 3.820000000000000000e+02 3.830000000000000000e+02 3.840000000000000000e+02 3.850000000000000000e+02 3.860000000000000000e+02 3.870000000000000000e+02 3.880000000000000000e+02 3.890000000000000000e+02 3.900000000000000000e+02 3.910000000000000000e+02 3.920000000000000000e+02 3.930000000000000000e+02 3.940000000000000000e+02 3.950000000000000000e+02 3.960000000000000000e+02 3.970000000000000000e+02 3.980000000000000000e+02 3.990000000000000000e+02 4.000000000000000000e+02 4.010000000000000000e+02 4.020000000000000000e+02 4.030000000000000000e+02 4.040000000000000000e+02 4.050000000000000000e+02 4.060000000000000000e+02 4.070000000000000000e+02 4.080000000000000000e+02 4.090000000000000000e+02 4.100000000000000000e+02 4.110000000000000000e+02 4.120000000000000000e+02 4.130000000000000000e+02 4.140000000000000000e+02 4.150000000000000000e+02 4.160000000000000000e+02 4.170000000000000000e+02 4.180000000000000000e+02 4.190000000000000000e+02 4.200000000000000000e+02 4.210000000000000000e+02 4.220000000000000000e+02 4.230000000000000000e+02 4.240000000000000000e+02 4.250000000000000000e+02 4.260000000000000000e+02 4.270000000000000000e+02 4.280000000000000000e+02 4.290000000000000000e+02 4.300000000000000000e+02 4.310000000000000000e+02 4.320000000000000000e+02 4.330000000000000000e+02 4.340000000000000000e+02 4.350000000000000000e+02 4.360000000000000000e+02 4.370000000000000000e+02 4.380000000000000000e+02 4.390000000000000000e+02 4.400000000000000000e+02 4.410000000000000000e+02 4.420000000000000000e+02 4.430000000000000000e+02 4.440000000000000000e+02 4.450000000000000000e+02 4.460000000000000000e+02 4.470000000000000000e+02 4.480000000000000000e+02 4.490000000000000000e+02 4.500000000000000000e+02 4.510000000000000000e+02 4.520000000000000000e+02 4.530000000000000000e+02 4.540000000000000000e+02 4.550000000000000000e+02 4.560000000000000000e+02 4.570000000000000000e+02 4.580000000000000000e+02 4.590000000000000000e+02 4.600000000000000000e+02 4.610000000000000000e+02 4.620000000000000000e+02 4.630000000000000000e+02 4.640000000000000000e+02 4.650000000000000000e+02 4.660000000000000000e+02 4.670000000000000000e+02 4.680000000000000000e+02 4.690000000000000000e+02 4.700000000000000000e+02 4.710000000000000000e+02 4.720000000000000000e+02 4.730000000000000000e+02 4.740000000000000000e+02 4.750000000000000000e+02 4.760000000000000000e+02 4.770000000000000000e+02 4.780000000000000000e+02 4.790000000000000000e+02 4.800000000000000000e+02 4.810000000000000000e+02 4.820000000000000000e+02 4.830000000000000000e+02 4.840000000000000000e+02 4.850000000000000000e+02 4.860000000000000000e+02 4.870000000000000000e+02 4.880000000000000000e+02 4.890000000000000000e+02 4.900000000000000000e+02 4.910000000000000000e+02 4.920000000000000000e+02 4.930000000000000000e+02 4.940000000000000000e+02 4.950000000000000000e+02 4.960000000000000000e+02 4.970000000000000000e+02 4.980000000000000000e+02 4.990000000000000000e+02 5.000000000000000000e+02 5.010000000000000000e+02 5.020000000000000000e+02 5.030000000000000000e+02 5.040000000000000000e+02 5.050000000000000000e+02 5.060000000000000000e+02 5.070000000000000000e+02 5.080000000000000000e+02 5.090000000000000000e+02 5.100000000000000000e+02 5.110000000000000000e+02 5.120000000000000000e+02 5.130000000000000000e+02 5.140000000000000000e+02 5.150000000000000000e+02 5.160000000000000000e+02 5.170000000000000000e+02 5.180000000000000000e+02 5.190000000000000000e+02 5.200000000000000000e+02 5.210000000000000000e+02 5.220000000000000000e+02 5.230000000000000000e+02 5.240000000000000000e+02 5.250000000000000000e+02 5.260000000000000000e+02 5.270000000000000000e+02 5.280000000000000000e+02 5.290000000000000000e+02 5.300000000000000000e+02 5.310000000000000000e+02 5.320000000000000000e+02 5.330000000000000000e+02 5.340000000000000000e+02 5.350000000000000000e+02 5.360000000000000000e+02 5.370000000000000000e+02 5.380000000000000000e+02 5.390000000000000000e+02 5.400000000000000000e+02 5.410000000000000000e+02 5.420000000000000000e+02 5.430000000000000000e+02 5.440000000000000000e+02 5.450000000000000000e+02 5.460000000000000000e+02 5.470000000000000000e+02 5.480000000000000000e+02 5.490000000000000000e+02 5.500000000000000000e+02 5.510000000000000000e+02 5.520000000000000000e+02 5.530000000000000000e+02 5.540000000000000000e+02 5.550000000000000000e+02 5.560000000000000000e+02 5.570000000000000000e+02 5.580000000000000000e+02 5.590000000000000000e+02 5.600000000000000000e+02 5.610000000000000000e+02 5.620000000000000000e+02 5.630000000000000000e+02 5.640000000000000000e+02 5.650000000000000000e+02 5.660000000000000000e+02 5.670000000000000000e+02 5.680000000000000000e+02 5.690000000000000000e+02 5.700000000000000000e+02 5.710000000000000000e+02 5.720000000000000000e+02 5.730000000000000000e+02 5.740000000000000000e+02 5.750000000000000000e+02 5.760000000000000000e+02 5.770000000000000000e+02 5.780000000000000000e+02 5.790000000000000000e+02 5.800000000000000000e+02 5.810000000000000000e+02 5.820000000000000000e+02 5.830000000000000000e+02 5.840000000000000000e+02 5.850000000000000000e+02 5.860000000000000000e+02 5.870000000000000000e+02 5.880000000000000000e+02 5.890000000000000000e+02 5.900000000000000000e+02 5.910000000000000000e+02 5.920000000000000000e+02 5.930000000000000000e+02 5.940000000000000000e+02 5.950000000000000000e+02 5.960000000000000000e+02 5.970000000000000000e+02 5.980000000000000000e+02 5.990000000000000000e+02 6.000000000000000000e+02 6.010000000000000000e+02 6.020000000000000000e+02 6.030000000000000000e+02 6.040000000000000000e+02 6.050000000000000000e+02 6.060000000000000000e+02 6.070000000000000000e+02 6.080000000000000000e+02 6.090000000000000000e+02 6.100000000000000000e+02 6.110000000000000000e+02 6.120000000000000000e+02 6.130000000000000000e+02 6.140000000000000000e+02 6.150000000000000000e+02 6.160000000000000000e+02 6.170000000000000000e+02 6.180000000000000000e+02 6.190000000000000000e+02 6.200000000000000000e+02 6.210000000000000000e+02 6.220000000000000000e+02 6.230000000000000000e+02 6.240000000000000000e+02 6.250000000000000000e+02 6.260000000000000000e+02 6.270000000000000000e+02 6.280000000000000000e+02 6.290000000000000000e+02 6.300000000000000000e+02 6.310000000000000000e+02 6.320000000000000000e+02 6.330000000000000000e+02 6.340000000000000000e+02 6.350000000000000000e+02 6.360000000000000000e+02 6.370000000000000000e+02 6.380000000000000000e+02 6.390000000000000000e+02 6.400000000000000000e+02 6.410000000000000000e+02 6.420000000000000000e+02 6.430000000000000000e+02 6.440000000000000000e+02 6.450000000000000000e+02 6.460000000000000000e+02 6.470000000000000000e+02 6.480000000000000000e+02 6.490000000000000000e+02 6.500000000000000000e+02 6.510000000000000000e+02 6.520000000000000000e+02 6.530000000000000000e+02 6.540000000000000000e+02 6.550000000000000000e+02 6.560000000000000000e+02 6.570000000000000000e+02 6.580000000000000000e+02 6.590000000000000000e+02 6.600000000000000000e+02 6.610000000000000000e+02 6.620000000000000000e+02 6.630000000000000000e+02 6.640000000000000000e+02 6.650000000000000000e+02 6.660000000000000000e+02 6.670000000000000000e+02 6.680000000000000000e+02 6.690000000000000000e+02 6.700000000000000000e+02 6.710000000000000000e+02 6.720000000000000000e+02 6.730000000000000000e+02 6.740000000000000000e+02 6.750000000000000000e+02 6.760000000000000000e+02 6.770000000000000000e+02 6.780000000000000000e+02 6.790000000000000000e+02 6.800000000000000000e+02 6.810000000000000000e+02 6.820000000000000000e+02 6.830000000000000000e+02 6.840000000000000000e+02 6.850000000000000000e+02 6.860000000000000000e+02 6.870000000000000000e+02 6.880000000000000000e+02 6.890000000000000000e+02 6.900000000000000000e+02 6.910000000000000000e+02 6.920000000000000000e+02 6.930000000000000000e+02 6.940000000000000000e+02 6.950000000000000000e+02 6.960000000000000000e+02 6.970000000000000000e+02 6.980000000000000000e+02 6.990000000000000000e+02 7.000000000000000000e+02 7.010000000000000000e+02 7.020000000000000000e+02 7.030000000000000000e+02 7.040000000000000000e+02 7.050000000000000000e+02 7.060000000000000000e+02 7.070000000000000000e+02 7.080000000000000000e+02 7.090000000000000000e+02 7.100000000000000000e+02 7.110000000000000000e+02 7.120000000000000000e+02 7.130000000000000000e+02 7.140000000000000000e+02 7.150000000000000000e+02 7.160000000000000000e+02 7.170000000000000000e+02 7.180000000000000000e+02 7.190000000000000000e+02 7.200000000000000000e+02 7.210000000000000000e+02 7.220000000000000000e+02 7.230000000000000000e+02 7.240000000000000000e+02 7.250000000000000000e+02 7.260000000000000000e+02 7.270000000000000000e+02 7.280000000000000000e+02 7.290000000000000000e+02 7.300000000000000000e+02 7.310000000000000000e+02 7.320000000000000000e+02 7.330000000000000000e+02 7.340000000000000000e+02 7.350000000000000000e+02 7.360000000000000000e+02 7.370000000000000000e+02 7.380000000000000000e+02 7.390000000000000000e+02 7.400000000000000000e+02 7.410000000000000000e+02 7.420000000000000000e+02 7.430000000000000000e+02 7.440000000000000000e+02 7.450000000000000000e+02 7.460000000000000000e+02 7.470000000000000000e+02 7.480000000000000000e+02 7.490000000000000000e+02 7.500000000000000000e+02 7.510000000000000000e+02 7.520000000000000000e+02 7.530000000000000000e+02 7.540000000000000000e+02 7.550000000000000000e+02 7.560000000000000000e+02 7.570000000000000000e+02 7.580000000000000000e+02 7.590000000000000000e+02 7.600000000000000000e+02 7.610000000000000000e+02 7.620000000000000000e+02 7.630000000000000000e+02 7.640000000000000000e+02 7.650000000000000000e+02 7.660000000000000000e+02 7.670000000000000000e+02 7.680000000000000000e+02 7.690000000000000000e+02 7.700000000000000000e+02 7.710000000000000000e+02 7.720000000000000000e+02 7.730000000000000000e+02 7.740000000000000000e+02 7.750000000000000000e+02 7.760000000000000000e+02 7.770000000000000000e+02 7.780000000000000000e+02 7.790000000000000000e+02 7.800000000000000000e+02 7.810000000000000000e+02 7.820000000000000000e+02 7.830000000000000000e+02 7.840000000000000000e+02 7.850000000000000000e+02 7.860000000000000000e+02 7.870000000000000000e+02 7.880000000000000000e+02 7.890000000000000000e+02 7.900000000000000000e+02 7.910000000000000000e+02 7.920000000000000000e+02 7.930000000000000000e+02 7.940000000000000000e+02 7.950000000000000000e+02 7.960000000000000000e+02 7.970000000000000000e+02 7.980000000000000000e+02 7.990000000000000000e+02 8.000000000000000000e+02 8.010000000000000000e+02 8.020000000000000000e+02 8.030000000000000000e+02 8.040000000000000000e+02 8.050000000000000000e+02 8.060000000000000000e+02 8.070000000000000000e+02 8.080000000000000000e+02 8.090000000000000000e+02 8.100000000000000000e+02 8.110000000000000000e+02 8.120000000000000000e+02 8.130000000000000000e+02 8.140000000000000000e+02 8.150000000000000000e+02 8.160000000000000000e+02 8.170000000000000000e+02 8.180000000000000000e+02 8.190000000000000000e+02 8.200000000000000000e+02 8.210000000000000000e+02 8.220000000000000000e+02 8.230000000000000000e+02 8.240000000000000000e+02 8.250000000000000000e+02 8.260000000000000000e+02 8.270000000000000000e+02 8.280000000000000000e+02 8.290000000000000000e+02 8.300000000000000000e+02 8.310000000000000000e+02 8.320000000000000000e+02 8.330000000000000000e+02 8.340000000000000000e+02 8.350000000000000000e+02 8.360000000000000000e+02 8.370000000000000000e+02 8.380000000000000000e+02 8.390000000000000000e+02 8.400000000000000000e+02 8.410000000000000000e+02 8.420000000000000000e+02 8.430000000000000000e+02 8.440000000000000000e+02 8.450000000000000000e+02 8.460000000000000000e+02 8.470000000000000000e+02 8.480000000000000000e+02 8.490000000000000000e+02 8.500000000000000000e+02 8.510000000000000000e+02 8.520000000000000000e+02 8.530000000000000000e+02 8.540000000000000000e+02 8.550000000000000000e+02 8.560000000000000000e+02 8.570000000000000000e+02 8.580000000000000000e+02 8.590000000000000000e+02 8.600000000000000000e+02 8.610000000000000000e+02 8.620000000000000000e+02 8.630000000000000000e+02 8.640000000000000000e+02 8.650000000000000000e+02 8.660000000000000000e+02 8.670000000000000000e+02 8.680000000000000000e+02 8.690000000000000000e+02 8.700000000000000000e+02 8.710000000000000000e+02 8.720000000000000000e+02 8.730000000000000000e+02 8.740000000000000000e+02 8.750000000000000000e+02 8.760000000000000000e+02 8.770000000000000000e+02 8.780000000000000000e+02 8.790000000000000000e+02 8.800000000000000000e+02 8.810000000000000000e+02 8.820000000000000000e+02 8.830000000000000000e+02 8.840000000000000000e+02 8.850000000000000000e+02 8.860000000000000000e+02 8.870000000000000000e+02 8.880000000000000000e+02 8.890000000000000000e+02 8.900000000000000000e+02 8.910000000000000000e+02 8.920000000000000000e+02 8.930000000000000000e+02 8.940000000000000000e+02 8.950000000000000000e+02 8.960000000000000000e+02 8.970000000000000000e+02 8.980000000000000000e+02 8.990000000000000000e+02 9.000000000000000000e+02 9.010000000000000000e+02 9.020000000000000000e+02 9.030000000000000000e+02 9.040000000000000000e+02 9.050000000000000000e+02 9.060000000000000000e+02 9.070000000000000000e+02 9.080000000000000000e+02 9.090000000000000000e+02 9.100000000000000000e+02 9.110000000000000000e+02 9.120000000000000000e+02 9.130000000000000000e+02 9.140000000000000000e+02 9.150000000000000000e+02 9.160000000000000000e+02 9.170000000000000000e+02 9.180000000000000000e+02 9.190000000000000000e+02 9.200000000000000000e+02 9.210000000000000000e+02 9.220000000000000000e+02 9.230000000000000000e+02 9.240000000000000000e+02 9.250000000000000000e+02 9.260000000000000000e+02 9.270000000000000000e+02 9.280000000000000000e+02 9.290000000000000000e+02 9.300000000000000000e+02 9.310000000000000000e+02 9.320000000000000000e+02 9.330000000000000000e+02 9.340000000000000000e+02 9.350000000000000000e+02 9.360000000000000000e+02 9.370000000000000000e+02 9.380000000000000000e+02 9.390000000000000000e+02 9.400000000000000000e+02 9.410000000000000000e+02 9.420000000000000000e+02 9.430000000000000000e+02 9.440000000000000000e+02 9.450000000000000000e+02 9.460000000000000000e+02 9.470000000000000000e+02 9.480000000000000000e+02 9.490000000000000000e+02 9.500000000000000000e+02 9.510000000000000000e+02 9.520000000000000000e+02 9.530000000000000000e+02 9.540000000000000000e+02 9.550000000000000000e+02 9.560000000000000000e+02 9.570000000000000000e+02 9.580000000000000000e+02 9.590000000000000000e+02 9.600000000000000000e+02 9.610000000000000000e+02 9.620000000000000000e+02 9.630000000000000000e+02 9.640000000000000000e+02 9.650000000000000000e+02 9.660000000000000000e+02 9.670000000000000000e+02 9.680000000000000000e+02 9.690000000000000000e+02 9.700000000000000000e+02 9.710000000000000000e+02 9.720000000000000000e+02 9.730000000000000000e+02 9.740000000000000000e+02 9.750000000000000000e+02 9.760000000000000000e+02 9.770000000000000000e+02 9.780000000000000000e+02 9.790000000000000000e+02 9.800000000000000000e+02 9.810000000000000000e+02 9.820000000000000000e+02 9.830000000000000000e+02 9.840000000000000000e+02 9.850000000000000000e+02 9.860000000000000000e+02 9.870000000000000000e+02 9.880000000000000000e+02 9.890000000000000000e+02 9.900000000000000000e+02 9.910000000000000000e+02 9.920000000000000000e+02 9.930000000000000000e+02 9.940000000000000000e+02 9.950000000000000000e+02 9.960000000000000000e+02 9.970000000000000000e+02 9.980000000000000000e+02 9.990000000000000000e+02 1.000000000000000000e+03
1.000000000000000021e-02 1.000000000000000021e-02 1.000000000000000021e-02 1.000000000000000021e-02 1.000000000000000021e-02 1.000000000000000021e-02 1.000000000000000021e-02 1.000000000000000021e-02 1.000000000000000021e-02 1.000000000000000021e-02 1.000000000000000021e-02 1.000000000000000021e-02 1.000000000000000021e-02 1.000000000000000021e-02 1.000000000000000021e-02 1.000000000000000021e-02 1.000000000000000021e-02 1.000000000000000021e-02 1.000000000000000021e-02 1.000000000000000021e-02 1.000000000000000021e-02 1.000000000000000021e-02 1.000000000000000021e-02 1.000000000000000021e-02 1.000000000000000021e-02 1.000000000000000021e-02 1.000000000000000021e-02 1.000000000000000021e-02 1.000000000000000021e-02 1.000000000000000021e-02 1.000000000000000021e-02 1.000000000000000021e-02 1.000000000000000021e-02 1.000000000000000021e-02 1.000000000000000021e-02 1.000000000000000021e-02 1.000000000000000021e-02 1.000000000000000021e-02 1.000000000000000021e-02 1.000000000000000021e-02 1.000000000000000021e-02 1.000000000000000021e-02 1.000000000000000021e-02 1.000000000000000021e-02 1.000000000000000021e-02 1.000000000000000021e-02 1.000000000000000021e-02 1.000000000000000021e-02 1.000000000000000021e-02 1.000000000000000021e-02 1.000000000000000021e-02 1.000000000000000021e-02 1.000000000000000021e-02 1.000000000000000021e-02 1.000000000000000021e-02 1.000000000000000021e-02 1.000000000000000021e-02 1.000000000000000021e-02 1.000000000000000021e-02 1.000000000000000021e-02 1.000000000000000021e-02 1.000000000000000021e-02 1.000000000000000021e-02 1.000000000000000021e-02 1.000000000000000021e-02 1.000000000000000021e-02 1.000000000000000021e-02 1.000000000000000021e-02 1.000000000000000021e-02 1.000000000000000021e-02 1.000000000000000021e-02 1.000000000000000021e-02 1.000000000000000021e-02 1.000000000000000021e-02 1.000000000000000021e-02 1.000000000000000021e-02 1.000000000000000021e-02 1.000000000000000021e-02 1.000000000000000021e-02 1.000000000000000021e-02 1.000000000000000021e-02 1.000000000000000021e-02 1.000000000000000021e-02 1.000000000000000021e-02 1.000000000000000021e-02 1.000000000000000021e-02 1.000000000000000021e-02 1.000000000000000021e-02 1.000000000000000021e-02 1.000000000000000021e-02 1.000000000000000021e-02 1.000000000000000021e-02 1.000000000000000021e-02 1.000000000000000021e-02 1.000000000000000021e-02 1.000000000000000021e-02 1.000000000000000021e-02 1.000000000000000021e-02 1.000000000000000021e-02 1.000000000000000021e-02 1.000000000000000021e-02 1.000000000000000021e-02 1.000000000000000021e-02 1.000000000000000021e-02 1.000000000000000021e-02 1.000000000000000021e-02 1.000000000000000021e-02 1.000000000000000021e-02 1.000000000000000021e-02 1.000000000000000021e-02 1.000000000000000021e-02 1.000000000000000021e-02 1.000000000000000021e-02 1.000000000000000021e-02 1.000000000000000021e-02 1.000000000000000021e-02 1.000000000000000021e-02 1.000000000000000021e-02 1.000000000000000021e-02 1.000000000000000021e-02 1.000000000000000021e-02 1.000000000000000021e-02 1.000000000000000021e-02 1.000000000000000021e-02 1.000000000000000021e-02 1.000000000000000021e-02 1.000000000000000021e-02 1.000000000000000021e-02 1.000000000000000021e-02 1.000000000000000021e-02 1.000000000000000021e-02 1.000000000000000021e-02 1.000000000000000021e-02 1.000000000000000021e-02 1.000000000000000021e-02 1.000000000000000021e-02 1.000000000000000021e-02 1.000000000000000021e-02 1.000000000000000021e-02 1.000000000000000021e-02 1.000000000000000021e-02 1.000000000000000021e-02 1.000000000000000021e-02 1.000000000000000021e-02 1.000000000000000021e-02 1.000000000000000021e-02 1.000000000000000021e-02 1.000000000000000021e-02 1.000000000000000021e-02 1.000000000000000021e-02 1.000000000000000021e-02 1.000000000000000021e-02 1.000000000000000021e-02 1.000000000000000021e-02 1.000000000000000021e-02 1.000000000000000021e-02 1.000000000000000021e-02 1.000000000000000021e-02 1.000000000000000021e-02 1.000000000000000021e-02 1.000000000000000021e-02 1.000000000000000021e-02 1.000000000000000021e-02 1.000000000000000021e-02 1.000000000000000021e-02 1.000000000000000021e-02 1.000000000000000021e-02 1.000000000000000021e-02 1.000000000000000021e-02 1.000000000000000021e-02 1.000000000000000021e-02 1.000000000000000021e-02 1.000000000000000021e-02 1.000000000000000021e-02 1.000000000000000021e-02 1.000000000000000021e-02 1.000000000000000021e-02 1.000000000000000021e-02 1.000000000000000021e-02 1.000000000000000021e-02 1.000000000000000021e-02 1.000000000000000021e-02 1.000000000000000021e-02 1.000000000000000021e-02 1.000000000000000021e-02 1.000000000000000021e-02 1.000000000000000021e-02 1.000000000000000021e-02 1.000000000000000021e-02 1.000000000000000021e-02 1.000000000000000021e-02 1.000000000000000021e-02 1.000000000000000021e-02 1.000000000000000021e-02 1.000000000000000021e-02 1.000000000000000021e-02 1.000000000000000021e-02 1.000000000000000021e-02 1.000000000000000021e-02 1.000000000000000021e-02 1.000000000000000021e-02 1.000000000000000021e-02 1.000000000000000021e-02 1.000000000000000021e-02 1.000000000000000021e-02 1.000000000000000021e-02 1.000000000000000021e-02 1.000000000000000021e-02 1.000000000000000021e-02 1.000000000000000021e-02 1.000000000000000021e-02 1.000000000000000021e-02 1.000000000000000021e-02 1.000000000000000021e-02 1.000000000000000021e-02 1.000000000000000021e-02 1.000000000000000021e-02 1.000000000000000021e-02 1.000000000000000021e-02 1.000000000000000021e-02 1.000000000000000021e-02 1.000000000000000021e-02 1.000000000000000021e-02 1.000000000000000021e-02 1.000000000000000021e-02 1.000000000000000021e-02 1.000000000000000021e-02 1.000000000000000021e-02 1.000000000000000021e-02 1.000000000000000021e-02 1.000000000000000021e-02 1.000000000000000021e-02 1.000000000000000021e-02 1.000000000000000021e-02 1.000000000000000021e-02 1.000000000000000021e-02 1.000000000000000021e-02 1.000000000000000021e-02 1.000000000000000021e-02 1.000000000000000021e-02 1.000000000000000021e-02 1.000000000000000021e-02 1.000000000000000021e-02 1.000000000000000021e-02 1.000000000000000021e-02 1.000000000000000021e-02 1.000000000000000021e-02 1.000000000000000021e-02 1.000000000000000021e-02 1.000000000000000021e-02 1.000000000000000021e-02 1.000000000000000021e-02 1.000000000000000021e-02 1.000000000000000021e-02 1.000000000000000021e-02 1.000000000000000021e-02 1.000000000000000021e-02 1.000000000000000021e-02 1.000000000000000021e-02 1.000000000000000021e-02 1.000000000000000021e-02 1.000000000000000021e-02 1.000000000000000021e-02 1.000000000000000021e-02 1.000000000000000021e-02 1.000000000000000021e-02 1.000000000000000021e-02 1.000000000000000021e-02 1.000000000000000021e-02 1.000000000000000021e-02 1.000000000000000021e-02 1.000000000000000021e-02 1.000000000000000021e-02 1.000000000000000021e-02 1.000000000000000021e-02 1.000000000000000021e-02 1.000000000000000021e-02 1.000000000000000021e-02 1.000000000000000021e-02 1.000000000000000021e-02 1.000000000000000021e-02 1.000000000000000021e-02 1.000000000000000021e-02 1.000000000000000021e-02 1.000000000000000021e-02 1.000000000000000021e-02 1.000000000000000021e-02 1.000000000000000021e-02 1.000000000000000021e-02 1.000000000000000021e-02 1.000000000000000021e-02 1.000000000000000021e-02 1.000000000000000021e-02 1.000000000000000021e-02 1.000000000000000021e-02 1.000000000000000021e-02 1.000000000000000021e-02 1.000000000000000021e-02 1.000000000000000021e-02 1.000000000000000021e-02 1.000000000000000021e-02 1.000000000000000021e-02 1.000000000000000021e-02 1.000000000000000021e-02 1.000000000000000021e-02 1.000000000000000021e-02 1.000000000000000021e-02 1.000000000000000021e-02 1.000000000000000021e-02 1.000000000000000021e-02 1.000000000000000021e-02 1.000000000000000021e-02 1.000000000000000021e-02 1.000000000000000021e-02 1.000000000000000021e-02 1.000000000000000021e-02 1.000000000000000021e-02 1.000000000000000021e-02 1.000000000000000021e-02 1.000000000000000021e-02 1.000000000000000021e-02 1.000000000000000021e-02 1.000000000000000021e-02 1.000000000000000021e-02 1.000000000000000021e-02 1.000000000000000021e-02 1.000000000000000021e-02 1.000000000000000021e-02 1.000000000000000021e-02 1.000000000000000021e-02 1.000000000000000021e-02 1.000000000000000021e-02 1.000000000000000021e-02 1.000000000000000021e-02 1.000000000000000021e-02 1.000000000000000021e-02 1.000000000000000021e-02 1.000000000000000021e-02 1.000000000000000021e-02 1.000000000000000021e-02 1.000000000000000021e-02 1.000000000000000021e-02 1.000000000000000021e-02 1.000000000000000021e-02 1.000000000000000021e-02 1.000000000000000021e-02 1.000000000000000021e-02 1.000000000000000021e-02 1.000000000000000021e-02 1.000000000000000021e-02 1.000000000000000021e-02 1.000000000000000021e-02 1.000000000000000021e-02 1.000000000000000021e-02 1.000000000000000021e-02 1.000000000000000021e-02 1.000000000000000021e-02 1.000000000000000021e-02 1.000000000000000021e-02 1.000000000000000021e-02 1.000000000000000021e-02 1.000000000000000021e-02 1.000000000000000021e-02 1.000000000000000021e-02 1.000000000000000021e-02 1.000000000000000021e-02 1.000000000000000021e-02 1.000000000000000021e-02 1.000000000000000021e-02 1.000000000000000021e-02 1.000000000000000021e-02 1.000000000000000021e-02 1.000000000000000021e-02 1.000000000000000021e-02 1.000000000000000021e-02 1.000000000000000021e-02 1.000000000000000021e-02 1.000000000000000021e-02 1.000000000000000021e-02 1.000000000000000021e-02 1.000000000000000021e-02 1.000000000000000021e-02 1.000000000000000021e-02 1.000000000000000021e-02 1.000000000000000021e-02 1.000000000000000021e-02 1.000000000000000021e-02 1.000000000000000021e-02 1.000000000000000021e-02 1.000000000000000021e-02 1.000000000000000021e-02 1.000000000000000021e-02 1.000000000000000021e-02 1.000000000000000021e-02 1.000000000000000021e-02 1.000000000000000021e-02 1.000000000000000021e-02 1.000000000000000021e-02 1.000000000000000021e-02 1.000000000000000021e-02 1.000000000000000021e-02 1.000000000000000021e-02 1.000000000000000021e-02 1.000000000000000021e-02 1.000000000000000021e-02 1.000000000000000021e-02 1.000000000000000021e-02 1.000000000000000021e-02 1.000000000000000021e-02 1.000000000000000021e-02 1.000000000000000021e-02 1.000000000000000021e-02 1.000000000000000021e-02 1.000000000000000021e-02 1.000000000000000021e-02 1.000000000000000021e-02 1.000000000000000021e-02 1.000000000000000021e-02 1.000000000000000021e-02 1.000000000000000021e-02 1.000000000000000021e-02 1.000000000000000021e-02 1.000000000000000021e-02 1.000000000000000021e-02 1.000000000000000021e-02 1.000000000000000021e-02 1.000000000000000021e-02 1.000000000000000021e-02 1.000000000000000021e-02 1.000000000000000021e-02 1.000000000000000021e-02 1.000000000000000021e-02 1.000000000000000021e-02 1.000000000000000021e-02 1.000000000000000021e-02 1.000000000000000021e-02 1.000000000000000021e-02 1.000000000000000021e-02 1.000000000000000021e-02 1.000000000000000021e-02 1.000000000000000021e-02 1.000000000000000021e-02 1.000000000000000021e-02 1.000000000000000021e-02 1.000000000000000021e-02 1.000000000000000021e-02 1.000000000000000021e-02 1.000000000000000021e-02 1.000000000000000021e-02 1.000000000000000021e-02 1.000000000000000021e-02 1.000000000000000021e-02 1.000000000000000021e-02 1.000000000000000021e-02 1.000000000000000021e-02 1.000000000000000021e-02 1.000000000000000021e-02 1.000000000000000021e-02 1.000000000000000021e-02 1.000000000000000021e-02 1.000000000000000021e-02 1.000000000000000021e-02 1.000000000000000021e-02 1.000000000000000021e-02 1.000000000000000021e-02 1.000000000000000021e-02 1.000000000000000021e-02 1.000000000000000021e-02 1.000000000000000021e-02 1.000000000000000021e-02 1.000000000000000021e-02 1.000000000000000021e-02 1.000000000000000021e-02 1.000000000000000021e-02 1.000000000000000021e-02 1.000000000000000021e-02 1.000000000000000021e-02 1.000000000000000021e-02 1.000000000000000021e-02 1.000000000000000021e-02 1.000000000000000021e-02 1.000000000000000021e-02 1.000000000000000021e-02 1.000000000000000021e-02 1.000000000000000021e-02 1.000000000000000021e-02 1.000000000000000021e-02 1.000000000000000021e-02 1.000000000000000021e-02 1.000000000000000021e-02 1.000000000000000021e-02 1.000000000000000021e-02 1.000000000000000021e-02 1.000000000000000021e-02 1.000000000000000021e-02 1.000000000000000021e-02 1.000000000000000021e-02 1.000000000000000021e-02 1.000000000000000021e-02 1.000000000000000021e-02 1.000000000000000021e-02 1.000000000000000021e-02 1.000000000000000021e-02 1.000000000000000021e-02 1.000000000000000021e-02 1.000000000000000021e-02 1.000000000000000021e-02 1.000000000000000021e-02 1.000000000000000021e-02 1.000000000000000021e-02 1.000000000000000021e-02 1.000000000000000021e-02 1.000000000000000021e-02 1.000000000000000021e-02 1.000000000000000021e-02 1.000000000000000021e-02 1.000000000000000021e-02 1.000000000000000021e-02 1.000000000000000021e-02 1.000000000000000021e-02 1.000000000000000021e-02 1.000000000000000021e-02 1.000000000000000021e-02 1.000000000000000021e-02 1.000000000000000021e-02 1.000000000000000021e-02 1.000000000000000021e-02 1.000000000000000021e-02 1.000000000000000021e-02 1.000000000000000021e-02 1.000000000000000021e-02 1.000000000000000021e-02 1.000000000000000021e-02 1.000000000000000021e-02 1.000000000000000021e-02 1.000000000000000021e-02 1.000000000000000021e-02 1.000000000000000021e-02 1.000000000000000021e-02 1.000000000000000021e-02 1.000000000000000021e-02 1.000000000000000021e-02 1.000000000000000021e-02 1.000000000000000021e-02 1.000000000000000021e-02 1.000000000000000021e-02 1.000000000000000021e-02 1.000000000000000021e-02 1.000000000000000021e-02 1.000000000000000021e-02 1.000000000000000021e-02 1.000000000000000021e-02 1.000000000000000021e-02 1.000000000000000021e-02 1.000000000000000021e-02 1.000000000000000021e-02 1.000000000000000021e-02 1.000000000000000021e-02 1.000000000000000021e-02 1.000000000000000021e-02 1.000000000000000021e-02 1.000000000000000021e-02 1.000000000000000021e-02 1.000000000000000021e-02 1.000000000000000021e-02 1.000000000000000021e-02 1.000000000000000021e-02 1.000000000000000021e-02 1.000000000000000021e-02 1.000000000000000021e-02 1.000000000000000021e-02 1.000000000000000021e-02 1.000000000000000021e-02 1.000000000000000021e-02 1.000000000000000021e-02 1.000000000000000021e-02 1.000000000000000021e-02 1.000000000000000021e-02 1.000000000000000021e-02 1.000000000000000021e-02 1.000000000000000021e-02 1.000000000000000021e-02 1.000000000000000021e-02 1.000000000000000021e-02 1.000000000000000021e-02 1.000000000000000021e-02 1.000000000000000021e-02 1.000000000000000021e-02 1.000000000000000021e-02 1.000000000000000021e-02 1.000000000000000021e-02 1.000000000000000021e-02 1.000000000000000021e-02 1.000000000000000021e-02 1.000000000000000021e-02 1.000000000000000021e-02 1.000000000000000021e-02 1.000000000000000021e-02 1.000000000000000021e-02 1.000000000000000021e-02 1.000000000000000021e-02 1.000000000000000021e-02 1.000000000000000021e-02 1.000000000000000021e-02 1.000000000000000021e-02 1.000000000000000021e-02 1.000000000000000021e-02 1.000000000000000021e-02 1.000000000000000021e-02 1.000000000000000021e-02 1.000000000000000021e-02 1.000000000000000021e-02 1.000000000000000021e-02 1.000000000000000021e-02 1.000000000000000021e-02 1.000000000000000021e-02 1.000000000000000021e-02 1.000000000000000021e-02 1.000000000000000021e-02 1.000000000000000021e-02 1.000000000000000021e-02 1.000000000000000021e-02 1.000000000000000021e-02 1.000000000000000021e-02 1.000000000000000021e-02 1.000000000000000021e-02 1.000000000000000021e-02 1.000000000000000021e-02 1.000000000000000021e-02 1.000000000000000021e-02 1.000000000000000021e-02 1.000000000000000021e-02 1.000000000000000021e-02 1.000000000000000021e-02 1.000000000000000021e-02 1.000000000000000021e-02 1.000000000000000021e-02 1.000000000000000021e-02 1.000000000000000021e-02 1.000000000000000021e-02 1.000000000000000021e-02 1.000000000000000021e-02 1.000000000000000021e-02 1.000000000000000021e-02 1.000000000000000021e-02 1.000000000000000021e-02 1.000000000000000021e-02 1.000000000000000021e-02 1.000000000000000021e-02 1.000000000000000021e-02 1.000000000000000021e-02 1.000000000000000021e-02 1.000000000000000021e-02 1.000000000000000021e-02 1.000000000000000021e-02 1.000000000000000021e-02 1.000000000000000021e-02 1.000000000000000021e-02 1.000000000000000021e-02 1.000000000000000021e-02 1.000000000000000021e-02 1.000000000000000021e-02 1.000000000000000021e-02 1.000000000000000021e-02 1.000000000000000021e-02 1.000000000000000021e-02 1.000000000000000021e-02 1.000000000000000021e-02 1.000000000000000021e-02 1.000000000000000021e-02 1.000000000000000021e-02 1.000000000000000021e-02 1.000000000000000021e-02 1.000000000000000021e-02 1.000000000000000021e-02 1.000000000000000021e-02 1.000000000000000021e-02 1.000000000000000021e-02 1.000000000000000021e-02 1.000000000000000021e-02 1.000000000000000021e-02 1.000000000000000021e-02 1.000000000000000021e-02 1.000000000000000021e-02 1.000000000000000021e-02 1.000000000000000021e-02 1.000000000000000021e-02 1.000000000000000021e-02 1.000000000000000021e-02 1.000000000000000021e-02 1.000000000000000021e-02 1.000000000000000021e-02 1.000000000000000021e-02 1.000000000000000021e-02 1.000000000000000021e-02 1.000000000000000021e-02 1.000000000000000021e-02 1.000000000000000021e-02 1.000000000000000021e-02 1.000000000000000021e-02 1.000000000000000021e-02 1.000000000000000021e-02 1.000000000000000021e-02 1.000000000000000021e-02 1.000000000000000021e-02 1.000000000000000021e-02 1.000000000000000021e-02 1.000000000000000021e-02 1.000000000000000021e-02 1.000000000000000021e-02 1.000000000000000021e-02 1.000000000000000021e-02 1.000000000000000021e-02 1.000000000000000021e-02 1.000000000000000021e-02 1.000000000000000021e-02 1.000000000000000021e-02 1.000000000000000021e-02 1.000000000000000021e-02 1.000000000000000021e-02 1.000000000000000021e-02 1.000000000000000021e-02 1.000000000000000021e-02 1.000000000000000021e-02 1.000000000000000021e-02 1.000000000000000021e-02 1.000000000000000021e-02 1.000000000000000021e-02 1.000000000000000021e-02 1.000000000000000021e-02 1.000000000000000021e-02 1.000000000000000021e-02 1.000000000000000021e-02 1.000000000000000021e-02 1.000000000000000021e-02 1.000000000000000021e-02 1.000000000000000021e-02 1.000000000000000021e-02 1.000000000000000021e-02 1.000000000000000021e-02 1.000000000000000021e-02 1.000000000000000021e-02 1.000000000000000021e-02 1.000000000000000021e-02 1.000000000000000021e-02 1.000000000000000021e-02 1.000000000000000021e-02 1.000000000000000021e-02 1.000000000000000021e-02 1.000000000000000021e-02 1.000000000000000021e-02 1.000000000000000021e-02 1.000000000000000021e-02 1.000000000000000021e-02 1.000000000000000021e-02 1.000000000000000021e-02 1.000000000000000021e-02 1.000000000000000021e-02 1.000000000000000021e-02 1.000000000000000021e-02 1.000000000000000021e-02 1.000000000000000021e-02 1.000000000000000021e-02 1.000000000000000021e-02 1.000000000000000021e-02 1.000000000000000021e-02 1.000000000000000021e-02 1.000000000000000021e-02 1.000000000000000021e-02 1.000000000000000021e-02 1.000000000000000021e-02 1.000000000000000021e-02 1.000000000000000021e-02 1.000000000000000021e-02 1.000000000000000021e-02 1.000000000000000021e-02 1.000000000000000021e-02 1.000000000000000021e-02 1.000000000000000021e-02 1.000000000000000021e-02 1.000000000000000021e-02 1.000000000000000021e-02 1.000000000000000021e-02 1.000000000000000021e-02 1.000000000000000021e-02 1.000000000000000021e-02 1.000000000000000021e-02 1.000000000000000021e-02 1.000000000000000021e-02 1.000000000000000021e-02 1.000000000000000021e-02 1.000000000000000021e-02 1.000000000000000021e-02 1.000000000000000021e-02 1.000000000000000021e-02 1.000000000000000021e-02 1.000000000000000021e-02 1.000000000000000021e-02 1.000000000000000021e-02 1.000000000000000021e-02 1.000000000000000021e-02 1.000000000000000021e-02 1.000000000000000021e-02 1.000000000000000021e-02 1.000000000000000021e-02 1.000000000000000021e-02 1.000000000000000021e-02 1.000000000000000021e-02 1.000000000000000021e-02 1.000000000000000021e-02 1.000000000000000021e-02 1.000000000000000021e-02 1.000000000000000021e-02 1.000000000000000021e-02 1.000000000000000021e-02 1.000000000000000021e-02 1.000000000000000021e-02 1.000000000000000021e-02 1.000000000000000021e-02 1.000000000000000021e-02 1.000000000000000021e-02 1.000000000000000021e-02 1.000000000000000021e-02 1.000000000000000021e-02 1.000000000000000021e-02 1.000000000000000021e-02 1.000000000000000021e-02 1.000000000000000021e-02 1.000000000000000021e-02 1.000000000000000021e-02 1.000000000000000021e-02 1.000000000000000021e-02 1.000000000000000021e-02 1.000000000000000021e-02 1.000000000000000021e-02 1.000000000000000021e-02 1.000000000000000021e-02 1.000000000000000021e-02 1.000000000000000021e-02 1.000000000000000021e-02 1.000000000000000021e-02 1.000000000000000021e-02 1.000000000000000021e-02 1.000000000000000021e-02 1.000000000000000021e-02 1.000000000000000021e-02 1.000000000000000021e-02 1.000000000000000021e-02 1.000000000000000021e-02 1.000000000000000021e-02 1.000000000000000021e-02 1.000000000000000021e-02 1.000000000000000021e-02 1.000000000000000021e-02 1.000000000000000021e-02 1.000000000000000021e-02 1.000000000000000021e-02 1.000000000000000021e-02 1.000000000000000021e-02 1.000000000000000021e-02 1.000000000000000021e-02 1.000000000000000021e-02 1.000000000000000021e-02 1.000000000000000021e-02 1.000000000000000021e-02 1.000000000000000021e-02 1.000000000000000021e-02 1.000000000000000021e-02 1.000000000000000021e-02 1.000000000000000021e-02 1.000000000000000021e-02 1.000000000000000021e-02 1.000000000000000021e-02 1.000000000000000021e-02 1.000000000000000021e-02 1.000000000000000021e-02 1.000000000000000021e-02 1.000000000000000021e-02 1.000000000000000021e-02 1.000000000000000021e-02 1.000000000000000021e-02 1.000000000000000021e-02 1.000000000000000021e-02 1.000000000000000021e-02 1.000000000000000021e-02 1.000000000000000021e-02 1.000000000000000021e-02 1.000000000000000021e-02 1.000000000000000021e-02 1.000000000000000021e-02 1.000000000000000021e-02 1.000000000000000021e-02 1.000000000000000021e-02 1.000000000000000021e-02 1.000000000000000021e-02 1.000000000000000021e-02 1.000000000000000021e-02 1.000000000000000021e-02 1.000000000000000021e-02 1.000000000000000021e-02 1.000000000000000021e-02 1.000000000000000021e-02 1.000000000000000021e-02 1.000000000000000021e-02 1.000000000000000021e-02 1.000000000000000021e-02 1.000000000000000021e-02 1.000000000000000021e-02 1.000000000000000021e-02 1.000000000000000021e-02 1.000000000000000021e-02 1.000000000000000021e-02 1.000000000000000021e-02 1.000000000000000021e-02 1.000000000000000021e-02 1.000000000000000021e-02 1.000000000000000021e-02 1.000000000000000021e-02 1.000000000000000021e-02 1.000000000000000021e-02 1.000000000000000021e-02 1.000000000000000021e-02 1.000000000000000021e-02 1.000000000000000021e-02 1.000000000000000021e-02 1.000000000000000021e-02 1.000000000000000021e-02 1.000000000000000021e-02 1.000000000000000021e-02 1.000000000000000021e-02 1.000000000000000021e-02 1.000000000000000021e-02 1.000000000000000021e-02 1.000000000000000021e-02 1.000000000000000021e-02 1.000000000000000021e-02 1.000000000000000021e-02 1.000000000000000021e-02 1.000000000000000021e-02 1.000000000000000021e-02 1.000000000000000021e-02 1.000000000000000021e-02 1.000000000000000021e-02 1.000000000000000021e-02 1.000000000000000021e-02 1.000000000000000021e-02 1.000000000000000021e-02 1.000000000000000021e-02 1.000000000000000021e-02 1.000000000000000021e-02 1.000000000000000021e-02 1.000000000000000021e-02 1.000000000000000021e-02 1.000000000000000021e-02 1.000000000000000021e-02 1.000000000000000021e-02 1.000000000000000021e-02 1.000000000000000021e-02 1.000000000000000021e-02 1.000000000000000021e-02 1.000000000000000021e-02 1.000000000000000021e-02 1.000000000000000021e-02 1.000000000000000021e-02 1.000000000000000021e-02 1.000000000000000021e-02 1.000000000000000021e-02 1.000000000000000021e-02 1.000000000000000021e-02 1.000000000000000021e-02 1.000000000000000021e-02 1.000000000000000021e-02 1.000000000000000021e-02 1.000000000000000021e-02 1.000000000000000021e-02 1.000000000000000021e-02 1.000000000000000021e-02 1.000000000000000021e-02 1.000000000000000021e-02 1.000000000000000021e-02 1.000000000000000021e-02 1.000000000000000021e-02 1.000000000000000021e-02 1.000000000000000021e-02 1.000000000000000021e-02 1.000000000000000021e-02 1.000000000000000021e-02 1.000000000000000021e-02 1.000000000000000021e-02 1.000000000000000021e-02 1.000000000000000021e-02 1.000000000000000021e-02 1.000000000000000021e-02 1.000000000000000021e-02 1.000000000000000021e-02 1.000000000000000021e-02 1.000000000000000021e-02 1.000000000000000021e-02 1.000000000000000021e-02 1.000000000000000021e-02
-1.169793191926535343e+02 1.776409275032907829e+02 4.128173734153229901e+01 -9.287942170381761287e+00 -9.210949654552594268e+01 -1.403862172841369294e+01 -2.178227164774336870e+02 6.926438873932876383e-01 -8.883352730254514995e+01 -1.456563409329402958e+01 -2.076009491787184302e+01 6.788317241108256184e+00 -1.864802103116937282e+00 1.758502996969892251e+02 8.867071743689265872e+01 -4.058797646281406202e+01 -5.525799593377413288e+01 8.302258703136709528e+01 3.438500099815173883e+01 -2.656824089169642988e+01 -8.266138030463110908e+01 -7.738803047651121858e+01 -1.448953822357922938e+01 3.032301645769934950e+01 -2.043006748169737818e+02 -1.035094251447043376e+02 -2.733273778411355082e+01 2.113526621297939130e+02 7.416454207071659255e+01 8.035410938908825074e+01 8.413796267402720730e+01 1.248440973239822283e+00 -8.291424082865297862e+01 2.173039084443161073e+02 -2.565166780239628679e+02 6.157485749849608681e+01 -1.259976997214819789e+02 -3.633140404117310851e+01 4.220467000015238668e+00 1.327936200465326806e+02 -1.288333427644820688e+02 -1.434488712907721109e+01 8.111737951603684849e+01 1.819141744852692568e+02 7.482628933776439339e+01 -7.177179999945948907e+01 4.328116060982012669e+01 -2.972090365768492859e+01 -6.924167606715366219e+01 1.641327807775863903e+02 -7.406741313036691565e+01 -5.465454718697259295e+01 -1.459340920767942009e+02 5.933046107444298833e+00 -5.299928906625248715e+01 4.050667754834505274e+01 -9.298930648073829275e+01 -5.248890195805599745e+01 -1.062873916506110845e+02 -1.629078818028372950e+02 2.044832015152582017e+01 4.747254436174172554e+01 -1.290389694221841523e+02 1.348928187613336860e+01 -8.316479149281727246e+01 5.147754129242457566e+01 1.745738644610673020e+02 -1.511877325289378859e+02 -4.542568249525493229e+01 7.504645769204114636e+00 3.055058266990525961e+00 4.440822625650861255e+01 8.803311693143587036e+01 1.032145670797267822e+00 -9.174357916473738328e+00 -7.343431387576953284e+01 8.206105524718739730e+01 -3.441859033702162662e+01 2.754101573360762245e+01 1.090144224170343819e+02 9.252642036422939498e+01 -4.479362327476281536e+01 6.066120903985745372e+01 1.545654081776587816e+02 1.218028996089529699e+02 -4.258337120118996566e+00 1.826573168374742977e+02 -1.168822308488915667e+02 4.449232068083566638e+00 -4.396261882799185372e+01 2.168579950646725649e+02 -2.224787820747697609e+01 2.993699599949052548e+00 -8.049123703299031263e+01 -7.460356345572475512e+00 -6.697371119172741771e+01 7.102177825051850846e+01 -9.910304337525609242e+01 7.179790907307611292e+01 -5.002209450253229051e+01 -5.219176602517637065e+01 -9.607729539682821951e+01 5.570309638412432918e+01 -5.741328062079279704e+01 -1.565613201737182862e+02 -8.334060339361869296e+01 -1.096902877914934464e+02 -1.648395450012021399e+02 1.425424932878694051e+02 -2.889622289630380436e+01 3.355977534158303399e+01 9.400819832886028848e+01 -1.091567630859904909e+02 5.975838868042516339e+01 -4.542570034343630425e+01 -7.258589693813109989e+01 -9.437633470930215651e+01 2.132037778298295336e+02 -5.949759858087937658e+01 -5.184744646657112810e+01 -4.956139051358386638e+01 8.430565450679965522e+01 -4.339264958184109844e+01 1.447093152583953213e+02 -5.221428887407495267e+01 5.770361242652527523e+01 4.760868642501758785e+00 -8.514443136969107684e+01 7.220016595213826349e+01 2.907966413948813624e+02 -9.642237025512450543e+01 4.982533206453860686e+01 -7.987690115960144510e+01 4.741929271692797698e+01 1.375344595275215340e+02 -5.380974015345377381e+01 1.526190934809300614e+01 -2.820186912533182522e+01 -1.068583515531276475e+02 -1.806107347456531897e+01 4.442888557981109265e+00 -8.215249537493566123e+00 -1.569903272803818872e+01 1.240397576963876958e+02 1.366368620459273586e+02 1.954965837715795374e+02 -3.190716679801154214e+02 4.008777379961108522e+01 -1.649179749528861905e+01 -6.541143652467742697e+01 1.891369271582696854e+02 8.001498577641353904e+01 -2.661200965632487314e+00 -1.216822412264759663e+02 -1.147043650476303078e+01 1.050024881565836523e+02 -1.410579701575686045e+02 -1.769703462725699126e+02 1.126355452238690091e+01 4.455331739647351696e+01 -6.401430337179577634e+01 4.411276153583279580e+01 -1.124065633149186709e+02 -1.588740560728833771e+02 2.219582050492833858e+01 5.100794359466343053e+01 5.019229690480909944e+00 -8.772816779493787465e+01 -9.830005750862120806e+01 -8.862058405766291003e+01 -9.195403398477138524e+01 1.322837865647085032e+01 5.973940683750129921e+01 1.224042936680781679e+02 8.350070851422592000e+01 9.405964752180352662e+01 1.129030237726220065e+02 -7.864924482402786055e+01 -8.677960965145632599e+01 7.416124442544098372e+01 7.191335388659268801e+01 6.231062271420910292e+01 -9.893611676733110372e+00 -9.584431951053232979e+01 5.680285399289741122e+01 -1.882832172253654903e+02 7.067712630848583899e+01 -4.694254985566199423e+01 -1.015949807979636574e+02 7.816097206980134615e+01 -1.801622737272508701e+01 -8.132035756998776321e+01 -6.060761460998777750e+01 -9.615764329096409213e+00 2.558273911144037527e+02 8.092339347606400679e+01 5.782664945823744063e+01 -1.096536593870756775e+02 1.564259541537295206e+02 1.072699946426333373e+00 -9.544156560030025105e+01 1.644579191072816116e+02 -1.627896277705591785e+02 1.665678497192184793e+01 -3.441906764047363509e+01 -2.346909887199639400e+02 -1.425680318730383931e+02 -9.320892911778479117e+01 -3.118800471768794580e+01 -1.274200985452357600e+02 6.162232628932577683e+01 6.940331038362295146e+01 -2.941584001858628739e+01 -1.064675409663083769e+02 1.208199207106034407e+02 1.263415827935361904e+02 4.938122020488216890e+01 1.861430747167902311e+01 2.792181224839047218e+02 4.669125685289439076e+01 -1.275409823292725662e+02 -4.811465795944969415e+01 -1.805357060406896608e+02 3.406691228283599315e+01 1.639591920949385724e+02 -1.587492145780649935e+02 1.408629583135586927e+02 -9.727500660312890091e+01 -2.017936418657560793e+01 -7.471511745790032633e-01 5.651386774776410249e+01 -1.244087080555427072e+01 -2.434336799266727525e+01 -2.031836723110040666e+01 -1.354467103255214226e+02 4.969422183188480346e+01 -3.250827648580543183e+01 -1.394737292574748544e+01 -1.145376912037952621e+01 2.417725765845225396e+02 1.863449198308350674e+02 2.489270662570076524e+02 1.410407284316214884e+02 -9.264391345857576709e+01 8.051217791744134900e+01 2.256482798541684076e+01 5.100654158318452147e+01 -4.258442613181281189e+01 2.734088200204548116e+02 -2.491563222466772842e+01 -1.463534317733048340e+02 -1.602703943468225845e+01 -4.903900562660941631e+01 -8.289368747269948301e+01 4.621428668186678124e+01 -1.254198430929080565e+01 1.947764933289676605e+02 9.902093354847345097e+01 4.379258805359725670e+01 1.050270263950296794e+02 1.010733697858291862e+02 -2.462177395793749568e+01 1.495485467875293750e+02 2.832503370819263111e+01 9.589682606284188182e+01 5.100020099576487809e+01 7.439539458245381098e+00 -1.240150203467819665e+02 -1.240267401862819554e+02 -9.638954912011881504e+01 -1.669194319249929137e+01 9.283313852160928548e+01 -3.287618903595467401e+01 1.059307685941729318e+02 4.690531619664646712e+01 -7.789944160906706827e+01 -3.212367504307242427e+01 -6.277810383933512384e+01 1.880652072910264394e+01 -4.966920251641300865e+01 -1.200195562443752380e+02 1.302129363095239967e+02 1.299571685633627851e+02 -8.453442782573139880e+01 5.892670798573504953e+00 -4.851594699929270149e+01 -3.498398262834995620e+01 -1.215044105278634667e+01 -3.341757090875208291e+01 4.756400924470750624e+01 -1.504631956287061598e+02 -5.656109313678961570e+01 -1.626921398996905737e+02 1.864639000612876316e+02 -2.171850197215705336e+01 6.315429310550176467e+01 1.279612914193928752e+01 1.545976284888734540e+02 4.783608947226527164e+01 3.828929803325873138e+01 1.651595974365869495e+02 -5.272337818921234742e+01 -1.043882651217894875e+02 2.901280414647942862e+01 -1.690459910514426269e+02 -5.711189494223580709e+01 1.093862696225380091e+02 -1.367379905855971174e+02 -3.890207991945041499e+01 9.765028509997868866e+01 -1.011037137672233825e+02 -9.576268152552978563e+01 -8.840543575799590315e+01 -6.830782867411610937e+01 2.662319436019917021e+02 2.118873464955439943e+02 1.101579727064488594e+02 -1.092600688199847099e+02 8.004805176447220560e+01 -7.061612279577109064e+01 -3.322823102040053556e+01 1.772678142184143368e+01 -3.432196886036248884e+01 -1.001771014044984867e+02 -2.833729162401711132e+00 1.584470929836245290e+01 1.161113590683182366e+02 -1.371538019532742112e+02 4.463081806089881809e+01 6.802490395013472835e+01 3.690481770571470577e+01 -9.665877809576788593e+01 -1.583630244396614160e+02 2.061180168464369160e+02 -1.901129575716307585e+01 2.686311393835020667e+01 1.668106048203265175e+02 2.843578133612873771e+01 2.958586731700854244e+01 -4.744071956048724559e+01 9.438220788204678513e+01 -1.452859346454749527e+02 -3.283448484187861993e+01 -6.531995297190357874e+00 -5.692264327017254288e+01 6.493915946396244365e+00 2.273770852832590705e+01 -3.811313659824904931e+01 1.455358957601458059e+01 2.275516057414819500e+02 -2.914698318991750270e+01 -2.973999147465099213e+01 -1.082231334187664231e+02 -1.776739476928770767e+00 -8.598035965807559933e+01 6.846356319322792316e+00 1.192650798567560173e+02 -5.538806979140768050e+01 6.447037181080927049e+00 -5.783355037322420600e+01 3.565002893301062237e+00 9.282869335460397053e+01 -1.233003244380077632e+02 -1.029891966794681792e+02 -1.091039330580891402e+02 7.600978271927264984e+01 9.211142207637689694e+01 -9.827702076449199353e+01 6.657391205506002052e+01 2.744326367325141902e+01 4.116230019560726561e+01 -1.890588170031988113e+01 9.715722365963047480e+01 8.486351666481718325e+01 -8.224613562572022829e+01 1.266591531329156517e+01 8.609354098140141787e+01 7.753933991783685542e+01 -2.112344187715748234e+01 2.660152008727678563e+01 -1.410439431665082850e+02 5.158470833498901698e+01 -3.484527773132404604e+01 -3.469503146664245463e+01 1.842321865098536193e+02 5.048786862954629839e+01 1.279025479043879159e+02 2.030915051610648447e+02 -1.464918525531863907e+02 1.585334611326757681e+02 -6.736562707282881490e+01 -1.437241117100672909e+02 8.757344371344707668e+01 -1.426532998543786732e+02 -3.052099046355784751e+01 6.003658600940809720e+01 8.639596263488819261e+00 -1.787446072771438992e+02 8.954355621765546402e+01 2.679737946121539949e+01 7.350893918648132797e+01 3.855180400798629847e+01 1.008858971818394501e+01 -7.139537915893735942e+01 1.231415716638800717e+02 5.794668617573721292e+01 -6.609033184474340317e+01 -1.076791738670401060e+02 4.147033499254926170e+01 2.724146982045699517e+01 8.760468169644296665e+01 1.953555301930039434e+02 -2.622778289154414466e+01 -1.171333190651172771e+02 -9.019056033577309961e+01 -5.459015835265575589e+01 -4.726177046204320931e+01 -1.560822825271230272e+02 -2.390238629922581026e+01 1.376782745864193771e+02 7.930158358545094188e+01 -1.301519050446289896e+02 -1.592608253852400537e+02 -7.246381432499215691e+01 -8.128132280476459925e+01 1.559886371724387857e+02 -1.812601328867948780e+02 9.198116564449158261e+01 -4.901867675144401026e+00 -4.573173068443432498e+01 1.417123147420055673e+01 9.699917983269835986e+01 5.279314734054918290e+01 1.469699164608419437e+02 -1.692043415761581286e+02 -8.610454765840829339e+01 2.689959433449732984e+01 4.460289187186910453e+01 2.192481254252165570e+02 1.546405561807229390e+02 6.963994766086455002e+01 7.667216725858776272e+01 -3.653329045554754373e+01 1.614822140895083749e+02 -1.906159062510485569e+02 -6.737301171679722245e+01 -5.709122857153581521e+01 -5.507291229538130040e+01 -1.098608603811497773e+02 -1.591512359413415645e+01 -7.300017228350633047e+01 7.571171159200393674e+01 -9.764837127619454549e+00 -6.183234009474621473e+01 -6.633259785645398665e+01 1.915894048578253717e+02 6.266267081666253347e+01 -1.452821567267650771e+01 2.220555061048862626e+02 -1.151306119797357326e+02 -3.758185661388427690e+01 7.117331435274795126e+01 -1.290526173383008679e-01 1.583765855793061839e+01 -1.328703563175508862e+02 1.872747692042214851e+02 -5.213215527425540330e+01 -2.869593856503937701e+01 -1.166117475242069048e+02 1.337468526481178515e+02 1.019560411850437589e+02 -8.239926577481195125e+01 -3.984452412077906303e+01 4.134161285321648194e+01 -1.608709680176816335e+02 -1.010064576002015491e-01 -7.935228190753751676e+01 8.209162376409924633e+00 -1.148732919896541205e+02 -1.683754857809600196e+02 -7.504414048763931078e+01 1.573130607336360924e+02 6.013117260111895490e+01 -9.511405738980045044e+01 9.471120213289181322e+01 3.638729717013095666e+01 9.366827011975867379e+01 -4.469295352387545961e+01 -8.927687897561665409e+01 1.814531823977448823e+02 4.424002808878954340e+01 3.073222496680014260e+01 -7.748219149668921091e+01 -4.487685863966751043e+01 1.018517449105511652e+01 -7.576166003402307503e+00 -1.832656088076615220e+02 -3.667350373453721346e+01 6.832126884487664142e+01 1.183802362251574749e+02 1.650294153526745617e+02 -1.404308520442307895e+01 9.497884824763499978e+01 1.670980454993556918e+02 6.722288840533674659e+01 1.566787132448490638e+02 1.701209471881199420e+01 1.390564123997294814e+02 -8.889047466234832484e+01 5.654161619381932979e+01 3.110515656340913537e+01 8.032206904619887666e+01 -1.123869160694243021e+02 2.094656649903780306e+02 -1.363423866823264348e+02 9.335681860571575896e+01 -1.136892285148291677e+02 4.875484554457180053e+01 1.457658011447286661e+01 9.591246081739153340e+01 -7.790315380381109378e+01 -7.980259072288765765e+01 -1.183275502191658468e+01 9.412594090884769571e+01 -3.124511712478937753e+01 -1.724324269661931908e+01 -2.073519255023372665e+01 5.004291235997127885e+00 1.036168930034393441e+02 -6.606928670682663096e+01 -2.877151495743688336e+00 -2.042834175757716366e+02 1.283276739154627819e+02 -1.314134268977871045e+02 -7.777680323352379332e+01 -2.480241150576219766e+01 -1.135594539336320423e+02 -5.596302974317902112e+01 -6.161213044911822578e+01 -2.067135934223647808e+01 1.434384517176399640e+02 5.688771657252352298e+01 1.057110024417921181e+02 -1.432130169486473221e+02 -1.458451918747024081e+02 -3.013867901751625027e+02 1.074447079575009099e+02 1.097798749170451629e+02 4.444230363370787273e+01 -4.458494296165488890e+01 -3.921802874911024617e+01 -1.932132698078035276e+02 1.538457360590465157e+02 -1.130672198937304103e+02 1.125686461701858008e+02 -1.676192645405098460e+02 -1.504655605081100944e+01 -5.828254799544677667e+01 -1.255000875174887511e+02 -4.850911002536462746e+01 -1.309168203812022213e+01 -9.750620599403620758e+01 -1.089847831893155501e+02 -1.299692048878856276e+01 7.497221359380014860e+01 -1.312266527838804677e+02 -1.651690983068354868e+01 -7.765862786404788665e+01 -1.383630343029655307e+02 7.101661487504995485e+00 1.002964470967522033e+02 1.742384830971528231e+02 -2.010078491463497485e+01 -4.851041036144587082e+01 -1.306943748189105179e+02 -1.722006784368817307e+02 1.092431330992850889e+02 -7.662493385164634674e+01 8.325866070045292133e+01 9.912067892402601998e+00 3.085056820757547769e+01 7.780416502176505844e+01 -8.921608257695676514e+01 8.706172681885992404e+01 1.214248464989632339e+02 1.657641117611127868e+02 -1.228939100062893885e+02 1.094879526273794141e+02 -5.029511409578709902e+01 -9.565040374949437307e+01 2.260086477544488446e+02 5.194036222780853507e+01 8.793561640137143343e+01 2.250376724273684204e+01 -6.647607727450829884e+01 -3.681257597105921064e+01 -2.216282307434220513e+02 1.112778905952708897e+02 8.590154885288090725e+01 -7.976285242400457776e+01 -7.712090066625628992e+01 1.529915478247180260e+02 1.064868490245018222e+02 5.384735224111524587e+01 8.018782717974524132e+01 -8.372831739429374309e+00 1.087437982627617430e+02 -1.090410086241662810e+02 1.964723670526723538e+02 -4.160184665217617805e+01 -1.285177370536368073e+02 -3.964182313421543569e+01 7.560433586701235242e+01 1.552728257151360651e+02 1.369134953968433344e+01 1.831629208328065204e+02 5.503563291089223952e+01 3.539946526596258281e+01 -1.173219742852366778e+02 4.725876741710874285e+01 -1.318171386131895417e+02 5.023063881932536390e+01 4.078683777971072999e+01 -1.299356962435700211e+02 -8.960548353619411444e+01 4.195201049898265921e+01 9.196771195959392742e+00 -2.451638720338422672e+01 4.407291807686476659e+01 -2.254614423773919185e+01 -6.649213681591642455e+01 -2.746103469578912737e+01 -2.370597943548714426e+01 -4.198523026999914265e+01 1.980749627809478852e+01 -8.478508323629003485e+01 1.253688845133070657e+02 -7.838750597412372656e+01 -4.600086630814190336e+00 6.894517174566999529e+01 4.134679381296288980e+00 1.677987776542996201e+01 1.680142898876943391e+01 -1.234710721410382064e+02 -4.669586558818420663e+00 6.856487957966274394e+01 -2.439136648387770379e+02 -8.937997407077833145e+01 -1.188307373781531879e+02 4.613565057926344082e+01 1.014156584815879683e+02 -9.666630265276805289e+01 -1.769303562802182910e+02 -1.950522395570010019e+02 2.106727937861312938e+01 -1.527491789577225916e+02 -6.647325389979173771e+00 1.554616711938259073e+02 -7.527200591458258039e+00 3.913338163120359781e+01 -1.041592294012932172e+02 8.397124126794318499e+01 -1.246495778432005181e+02 -1.616445500811599345e+01 -3.188390261167022999e+01 6.044329023058389083e+01 -9.370792857440832790e+00 1.109462385908012010e+02 -1.280427781142731476e+02 -5.253309169716533944e+01 9.064821199051050371e+01 6.934946837385240315e+01 -8.636370914830412460e+01 -5.698037924796307152e+01 -5.167504873414812039e+01 -3.030165382865952779e+02 2.026244439321974653e+02 7.972508005879433313e+01 -2.473756267159961197e+01 -3.103213880405878555e+01 4.344943544398324065e+01 -8.810019793905321706e+01 1.041465120219115050e+02 6.317261766332651263e+01 8.584541033753140482e+01 -8.790881674202245222e+01 -2.784403030980038807e+01 3.489024409873874077e+01 1.816346216721688833e+01 -4.469307417241985547e+01 1.648743284343695166e+02 -1.807745054068144697e+01 3.692250631391909366e+01 -2.399008149574158324e+02 -8.845353067956808957e+01 -7.640757641062953098e+01 2.401584549546646485e+01 1.139765258152733765e+02 -2.417020183626264895e+02 -1.951822248788394631e+02 2.313794621427298921e+02 -1.103589595677236268e+01 1.002931243356538573e+02 6.553276774726158749e+01 -5.781453876061493702e+01 -1.367142890377141669e+02 -9.930946230874724279e+01 -5.246853249043291356e+01 -3.909856279099027887e+01 -4.085435740614941125e+01 1.691819172278209038e+01 3.869356349569994791e+01 1.740206542590477454e+02 1.285017778618914406e+02 7.168957301122484083e+00 -4.551806097614162994e+00 -1.657591946258509097e+02 1.248511115848269810e+02 1.662812184404092761e+02 -1.078635775166313806e+02 7.694974979688235805e+01 1.922334498490862131e+00 5.723126609406664045e+01 1.309565499832949627e+02 7.402742148789033649e+01 -1.398273291826550349e+02 1.688241339982356237e+01 -3.066284615949263781e+01 1.161793619470490313e+01 -2.424846847301448349e+01 4.736107962356729928e+01 -2.718483135547651841e+02 1.892207065424171333e+02 7.687299994827326621e+00 1.665120159597830707e+02 -1.107267702135933263e+01 1.109653885788802796e+02 7.484911836568879551e+01 -4.393790564926897702e+01 3.119511015883692906e+01 -7.604410687528807955e+01 -9.297343181375393328e+01 -7.539706131335475447e+01 -3.350261899714430314e+01 4.727203036798500335e+01 1.152639530111161434e+02 2.984620222479247076e+01 6.489701093518718267e+01 -1.096615957121017715e+02 -1.435120932823751900e+02 -1.411332409782804653e+01 4.859649436257214461e+01 -4.772047037676163939e+01 9.890867546733169036e+01 5.809056165907568214e+01 -2.896526634892647678e+01 3.137140457419362605e+01 6.423438082628983636e+01 -7.554627768637151064e+01 -1.400523440714335663e+02 1.488545201492829051e+02 8.190803132727763725e+00 5.254384403977940110e+01 -1.564099059731013597e+02 -5.596454472973110938e+01 -5.151574442712305579e-01 -6.880804349063831182e+01 4.491949531614886304e+00 5.899430791139484143e+01 1.954922123606184243e+02 4.102659169386073756e+01 -1.150683310804888926e+01 7.568453247773732073e+01 -4.774145982454130888e+01 -1.143587546358340745e+02 -1.450609251848358952e+02 9.852035449409051182e+00 2.636526629715450909e+01 2.494201089629927637e+01 -5.972329297560940375e+01 1.269211915738590335e+02 -8.493167640184495326e+01 1.348251793786471637e+02 9.173841328736018852e+01 -6.835767323723220557e+01 -8.893439044068746568e+01 8.847637450210443433e+01 2.159019324996386047e+01 -5.514690564515685622e+01 -5.663306472157192673e+01 1.436493767052200212e+02 6.023030047991966285e+01 8.397658210081118568e+01 2.750252257102243192e+01 -4.431038593237007461e+01 1.131304897827504305e+02 -5.741311191933310454e+01 5.294510530095606349e-01 8.063581935048595994e+01 1.048176162888787673e+02 2.688972992343498731e+02 -1.843673114469313248e+02 1.695192828434242074e+02 -7.125371351170865353e+01 -1.602882698962696750e+01 -2.632672487526737726e+01 -2.185106355900840569e+01 -5.821562240910725450e+01 9.790456522044755161e+01 1.941463648269194948e+02 -1.253419944967895532e+02 3.263379346219800681e+01 -1.339295778937050727e+02 7.409307768339708389e+01 -4.702099851591326996e+01 -8.548988818017031122e+01 -5.689630184567823790e+01 4.348880908548454016e+01 2.052316827041391178e+01 -8.652691882559216197e+01 -1.492346811942848319e+02 2.198971818303014203e+01 1.668196531058627841e+02 1.512169608987210268e+01 1.932381898925886503e+02 7.917531604290369174e+00 1.426030954188764781e+02 -3.667640858895055089e+01 9.610326731958447510e+01 -7.575189047087255290e+01 -1.197376894593006398e+02 5.243540841435025612e+01 -6.157638974479211669e+01 -8.330617124229718229e+01 7.744017657499736629e+01 6.807632801741842599e+00 -1.001782446308205436e+02 -1.598787120500051344e+02 1.571121555233727634e+02 -9.477246721027223941e+01 -2.457555781173095699e+00 1.276518580205929112e+02 6.174981803040324735e+01 -1.044327894663392158e+02 1.126300600824596820e+01 3.001183909934057965e+02 5.678883571647325823e+01 -1.679620154783355588e+02 -5.079101485108000702e+01 -6.557615270081650749e+01 1.028112220727257942e+01 1.145983446639832977e+02 -1.102304916120960456e+02 2.295055259979832485e+01 1.391328452203408688e+02 2.002674661689722058e+01 -2.252411517654095121e+02 5.161691521810099914e+01 8.048999243972843942e+01 -1.445643750119898385e+01 3.500573422133145840e+01 1.050084184136551579e-01 2.393053471709949775e+01 2.958598606904767081e+01 1.235097867763755630e+02 1.045116396232654949e+02 1.649069377165769623e+01 1.589750804567039779e+02 -6.829276495464370100e+01 2.630987946380471953e+02 6.934838338989810325e+01 1.511020482241588070e+02 -2.345506078588409338e+01 9.606529010166377702e+01 -5.242998178055027836e+01 -1.561720475110496125e+02 2.798150324779210862e+01 1.015542682806747052e+02 -9.354410164144182716e+01 -1.117652360818317447e+02 -7.100405425994348718e+01 3.901908316318327508e+01 -1.219680964716184093e+02 7.979155864326280323e+01 3.000289106602897959e+01 -1.041851720302329767e+02 2.027738216381100074e+02 -1.255935198892100857e+01 -1.085710964996506505e+02 -1.424245498959149003e+01 -2.181169078901199754e+01 -1.497076095444436703e+02 -4.275904548923086423e+01 6.563882002750359845e+01 1.406359200711553399e+02 3.094580325262486653e+01 2.860267312757180846e+01 4.781635204720313226e+01 -3.822097236947075771e+01 -1.553902517058605781e+02 1.687603700280149255e+01 3.313605469611096765e+01 1.420543291500031842e+02 -1.066923785330425289e+01 -8.131106943108768803e+01 7.817150396925030975e+01 1.090789893844857250e+00 3.422855949778718099e+01 1.487933101459106240e+02 -1.896397247409026079e+02 -9.912579514896290789e+01 1.331678124434084793e+02 -2.238383183024581911e+02 -1.908129829945698361e+02 9.435561070588487098e+01 1.597727386195864199e+02 6.571417221772733797e+01 -4.583374914038396142e+00 1.616764775389217448e+02 -2.276641877025064957e+02 1.111772567705526313e+02 4.397554404485047286e+01 1.318509799639291487e+02 -1.956683060049264782e+02 1.106570746187350096e+02 -2.940590698900415489e+01 -1.387271035545516611e+02 -5.531590507284854574e+00 -9.589503162714885320e+01 -1.702555712259581355e+01 -4.374880537392578539e+00 -1.278097956276436378e+02 -1.279439724521653403e+02 -6.493669811444263473e+01 -1.337894276888958984e+02 2.085604044358301223e+02 -1.669628244971281674e+02 -5.203387803259889210e+01 1.790024018562998265e+02 3.519019012646973010e+01 -3.070711611066736850e+02 -1.317906363481164078e+02 3.688241508182714767e+01 5.667534823212458406e+01 8.994381125832013879e+00 -1.604740641460128643e+02 3.702845947570676799e+01 7.703729242890688056e+00 -7.711215002950609687e+01 2.102775566894922008e+02 2.102274962255817172e+02 4.473238534539158984e+00 -2.163189734000257545e+02 1.307301496828691540e+02 3.195134800703027977e+01 3.828528370845840190e+00 7.955467821246351434e+01 -2.152157455039696003e+02 -1.432355067089933698e+02 1.463647203805334982e+02 1.137359548881762237e+02 5.495157111446847864e+01 1.486545552830901045e+02 -1.849415037595211402e+02 -2.116285052415645396e+01 -1.353585617610681879e+02 4.513381990575497582e+01 -1.077427202825393664e+02 9.027604629834014816e+01 -3.509497595862157482e+01 1.284245762788052936e+01 1.840548626724509802e+02 2.949924371547837154e+01 -2.734320667069055730e+02 -1.310482098639927813e+02 -8.648946268018409000e+01 1.640175157800614443e+02 1.299762090298345818e+01 -5.574550213198887150e+01 3.158898373911853596e+01 6.489714260812381497e+01 -4.110450064795060143e+01 1.115407323079876960e+02 -1.044925683294844134e+02 5.105329819903965216e+01 1.161072711326900020e+02 -3.668463288257268573e+01 -1.017912501535940066e+02 -1.176045449286927749e+02 1.242336238167359284e+02 -5.148790688168932661e+01 2.039023867281345588e+02 5.934312337557188499e+01 1.151202674633211274e+02 1.911993125451489277e+02 8.888201835195184586e+00 -1.288822461994304547e+02 -1.720121506771773454e+02 -1.184908951803089536e+02 4.401915126534980516e+01
-1.383790319713686401e+01 -4.843602584875601913e+00 1.049732523113408291e+02 -2.320452466735628434e+02 1.574825619602481197e+02 6.440762645451697210e+01 1.541504107237561243e+02 -1.308588902740989113e+02 -2.840475702550495196e+00 -2.441434993941413367e+01 -2.223830733234615309e+02 3.320691872715578086e+01 -1.857812303073236393e+01 1.239016505298317412e+02 -1.266645548943117490e+02 6.252266911274087846e+01 1.270004294434092458e+02 -4.653835280377320061e+01 -5.040064572327926129e+01 -2.748225032990748318e+01 6.248909375042724434e+01 6.400618496068437935e+01 3.282267922882190447e+01 -2.356434900736829547e+02 -5.237693279727729134e+01 9.264687128073713041e+01 1.002328631580003027e+01 -1.045909870383288265e+01 -6.743326551079212550e+01 -1.561746061670805297e+01 7.431079153066373522e+01 -1.473386774409121074e+02 -6.267464188309214990e+01 9.139234853359937460e+00 2.101823768618449719e+02 2.148246014781197744e+02 -3.242193391396646263e+01 5.662831317695675892e+01 -2.964553227373796784e-01 -1.415331339926079011e+02 9.727126186439848254e+01 1.086868952972088351e+02 1.099668789472363812e+02 1.186631724388351827e+01 6.273677558239358376e+01 4.877099504493344284e+01 3.941144944322817878e+01 2.967542329620179942e+01 1.117599474517996470e+02 9.092865611171608009e+01 6.650259853282864242e+01 1.651138656642289675e+02 2.508123321659780913e+02 1.981397408045125701e+02 -5.989955005891043527e+01 4.991539281795219551e+01 -6.517444672165967745e+01 5.719708086343091935e+01 -1.946352031431440253e+02 5.725095109370039381e+01 -2.075178298429244137e+02 -1.709321048806772581e+02 1.310329038855409856e+01 -9.332918314545292304e+00 1.718065842474179306e+02 -2.106339504993076446e+02 7.629422156213915684e+01 2.328082324489041923e+02 -7.366453111326575431e+00 -1.972024245874392534e+02 3.611491987853792551e+01 1.998783796549576834e+02 -6.190228044192466683e+01 -2.699438289350779314e+02 -1.039289796914726054e+02 8.885535750074728512e+00 -2.331690711887909799e+02 3.238570482181066978e+01 -1.818829114422622126e+02 -1.881438187195185208e+02 -5.781545313286801502e+01 1.546301634600465889e+02 7.052557219271082545e+01 1.073860860353112656e+01 -8.981692272020276846e+01 -4.321382568002469071e+01 6.467884147601644429e+01 -2.353383743582975853e+02 5.488970440379483762e+01 -7.616604750497413079e+01 -7.919564785733717827e+01 -1.793712342283791372e+02 6.609376009077591618e+01 9.417411784105010497e+01 -1.647458715416695156e+02 1.752932684859235621e+02 -4.051918505045493646e+01 -1.716469457245287700e+01 8.879840842451196181e+01 1.586218277741297982e+02 2.195553870171411859e+01 1.537119023652913370e+02 -1.870605357983218653e+01 -9.208412376966930424e+01 -1.992973838013840293e+01 1.026445683728425706e+02 4.693084560546003559e+01 1.020875424521977664e+02 9.853587391873870160e+01 -8.663033493927737538e+01 -1.773248575011640185e+02 1.284381169278956918e+02 5.663918725689884326e+01 1.680101577470097851e+01 3.192589023819554228e+01 -7.090095338181475881e+01 1.002592847947304193e+02 9.375093870282879038e+01 -1.422122014909923671e+01 -7.435703431271278419e+01 3.218664441070480819e+01 6.539011048417665783e+00 -6.430090791326760780e+01 1.770000311851388517e+02 -3.458321693730287194e+01 1.270105431913755041e+02 -7.325424339536115781e+01 4.009366646972246429e+01 -3.777228465765232102e+01 9.343623699319552145e+01 2.455376856340491187e+01 1.207558039890188297e+02 -1.211745354480570285e+02 7.769051021683485203e+01 1.290921048570396863e+02 -4.676690122363700652e+01 7.868876761695260846e+00 -1.313989320133196692e+01 1.220409685281210699e+02 3.605261266378787965e+00 1.764446398651909647e+02 -1.478860293383580995e+02 1.220757223896648469e+02 -9.561261776801843837e+01 1.001230354237341089e+02 -1.433832433032927156e+02 3.090203818267855240e+01 2.587372319585518810e+01 1.940461485889941606e+00 3.800395516228972781e+01 4.795753798339739404e+01 -1.305933766028227083e+01 1.121970551457025067e+01 1.131541866423334142e+02 1.332708416582276243e+02 -9.071431892856894308e+01 -5.682932144506200700e+01 4.964696785271147661e+01 1.638817764778488506e+00 -1.434115287756022497e+02 -5.765280200661516830e+01 -3.719872938472207125e+01 5.128163705405081885e+01 -6.873769052274367652e+01 2.405153690454996251e+01 1.680621039034370199e+02 -8.332412966147563793e+01 8.464449594061657933e+01 8.820034114704753847e+01 1.172310451128887188e+01 1.294377027451855042e+02 6.596266112689218630e+01 1.762958111039423272e+02 -3.618359495012619220e+01 1.180494240000758737e+02 5.827395645191578666e+01 -1.689338656586900100e+01 2.142916830812843614e+02 -1.457776164150422176e+02 5.131546225238346892e+01 -1.970006637342522140e+02 -8.844758772205426567e+01 4.307724189148088811e+01 -7.586215853203920290e+01 -1.638217666873150904e+02 2.094890518087361784e+02 -9.017633935510342269e+01 -4.992385723183623725e+01 -4.866771190897815558e+01 1.280147712397082671e+02 2.048470506279433891e+02 6.811018332892797389e+01 1.538224629696130421e+02 2.307995472075341752e+02 -1.740644855711436012e+00 1.714065250739651844e+02 7.457962039114335084e+01 2.002909069473109298e+02 -1.322820363269107133e+02 -1.252674972290817657e+01 6.644033027866290908e+00 1.998612544118629444e+02 -9.568147043330468193e+01 -6.355240129108925373e+01 -5.572787681876858557e+01 -1.408547631423110431e+02 4.896481916972160953e+00 -1.062087008772510757e+02 1.620509089142470884e+02 2.482626862721616590e+01 1.265998971440650678e+01 7.607960265037790748e+01 -5.223761914545324458e+00 1.229814626633553729e+02 -1.670788169005616055e+02 4.774140594290202699e+01 -1.798177644571508438e+02 1.235409172543956515e+02 1.009383845378904425e+02 -7.085891118146379597e+01 4.915699215662364452e+01 2.505327173058175561e+02 -3.201739197780621282e+01 4.384108171621325312e+01 -3.436400519934949216e+01 6.094437941183083041e+01 6.766578849710168697e+01 -6.581998509122438001e+00 1.072702837172285086e+02 1.068661094691215112e+02 -2.039685956835215848e+02 -1.612195983683970724e+02 -1.260049542308913146e+02 -9.974959151215434972e+00 -1.576135435062884937e+02 1.215426491237399631e+02 1.161180571823246197e+02 6.199453509681223551e+01 1.173458753917166675e+01 1.658838634811360180e+02 8.831807422206833280e+01 7.097192498537731353e+01 -1.069565916564013577e+02 1.601363773891072242e+02 -3.729159625501223818e+00 1.149426087802499410e+02 9.263619469636049431e+00 3.864712705356166111e+01 -7.964565274027704334e+01 -9.545710128744346434e+01 7.526313323771272223e+01 -3.994738686174340359e+00 1.538413246084806190e+02 -1.324247028554309225e+01 -3.019221321068362496e+00 4.820225741781375461e+01 2.382148850913501192e+01 1.486354815965128466e+02 1.531321611261800619e+01 3.764667007620912642e+01 -1.625974585195959037e+02 6.922490759477257427e+01 1.404441647805318496e+02 -1.865585328442213608e+01 -2.394885335403571673e+02 8.864141172636392696e+01 1.428184683999170659e+02 2.123707977649897316e+01 1.980252263538259285e+02 -4.236581968858230240e+00 4.495686968858126420e+01 -4.558813399470788852e+01 -1.451582768918412967e+02 5.853527037398578159e+01 -4.962951944845362817e+01 -8.482605562410061850e+01 4.306738500245208456e+01 -1.931610348609237064e+02 7.502286486659737363e+01 1.716502923101383828e+02 -1.057390948504928900e+02 1.805636405475279957e+02 -1.020358385788864410e+02 -6.272470944760730305e+00 -1.094893765496845184e+01 7.989600191615511449e+01 -4.854563350541562272e+01 -1.125036493213023192e+02 -9.228356304205532012e+01 1.519746356934182643e+02 6.160527108074513336e+01 -1.372089675873115198e+02 4.652814188675018947e+00 4.529222434197794200e+01 8.603244583859503791e+01 -4.202071973985914610e+01 6.252369327537659416e+01 -7.182780031001821897e+01 -1.691314879742039921e+02 -3.607561855652812710e+01 1.468047894661725934e+02 -1.179754145676591435e+02 -6.718261286391403964e+00 -1.696513014978487206e+02 -4.900208301627873908e+00 -1.518093062424752588e+02 3.418313659760458023e+01 6.250762814941228385e+01 -5.237201003561575163e+01 -8.574877112544979241e+01 5.845635985060292583e+00 7.736455454629019357e+01 -7.048209959576935546e+01 1.401115314317145248e+02 1.096421097058712775e+02 -1.327068389448120627e+02 -1.096048197068341779e+02 1.404047261050143618e+02 7.418037260582615033e+01 1.560502744215089308e+02 1.043123290441820217e+02 8.436277967221234064e+01 -6.257893244965673318e+01 -8.496312458352421970e+01 -8.005760080077948260e+01 2.123287128914991229e+02 3.162471635916269364e+01 -2.582182717670814043e+01 -7.117427079394498435e+01 -5.198289563397474922e+01 -1.360762732404368478e+02 -1.715074681350662544e+01 -1.812949518896261338e+02 1.292323328286403239e+02 4.760118780443782072e+01 -1.191252490575615610e+02 -4.998044348013998928e+01 1.237612190441720657e+02 -1.002782229107085215e+02 1.062375959105540062e+02 -1.223699038652740683e+02 -1.214410393289286638e+01 -9.867486908989789640e+01 9.265049282533266251e+01 -4.390092815014164529e+01 1.073706354354258785e+01 3.026908153525621614e+01 -1.308577603852876621e+02 1.291931893018386823e+01 4.988231047674510421e+01 -2.320318536434394119e+01 -7.100788511173446693e+01 2.090657918437170508e+02 8.926439167469796132e+01 4.870944231312153505e+01 -3.245772679602893618e+01 8.289314336513248804e+01 1.730504695902908452e+02 -9.534912310905312438e+01 2.162409379215660579e+02 -1.374216061380933240e+02 -1.899385953135920602e+02 1.568587255523370629e+02 -2.415275665208075395e+02 -1.074583393076458560e+00 -2.528545376721165212e+02 -1.579248110700106906e+02 7.406301672979519424e+01 -1.504019978668556519e+02 6.029235741252838210e+01 1.133831851133636235e+02 -1.656256443490424317e+02 -3.116055175794506837e+01 7.782534888465660572e+01 1.382848605328477447e+02 -1.920658272027563669e+02 9.025098338430683498e+01 -1.011040488592914670e+02 -1.022183438208920414e+01 -1.437219255115139305e+01 -8.217784128630283647e+01 -9.326517684681196840e+01 1.872241725561833334e+02 -2.233853513344056552e+01 1.354810197739604982e+00 1.344272759767597165e+02 -8.943932331283050985e+01 -3.554252569054372657e+01 -1.111341917748034973e+02 -5.046601399809862443e+01 5.387547325271481391e+00 6.139270587678363000e+01 -1.396559220549926579e+02 2.453224302020720984e+02 -5.580779970570878845e+01 1.270624971422713116e+02 -5.057142039328371652e+01 1.241331849732088273e+02 1.440323555441502492e+02 4.980975682223562018e+01 1.266023720875109433e+02 -4.480651893420390763e+01 1.451045322267995346e+02 -1.621493718728059434e+02 -6.779924540705627578e+01 -6.530322002342387577e+01 2.642848882474109118e+01 -1.683444152600491748e+02 7.526525859666124063e+01 -3.197778597941492507e+01 -8.572129695133237703e+01 9.297906444992223385e+01 -1.567292604175851523e+02 -9.459363243436013136e+01 -5.451173630668773029e+01 3.433046388669664850e+01 1.346927160389003006e+02 1.212853141136148736e+02 7.175783392013848072e+01 -1.721256942968263370e+00 1.813300875108494381e+02 1.270985968992013966e+02 -9.790303910523800823e+01 -8.112520644738535225e+01 5.774768810127206820e+01 1.040228291862887389e+01 1.016260782317678064e+02 1.727842397919392283e+02 7.318773272969400523e+01 2.523187542237849001e+01 -1.059429389222323437e+02 1.782079323294335325e+02 -1.178997946552189120e+02 -1.713854190118184420e+02 6.812262928174520482e+01 1.155485408370308420e+02 2.032280544265564615e+01 -1.439129348374716244e+02 3.085039148063430758e+01 4.399781266553935666e+01 -2.771131880388174595e-01 1.356408890551918489e+02 1.009337459595352584e+02 1.771461816702603542e+01 8.116493604189076905e+01 -1.109514254839789089e+02 -6.473250689379783651e+00 1.018239256742828616e+02 3.073082517332446528e+01 -6.736170931814372409e+01 2.050309004300398783e+02 2.392847757350446898e+02 -1.300334865877011623e+02 -2.855106923669708507e+01 -2.176856656461541206e+02 -7.472544573350015185e+01 1.621915280251229490e+02 3.573767937481463264e+00 -7.347129943765877158e+01 1.695798708543507018e+02 -6.473907554193252167e+01 -1.661896121578835732e+02 1.412980886943310850e+02 -6.960128428764549824e+01 3.558587187940556618e+01 8.938743687745278521e+01 1.423981822624046423e+01 -2.464230255675149976e+02 4.370602946405254130e+01 -6.293154662575034308e+00 9.313752378654048414e+01 -2.436530804172123865e+01 1.047059840271184754e+02 1.751309618498074272e+01 -8.775077577463319756e+01 -2.116473778872699896e+01 -1.811948657521567725e+02 1.189472011866837846e+02 2.611913615241662612e+01 -4.307076896165892776e+01 -5.360024109942351345e+01 -6.496590799329207755e+01 4.247363564849544559e+01 1.661651116697155146e+02 1.372465338030031603e+02 4.457456646274156498e+01 -2.046079988368306033e+02 -4.011433657486341531e+01 4.529190477646069724e+01 1.213791965120700667e+02 9.025789477625261270e+01 1.600600592829312419e+01 -1.924260699590231241e+02 1.362795617607721681e+02 -2.314302685187025475e+02 -2.128519091790278424e+02 -1.936012308762444345e+00 -7.631267274998255346e+01 -2.485361818755701435e+01 9.012989283904819615e+01 5.784236693435167354e+01 -1.150512247395896566e+02 -1.566033881215639383e+02 1.511243479135591627e+01 1.279336325362916398e+02 2.145964762317150232e+01 -5.865498184268865600e+01 -5.333332211632679076e+01 -1.226349745741151231e+01 1.669022057581381659e+02 2.315772808560259932e+01 -1.827528463762899378e+02 1.349734237331832389e+02 -7.027239898364796034e+01 -4.400279940926644429e+00 1.621261398778306386e+02 -5.510852444477572476e+01 -2.059951397363536429e+01 -1.156508688318742344e+02 -6.338700214754040552e+00 -2.513601806294850860e+01 1.387219334792554832e+02 1.264827200537504979e+02 7.115329870215448693e+01 6.882532196730238638e+01 -1.971085220461695542e+01 1.424410668510218727e+02 -1.186783390622772458e+02 -4.501421262527744993e+00 -9.586989586739741753e+01 1.655258621081365220e+02 7.682145609420594212e+01 5.447021447283265871e+01 8.752798065193148958e+00 -5.606294484895694552e+01 3.620594810072682890e+01 7.143974296615251518e+00 3.716520640784799046e+00 2.541764446035589842e+01 6.293724158560009840e+01 1.792392706891356795e+02 -4.083025005502140203e+01 -5.475787709033305362e+01 7.029739588989446020e+01 1.217902234965672790e+02 -1.347485690474150211e+01 9.672577882639903635e+01 1.094227130884179644e+02 2.217933804422835067e+02 -9.111642851003264809e+01 -1.291814988652358807e+02 -3.012943748775988695e+01 6.536875974175607951e+01 -1.067711711884503245e+01 1.130627724382944450e+02 3.916302171607744498e+01 -1.711563389865211775e+02 4.742942512197691229e+01 -9.413965780392965144e+01 -1.423752002081199919e+02 1.415106561693233687e+02 -7.994138097659464393e+01 6.216750128631863959e+01 1.170371020298318570e+02 -1.042252239156139382e+02 2.464844723767750523e+01 -7.588917274344510133e+01 4.230026404327049505e+01 -1.204045078542847449e+02 6.468834584662027964e+01 5.744094077013502897e+01 4.190455468582254817e+00 8.841782844771596217e+01 -1.608063442199918143e+02 8.028694545152262663e+01 -3.065513498065558551e+01 -1.762670296584577159e+02 9.852491840143457580e+01 2.554378176041006654e+01 -2.047368837282407412e+02 2.453906156489168495e+02 -5.434179283535772731e-01 1.097496149921765181e+02 -1.258413070418079229e+02 -2.026345243502701692e+02 -9.736026366690531120e+01 2.549522424615137783e+00 1.491475931720260064e+02 4.239826183007616045e+00 -9.969987442615642692e+01 5.266675289449579367e+01 1.429957715526093409e+02 6.783775876654314629e+01 -5.402630506653446929e+01 -6.169533291024625754e+01 8.818205083658882870e+01 3.213287747536224970e+01 -2.039757868515804660e+02 -2.163805382826247481e+01 1.763915791123632459e+02 1.031759198481607029e+02 -5.978112854864598802e+01 -1.166570004293660503e+02 -4.454790989402002310e+01 -5.016563902827312660e+01 -1.194243421358633555e+02 -1.935029465529460069e+01 -4.765231833676420337e+01 -1.185392164681196476e+02 -1.375429355237802440e+02 -2.805374067869416521e+01 -1.310878552597027635e+02 -1.395095270216681627e+02 -3.999398154999914823e+01 -5.778971557943790316e+01 -1.157683773142110226e+02 2.012852416866548424e+02 1.139953907564583702e+01 -3.043383393995194908e+01 -1.840924797044251804e+01 8.506203838494383263e+01 1.689420722146426712e+01 2.708616545918726359e+01 -2.308692032416337270e+01 -4.991388429013839811e+01 2.263681435680364018e+01 -1.571569189294660305e+02 -1.721683077865831706e+02 -9.786622042519613274e+01 -2.063691558560287547e+02 -9.693913439455644721e+01 9.284862380901526535e+01 6.636504575735570199e+01 -2.820355695693129405e+01 6.571912722983505262e+01 -1.692475356968233768e+02 -4.405259036433023567e+01 -1.255487537111493737e+02 -7.219500868800609794e+01 2.280175332838792883e+02 -2.219905198372532880e+02 2.219775127986416976e+02 2.707979219993701747e+01 -6.111486297725173245e+01 9.982671015236920198e+01 1.341901639643888018e+02 -5.612095442150960167e+01 -2.202497571170733295e+02 -1.612395692214128928e+02 1.105662709302382183e+02 9.058590072965185414e+01 -1.466520261047769509e+02 3.459677677193088385e+01 -4.285561332015766567e+01 -8.369738381844202024e+01 -3.073276603192690004e+01 -5.931581045335918390e+01 -9.351024643792418090e+01 -3.676766298216697493e+01 4.774403462863073599e+00 -3.544077631959615360e+01 -4.672276274732162782e-01 -1.559123767563483121e+01 9.952785319285349885e+01 1.373758189261895382e+02 1.425585641350905064e+01 1.813472373044049846e+01 -6.818949032240779218e+01 -2.119107601405414698e+02 3.661844629752017966e+01 -9.923339796346709818e+01 2.791076193267937455e+01 -8.932596799798009357e+00 1.039836295687878831e+00 7.800651468573177283e+01 1.317770575853113257e+02 -7.615792868856530617e+01 4.109073101733454081e+01 -2.084359184846655069e+02 1.042912382972804686e+01 7.662659297723545926e+00 -1.324955729713518906e+02 -3.649695027165258665e+01 -4.793190479856521335e+01 5.173591438246915253e+00 -1.105883821492869714e+02 2.926551732445150833e+01 -1.056121291493132759e+02 6.077534573149609542e+01 7.332660874886860825e+01 3.985325378560540344e+01 -3.138361596991723346e+01 1.161402057718543404e+02 6.598562642227513209e+01 8.646951793864933222e+01 -7.239632726886864589e+01 2.200772931028594925e+01 1.382655055061077292e+02 -6.316616620283766537e+01 -7.463505721011864935e+00 3.458599334240733469e+01 -1.387249954187848289e+02 1.057332863550344229e+02 9.678743508586423161e+01 -1.092063748281900928e+02 -8.898191901996381148e+01 -5.995378854121857870e+01 -4.910639395492366077e+01 -1.731893334969784632e+02 -1.468455417645980958e+02 -1.430402383640908113e+02 1.140971868580302981e+02 6.448791019667092428e+01 1.721918523973224922e+02 7.752564105728006361e+00 -9.263818043345462172e+01 2.017858292607812487e+01 1.493745411138166013e+01 -6.846129658634923487e+01 7.990329367183034037e+01 1.273919725287242102e+02 1.082893887914457309e+01 1.547963693042093496e+02 2.431659459470142792e+01 1.197146002065231016e+02 1.632350232451507566e+01 -2.240907050238281784e+02 2.355079881947440015e+02 -5.277541440778348658e+01 -1.608823127337892629e+02 -7.244903334711491993e+01 -4.636992275384576345e+01 4.430671070804626055e+01 2.743159876809831133e+01 4.900344177820898039e+01 -7.949945946838079180e+01 1.311415279315474152e+02 -9.242021264926256663e+01 -7.506162482673699898e+00 1.526473788151672011e+02 1.174499547099982522e+02 6.203942745802422110e+01 -1.894527521237793337e+02 2.721494740553965386e+01 1.502439423625904169e+02 2.507930839323205774e+01 1.043218743505924948e+02 1.137537721968104023e+02 -2.257178308680143459e+02 8.214488800811828639e+01 -6.166064920907513169e+01 -2.399857120589688293e+02 9.438396572652150951e+01 2.621370647444623003e+01 -1.295081199842858837e+02 -6.207559731385135393e+01 1.469792152904455804e+02 1.558867711259232465e+02 -7.996801374913742677e+01 -1.347273054338673433e+02 -8.789786318774204688e+01 -1.745430527741626463e+02 2.054708981982072658e+01 3.978530410944386375e+01 -1.770952825588053514e+01 -1.296099481317918389e+01 -9.366612215624741111e+01 -9.253168468193725005e+01 -2.574009246262775363e+01 1.395719204353338228e+02 1.419568546966284828e+02 8.444730526988281838e+01 1.009098973233385550e+02 -8.173458246693233775e+01 -1.873105003684840142e+02 -1.377389654265134666e+01 -2.407688854041786541e+01 -7.350398814979813267e+01 1.569706035710134673e+00 7.570405253833369841e+01 -5.483236759123588655e+01 2.543766105769516983e+01 8.198792276557891512e+01 7.258117668305452241e+01 1.144250337469876087e+02 -1.545239509683869699e+02 4.106368639908165363e+01 8.627661846725965233e+01 9.813418883702718176e+01 6.120610629085041410e+01 -1.069211324609289733e+02 1.418314265728307930e+02 1.319653619297519640e+02 9.922710276132819729e+01 1.051364040302141234e+02 -8.724549062672194566e+01 -1.542019491087436833e+01 -1.335687103716766799e+01 7.983416178805306629e+01 6.727239160196521084e+01 5.789546702158450131e+01 1.010895370594568732e+02 1.205809508620271515e+02 1.281899033191605497e+02 -6.730587686224481558e+01 8.344263375454917764e+01 6.759307715008188211e+01 -1.218408114891115019e+02 1.362834298405178686e+02 -1.041696836170806151e+01 -2.890058914948247448e+01 2.063545539347763906e+02 9.159435735880435914e+01 1.285212064223442781e+02 -1.495076859280290194e+02 -1.634685899049098907e+02 -1.594243795356701696e+02 -1.266626861355709082e+02 -4.590783224308620447e+01 1.139322166416988438e+02 -1.748806918806685644e+02 3.377709990128783346e+01 1.497738653838182756e+02 -6.155999981755058315e+01 -9.482757389049585584e+01 -3.642095015527413437e+01 1.411259208596127337e+02 2.360778065835507675e+02 -6.914744229011776611e+01 2.057025197509415548e+01 -2.880334961522600068e+01 7.115570834228284980e+01 6.265637319614196343e+01 -2.216130031124428967e+02 -9.215194206369817209e+01 1.430027897033123736e+02 1.453655757311079242e+02 9.830878464446483633e+01 -5.175330399343666699e+01 -7.887691797426896301e+01 -4.728025901868402769e+01 -1.835835554086421837e+02 7.407235957033255147e+01 -2.674166119645191131e+01 1.731610701759326219e+02 -2.904104933941675881e+01 -3.273307197450949388e+02 1.508294938096277349e+02 5.246138787743515053e+01 -1.228512978173081365e+02 -2.300931107487774696e+01 3.678913482682497715e+01 -2.162383759375328793e+02 -1.190523048634195078e+02 -1.140828713705905955e+02 -5.884198398368002358e+01 6.545828906416232940e+01 -1.716580366817507297e+02 1.124986984821135678e+02 -5.658166638660901526e+01 3.008907783634121369e+00 -1.390175016401096570e+02 -1.078625013139429143e+02 1.832809064486516775e+02 9.031250830587210032e+01 -4.402515340520252352e+01 3.878961305080175492e+01 -2.926744811255434442e+01 4.497724206370452293e+01 -1.090659304621217700e+02 1.029554910957863285e+02 5.269784279573045893e+01 -1.240120237945723147e+02 1.217738443865638942e+02 -5.129062799907642756e+01 1.042270687305952919e+02 -5.155734699321366321e+01 9.223119953091439527e+01 -1.600686520647583109e+02 1.488449573219618856e+02 2.586080330088351431e+01 1.049863003475967531e+02 1.360716601434056940e+02 -1.530251617546254863e+02 -8.963636092750623163e+01 -1.102391772176700755e+02 6.982432200984294468e+01 -1.788528506968874581e+02 1.580551408699918454e+02 1.487163879025565336e+02 5.533513392067690972e+01 -8.863969652646696318e+01 5.955992830466360743e+01 -1.119950390584855313e+02 -1.147554689460887545e+01 3.656317933570439749e+01 -1.919024871543311974e+02 -8.525832227093187043e+01 -1.413940660569792307e+01 1.068058779054061347e+02 -5.243590428498441014e+01 1.135116138054327592e+02 -6.725138752018804666e+01 -2.203305434665714131e+02 -1.119292054855698950e+02 -3.567458911823739243e+01 -6.293093226196754131e+01 3.148428008533996447e+01 5.364738119558578688e+01 6.658628279270329742e+00 2.635617449718099081e+01 -1.225718584362053747e+02 5.622665148952419401e+01 3.410800031320885495e+01 -7.553560334768268092e+01 9.654561344042308590e+00 5.882247914096954133e+01 -9.981536577625114148e+01 -5.758077439422761046e+01 -2.521370212507034481e+01 1.021396109135167904e+02 -1.791703748720437872e+01 4.383966491642603991e+00 -2.385369001765814403e+02 -9.947979659435979727e+01 1.035075615656821100e+02 -9.347181876682232371e+01 3.280784940733332888e+01 3.252646246284278675e+01 3.975836362799393697e+01 6.917970130601358392e+01 -1.857585430902493044e+02 1.506849099202817399e+02 8.519742206471048007e+01 -7.835364453351125746e+00 -8.460234166861951621e+01 1.172437666198639903e+02 6.500725696430339440e+01 -2.104920397117357993e+02 -5.277430544715361549e+01 -8.549799990429279717e+01 -5.433457958806697263e+01 -6.490520127601524791e+01 -1.037928760818249003e+02 -6.323741525533452545e+01 2.004727215003850063e+02 -1.789051896046985348e+02 6.860228177983358933e+01 2.904679100455278373e+01 -7.871103853856716626e+01 1.085253702323643843e+01 -4.125119614501672771e+01 3.574047601903934002e+00 -1.006514133261828192e+02 -2.068732577478062353e+02 1.926106552662567495e+01 4.392519169178189031e+01 -1.341118565708176291e+01 -9.528182380812543428e+00 -4.167135648450434360e+01 -1.989881415992366840e+02 -3.213191974631195791e+01 -6.848934650156843418e+01 1.467535533259305858e+01 -1.634331970298315184e+01 9.479919468932287430e+01 -6.602863327575734331e+01 -1.086613958039697536e+02 -3.751245160875239293e+01 -9.491890770406232747e+00 4.776694198745796172e+01 -2.323210977773790376e+01 -7.715053714887937986e+01 -1.661947014138256051e+01 2.105772361203518983e+01 4.977638570420065633e+01 -1.195112259997776931e+02 -1.457118080379856337e+02 2.413692318442416536e+02 -2.287240768337010195e+02 -7.963722417649778151e+01 -4.860485443554559026e+01 1.466054386851317304e+02 6.633506766852640624e+01 2.397899034715353821e+02 2.565069805781304240e+02 -6.529854034092053894e+01 1.357491514849610041e+02 -5.854546626928970454e+01 -4.276054058412885439e+01 -1.055449187606676560e+02 -8.370046454463289365e+01 -7.296946275391830738e+01 -9.324733922678107945e+01 -2.555190599130966405e+02 -2.839899868459681329e+02 1.412267247884131507e+02 -2.779096154532161833e+01 5.582872911037548391e+01 1.371208526806776149e+02
