# 
#                 ----------------------------------------------------
#                 Data from a 3D direct N-body simulation. 
# 
#                 rows are i-particle; 
#                 coumns are :mass, tag, x ,y, z, vx, vy, vz, ax, ay, az
# 
#                 NTHU, Computational Physics Lab
# 
#                 ----------------------------------------------------
#                 Time = 8.399999999999865
1.000000000000000000e+00 2.000000000000000000e+00 3.000000000000000000e+00 4.000000000000000000e+00 5.000000000000000000e+00 6.000000000000000000e+00 7.000000000000000000e+00 8.000000000000000000e+00 9.000000000000000000e+00 1.000000000000000000e+01 1.100000000000000000e+01 1.200000000000000000e+01 1.300000000000000000e+01 1.400000000000000000e+01 1.500000000000000000e+01 1.600000000000000000e+01 1.700000000000000000e+01 1.800000000000000000e+01 1.900000000000000000e+01 2.000000000000000000e+01 2.100000000000000000e+01 2.200000000000000000e+01 2.300000000000000000e+01 2.400000000000000000e+01 2.500000000000000000e+01 2.600000000000000000e+01 2.700000000000000000e+01 2.800000000000000000e+01 2.900000000000000000e+01 3.000000000000000000e+01 3.100000000000000000e+01 3.200000000000000000e+01 3.300000000000000000e+01 3.400000000000000000e+01 3.500000000000000000e+01 3.600000000000000000e+01 3.700000000000000000e+01 3.800000000000000000e+01 3.900000000000000000e+01 4.000000000000000000e+01 4.100000000000000000e+01 4.200000000000000000e+01 4.300000000000000000e+01 4.400000000000000000e+01 4.500000000000000000e+01 4.600000000000000000e+01 4.700000000000000000e+01 4.800000000000000000e+01 4.900000000000000000e+01 5.000000000000000000e+01 5.100000000000000000e+01 5.200000000000000000e+01 5.300000000000000000e+01 5.400000000000000000e+01 5.500000000000000000e+01 5.600000000000000000e+01 5.700000000000000000e+01 5.800000000000000000e+01 5.900000000000000000e+01 6.000000000000000000e+01 6.100000000000000000e+01 6.200000000000000000e+01 6.300000000000000000e+01 6.400000000000000000e+01 6.500000000000000000e+01 6.600000000000000000e+01 6.700000000000000000e+01 6.800000000000000000e+01 6.900000000000000000e+01 7.000000000000000000e+01 7.100000000000000000e+01 7.200000000000000000e+01 7.300000000000000000e+01 7.400000000000000000e+01 7.500000000000000000e+01 7.600000000000000000e+01 7.700000000000000000e+01 7.800000000000000000e+01 7.900000000000000000e+01 8.000000000000000000e+01 8.100000000000000000e+01 8.200000000000000000e+01 8.300000000000000000e+01 8.400000000000000000e+01 8.500000000000000000e+01 8.600000000000000000e+01 8.700000000000000000e+01 8.800000000000000000e+01 8.900000000000000000e+01 9.000000000000000000e+01 9.100000000000000000e+01 9.200000000000000000e+01 9.300000000000000000e+01 9.400000000000000000e+01 9.500000000000000000e+01 9.600000000000000000e+01 9.700000000000000000e+01 9.800000000000000000e+01 9.900000000000000000e+01 1.000000000000000000e+02 1.010000000000000000e+02 1.020000000000000000e+02 1.030000000000000000e+02 1.040000000000000000e+02 1.050000000000000000e+02 1.060000000000000000e+02 1.070000000000000000e+02 1.080000000000000000e+02 1.090000000000000000e+02 1.100000000000000000e+02 1.110000000000000000e+02 1.120000000000000000e+02 1.130000000000000000e+02 1.140000000000000000e+02 1.150000000000000000e+02 1.160000000000000000e+02 1.170000000000000000e+02 1.180000000000000000e+02 1.190000000000000000e+02 1.200000000000000000e+02 1.210000000000000000e+02 1.220000000000000000e+02 1.230000000000000000e+02 1.240000000000000000e+02 1.250000000000000000e+02 1.260000000000000000e+02 1.270000000000000000e+02 1.280000000000000000e+02 1.290000000000000000e+02 1.300000000000000000e+02 1.310000000000000000e+02 1.320000000000000000e+02 1.330000000000000000e+02 1.340000000000000000e+02 1.350000000000000000e+02 1.360000000000000000e+02 1.370000000000000000e+02 1.380000000000000000e+02 1.390000000000000000e+02 1.400000000000000000e+02 1.410000000000000000e+02 1.420000000000000000e+02 1.430000000000000000e+02 1.440000000000000000e+02 1.450000000000000000e+02 1.460000000000000000e+02 1.470000000000000000e+02 1.480000000000000000e+02 1.490000000000000000e+02 1.500000000000000000e+02 1.510000000000000000e+02 1.520000000000000000e+02 1.530000000000000000e+02 1.540000000000000000e+02 1.550000000000000000e+02 1.560000000000000000e+02 1.570000000000000000e+02 1.580000000000000000e+02 1.590000000000000000e+02 1.600000000000000000e+02 1.610000000000000000e+02 1.620000000000000000e+02 1.630000000000000000e+02 1.640000000000000000e+02 1.650000000000000000e+02 1.660000000000000000e+02 1.670000000000000000e+02 1.680000000000000000e+02 1.690000000000000000e+02 1.700000000000000000e+02 1.710000000000000000e+02 1.720000000000000000e+02 1.730000000000000000e+02 1.740000000000000000e+02 1.750000000000000000e+02 1.760000000000000000e+02 1.770000000000000000e+02 1.780000000000000000e+02 1.790000000000000000e+02 1.800000000000000000e+02 1.810000000000000000e+02 1.820000000000000000e+02 1.830000000000000000e+02 1.840000000000000000e+02 1.850000000000000000e+02 1.860000000000000000e+02 1.870000000000000000e+02 1.880000000000000000e+02 1.890000000000000000e+02 1.900000000000000000e+02 1.910000000000000000e+02 1.920000000000000000e+02 1.930000000000000000e+02 1.940000000000000000e+02 1.950000000000000000e+02 1.960000000000000000e+02 1.970000000000000000e+02 1.980000000000000000e+02 1.990000000000000000e+02 2.000000000000000000e+02 2.010000000000000000e+02 2.020000000000000000e+02 2.030000000000000000e+02 2.040000000000000000e+02 2.050000000000000000e+02 2.060000000000000000e+02 2.070000000000000000e+02 2.080000000000000000e+02 2.090000000000000000e+02 2.100000000000000000e+02 2.110000000000000000e+02 2.120000000000000000e+02 2.130000000000000000e+02 2.140000000000000000e+02 2.150000000000000000e+02 2.160000000000000000e+02 2.170000000000000000e+02 2.180000000000000000e+02 2.190000000000000000e+02 2.200000000000000000e+02 2.210000000000000000e+02 2.220000000000000000e+02 2.230000000000000000e+02 2.240000000000000000e+02 2.250000000000000000e+02 2.260000000000000000e+02 2.270000000000000000e+02 2.280000000000000000e+02 2.290000000000000000e+02 2.300000000000000000e+02 2.310000000000000000e+02 2.320000000000000000e+02 2.330000000000000000e+02 2.340000000000000000e+02 2.350000000000000000e+02 2.360000000000000000e+02 2.370000000000000000e+02 2.380000000000000000e+02 2.390000000000000000e+02 2.400000000000000000e+02 2.410000000000000000e+02 2.420000000000000000e+02 2.430000000000000000e+02 2.440000000000000000e+02 2.450000000000000000e+02 2.460000000000000000e+02 2.470000000000000000e+02 2.480000000000000000e+02 2.490000000000000000e+02 2.500000000000000000e+02 2.510000000000000000e+02 2.520000000000000000e+02 2.530000000000000000e+02 2.540000000000000000e+02 2.550000000000000000e+02 2.560000000000000000e+02 2.570000000000000000e+02 2.580000000000000000e+02 2.590000000000000000e+02 2.600000000000000000e+02 2.610000000000000000e+02 2.620000000000000000e+02 2.630000000000000000e+02 2.640000000000000000e+02 2.650000000000000000e+02 2.660000000000000000e+02 2.670000000000000000e+02 2.680000000000000000e+02 2.690000000000000000e+02 2.700000000000000000e+02 2.710000000000000000e+02 2.720000000000000000e+02 2.730000000000000000e+02 2.740000000000000000e+02 2.750000000000000000e+02 2.760000000000000000e+02 2.770000000000000000e+02 2.780000000000000000e+02 2.790000000000000000e+02 2.800000000000000000e+02 2.810000000000000000e+02 2.820000000000000000e+02 2.830000000000000000e+02 2.840000000000000000e+02 2.850000000000000000e+02 2.860000000000000000e+02 2.870000000000000000e+02 2.880000000000000000e+02 2.890000000000000000e+02 2.900000000000000000e+02 2.910000000000000000e+02 2.920000000000000000e+02 2.930000000000000000e+02 2.940000000000000000e+02 2.950000000000000000e+02 2.960000000000000000e+02 2.970000000000000000e+02 2.980000000000000000e+02 2.990000000000000000e+02 3.000000000000000000e+02 3.010000000000000000e+02 3.020000000000000000e+02 3.030000000000000000e+02 3.040000000000000000e+02 3.050000000000000000e+02 3.060000000000000000e+02 3.070000000000000000e+02 3.080000000000000000e+02 3.090000000000000000e+02 3.100000000000000000e+02 3.110000000000000000e+02 3.120000000000000000e+02 3.130000000000000000e+02 3.140000000000000000e+02 3.150000000000000000e+02 3.160000000000000000e+02 3.170000000000000000e+02 3.180000000000000000e+02 3.190000000000000000e+02 3.200000000000000000e+02 3.210000000000000000e+02 3.220000000000000000e+02 3.230000000000000000e+02 3.240000000000000000e+02 3.250000000000000000e+02 3.260000000000000000e+02 3.270000000000000000e+02 3.280000000000000000e+02 3.290000000000000000e+02 3.300000000000000000e+02 3.310000000000000000e+02 3.320000000000000000e+02 3.330000000000000000e+02 3.340000000000000000e+02 3.350000000000000000e+02 3.360000000000000000e+02 3.370000000000000000e+02 3.380000000000000000e+02 3.390000000000000000e+02 3.400000000000000000e+02 3.410000000000000000e+02 3.420000000000000000e+02 3.430000000000000000e+02 3.440000000000000000e+02 3.450000000000000000e+02 3.460000000000000000e+02 3.470000000000000000e+02 3.480000000000000000e+02 3.490000000000000000e+02 3.500000000000000000e+02 3.510000000000000000e+02 3.520000000000000000e+02 3.530000000000000000e+02 3.540000000000000000e+02 3.550000000000000000e+02 3.560000000000000000e+02 3.570000000000000000e+02 3.580000000000000000e+02 3.590000000000000000e+02 3.600000000000000000e+02 3.610000000000000000e+02 3.620000000000000000e+02 3.630000000000000000e+02 3.640000000000000000e+02 3.650000000000000000e+02 3.660000000000000000e+02 3.670000000000000000e+02 3.680000000000000000e+02 3.690000000000000000e+02 3.700000000000000000e+02 3.710000000000000000e+02 3.720000000000000000e+02 3.730000000000000000e+02 3.740000000000000000e+02 3.750000000000000000e+02 3.760000000000000000e+02 3.770000000000000000e+02 3.780000000000000000e+02 3.790000000000000000e+02 3.800000000000000000e+02 3.810000000000000000e+02 3.820000000000000000e+02 3.830000000000000000e+02 3.840000000000000000e+02 3.850000000000000000e+02 3.860000000000000000e+02 3.870000000000000000e+02 3.880000000000000000e+02 3.890000000000000000e+02 3.900000000000000000e+02 3.910000000000000000e+02 3.920000000000000000e+02 3.930000000000000000e+02 3.940000000000000000e+02 3.950000000000000000e+02 3.960000000000000000e+02 3.970000000000000000e+02 3.980000000000000000e+02 3.990000000000000000e+02 4.000000000000000000e+02 4.010000000000000000e+02 4.020000000000000000e+02 4.030000000000000000e+02 4.040000000000000000e+02 4.050000000000000000e+02 4.060000000000000000e+02 4.070000000000000000e+02 4.080000000000000000e+02 4.090000000000000000e+02 4.100000000000000000e+02 4.110000000000000000e+02 4.120000000000000000e+02 4.130000000000000000e+02 4.140000000000000000e+02 4.150000000000000000e+02 4.160000000000000000e+02 4.170000000000000000e+02 4.180000000000000000e+02 4.190000000000000000e+02 4.200000000000000000e+02 4.210000000000000000e+02 4.220000000000000000e+02 4.230000000000000000e+02 4.240000000000000000e+02 4.250000000000000000e+02 4.260000000000000000e+02 4.270000000000000000e+02 4.280000000000000000e+02 4.290000000000000000e+02 4.300000000000000000e+02 4.310000000000000000e+02 4.320000000000000000e+02 4.330000000000000000e+02 4.340000000000000000e+02 4.350000000000000000e+02 4.360000000000000000e+02 4.370000000000000000e+02 4.380000000000000000e+02 4.390000000000000000e+02 4.400000000000000000e+02 4.410000000000000000e+02 4.420000000000000000e+02 4.430000000000000000e+02 4.440000000000000000e+02 4.450000000000000000e+02 4.460000000000000000e+02 4.470000000000000000e+02 4.480000000000000000e+02 4.490000000000000000e+02 4.500000000000000000e+02 4.510000000000000000e+02 4.520000000000000000e+02 4.530000000000000000e+02 4.540000000000000000e+02 4.550000000000000000e+02 4.560000000000000000e+02 4.570000000000000000e+02 4.580000000000000000e+02 4.590000000000000000e+02 4.600000000000000000e+02 4.610000000000000000e+02 4.620000000000000000e+02 4.630000000000000000e+02 4.640000000000000000e+02 4.650000000000000000e+02 4.660000000000000000e+02 4.670000000000000000e+02 4.680000000000000000e+02 4.690000000000000000e+02 4.700000000000000000e+02 4.710000000000000000e+02 4.720000000000000000e+02 4.730000000000000000e+02 4.740000000000000000e+02 4.750000000000000000e+02 4.760000000000000000e+02 4.770000000000000000e+02 4.780000000000000000e+02 4.790000000000000000e+02 4.800000000000000000e+02 4.810000000000000000e+02 4.820000000000000000e+02 4.830000000000000000e+02 4.840000000000000000e+02 4.850000000000000000e+02 4.860000000000000000e+02 4.870000000000000000e+02 4.880000000000000000e+02 4.890000000000000000e+02 4.900000000000000000e+02 4.910000000000000000e+02 4.920000000000000000e+02 4.930000000000000000e+02 4.940000000000000000e+02 4.950000000000000000e+02 4.960000000000000000e+02 4.970000000000000000e+02 4.980000000000000000e+02 4.990000000000000000e+02 5.000000000000000000e+02 5.010000000000000000e+02 5.020000000000000000e+02 5.030000000000000000e+02 5.040000000000000000e+02 5.050000000000000000e+02 5.060000000000000000e+02 5.070000000000000000e+02 5.080000000000000000e+02 5.090000000000000000e+02 5.100000000000000000e+02 5.110000000000000000e+02 5.120000000000000000e+02 5.130000000000000000e+02 5.140000000000000000e+02 5.150000000000000000e+02 5.160000000000000000e+02 5.170000000000000000e+02 5.180000000000000000e+02 5.190000000000000000e+02 5.200000000000000000e+02 5.210000000000000000e+02 5.220000000000000000e+02 5.230000000000000000e+02 5.240000000000000000e+02 5.250000000000000000e+02 5.260000000000000000e+02 5.270000000000000000e+02 5.280000000000000000e+02 5.290000000000000000e+02 5.300000000000000000e+02 5.310000000000000000e+02 5.320000000000000000e+02 5.330000000000000000e+02 5.340000000000000000e+02 5.350000000000000000e+02 5.360000000000000000e+02 5.370000000000000000e+02 5.380000000000000000e+02 5.390000000000000000e+02 5.400000000000000000e+02 5.410000000000000000e+02 5.420000000000000000e+02 5.430000000000000000e+02 5.440000000000000000e+02 5.450000000000000000e+02 5.460000000000000000e+02 5.470000000000000000e+02 5.480000000000000000e+02 5.490000000000000000e+02 5.500000000000000000e+02 5.510000000000000000e+02 5.520000000000000000e+02 5.530000000000000000e+02 5.540000000000000000e+02 5.550000000000000000e+02 5.560000000000000000e+02 5.570000000000000000e+02 5.580000000000000000e+02 5.590000000000000000e+02 5.600000000000000000e+02 5.610000000000000000e+02 5.620000000000000000e+02 5.630000000000000000e+02 5.640000000000000000e+02 5.650000000000000000e+02 5.660000000000000000e+02 5.670000000000000000e+02 5.680000000000000000e+02 5.690000000000000000e+02 5.700000000000000000e+02 5.710000000000000000e+02 5.720000000000000000e+02 5.730000000000000000e+02 5.740000000000000000e+02 5.750000000000000000e+02 5.760000000000000000e+02 5.770000000000000000e+02 5.780000000000000000e+02 5.790000000000000000e+02 5.800000000000000000e+02 5.810000000000000000e+02 5.820000000000000000e+02 5.830000000000000000e+02 5.840000000000000000e+02 5.850000000000000000e+02 5.860000000000000000e+02 5.870000000000000000e+02 5.880000000000000000e+02 5.890000000000000000e+02 5.900000000000000000e+02 5.910000000000000000e+02 5.920000000000000000e+02 5.930000000000000000e+02 5.940000000000000000e+02 5.950000000000000000e+02 5.960000000000000000e+02 5.970000000000000000e+02 5.980000000000000000e+02 5.990000000000000000e+02 6.000000000000000000e+02 6.010000000000000000e+02 6.020000000000000000e+02 6.030000000000000000e+02 6.040000000000000000e+02 6.050000000000000000e+02 6.060000000000000000e+02 6.070000000000000000e+02 6.080000000000000000e+02 6.090000000000000000e+02 6.100000000000000000e+02 6.110000000000000000e+02 6.120000000000000000e+02 6.130000000000000000e+02 6.140000000000000000e+02 6.150000000000000000e+02 6.160000000000000000e+02 6.170000000000000000e+02 6.180000000000000000e+02 6.190000000000000000e+02 6.200000000000000000e+02 6.210000000000000000e+02 6.220000000000000000e+02 6.230000000000000000e+02 6.240000000000000000e+02 6.250000000000000000e+02 6.260000000000000000e+02 6.270000000000000000e+02 6.280000000000000000e+02 6.290000000000000000e+02 6.300000000000000000e+02 6.310000000000000000e+02 6.320000000000000000e+02 6.330000000000000000e+02 6.340000000000000000e+02 6.350000000000000000e+02 6.360000000000000000e+02 6.370000000000000000e+02 6.380000000000000000e+02 6.390000000000000000e+02 6.400000000000000000e+02 6.410000000000000000e+02 6.420000000000000000e+02 6.430000000000000000e+02 6.440000000000000000e+02 6.450000000000000000e+02 6.460000000000000000e+02 6.470000000000000000e+02 6.480000000000000000e+02 6.490000000000000000e+02 6.500000000000000000e+02 6.510000000000000000e+02 6.520000000000000000e+02 6.530000000000000000e+02 6.540000000000000000e+02 6.550000000000000000e+02 6.560000000000000000e+02 6.570000000000000000e+02 6.580000000000000000e+02 6.590000000000000000e+02 6.600000000000000000e+02 6.610000000000000000e+02 6.620000000000000000e+02 6.630000000000000000e+02 6.640000000000000000e+02 6.650000000000000000e+02 6.660000000000000000e+02 6.670000000000000000e+02 6.680000000000000000e+02 6.690000000000000000e+02 6.700000000000000000e+02 6.710000000000000000e+02 6.720000000000000000e+02 6.730000000000000000e+02 6.740000000000000000e+02 6.750000000000000000e+02 6.760000000000000000e+02 6.770000000000000000e+02 6.780000000000000000e+02 6.790000000000000000e+02 6.800000000000000000e+02 6.810000000000000000e+02 6.820000000000000000e+02 6.830000000000000000e+02 6.840000000000000000e+02 6.850000000000000000e+02 6.860000000000000000e+02 6.870000000000000000e+02 6.880000000000000000e+02 6.890000000000000000e+02 6.900000000000000000e+02 6.910000000000000000e+02 6.920000000000000000e+02 6.930000000000000000e+02 6.940000000000000000e+02 6.950000000000000000e+02 6.960000000000000000e+02 6.970000000000000000e+02 6.980000000000000000e+02 6.990000000000000000e+02 7.000000000000000000e+02 7.010000000000000000e+02 7.020000000000000000e+02 7.030000000000000000e+02 7.040000000000000000e+02 7.050000000000000000e+02 7.060000000000000000e+02 7.070000000000000000e+02 7.080000000000000000e+02 7.090000000000000000e+02 7.100000000000000000e+02 7.110000000000000000e+02 7.120000000000000000e+02 7.130000000000000000e+02 7.140000000000000000e+02 7.150000000000000000e+02 7.160000000000000000e+02 7.170000000000000000e+02 7.180000000000000000e+02 7.190000000000000000e+02 7.200000000000000000e+02 7.210000000000000000e+02 7.220000000000000000e+02 7.230000000000000000e+02 7.240000000000000000e+02 7.250000000000000000e+02 7.260000000000000000e+02 7.270000000000000000e+02 7.280000000000000000e+02 7.290000000000000000e+02 7.300000000000000000e+02 7.310000000000000000e+02 7.320000000000000000e+02 7.330000000000000000e+02 7.340000000000000000e+02 7.350000000000000000e+02 7.360000000000000000e+02 7.370000000000000000e+02 7.380000000000000000e+02 7.390000000000000000e+02 7.400000000000000000e+02 7.410000000000000000e+02 7.420000000000000000e+02 7.430000000000000000e+02 7.440000000000000000e+02 7.450000000000000000e+02 7.460000000000000000e+02 7.470000000000000000e+02 7.480000000000000000e+02 7.490000000000000000e+02 7.500000000000000000e+02 7.510000000000000000e+02 7.520000000000000000e+02 7.530000000000000000e+02 7.540000000000000000e+02 7.550000000000000000e+02 7.560000000000000000e+02 7.570000000000000000e+02 7.580000000000000000e+02 7.590000000000000000e+02 7.600000000000000000e+02 7.610000000000000000e+02 7.620000000000000000e+02 7.630000000000000000e+02 7.640000000000000000e+02 7.650000000000000000e+02 7.660000000000000000e+02 7.670000000000000000e+02 7.680000000000000000e+02 7.690000000000000000e+02 7.700000000000000000e+02 7.710000000000000000e+02 7.720000000000000000e+02 7.730000000000000000e+02 7.740000000000000000e+02 7.750000000000000000e+02 7.760000000000000000e+02 7.770000000000000000e+02 7.780000000000000000e+02 7.790000000000000000e+02 7.800000000000000000e+02 7.810000000000000000e+02 7.820000000000000000e+02 7.830000000000000000e+02 7.840000000000000000e+02 7.850000000000000000e+02 7.860000000000000000e+02 7.870000000000000000e+02 7.880000000000000000e+02 7.890000000000000000e+02 7.900000000000000000e+02 7.910000000000000000e+02 7.920000000000000000e+02 7.930000000000000000e+02 7.940000000000000000e+02 7.950000000000000000e+02 7.960000000000000000e+02 7.970000000000000000e+02 7.980000000000000000e+02 7.990000000000000000e+02 8.000000000000000000e+02 8.010000000000000000e+02 8.020000000000000000e+02 8.030000000000000000e+02 8.040000000000000000e+02 8.050000000000000000e+02 8.060000000000000000e+02 8.070000000000000000e+02 8.080000000000000000e+02 8.090000000000000000e+02 8.100000000000000000e+02 8.110000000000000000e+02 8.120000000000000000e+02 8.130000000000000000e+02 8.140000000000000000e+02 8.150000000000000000e+02 8.160000000000000000e+02 8.170000000000000000e+02 8.180000000000000000e+02 8.190000000000000000e+02 8.200000000000000000e+02 8.210000000000000000e+02 8.220000000000000000e+02 8.230000000000000000e+02 8.240000000000000000e+02 8.250000000000000000e+02 8.260000000000000000e+02 8.270000000000000000e+02 8.280000000000000000e+02 8.290000000000000000e+02 8.300000000000000000e+02 8.310000000000000000e+02 8.320000000000000000e+02 8.330000000000000000e+02 8.340000000000000000e+02 8.350000000000000000e+02 8.360000000000000000e+02 8.370000000000000000e+02 8.380000000000000000e+02 8.390000000000000000e+02 8.400000000000000000e+02 8.410000000000000000e+02 8.420000000000000000e+02 8.430000000000000000e+02 8.440000000000000000e+02 8.450000000000000000e+02 8.460000000000000000e+02 8.470000000000000000e+02 8.480000000000000000e+02 8.490000000000000000e+02 8.500000000000000000e+02 8.510000000000000000e+02 8.520000000000000000e+02 8.530000000000000000e+02 8.540000000000000000e+02 8.550000000000000000e+02 8.560000000000000000e+02 8.570000000000000000e+02 8.580000000000000000e+02 8.590000000000000000e+02 8.600000000000000000e+02 8.610000000000000000e+02 8.620000000000000000e+02 8.630000000000000000e+02 8.640000000000000000e+02 8.650000000000000000e+02 8.660000000000000000e+02 8.670000000000000000e+02 8.680000000000000000e+02 8.690000000000000000e+02 8.700000000000000000e+02 8.710000000000000000e+02 8.720000000000000000e+02 8.730000000000000000e+02 8.740000000000000000e+02 8.750000000000000000e+02 8.760000000000000000e+02 8.770000000000000000e+02 8.780000000000000000e+02 8.790000000000000000e+02 8.800000000000000000e+02 8.810000000000000000e+02 8.820000000000000000e+02 8.830000000000000000e+02 8.840000000000000000e+02 8.850000000000000000e+02 8.860000000000000000e+02 8.870000000000000000e+02 8.880000000000000000e+02 8.890000000000000000e+02 8.900000000000000000e+02 8.910000000000000000e+02 8.920000000000000000e+02 8.930000000000000000e+02 8.940000000000000000e+02 8.950000000000000000e+02 8.960000000000000000e+02 8.970000000000000000e+02 8.980000000000000000e+02 8.990000000000000000e+02 9.000000000000000000e+02 9.010000000000000000e+02 9.020000000000000000e+02 9.030000000000000000e+02 9.040000000000000000e+02 9.050000000000000000e+02 9.060000000000000000e+02 9.070000000000000000e+02 9.080000000000000000e+02 9.090000000000000000e+02 9.100000000000000000e+02 9.110000000000000000e+02 9.120000000000000000e+02 9.130000000000000000e+02 9.140000000000000000e+02 9.150000000000000000e+02 9.160000000000000000e+02 9.170000000000000000e+02 9.180000000000000000e+02 9.190000000000000000e+02 9.200000000000000000e+02 9.210000000000000000e+02 9.220000000000000000e+02 9.230000000000000000e+02 9.240000000000000000e+02 9.250000000000000000e+02 9.260000000000000000e+02 9.270000000000000000e+02 9.280000000000000000e+02 9.290000000000000000e+02 9.300000000000000000e+02 9.310000000000000000e+02 9.320000000000000000e+02 9.330000000000000000e+02 9.340000000000000000e+02 9.350000000000000000e+02 9.360000000000000000e+02 9.370000000000000000e+02 9.380000000000000000e+02 9.390000000000000000e+02 9.400000000000000000e+02 9.410000000000000000e+02 9.420000000000000000e+02 9.430000000000000000e+02 9.440000000000000000e+02 9.450000000000000000e+02 9.460000000000000000e+02 9.470000000000000000e+02 9.480000000000000000e+02 9.490000000000000000e+02 9.500000000000000000e+02 9.510000000000000000e+02 9.520000000000000000e+02 9.530000000000000000e+02 9.540000000000000000e+02 9.550000000000000000e+02 9.560000000000000000e+02 9.570000000000000000e+02 9.580000000000000000e+02 9.590000000000000000e+02 9.600000000000000000e+02 9.610000000000000000e+02 9.620000000000000000e+02 9.630000000000000000e+02 9.640000000000000000e+02 9.650000000000000000e+02 9.660000000000000000e+02 9.670000000000000000e+02 9.680000000000000000e+02 9.690000000000000000e+02 9.700000000000000000e+02 9.710000000000000000e+02 9.720000000000000000e+02 9.730000000000000000e+02 9.740000000000000000e+02 9.750000000000000000e+02 9.760000000000000000e+02 9.770000000000000000e+02 9.780000000000000000e+02 9.790000000000000000e+02 9.800000000000000000e+02 9.810000000000000000e+02 9.820000000000000000e+02 9.830000000000000000e+02 9.840000000000000000e+02 9.850000000000000000e+02 9.860000000000000000e+02 9.870000000000000000e+02 9.880000000000000000e+02 9.890000000000000000e+02 9.900000000000000000e+02 9.910000000000000000e+02 9.920000000000000000e+02 9.930000000000000000e+02 9.940000000000000000e+02 9.950000000000000000e+02 9.960000000000000000e+02 9.970000000000000000e+02 9.980000000000000000e+02 9.990000000000000000e+02 1.000000000000000000e+03
1.000000000000000021e-02 1.000000000000000021e-02 1.000000000000000021e-02 1.000000000000000021e-02 1.000000000000000021e-02 1.000000000000000021e-02 1.000000000000000021e-02 1.000000000000000021e-02 1.000000000000000021e-02 1.000000000000000021e-02 1.000000000000000021e-02 1.000000000000000021e-02 1.000000000000000021e-02 1.000000000000000021e-02 1.000000000000000021e-02 1.000000000000000021e-02 1.000000000000000021e-02 1.000000000000000021e-02 1.000000000000000021e-02 1.000000000000000021e-02 1.000000000000000021e-02 1.000000000000000021e-02 1.000000000000000021e-02 1.000000000000000021e-02 1.000000000000000021e-02 1.000000000000000021e-02 1.000000000000000021e-02 1.000000000000000021e-02 1.000000000000000021e-02 1.000000000000000021e-02 1.000000000000000021e-02 1.000000000000000021e-02 1.000000000000000021e-02 1.000000000000000021e-02 1.000000000000000021e-02 1.000000000000000021e-02 1.000000000000000021e-02 1.000000000000000021e-02 1.000000000000000021e-02 1.000000000000000021e-02 1.000000000000000021e-02 1.000000000000000021e-02 1.000000000000000021e-02 1.000000000000000021e-02 1.000000000000000021e-02 1.000000000000000021e-02 1.000000000000000021e-02 1.000000000000000021e-02 1.000000000000000021e-02 1.000000000000000021e-02 1.000000000000000021e-02 1.000000000000000021e-02 1.000000000000000021e-02 1.000000000000000021e-02 1.000000000000000021e-02 1.000000000000000021e-02 1.000000000000000021e-02 1.000000000000000021e-02 1.000000000000000021e-02 1.000000000000000021e-02 1.000000000000000021e-02 1.000000000000000021e-02 1.000000000000000021e-02 1.000000000000000021e-02 1.000000000000000021e-02 1.000000000000000021e-02 1.000000000000000021e-02 1.000000000000000021e-02 1.000000000000000021e-02 1.000000000000000021e-02 1.000000000000000021e-02 1.000000000000000021e-02 1.000000000000000021e-02 1.000000000000000021e-02 1.000000000000000021e-02 1.000000000000000021e-02 1.000000000000000021e-02 1.000000000000000021e-02 1.000000000000000021e-02 1.000000000000000021e-02 1.000000000000000021e-02 1.000000000000000021e-02 1.000000000000000021e-02 1.000000000000000021e-02 1.000000000000000021e-02 1.000000000000000021e-02 1.000000000000000021e-02 1.000000000000000021e-02 1.000000000000000021e-02 1.000000000000000021e-02 1.000000000000000021e-02 1.000000000000000021e-02 1.000000000000000021e-02 1.000000000000000021e-02 1.000000000000000021e-02 1.000000000000000021e-02 1.000000000000000021e-02 1.000000000000000021e-02 1.000000000000000021e-02 1.000000000000000021e-02 1.000000000000000021e-02 1.000000000000000021e-02 1.000000000000000021e-02 1.000000000000000021e-02 1.000000000000000021e-02 1.000000000000000021e-02 1.000000000000000021e-02 1.000000000000000021e-02 1.000000000000000021e-02 1.000000000000000021e-02 1.000000000000000021e-02 1.000000000000000021e-02 1.000000000000000021e-02 1.000000000000000021e-02 1.000000000000000021e-02 1.000000000000000021e-02 1.000000000000000021e-02 1.000000000000000021e-02 1.000000000000000021e-02 1.000000000000000021e-02 1.000000000000000021e-02 1.000000000000000021e-02 1.000000000000000021e-02 1.000000000000000021e-02 1.000000000000000021e-02 1.000000000000000021e-02 1.000000000000000021e-02 1.000000000000000021e-02 1.000000000000000021e-02 1.000000000000000021e-02 1.000000000000000021e-02 1.000000000000000021e-02 1.000000000000000021e-02 1.000000000000000021e-02 1.000000000000000021e-02 1.000000000000000021e-02 1.000000000000000021e-02 1.000000000000000021e-02 1.000000000000000021e-02 1.000000000000000021e-02 1.000000000000000021e-02 1.000000000000000021e-02 1.000000000000000021e-02 1.000000000000000021e-02 1.000000000000000021e-02 1.000000000000000021e-02 1.000000000000000021e-02 1.000000000000000021e-02 1.000000000000000021e-02 1.000000000000000021e-02 1.000000000000000021e-02 1.000000000000000021e-02 1.000000000000000021e-02 1.000000000000000021e-02 1.000000000000000021e-02 1.000000000000000021e-02 1.000000000000000021e-02 1.000000000000000021e-02 1.000000000000000021e-02 1.000000000000000021e-02 1.000000000000000021e-02 1.000000000000000021e-02 1.000000000000000021e-02 1.000000000000000021e-02 1.000000000000000021e-02 1.000000000000000021e-02 1.000000000000000021e-02 1.000000000000000021e-02 1.000000000000000021e-02 1.000000000000000021e-02 1.000000000000000021e-02 1.000000000000000021e-02 1.000000000000000021e-02 1.000000000000000021e-02 1.000000000000000021e-02 1.000000000000000021e-02 1.000000000000000021e-02 1.000000000000000021e-02 1.000000000000000021e-02 1.000000000000000021e-02 1.000000000000000021e-02 1.000000000000000021e-02 1.000000000000000021e-02 1.000000000000000021e-02 1.000000000000000021e-02 1.000000000000000021e-02 1.000000000000000021e-02 1.000000000000000021e-02 1.000000000000000021e-02 1.000000000000000021e-02 1.000000000000000021e-02 1.000000000000000021e-02 1.000000000000000021e-02 1.000000000000000021e-02 1.000000000000000021e-02 1.000000000000000021e-02 1.000000000000000021e-02 1.000000000000000021e-02 1.000000000000000021e-02 1.000000000000000021e-02 1.000000000000000021e-02 1.000000000000000021e-02 1.000000000000000021e-02 1.000000000000000021e-02 1.000000000000000021e-02 1.000000000000000021e-02 1.000000000000000021e-02 1.000000000000000021e-02 1.000000000000000021e-02 1.000000000000000021e-02 1.000000000000000021e-02 1.000000000000000021e-02 1.000000000000000021e-02 1.000000000000000021e-02 1.000000000000000021e-02 1.000000000000000021e-02 1.000000000000000021e-02 1.000000000000000021e-02 1.000000000000000021e-02 1.000000000000000021e-02 1.000000000000000021e-02 1.000000000000000021e-02 1.000000000000000021e-02 1.000000000000000021e-02 1.000000000000000021e-02 1.000000000000000021e-02 1.000000000000000021e-02 1.000000000000000021e-02 1.000000000000000021e-02 1.000000000000000021e-02 1.000000000000000021e-02 1.000000000000000021e-02 1.000000000000000021e-02 1.000000000000000021e-02 1.000000000000000021e-02 1.000000000000000021e-02 1.000000000000000021e-02 1.000000000000000021e-02 1.000000000000000021e-02 1.000000000000000021e-02 1.000000000000000021e-02 1.000000000000000021e-02 1.000000000000000021e-02 1.000000000000000021e-02 1.000000000000000021e-02 1.000000000000000021e-02 1.000000000000000021e-02 1.000000000000000021e-02 1.000000000000000021e-02 1.000000000000000021e-02 1.000000000000000021e-02 1.000000000000000021e-02 1.000000000000000021e-02 1.000000000000000021e-02 1.000000000000000021e-02 1.000000000000000021e-02 1.000000000000000021e-02 1.000000000000000021e-02 1.000000000000000021e-02 1.000000000000000021e-02 1.000000000000000021e-02 1.000000000000000021e-02 1.000000000000000021e-02 1.000000000000000021e-02 1.000000000000000021e-02 1.000000000000000021e-02 1.000000000000000021e-02 1.000000000000000021e-02 1.000000000000000021e-02 1.000000000000000021e-02 1.000000000000000021e-02 1.000000000000000021e-02 1.000000000000000021e-02 1.000000000000000021e-02 1.000000000000000021e-02 1.000000000000000021e-02 1.000000000000000021e-02 1.000000000000000021e-02 1.000000000000000021e-02 1.000000000000000021e-02 1.000000000000000021e-02 1.000000000000000021e-02 1.000000000000000021e-02 1.000000000000000021e-02 1.000000000000000021e-02 1.000000000000000021e-02 1.000000000000000021e-02 1.000000000000000021e-02 1.000000000000000021e-02 1.000000000000000021e-02 1.000000000000000021e-02 1.000000000000000021e-02 1.000000000000000021e-02 1.000000000000000021e-02 1.000000000000000021e-02 1.000000000000000021e-02 1.000000000000000021e-02 1.000000000000000021e-02 1.000000000000000021e-02 1.000000000000000021e-02 1.000000000000000021e-02 1.000000000000000021e-02 1.000000000000000021e-02 1.000000000000000021e-02 1.000000000000000021e-02 1.000000000000000021e-02 1.000000000000000021e-02 1.000000000000000021e-02 1.000000000000000021e-02 1.000000000000000021e-02 1.000000000000000021e-02 1.000000000000000021e-02 1.000000000000000021e-02 1.000000000000000021e-02 1.000000000000000021e-02 1.000000000000000021e-02 1.000000000000000021e-02 1.000000000000000021e-02 1.000000000000000021e-02 1.000000000000000021e-02 1.000000000000000021e-02 1.000000000000000021e-02 1.000000000000000021e-02 1.000000000000000021e-02 1.000000000000000021e-02 1.000000000000000021e-02 1.000000000000000021e-02 1.000000000000000021e-02 1.000000000000000021e-02 1.000000000000000021e-02 1.000000000000000021e-02 1.000000000000000021e-02 1.000000000000000021e-02 1.000000000000000021e-02 1.000000000000000021e-02 1.000000000000000021e-02 1.000000000000000021e-02 1.000000000000000021e-02 1.000000000000000021e-02 1.000000000000000021e-02 1.000000000000000021e-02 1.000000000000000021e-02 1.000000000000000021e-02 1.000000000000000021e-02 1.000000000000000021e-02 1.000000000000000021e-02 1.000000000000000021e-02 1.000000000000000021e-02 1.000000000000000021e-02 1.000000000000000021e-02 1.000000000000000021e-02 1.000000000000000021e-02 1.000000000000000021e-02 1.000000000000000021e-02 1.000000000000000021e-02 1.000000000000000021e-02 1.000000000000000021e-02 1.000000000000000021e-02 1.000000000000000021e-02 1.000000000000000021e-02 1.000000000000000021e-02 1.000000000000000021e-02 1.000000000000000021e-02 1.000000000000000021e-02 1.000000000000000021e-02 1.000000000000000021e-02 1.000000000000000021e-02 1.000000000000000021e-02 1.000000000000000021e-02 1.000000000000000021e-02 1.000000000000000021e-02 1.000000000000000021e-02 1.000000000000000021e-02 1.000000000000000021e-02 1.000000000000000021e-02 1.000000000000000021e-02 1.000000000000000021e-02 1.000000000000000021e-02 1.000000000000000021e-02 1.000000000000000021e-02 1.000000000000000021e-02 1.000000000000000021e-02 1.000000000000000021e-02 1.000000000000000021e-02 1.000000000000000021e-02 1.000000000000000021e-02 1.000000000000000021e-02 1.000000000000000021e-02 1.000000000000000021e-02 1.000000000000000021e-02 1.000000000000000021e-02 1.000000000000000021e-02 1.000000000000000021e-02 1.000000000000000021e-02 1.000000000000000021e-02 1.000000000000000021e-02 1.000000000000000021e-02 1.000000000000000021e-02 1.000000000000000021e-02 1.000000000000000021e-02 1.000000000000000021e-02 1.000000000000000021e-02 1.000000000000000021e-02 1.000000000000000021e-02 1.000000000000000021e-02 1.000000000000000021e-02 1.000000000000000021e-02 1.000000000000000021e-02 1.000000000000000021e-02 1.000000000000000021e-02 1.000000000000000021e-02 1.000000000000000021e-02 1.000000000000000021e-02 1.000000000000000021e-02 1.000000000000000021e-02 1.000000000000000021e-02 1.000000000000000021e-02 1.000000000000000021e-02 1.000000000000000021e-02 1.000000000000000021e-02 1.000000000000000021e-02 1.000000000000000021e-02 1.000000000000000021e-02 1.000000000000000021e-02 1.000000000000000021e-02 1.000000000000000021e-02 1.000000000000000021e-02 1.000000000000000021e-02 1.000000000000000021e-02 1.000000000000000021e-02 1.000000000000000021e-02 1.000000000000000021e-02 1.000000000000000021e-02 1.000000000000000021e-02 1.000000000000000021e-02 1.000000000000000021e-02 1.000000000000000021e-02 1.000000000000000021e-02 1.000000000000000021e-02 1.000000000000000021e-02 1.000000000000000021e-02 1.000000000000000021e-02 1.000000000000000021e-02 1.000000000000000021e-02 1.000000000000000021e-02 1.000000000000000021e-02 1.000000000000000021e-02 1.000000000000000021e-02 1.000000000000000021e-02 1.000000000000000021e-02 1.000000000000000021e-02 1.000000000000000021e-02 1.000000000000000021e-02 1.000000000000000021e-02 1.000000000000000021e-02 1.000000000000000021e-02 1.000000000000000021e-02 1.000000000000000021e-02 1.000000000000000021e-02 1.000000000000000021e-02 1.000000000000000021e-02 1.000000000000000021e-02 1.000000000000000021e-02 1.000000000000000021e-02 1.000000000000000021e-02 1.000000000000000021e-02 1.000000000000000021e-02 1.000000000000000021e-02 1.000000000000000021e-02 1.000000000000000021e-02 1.000000000000000021e-02 1.000000000000000021e-02 1.000000000000000021e-02 1.000000000000000021e-02 1.000000000000000021e-02 1.000000000000000021e-02 1.000000000000000021e-02 1.000000000000000021e-02 1.000000000000000021e-02 1.000000000000000021e-02 1.000000000000000021e-02 1.000000000000000021e-02 1.000000000000000021e-02 1.000000000000000021e-02 1.000000000000000021e-02 1.000000000000000021e-02 1.000000000000000021e-02 1.000000000000000021e-02 1.000000000000000021e-02 1.000000000000000021e-02 1.000000000000000021e-02 1.000000000000000021e-02 1.000000000000000021e-02 1.000000000000000021e-02 1.000000000000000021e-02 1.000000000000000021e-02 1.000000000000000021e-02 1.000000000000000021e-02 1.000000000000000021e-02 1.000000000000000021e-02 1.000000000000000021e-02 1.000000000000000021e-02 1.000000000000000021e-02 1.000000000000000021e-02 1.000000000000000021e-02 1.000000000000000021e-02 1.000000000000000021e-02 1.000000000000000021e-02 1.000000000000000021e-02 1.000000000000000021e-02 1.000000000000000021e-02 1.000000000000000021e-02 1.000000000000000021e-02 1.000000000000000021e-02 1.000000000000000021e-02 1.000000000000000021e-02 1.000000000000000021e-02 1.000000000000000021e-02 1.000000000000000021e-02 1.000000000000000021e-02 1.000000000000000021e-02 1.000000000000000021e-02 1.000000000000000021e-02 1.000000000000000021e-02 1.000000000000000021e-02 1.000000000000000021e-02 1.000000000000000021e-02 1.000000000000000021e-02 1.000000000000000021e-02 1.000000000000000021e-02 1.000000000000000021e-02 1.000000000000000021e-02 1.000000000000000021e-02 1.000000000000000021e-02 1.000000000000000021e-02 1.000000000000000021e-02 1.000000000000000021e-02 1.000000000000000021e-02 1.000000000000000021e-02 1.000000000000000021e-02 1.000000000000000021e-02 1.000000000000000021e-02 1.000000000000000021e-02 1.000000000000000021e-02 1.000000000000000021e-02 1.000000000000000021e-02 1.000000000000000021e-02 1.000000000000000021e-02 1.000000000000000021e-02 1.000000000000000021e-02 1.000000000000000021e-02 1.000000000000000021e-02 1.000000000000000021e-02 1.000000000000000021e-02 1.000000000000000021e-02 1.000000000000000021e-02 1.000000000000000021e-02 1.000000000000000021e-02 1.000000000000000021e-02 1.000000000000000021e-02 1.000000000000000021e-02 1.000000000000000021e-02 1.000000000000000021e-02 1.000000000000000021e-02 1.000000000000000021e-02 1.000000000000000021e-02 1.000000000000000021e-02 1.000000000000000021e-02 1.000000000000000021e-02 1.000000000000000021e-02 1.000000000000000021e-02 1.000000000000000021e-02 1.000000000000000021e-02 1.000000000000000021e-02 1.000000000000000021e-02 1.000000000000000021e-02 1.000000000000000021e-02 1.000000000000000021e-02 1.000000000000000021e-02 1.000000000000000021e-02 1.000000000000000021e-02 1.000000000000000021e-02 1.000000000000000021e-02 1.000000000000000021e-02 1.000000000000000021e-02 1.000000000000000021e-02 1.000000000000000021e-02 1.000000000000000021e-02 1.000000000000000021e-02 1.000000000000000021e-02 1.000000000000000021e-02 1.000000000000000021e-02 1.000000000000000021e-02 1.000000000000000021e-02 1.000000000000000021e-02 1.000000000000000021e-02 1.000000000000000021e-02 1.000000000000000021e-02 1.000000000000000021e-02 1.000000000000000021e-02 1.000000000000000021e-02 1.000000000000000021e-02 1.000000000000000021e-02 1.000000000000000021e-02 1.000000000000000021e-02 1.000000000000000021e-02 1.000000000000000021e-02 1.000000000000000021e-02 1.000000000000000021e-02 1.000000000000000021e-02 1.000000000000000021e-02 1.000000000000000021e-02 1.000000000000000021e-02 1.000000000000000021e-02 1.000000000000000021e-02 1.000000000000000021e-02 1.000000000000000021e-02 1.000000000000000021e-02 1.000000000000000021e-02 1.000000000000000021e-02 1.000000000000000021e-02 1.000000000000000021e-02 1.000000000000000021e-02 1.000000000000000021e-02 1.000000000000000021e-02 1.000000000000000021e-02 1.000000000000000021e-02 1.000000000000000021e-02 1.000000000000000021e-02 1.000000000000000021e-02 1.000000000000000021e-02 1.000000000000000021e-02 1.000000000000000021e-02 1.000000000000000021e-02 1.000000000000000021e-02 1.000000000000000021e-02 1.000000000000000021e-02 1.000000000000000021e-02 1.000000000000000021e-02 1.000000000000000021e-02 1.000000000000000021e-02 1.000000000000000021e-02 1.000000000000000021e-02 1.000000000000000021e-02 1.000000000000000021e-02 1.000000000000000021e-02 1.000000000000000021e-02 1.000000000000000021e-02 1.000000000000000021e-02 1.000000000000000021e-02 1.000000000000000021e-02 1.000000000000000021e-02 1.000000000000000021e-02 1.000000000000000021e-02 1.000000000000000021e-02 1.000000000000000021e-02 1.000000000000000021e-02 1.000000000000000021e-02 1.000000000000000021e-02 1.000000000000000021e-02 1.000000000000000021e-02 1.000000000000000021e-02 1.000000000000000021e-02 1.000000000000000021e-02 1.000000000000000021e-02 1.000000000000000021e-02 1.000000000000000021e-02 1.000000000000000021e-02 1.000000000000000021e-02 1.000000000000000021e-02 1.000000000000000021e-02 1.000000000000000021e-02 1.000000000000000021e-02 1.000000000000000021e-02 1.000000000000000021e-02 1.000000000000000021e-02 1.000000000000000021e-02 1.000000000000000021e-02 1.000000000000000021e-02 1.000000000000000021e-02 1.000000000000000021e-02 1.000000000000000021e-02 1.000000000000000021e-02 1.000000000000000021e-02 1.000000000000000021e-02 1.000000000000000021e-02 1.000000000000000021e-02 1.000000000000000021e-02 1.000000000000000021e-02 1.000000000000000021e-02 1.000000000000000021e-02 1.000000000000000021e-02 1.000000000000000021e-02 1.000000000000000021e-02 1.000000000000000021e-02 1.000000000000000021e-02 1.000000000000000021e-02 1.000000000000000021e-02 1.000000000000000021e-02 1.000000000000000021e-02 1.000000000000000021e-02 1.000000000000000021e-02 1.000000000000000021e-02 1.000000000000000021e-02 1.000000000000000021e-02 1.000000000000000021e-02 1.000000000000000021e-02 1.000000000000000021e-02 1.000000000000000021e-02 1.000000000000000021e-02 1.000000000000000021e-02 1.000000000000000021e-02 1.000000000000000021e-02 1.000000000000000021e-02 1.000000000000000021e-02 1.000000000000000021e-02 1.000000000000000021e-02 1.000000000000000021e-02 1.000000000000000021e-02 1.000000000000000021e-02 1.000000000000000021e-02 1.000000000000000021e-02 1.000000000000000021e-02 1.000000000000000021e-02 1.000000000000000021e-02 1.000000000000000021e-02 1.000000000000000021e-02 1.000000000000000021e-02 1.000000000000000021e-02 1.000000000000000021e-02 1.000000000000000021e-02 1.000000000000000021e-02 1.000000000000000021e-02 1.000000000000000021e-02 1.000000000000000021e-02 1.000000000000000021e-02 1.000000000000000021e-02 1.000000000000000021e-02 1.000000000000000021e-02 1.000000000000000021e-02 1.000000000000000021e-02 1.000000000000000021e-02 1.000000000000000021e-02 1.000000000000000021e-02 1.000000000000000021e-02 1.000000000000000021e-02 1.000000000000000021e-02 1.000000000000000021e-02 1.000000000000000021e-02 1.000000000000000021e-02 1.000000000000000021e-02 1.000000000000000021e-02 1.000000000000000021e-02 1.000000000000000021e-02 1.000000000000000021e-02 1.000000000000000021e-02 1.000000000000000021e-02 1.000000000000000021e-02 1.000000000000000021e-02 1.000000000000000021e-02 1.000000000000000021e-02 1.000000000000000021e-02 1.000000000000000021e-02 1.000000000000000021e-02 1.000000000000000021e-02 1.000000000000000021e-02 1.000000000000000021e-02 1.000000000000000021e-02 1.000000000000000021e-02 1.000000000000000021e-02 1.000000000000000021e-02 1.000000000000000021e-02 1.000000000000000021e-02 1.000000000000000021e-02 1.000000000000000021e-02 1.000000000000000021e-02 1.000000000000000021e-02 1.000000000000000021e-02 1.000000000000000021e-02 1.000000000000000021e-02 1.000000000000000021e-02 1.000000000000000021e-02 1.000000000000000021e-02 1.000000000000000021e-02 1.000000000000000021e-02 1.000000000000000021e-02 1.000000000000000021e-02 1.000000000000000021e-02 1.000000000000000021e-02 1.000000000000000021e-02 1.000000000000000021e-02 1.000000000000000021e-02 1.000000000000000021e-02 1.000000000000000021e-02 1.000000000000000021e-02 1.000000000000000021e-02 1.000000000000000021e-02 1.000000000000000021e-02 1.000000000000000021e-02 1.000000000000000021e-02 1.000000000000000021e-02 1.000000000000000021e-02 1.000000000000000021e-02 1.000000000000000021e-02 1.000000000000000021e-02 1.000000000000000021e-02 1.000000000000000021e-02 1.000000000000000021e-02 1.000000000000000021e-02 1.000000000000000021e-02 1.000000000000000021e-02 1.000000000000000021e-02 1.000000000000000021e-02 1.000000000000000021e-02 1.000000000000000021e-02 1.000000000000000021e-02 1.000000000000000021e-02 1.000000000000000021e-02 1.000000000000000021e-02 1.000000000000000021e-02 1.000000000000000021e-02 1.000000000000000021e-02 1.000000000000000021e-02 1.000000000000000021e-02 1.000000000000000021e-02 1.000000000000000021e-02 1.000000000000000021e-02 1.000000000000000021e-02 1.000000000000000021e-02 1.000000000000000021e-02 1.000000000000000021e-02 1.000000000000000021e-02 1.000000000000000021e-02 1.000000000000000021e-02 1.000000000000000021e-02 1.000000000000000021e-02 1.000000000000000021e-02 1.000000000000000021e-02 1.000000000000000021e-02 1.000000000000000021e-02 1.000000000000000021e-02 1.000000000000000021e-02 1.000000000000000021e-02 1.000000000000000021e-02 1.000000000000000021e-02 1.000000000000000021e-02 1.000000000000000021e-02 1.000000000000000021e-02 1.000000000000000021e-02 1.000000000000000021e-02 1.000000000000000021e-02 1.000000000000000021e-02 1.000000000000000021e-02 1.000000000000000021e-02 1.000000000000000021e-02 1.000000000000000021e-02 1.000000000000000021e-02 1.000000000000000021e-02 1.000000000000000021e-02 1.000000000000000021e-02 1.000000000000000021e-02 1.000000000000000021e-02 1.000000000000000021e-02 1.000000000000000021e-02 1.000000000000000021e-02 1.000000000000000021e-02 1.000000000000000021e-02 1.000000000000000021e-02 1.000000000000000021e-02 1.000000000000000021e-02 1.000000000000000021e-02 1.000000000000000021e-02 1.000000000000000021e-02 1.000000000000000021e-02 1.000000000000000021e-02 1.000000000000000021e-02 1.000000000000000021e-02 1.000000000000000021e-02 1.000000000000000021e-02 1.000000000000000021e-02 1.000000000000000021e-02 1.000000000000000021e-02 1.000000000000000021e-02 1.000000000000000021e-02 1.000000000000000021e-02 1.000000000000000021e-02 1.000000000000000021e-02 1.000000000000000021e-02 1.000000000000000021e-02 1.000000000000000021e-02 1.000000000000000021e-02 1.000000000000000021e-02 1.000000000000000021e-02 1.000000000000000021e-02 1.000000000000000021e-02 1.000000000000000021e-02 1.000000000000000021e-02 1.000000000000000021e-02 1.000000000000000021e-02 1.000000000000000021e-02 1.000000000000000021e-02 1.000000000000000021e-02 1.000000000000000021e-02 1.000000000000000021e-02 1.000000000000000021e-02 1.000000000000000021e-02 1.000000000000000021e-02 1.000000000000000021e-02 1.000000000000000021e-02 1.000000000000000021e-02 1.000000000000000021e-02 1.000000000000000021e-02 1.000000000000000021e-02 1.000000000000000021e-02 1.000000000000000021e-02 1.000000000000000021e-02 1.000000000000000021e-02 1.000000000000000021e-02 1.000000000000000021e-02 1.000000000000000021e-02 1.000000000000000021e-02 1.000000000000000021e-02 1.000000000000000021e-02 1.000000000000000021e-02 1.000000000000000021e-02 1.000000000000000021e-02 1.000000000000000021e-02 1.000000000000000021e-02 1.000000000000000021e-02 1.000000000000000021e-02 1.000000000000000021e-02 1.000000000000000021e-02 1.000000000000000021e-02 1.000000000000000021e-02 1.000000000000000021e-02 1.000000000000000021e-02 1.000000000000000021e-02 1.000000000000000021e-02 1.000000000000000021e-02 1.000000000000000021e-02 1.000000000000000021e-02 1.000000000000000021e-02 1.000000000000000021e-02 1.000000000000000021e-02 1.000000000000000021e-02 1.000000000000000021e-02 1.000000000000000021e-02 1.000000000000000021e-02 1.000000000000000021e-02 1.000000000000000021e-02 1.000000000000000021e-02 1.000000000000000021e-02 1.000000000000000021e-02 1.000000000000000021e-02 1.000000000000000021e-02 1.000000000000000021e-02 1.000000000000000021e-02 1.000000000000000021e-02 1.000000000000000021e-02 1.000000000000000021e-02 1.000000000000000021e-02 1.000000000000000021e-02 1.000000000000000021e-02 1.000000000000000021e-02 1.000000000000000021e-02 1.000000000000000021e-02 1.000000000000000021e-02 1.000000000000000021e-02 1.000000000000000021e-02 1.000000000000000021e-02 1.000000000000000021e-02 1.000000000000000021e-02 1.000000000000000021e-02 1.000000000000000021e-02 1.000000000000000021e-02 1.000000000000000021e-02 1.000000000000000021e-02 1.000000000000000021e-02 1.000000000000000021e-02 1.000000000000000021e-02 1.000000000000000021e-02 1.000000000000000021e-02 1.000000000000000021e-02 1.000000000000000021e-02 1.000000000000000021e-02 1.000000000000000021e-02 1.000000000000000021e-02 1.000000000000000021e-02 1.000000000000000021e-02 1.000000000000000021e-02 1.000000000000000021e-02 1.000000000000000021e-02 1.000000000000000021e-02 1.000000000000000021e-02 1.000000000000000021e-02 1.000000000000000021e-02 1.000000000000000021e-02 1.000000000000000021e-02 1.000000000000000021e-02 1.000000000000000021e-02
-1.148641904192591312e+02 1.744926232860926802e+02 4.052040312269606659e+01 -9.113058496507861150e+00 -9.045372737278034947e+01 -1.378518992690486655e+01 -2.139429864881964818e+02 6.909046313616892254e-01 -8.722579788484189578e+01 -1.436222086679628163e+01 -2.039749836184353171e+01 6.683171943170026275e+00 -1.832224303238200624e+00 1.726987798475892930e+02 8.708700700336879663e+01 -3.988184534303693596e+01 -5.429508450238009232e+01 8.153522325914707380e+01 3.377431118925201048e+01 -2.610015307265751971e+01 -8.117161682601430073e+01 -7.598910151526885670e+01 -1.422227360785465144e+01 2.978000492612435934e+01 -2.006356636103712106e+02 -1.016432610001492947e+02 -2.684666389380604201e+01 2.075555801097368089e+02 7.283580869358232235e+01 7.893566258187058793e+01 8.263633707754421209e+01 1.223532430672282789e+00 -8.147775263495699960e+01 2.134508110772450493e+02 -2.519579556527585567e+02 6.050292618524876076e+01 -1.237129945829294968e+02 -3.568729936258964131e+01 4.147601444851105157e+00 1.304196705015075395e+02 -1.265181249930084135e+02 -1.407315888968338591e+01 7.965040514585348319e+01 1.786689139947844751e+02 7.347194182371464422e+01 -7.046274487816816645e+01 4.247789399464461013e+01 -2.919860751365764173e+01 -6.800206323666898811e+01 1.611907566075535669e+02 -7.270146329574636468e+01 -5.366342093951794823e+01 -1.433569556967188703e+02 5.863424781122668961e+00 -5.203923576709866694e+01 3.978927260092992668e+01 -9.132822213238536335e+01 -5.154252077141951105e+01 -1.043862988614295801e+02 -1.600007893067953262e+02 2.006145825224486146e+01 4.664922739157325537e+01 -1.267356313914991262e+02 1.324330302238820956e+01 -8.165772019719813102e+01 5.055970703281785461e+01 1.714808966469737186e+02 -1.484930719644351313e+02 -4.460251179854620318e+01 7.384593706023205861e+00 3.006245860084983512e+00 4.362002473701026872e+01 8.645788513681546306e+01 9.714564735919235527e-01 -9.029563008491290788e+00 -7.210961806035130905e+01 8.058386924771930637e+01 -3.377612909203946145e+01 2.705665792842784256e+01 1.070712468428665147e+02 9.085438358084319077e+01 -4.400166368097971770e+01 5.955017507724535619e+01 1.517951730405277146e+02 1.196294248306657266e+02 -4.166604382939027573e+00 1.793748933623376729e+02 -1.147982576248962090e+02 4.351838817328625098e+00 -4.317628979642079656e+01 2.129654640028953168e+02 -2.184994911176488586e+01 2.950516716255749738e+00 -7.905121470034201536e+01 -7.334838171053830180e+00 -6.575825427486383035e+01 6.975972201351298452e+01 -9.733540305818902993e+01 7.054699626420622849e+01 -4.913967098174671833e+01 -5.124803081393987725e+01 -9.436239508409444454e+01 5.468849875611774536e+01 -5.636549965823942898e+01 -1.537553098584996292e+02 -8.183765993630444768e+01 -1.077197912324777320e+02 -1.618858145427196007e+02 1.399801873278649111e+02 -2.835163493981706040e+01 3.296678699990765438e+01 9.232359466713734264e+01 -1.071825690639090567e+02 5.867529894447044825e+01 -4.460888420510588759e+01 -7.132594495732692508e+01 -9.271310052438713001e+01 2.093479047627331795e+02 -5.842849713948866253e+01 -5.093470646484971809e+01 -4.864861059152915601e+01 8.279083364317028781e+01 -4.262326854914853413e+01 1.421007789864144684e+02 -5.130849583089262467e+01 5.669273656040766696e+01 4.676124114322254499e+00 -8.358829206621066987e+01 7.088654125061343336e+01 2.855964756342707460e+02 -9.471900644852946982e+01 4.892035518103544689e+01 -7.846844667349675717e+01 4.657463335365860502e+01 1.350802812826996444e+02 -5.287267608160190946e+01 1.500375286383807882e+01 -2.770965376809695258e+01 -1.049591892677067335e+02 -1.776958943376655498e+01 4.380374507669502648e+00 -8.062301798055010238e+00 -1.541081105307100252e+01 1.218014323076322967e+02 1.342194637340471672e+02 1.920196806516354684e+02 -3.134045695672772922e+02 3.936673672316270967e+01 -1.620918729285022408e+01 -6.423782583160993909e+01 1.857699393789093847e+02 7.855463777975332107e+01 -2.633101514474625038e+00 -1.194972379893070524e+02 -1.125225360488932758e+01 1.031315044244241648e+02 -1.385212837351480175e+02 -1.737992653744360041e+02 1.106331747729584691e+01 4.374805677253085179e+01 -6.288080374845108622e+01 4.332725111976940724e+01 -1.103941395530618195e+02 -1.560227421098471723e+02 2.178553163453235797e+01 5.009385357177233544e+01 4.940050687413859443e+00 -8.613234664113205952e+01 -9.653570342509414104e+01 -8.700993056026646855e+01 -9.031022315937175904e+01 1.300872035765556589e+01 5.865940370549781591e+01 1.202183900365306073e+02 8.199589415579185925e+01 9.238205143711266487e+01 1.109013991026949526e+02 -7.723377194319927241e+01 -8.521824783509374868e+01 7.283313646498122296e+01 7.066831792325297101e+01 6.119329737587016638e+01 -9.711170852698794320e+00 -9.412551121268710119e+01 5.579166178989945024e+01 -1.849658019959441333e+02 6.942494186296964642e+01 -4.608632279328637793e+01 -9.976750447868104743e+01 7.676537802804769228e+01 -1.770946855294998201e+01 -7.984854161159769603e+01 -5.950727294529398392e+01 -9.456118231729979229e+00 2.512708633197308359e+02 7.952354023343082190e+01 5.679846922826559563e+01 -1.076761563195308185e+02 1.536400468120013443e+02 1.066499340688545683e+00 -9.372450274750667631e+01 1.615370283599122274e+02 -1.598776595523331707e+02 1.636133520484956705e+01 -3.378850919572798972e+01 -2.305114817804700635e+02 -1.399876054807512560e+02 -9.153164363891247035e+01 -3.067556738585870235e+01 -1.251204133087898640e+02 6.050710415612559956e+01 6.816795357927109933e+01 -2.890559777780658735e+01 -1.045892877073202953e+02 1.186550091584830682e+02 1.240555742440162987e+02 4.849389897325708176e+01 1.830146184971208356e+01 2.742477973705911722e+02 4.584582722383942155e+01 -1.253006249102614049e+02 -4.727026752470351312e+01 -1.772888312477844863e+02 3.345869028878089324e+01 1.610064381820734241e+02 -1.558631377872387134e+02 1.383417670774020110e+02 -9.553420131354215528e+01 -1.983427320166998697e+01 -7.602446450154649593e-01 5.551307326887230431e+01 -1.220432348452574622e+01 -2.392431692317497749e+01 -1.991237721267873084e+01 -1.330641900235968933e+02 4.879263674540469253e+01 -3.191569313533583241e+01 -1.367081403036131881e+01 -1.125364168323021374e+01 2.374586435131826079e+02 1.830447198833558957e+02 2.444834163222329551e+02 1.385223183444018957e+02 -9.099049431181222758e+01 7.905564437220874652e+01 2.217722920751986848e+01 5.006296787627230316e+01 -4.179476226511852133e+01 2.685161033950442970e+02 -2.448070006759558837e+01 -1.437414161456498221e+02 -1.573307305838199355e+01 -4.817082556468525212e+01 -8.139922790542510711e+01 4.538491928727959390e+01 -1.231715452835414659e+01 1.912919075941286451e+02 9.721517799109186342e+01 4.300349965527330909e+01 1.031244561619221258e+02 9.932169085469114123e+01 -2.417966358303310415e+01 1.468693130416181134e+02 2.783836920867327791e+01 9.419800435776613767e+01 5.010461530219942716e+01 7.301036065943331543e+00 -1.217875579571199722e+02 -1.218263202591149650e+02 -9.467838897385621522e+01 -1.638845152229866642e+01 9.118046545986317142e+01 -3.227206123539226468e+01 1.040343103289999505e+02 4.607548959861502880e+01 -7.650646949885098991e+01 -3.153818012779844082e+01 -6.165047226309282280e+01 1.847317380758623528e+01 -4.876290980641950767e+01 -1.178735795747227257e+02 1.278722729980822947e+02 1.276402866395451383e+02 -8.303781278616325778e+01 5.762450837670303194e+00 -4.765762509551623083e+01 -3.433508731145728632e+01 -1.193277554766934756e+01 -3.283150838400504057e+01 4.673629171106408364e+01 -1.477992129120321181e+02 -5.556269868523746425e+01 -1.597699168013717781e+02 1.831280775835540737e+02 -2.130590818231255312e+01 6.200551949271219598e+01 1.255616183617164161e+01 1.518252558067482028e+02 4.695959551684933331e+01 3.758588777016091598e+01 1.622177349417503365e+02 -5.177806194837396703e+01 -1.025383183471014661e+02 2.851824295097728523e+01 -1.660209972258763287e+02 -5.609477153170531238e+01 1.074456809078025827e+02 -1.342227136449558884e+02 -3.820160846527674181e+01 9.589570608206078361e+01 -9.926768198671921084e+01 -9.402357685773519336e+01 -8.681001718194151806e+01 -6.705858010017242066e+01 2.614808649023781868e+02 2.080906900782520665e+02 1.081650973195616672e+02 -1.072968290772159889e+02 7.859908950834510222e+01 -6.938310894508090598e+01 -3.271009671050888556e+01 1.741575378366749760e+01 -3.374232381802170266e+01 -9.837087152402956747e+01 -2.819869953068116608e+00 1.554046461103722798e+01 1.140482126298842473e+02 -1.347048659807458648e+02 4.387058426297154767e+01 6.681564135444503449e+01 3.622662321595101531e+01 -9.493536877872703883e+01 -1.555517570862500065e+02 2.024088961606845203e+02 -1.866544728108022966e+01 2.638152952252093542e+01 1.638597551004403385e+02 2.792397581260307859e+01 2.905020713871475735e+01 -4.660097449220635468e+01 9.270477661291515403e+01 -1.426823567124625640e+02 -3.224164491376942010e+01 -6.416755978713429620e+00 -5.589280598901825670e+01 6.427203685588663618e+00 2.230755482189035277e+01 -3.743120500279274410e+01 1.429294189135522153e+01 2.234837333967945199e+02 -2.863202569869922698e+01 -2.922529862522061705e+01 -1.062864035976859896e+02 -1.736898073694538747e+00 -8.443260907857772679e+01 6.709838393204221596e+00 1.171380864677858824e+02 -5.439108299791287493e+01 6.327591430525193239e+00 -5.678849339221261516e+01 3.492304774716160409e+00 9.115612327460577546e+01 -1.210856943232380587e+02 -1.011570823429449177e+02 -1.071610206919957449e+02 7.462673673192371382e+01 9.045744937688613163e+01 -9.648262596229248800e+01 6.539858371502162981e+01 2.696210814901895603e+01 4.042432013173869620e+01 -1.856026075528318486e+01 9.542432544085524171e+01 8.332450012758607727e+01 -8.075701009274560249e+01 1.241227280778892705e+01 8.453596634981184366e+01 7.613686680001866591e+01 -2.075745497844656384e+01 2.611378418019508985e+01 -1.385155147151014035e+02 5.067062101819138320e+01 -3.422603539561414010e+01 -3.408927886279516883e+01 1.809243427262212549e+02 4.957087476295166795e+01 1.255970517936754902e+02 1.994588434530658390e+02 -1.438528559193987064e+02 1.557026385090409519e+02 -6.618563006999623610e+01 -1.411521744566349241e+02 8.599823568515117245e+01 -1.400784809215876692e+02 -2.997860641278013460e+01 5.894861979075952974e+01 8.466370067912436070e+00 -1.755693475354993041e+02 8.795760890278081945e+01 2.632745290221695456e+01 7.218456416680437826e+01 3.787512509878698808e+01 9.903077977564771928e+00 -7.011218099094193690e+01 1.209157717462067581e+02 5.691028210477606564e+01 -6.489962791716197898e+01 -1.057486687836393742e+02 4.070703798353331138e+01 2.678068314671351047e+01 8.604260504291030998e+01 1.918812944562144196e+02 -2.574687232898258316e+01 -1.150394190547473130e+02 -8.854386520972866492e+01 -5.360822535714322612e+01 -4.638737047085304255e+01 -1.532733650674385615e+02 -2.348609451098105438e+01 1.352261465416273438e+02 7.787003897364526495e+01 -1.278143190179643227e+02 -1.564461407860567874e+02 -7.115026753689723193e+01 -7.979529762642539481e+01 1.532244712682081342e+02 -1.780152580289579305e+02 9.035000378929703402e+01 -4.813291283217218997e+00 -4.491988357179572944e+01 1.390771640446568824e+01 9.524208056595318794e+01 5.182420510383401080e+01 1.443332403490515503e+02 -1.661750003356077912e+02 -8.455953448314457432e+01 2.643597129500320264e+01 4.379868175055861457e+01 2.152984234509099508e+02 1.518760673525022185e+02 6.840479091262591282e+01 7.529651131310964729e+01 -3.580740138322673261e+01 1.585691391729354791e+02 -1.872227650167624518e+02 -6.617992981384547591e+01 -5.606419231659326385e+01 -5.408450823542796115e+01 -1.078740144848349587e+02 -1.563660817019562899e+01 -7.168444881878177455e+01 7.434252356151070273e+01 -9.579797633805458901e+00 -6.069963099526081862e+01 -6.510417898536125847e+01 1.881498149715550312e+02 6.156345204244036040e+01 -1.428488801494578020e+01 2.180794169369872861e+02 -1.130808999515425342e+02 -3.690208874313059084e+01 6.990103883536259843e+01 -1.304569980687321495e-01 1.557238378045641447e+01 -1.305199885920275733e+02 1.839220282757750056e+02 -5.117501617456619556e+01 -2.815848997515012542e+01 -1.145156917414159921e+02 1.313473125683591718e+02 1.001035240129890127e+02 -8.091206370712573914e+01 -3.915973148511695001e+01 4.061278235709519180e+01 -1.579749266754447490e+02 -1.223888334455104782e-01 -7.792927138855226588e+01 8.051470299802296893e+00 -1.127985619291455350e+02 -1.653537779119519087e+02 -7.370379644860270218e+01 1.545008806467253635e+02 5.903246352047724343e+01 -9.342101930760408379e+01 9.299963398058231689e+01 3.571858792044930908e+01 9.201350770347450236e+01 -4.389397465426767297e+01 -8.766399343745926842e+01 1.782107574794446236e+02 4.343260678777032524e+01 3.017649060334810329e+01 -7.608167141252768317e+01 -4.407445009230264077e+01 9.982423706520330953e+00 -7.447540704999945582e+00 -1.799902121750261301e+02 -3.602523996719391164e+01 6.709088002564540432e+01 1.162427331750475901e+02 1.620898268114903829e+02 -1.380066725704319452e+01 9.328098249057502755e+01 1.641225590960393390e+02 6.601220578219175650e+01 1.538291895968652057e+02 1.670933601077055997e+01 1.365737229456511557e+02 -8.730151051839023069e+01 5.551477923578745077e+01 3.053060523996499853e+01 7.887705414118532588e+01 -1.103782886506965042e+02 2.057379999307576099e+02 -1.338584510838323638e+02 9.169915125296364522e+01 -1.116228012577088720e+02 4.789477607249936852e+01 1.432014997899786124e+01 9.418224702383916735e+01 -7.649152873127619046e+01 -7.836904903414351509e+01 -1.160578907043978525e+01 9.243494894145480600e+01 -3.068681136586489799e+01 -1.692669824773932774e+01 -2.036158562285095641e+01 4.913421868056147446e+00 1.017450702342317470e+02 -6.486504917631508249e+01 -2.820123826813421886e+00 -2.006174425757532163e+02 1.260594318218276157e+02 -1.290604951199694597e+02 -7.637296699995911808e+01 -2.434717831777750874e+01 -1.115321951332202417e+02 -5.495176434965549106e+01 -6.051606806909151004e+01 -2.031191557476886445e+01 1.408456679509063463e+02 5.586641627689573397e+01 1.038023744206345214e+02 -1.406408478439551573e+02 -1.432185612919213327e+02 -2.960334569798986877e+02 1.055339032670614330e+02 1.077853633243101115e+02 4.366424787019677467e+01 -4.380766906241485970e+01 -3.849038207327252792e+01 -1.897573207795163626e+02 1.510562976750321980e+02 -1.110269451927067905e+02 1.105437876684061820e+02 -1.645859955049676557e+02 -1.478137340025418389e+01 -5.723411344153384306e+01 -1.232474558784322767e+02 -4.764026808641763466e+01 -1.288022718657271781e+01 -9.576122018228221577e+01 -1.070062617024307201e+02 -1.276630754660234324e+01 7.361398752320090466e+01 -1.288529878662781698e+02 -1.621004103760391502e+01 -7.625587745185059418e+01 -1.358674493389420945e+02 6.939714620833676406e+00 9.845280446058377777e+01 1.711143709803957051e+02 -1.973126504489045629e+01 -4.763221006458290674e+01 -1.283576123345326039e+02 -1.691303476148734148e+02 1.072963926059054529e+02 -7.524354990154267853e+01 8.174828722641669287e+01 9.731026486799958519e+00 3.027919025164989719e+01 7.640216354213451666e+01 -8.763128820724094226e+01 8.550915262609035494e+01 1.192523556454431031e+02 1.628292049893933608e+02 -1.206618545513180862e+02 1.075348333596678430e+02 -4.940555389843012790e+01 -9.394112899799215199e+01 2.219833134097413563e+02 5.099066800421646661e+01 8.636354009933916132e+01 2.206762786759123784e+01 -6.532826497078339401e+01 -3.615261538866582214e+01 -2.176710561076635884e+02 1.092925372525773327e+02 8.435370543902358520e+01 -7.833391046005085911e+01 -7.572167816152411035e+01 1.502497268021954255e+02 1.045806171904541770e+02 5.288682265592575504e+01 7.874309807843461329e+01 -8.200715007769355580e+00 1.067931485372186842e+02 -1.071107834075108656e+02 1.929285244058860656e+02 -4.085706739972624035e+01 -1.262253621278206026e+02 -3.895183628019027822e+01 7.424792193335919421e+01 1.524853573969070339e+02 1.341382590425453358e+01 1.798816667372508675e+02 5.403956777520829746e+01 3.477487056803814625e+01 -1.152123132225732718e+02 4.639645660022856788e+01 -1.294312109352974289e+02 4.934182833829893866e+01 4.002664636679528343e+01 -1.276238747850037072e+02 -8.800119500776133918e+01 4.121100308240783505e+01 9.031394145051052647e+00 -2.406403540772082650e+01 4.329706236068771830e+01 -2.214365819330643959e+01 -6.529819220480305830e+01 -2.700895632370862387e+01 -2.326352431079006777e+01 -4.122726710384694115e+01 1.944489347177385241e+01 -8.328206762443133471e+01 1.231147487335070281e+02 -7.695684722480420703e+01 -4.481526967824080110e+00 6.775360434110120877e+01 4.049430773067254741e+00 1.648860581332570874e+01 1.650639080910031709e+01 -1.212441203439444308e+02 -4.580307729397977035e+00 6.733049786837506190e+01 -2.395297454994485236e+02 -8.779270725072763071e+01 -1.166818173545322281e+02 4.531221651459028266e+01 9.958924732421883164e+01 -9.493885288201272488e+01 -1.737502428324992252e+02 -1.915710442607154107e+02 2.068036461747135490e+01 -1.499945575283347239e+02 -6.532214215930843615e+00 1.526701914027664770e+02 -7.374854985391722906e+00 3.841914040313054812e+01 -1.022611624343270904e+02 8.246369315053156868e+01 -1.224000780036680283e+02 -1.588573347697119509e+01 -3.129488946106931024e+01 5.936653729563875714e+01 -9.182841670289757730e+00 1.089469977129214158e+02 -1.257579056661347039e+02 -5.159183317560034254e+01 8.907269384148769120e+01 6.810685976180067769e+01 -8.479731469040946479e+01 -5.596851094292602369e+01 -5.076256946378736501e+01 -2.976080882307484217e+02 1.990006407239973214e+02 7.827679317467061537e+01 -2.427941492527346767e+01 -3.047992065120201488e+01 4.267143557685803046e+01 -8.649282517607748844e+01 1.022600843294252115e+02 6.205509091515394715e+01 8.426081905448107534e+01 -8.632816007683211978e+01 -2.731107943102911761e+01 3.424669248509555075e+01 1.783652341264944141e+01 -4.390632777352152516e+01 1.619439179141657519e+02 -1.774671030512503123e+01 3.627337205969872258e+01 -2.356267728137904101e+02 -8.685341104407046942e+01 -7.502651406751991203e+01 2.359033027837837082e+01 1.119306153657506258e+02 -2.374140145058895541e+02 -1.916934381399203744e+02 2.272187758485582947e+02 -1.083593421682795643e+01 9.848277628860992650e+01 6.432406048210437177e+01 -5.676508462453568171e+01 -1.342631854140305450e+02 -9.752936292680317365e+01 -5.152158284543760658e+01 -3.838541686081259030e+01 -4.012518851408916731e+01 1.659720294593178380e+01 3.802971534729381631e+01 1.709272516412851814e+02 1.262251874670553065e+02 7.068237230174736041e+00 -4.480908488313077420e+00 -1.627673376805823580e+02 1.226168307210518833e+02 1.632918720172654616e+02 -1.059537484311322117e+02 7.556723045359113655e+01 1.855191448324140291e+00 5.622755680952029422e+01 1.285847119946325279e+02 7.270250541660834642e+01 -1.373368972448234615e+02 1.656640991510048977e+01 -3.011525662475832021e+01 1.141349744009094280e+01 -2.378429816388154094e+01 4.650376820529819355e+01 -2.670316032461914801e+02 1.858146526332489259e+02 7.527405539420129799e+00 1.635198283629548541e+02 -1.085601798035926713e+01 1.089601515763891513e+02 7.350421463691193935e+01 -4.313213660881442735e+01 3.065797778598514611e+01 -7.469883808473828424e+01 -9.132162449988614128e+01 -7.402997883964032155e+01 -3.290670708479796502e+01 4.641674287774414864e+01 1.131871495843044073e+02 2.929598425431432673e+01 6.376449800301327286e+01 -1.077012609775681540e+02 -1.409373776370671862e+02 -1.385963417996106806e+01 4.771318953852745892e+01 -4.683093364392473745e+01 9.716002053594652921e+01 5.706247858706726817e+01 -2.843981233518375973e+01 3.080446152356928025e+01 6.309410676246620397e+01 -7.418042712933888083e+01 -1.375379756301794885e+02 1.461698544394138821e+02 8.042215481046047998e+00 5.159753509041316022e+01 -1.536147527171043521e+02 -5.496286955521028972e+01 -4.931782095100030183e-01 -6.761266560218399491e+01 4.405903727662667357e+00 5.794578264043293103e+01 1.919987087860399413e+02 4.029546797044470452e+01 -1.129806868389697883e+01 7.435485873795288114e+01 -4.687898164261871869e+01 -1.123109914233386917e+02 -1.424555730451560009e+02 9.670374847495747161e+00 2.589271139004804567e+01 2.451355406206882037e+01 -5.865657297083669874e+01 1.246422051823576993e+02 -8.340459782470351513e+01 1.324090933627165327e+02 9.009178598681955918e+01 -6.713155196785733381e+01 -8.737545104660767947e+01 8.690305033924748557e+01 2.117752048350994443e+01 -5.417696696085504726e+01 -5.561512883830680920e+01 1.411167894622540473e+02 5.916945853595074567e+01 8.249638432478552375e+01 2.701219331693628689e+01 -4.350338969328064564e+01 1.110880283681255776e+02 -5.639149030917265293e+01 5.349150386209622354e-01 7.918113982793677508e+01 1.029543377059291913e+02 2.641321741333050568e+02 -1.811059687150270463e+02 1.664866618889605547e+02 -6.996010658170128238e+01 -1.574694372262795738e+01 -2.588816622610746876e+01 -2.145997921938996100e+01 -5.714983995230772251e+01 9.618619801830995186e+01 1.906614128455889556e+02 -1.230892163920204467e+02 3.205090982371859809e+01 -1.315348810495103180e+02 7.276979523818748419e+01 -4.616584378404863998e+01 -8.398239712424359027e+01 -5.589304640028832694e+01 4.272275299737123078e+01 2.014561156610895765e+01 -8.496425042121661875e+01 -1.465548401625512724e+02 2.159146622220706746e+01 1.638317000581643867e+02 1.485182786675384214e+01 1.897766689361139640e+02 7.771314472662656847e+00 1.400551915202402427e+02 -3.601429290020351459e+01 9.440163047991210021e+01 -7.439187989104802057e+01 -1.175911683840302828e+02 5.149627813498511131e+01 -6.046448169166680486e+01 -8.182178444538094197e+01 7.603018016283671443e+01 6.699528515273463825e+00 -9.836870000057125196e+01 -1.570296000854768863e+02 1.543101470702364111e+02 -9.307426334985923688e+01 -2.426736822907600288e+00 1.253742688228348499e+02 6.063150002919136483e+01 -1.025713320129424631e+02 1.107642470784972488e+01 2.947484829751788880e+02 5.575921894662128153e+01 -1.649427895894071128e+02 -4.988827716847335125e+01 -6.438420693460895450e+01 1.008889057627805741e+01 1.125475866325017051e+02 -1.082699496385144329e+02 2.255272230592755989e+01 1.366315296214076795e+02 1.966541693028958449e+01 -2.212162489900323408e+02 5.066792252311287115e+01 7.905256652266773187e+01 -1.420670341657662838e+01 3.437158162800702144e+01 1.197451125286987106e-01 2.353006935134319022e+01 2.905652004387581400e+01 1.213135741631115110e+02 1.026605535037949863e+02 1.623369115858720235e+01 1.561321617394606847e+02 -6.707296664025194843e+01 2.584046270213676735e+02 6.811817599662855116e+01 1.484279800096440169e+02 -2.303159803787602300e+01 9.435915336764232109e+01 -5.144846068160240549e+01 -1.533872200638738263e+02 2.746816134920462815e+01 9.970055505980633370e+01 -9.185298512562394535e+01 -1.097722388033460419e+02 -6.973757279442131107e+01 3.833502091713567950e+01 -1.197685332388369090e+02 7.835229567102825854e+01 2.945101363590148935e+01 -1.023235350592928086e+02 1.991362570049700764e+02 -1.233363929884908927e+01 -1.066440005909984734e+02 -1.400373151475660904e+01 -2.142226276881054758e+01 -1.470250332375476603e+02 -4.198624772152994211e+01 6.447076200342071672e+01 1.381335309224852779e+02 3.040487552384497860e+01 2.807982395107236684e+01 4.696049375125836178e+01 -3.751803566013972357e+01 -1.526254398361431299e+02 1.659280917247636111e+01 3.252469842508177322e+01 1.395277805833724472e+02 -1.045521907780351079e+01 -7.984891372051025371e+01 7.676897397591272920e+01 1.061002824801176914e+00 3.356208995241205173e+01 1.460982976464310923e+02 -1.862165927128061185e+02 -9.735732994453422862e+01 1.307888717414398627e+02 -2.198320320785860531e+02 -1.873980097215214187e+02 9.268611184495938460e+01 1.569143591673470723e+02 6.455669307685359115e+01 -4.514212297805348939e+00 1.587612642665078795e+02 -2.236133355982655928e+02 1.091879105270502492e+02 4.318697380144945441e+01 1.294899237657546394e+02 -1.921673706217944755e+02 1.086421624893890936e+02 -2.885504798743418675e+01 -1.362406240787112779e+02 -5.430448262435557893e+00 -9.417096661842576566e+01 -1.668031416732570449e+01 -4.324848913376725612e+00 -1.255245982288926854e+02 -1.256552285129275504e+02 -6.376979415487185321e+01 -1.313856913601240421e+02 2.048204167300362997e+02 -1.640173381148287604e+02 -5.110926143139688094e+01 1.758027396281324854e+02 3.456370723449101945e+01 -3.015838066294240889e+02 -1.294562944338121326e+02 3.621210507040468229e+01 5.566950765131892354e+01 8.805678284458139160e+00 -1.575858094509441969e+02 3.636510414284973791e+01 7.583408199189597632e+00 -7.573386579126507456e+01 2.065294059156835829e+02 2.064541573203935059e+02 4.401216911166669910e+00 -2.124605927754236632e+02 1.283857689174247696e+02 3.136952298662533778e+01 3.786477734458459476e+00 7.811086222094604636e+01 -2.113774376189020643e+02 -1.406642405016079636e+02 1.437334421169190648e+02 1.117077471990948396e+02 5.395473406114221859e+01 1.459725886867028919e+02 -1.816343177395450255e+02 -2.079890571557049839e+01 -1.329225082479861726e+02 4.436173218333365753e+01 -1.058207677853807951e+02 8.867373840978800104e+01 -3.448775730048443933e+01 1.261421488275357561e+01 1.807704771428371089e+02 2.899661495370472153e+01 -2.685449816717930958e+02 -1.287209486473308573e+02 -8.493721720642793116e+01 1.610872463801495087e+02 1.276775507197595694e+01 -5.478248315009110314e+01 3.099654731378401351e+01 6.372147989263400092e+01 -4.035335971096100849e+01 1.095453437823865670e+02 -1.026295939303341385e+02 5.014099812093714803e+01 1.140346942223440863e+02 -3.606360361608845011e+01 -9.997289787662163008e+01 -1.155236655798643426e+02 1.220148267329923613e+02 -5.057908713107911325e+01 2.002579703759795393e+02 5.828281030243404359e+01 1.130569808598781805e+02 1.878259989547117073e+02 8.726723675821981274e+00 -1.265955009702471443e+02 -1.689190440398697888e+02 -1.163611632479258020e+02 4.324933366712462401e+01
-1.357650314172439288e+01 -4.771178541324157862e+00 1.030851957174149618e+02 -2.279069833474091524e+02 1.546687435465447038e+02 6.324031039101060969e+01 1.513991178029354501e+02 -1.285253446451681327e+02 -2.781553347079579908e+00 -2.397040421122033038e+01 -2.184133635504374809e+02 3.259913602957827550e+01 -1.824223806312633656e+01 1.216939430928164541e+02 -1.244226482988938045e+02 6.140709536548598635e+01 1.247159948184867631e+02 -4.571214951722035380e+01 -4.946561575227957519e+01 -2.695990523380280024e+01 6.138484292994456837e+01 6.283866567843390527e+01 3.224515094953226679e+01 -2.314154426511671261e+02 -5.141102287113217528e+01 9.101536741762490124e+01 9.848722457477739667e+00 -1.028463587161808945e+01 -6.621963541593994762e+01 -1.535731408803998299e+01 7.298039944602447804e+01 -1.446987973046215359e+02 -6.157476317466654336e+01 8.964546669762363251e+00 2.064516898416869708e+02 2.109876965465266778e+02 -3.187338018220857094e+01 5.561329715488741243e+01 -2.838223097390214500e-01 -1.389889029433435894e+02 9.552157153009395074e+01 1.067288805702519170e+02 1.079921512535553063e+02 1.164568208118597425e+01 6.160410847962567971e+01 4.789330795026493348e+01 3.870055615741929955e+01 2.916026302635789236e+01 1.097518468952899440e+02 8.929067833047834313e+01 6.529745976922137629e+01 1.621629748914647564e+02 2.463777052794128508e+02 1.945961828458199250e+02 -5.883082094449519417e+01 4.902156053919276957e+01 -6.399265718262225988e+01 5.615752599633680120e+01 -1.911701014137749155e+02 5.622359353537265747e+01 -2.037834381291026489e+02 -1.678724355553934515e+02 1.287307020281149050e+01 -9.177793399662705909e+00 1.687169962497649465e+02 -2.068810101545583393e+02 7.492131413957312702e+01 2.286561559429003410e+02 -7.261530280313849062e+00 -1.937103755285672548e+02 3.544288915138378115e+01 1.962802074437526869e+02 -6.079828024038025802e+01 -2.651471780349563687e+02 -1.020686358998917171e+02 8.757645811206868913e+00 -2.289939308659162691e+02 3.183563923826330111e+01 -1.786249925855354093e+02 -1.847599376005211127e+02 -5.681196113737493647e+01 1.518376156646513380e+02 6.923708711886057188e+01 1.055232046288412739e+01 -8.822995569644578495e+01 -4.243638850020746389e+01 6.351049304793419736e+01 -2.311489470746903407e+02 5.390324283646329917e+01 -7.476895285580782513e+01 -7.779448120813421497e+01 -1.761571358143747261e+02 6.488432775066112868e+01 9.246080695800561955e+01 -1.617830302536706597e+02 1.721639141392580257e+02 -3.978161300051815630e+01 -1.685881008657229430e+01 8.724164678777870563e+01 1.557934988028725343e+02 2.158803623258273063e+01 1.509645159780558572e+02 -1.838890435908487575e+01 -9.043321119650155993e+01 -1.956688511840480160e+01 1.007961939860892500e+02 4.609395314763906271e+01 1.002678291652597551e+02 9.676973274246644507e+01 -8.510477203596113327e+01 -1.741629626698433810e+02 1.261433541129068772e+02 5.562281983357718218e+01 1.653298773209619554e+01 3.135256649401582862e+01 -6.963553096862111147e+01 9.846540133147479423e+01 9.209075264233811708e+01 -1.399148863635746132e+01 -7.303766047473366996e+01 3.158285898463891428e+01 6.427494454795975365e+00 -6.313038133976826316e+01 1.738576507458926415e+02 -3.389615151369496715e+01 1.247389255892581730e+02 -7.193544802077610711e+01 3.937831924439651488e+01 -3.707644352000317411e+01 9.177730384398570607e+01 2.410781079582191921e+01 1.185993605967026667e+02 -1.190232349208788349e+02 7.630208168144832825e+01 1.267702709946066761e+02 -4.591773371564954687e+01 7.755968833140578056e+00 -1.295219911382135791e+01 1.198754352602916100e+02 3.587466461604098544e+00 1.732554873540808842e+02 -1.452366937828201969e+02 1.198707772408021555e+02 -9.386810336756164475e+01 9.834998164351453909e+01 -1.408144095133531550e+02 3.034200830754786793e+01 2.541660315273376369e+01 1.888203258877186652e+00 3.732261338674902618e+01 4.713903982970528972e+01 -1.280319304832288729e+01 1.105906078572148132e+01 1.111257975042988448e+02 1.308674581507229675e+02 -8.910367432358074780e+01 -5.578646809209776336e+01 4.873689872305529747e+01 1.598297876387063665e+00 -1.408518112499992583e+02 -5.664109996967888350e+01 -3.650806251638597644e+01 5.034795538597082043e+01 -6.748418965414624893e+01 2.360998625447419741e+01 1.650487717261820819e+02 -8.181757106160659987e+01 8.314660580427995740e+01 8.660227620747575372e+01 1.153505531546493756e+01 1.271201384856967138e+02 6.477800192268337298e+01 1.731306033796488748e+02 -3.556427743668549368e+01 1.159192961792133048e+02 5.723809296578487960e+01 -1.658308842160343133e+01 2.104562488938721572e+02 -1.431549510215009207e+02 5.040432935709499418e+01 -1.934824308673447888e+02 -8.686028147554303303e+01 4.231804207038313592e+01 -7.451220423008942362e+01 -1.608792073443312347e+02 2.057564807062068724e+02 -8.856625085032294464e+01 -4.903496151682169568e+01 -4.779659657892203484e+01 1.257320273312175090e+02 2.011853131101999566e+02 6.689096370820057302e+01 1.510751617376180320e+02 2.266901762393012518e+02 -1.696343574935738951e+00 1.683294103432969564e+02 7.324502114888147730e+01 1.967145496893450343e+02 -1.299347635918092578e+02 -1.228623634054727276e+01 6.535140398502575998e+00 1.962821390617767179e+02 -9.395042854279665789e+01 -6.244430121359441443e+01 -5.472382251204318493e+01 -1.383716890154931320e+02 4.813207814648303717e+00 -1.043053893115152135e+02 1.591898742221426062e+02 2.437061430776942572e+01 1.242358737340940245e+01 7.471858716490484653e+01 -5.117903739884351211e+00 1.208104134086916162e+02 -1.641116940795227208e+02 4.690045212748108838e+01 -1.765773324099974957e+02 1.213344567295485632e+02 9.917294252250486863e+01 -6.957773233182571460e+01 4.829736985138764993e+01 2.460619571733348891e+02 -3.145565654974256375e+01 4.305339640770193199e+01 -3.375461047045736507e+01 5.986010803753850240e+01 6.644453905450845355e+01 -6.471322707085314541e+00 1.053377875615909147e+02 1.049272478218006057e+02 -2.003206891759005828e+02 -1.583354751196722816e+02 -1.237688323769807539e+02 -9.783910769156616283e+00 -1.547813678372410777e+02 1.193728237629056679e+02 1.140289265750618029e+02 6.090290607869695805e+01 1.152710582309226339e+01 1.629117091656992216e+02 8.673826136003363274e+01 6.971208234593916586e+01 -1.050228646437171847e+02 1.573142532764196631e+02 -3.676221508125026904e+00 1.129043623279316222e+02 9.101352289151755315e+00 3.795474417518190080e+01 -7.820897524012529800e+01 -9.374057117303721043e+01 7.391999995023613224e+01 -3.938692013006468873e+00 1.510599916910146021e+02 -1.299632519085647786e+01 -2.958590582104476230e+00 4.734007285525527209e+01 2.338657996709655507e+01 1.459762420952854995e+02 1.506774303025314232e+01 3.698057425724402947e+01 -1.596745974433414972e+02 6.797018059895268038e+01 1.379206468035679336e+02 -1.828229412091778983e+01 -2.351928932337579852e+02 8.704930128165381120e+01 1.402720509753093552e+02 2.088577115694989672e+01 1.945060241935387353e+02 -4.211964921058806155e+00 4.414090912343451123e+01 -4.479162689603339942e+01 -1.425412017043428534e+02 5.750553867314417289e+01 -4.874860692959973818e+01 -8.327783771100889965e+01 4.230326952868255574e+01 -1.896924062674273728e+02 7.364602057714073169e+01 1.686109389244430190e+02 -1.038434615851262635e+02 1.773573024079445588e+02 -1.001813684287883603e+02 -6.149650427125512131e+00 -1.076597029597539468e+01 7.848708598128007452e+01 -4.769929565311038289e+01 -1.104745884271265908e+02 -9.065858991705576386e+01 1.492673240032902982e+02 6.050818256680748419e+01 -1.347987553099864897e+02 4.558997475978176617e+00 4.446871429871367809e+01 8.448805242217481748e+01 -4.126662277563044512e+01 6.138665762885447919e+01 -7.054338980635178302e+01 -1.660815829379229456e+02 -3.542496846915297226e+01 1.441669827052647577e+02 -1.158832760358895229e+02 -6.582628694483294574e+00 -1.665831571076269597e+02 -4.843761852411391899e+00 -1.490934189930410696e+02 3.359274589052341042e+01 6.142279710576046625e+01 -5.143092898605625152e+01 -8.419891936290291312e+01 5.746033136221962323e+00 7.598322037902632076e+01 -6.921867517854416008e+01 1.375856697466697369e+02 1.077032914762524172e+02 -1.303261154742110648e+02 -1.076451425204693919e+02 1.378848567040260491e+02 7.283266860351311323e+01 1.532571787458037704e+02 1.023516128816072381e+02 8.283077469187340114e+01 -6.146150329818711100e+01 -8.342081344823635902e+01 -7.860705221114767483e+01 2.085061809227692891e+02 3.108757274191351527e+01 -2.536640852918449696e+01 -6.987139196251308704e+01 -5.100816837896824296e+01 -1.336418043116865704e+02 -1.682570295779336789e+01 -1.780520641090609502e+02 1.269081311549967097e+02 4.672753588498963495e+01 -1.169729917158191199e+02 -4.909246118886321142e+01 1.215327370876775177e+02 -9.844907202997094942e+01 1.043363945277950933e+02 -1.201851787222579446e+02 -1.193194334035480431e+01 -9.690444179016417081e+01 9.100428108270254768e+01 -4.310838014129993212e+01 1.051469710385377532e+01 2.973846354982511286e+01 -1.285012430047336807e+02 1.268542482468757626e+01 4.900612999631152178e+01 -2.275985893859227360e+01 -6.973213724031315053e+01 2.053532870552667760e+02 8.766923988396952439e+01 4.782036375115998084e+01 -3.187052062510243289e+01 8.139035666561353821e+01 1.699521572425816203e+02 -9.361337097670383400e+01 2.123762585526692419e+02 -1.349606819158736926e+02 -1.865198834942922019e+02 1.540133391075204656e+02 -2.372061192561170060e+02 -1.033372699903435610e+00 -2.483264937031370323e+02 -1.550739517989514979e+02 7.274366305596329596e+01 -1.476863522530767625e+02 5.920375728587429620e+01 1.113817554147451574e+02 -1.626327468035638617e+02 -3.058056279208265948e+01 7.643827940418229616e+01 1.357970901154232592e+02 -1.886422796292801252e+02 8.865148612123178395e+01 -9.930012503516310574e+01 -1.002646963608029296e+01 -1.409856055559648702e+01 -8.069568607321714637e+01 -9.158027908132025630e+01 1.838722173688394719e+02 -2.195562117654735701e+01 1.339770219251946948e+00 1.320293722726401313e+02 -8.786569170857811173e+01 -3.490880519188736031e+01 -1.091657447537337333e+02 -4.955500401669336696e+01 5.275242581909762585e+00 6.027976413334274497e+01 -1.371553455913185076e+02 2.409352729226816052e+02 -5.479773192827646255e+01 1.247580391510459208e+02 -4.966203782306766357e+01 1.218895140014446810e+02 1.414827680265709375e+02 4.888685112158343316e+01 1.243102555179575290e+02 -4.400253694510924873e+01 1.425004799919800860e+02 -1.592647110326835787e+02 -6.658605510152808904e+01 -6.413136638000661094e+01 2.597652575899451222e+01 -1.653190331323297357e+02 7.390867926164281698e+01 -3.140739071853476005e+01 -8.418360445870004583e+01 9.129816009610610195e+01 -1.539225460862649584e+02 -9.290759554724048996e+01 -5.355913353103663610e+01 3.370961822987774070e+01 1.322689003779851475e+02 1.190897909213601764e+02 7.045170747522540466e+01 -1.666355198737266896e+00 1.781060393950473042e+02 1.248213162108961143e+02 -9.617373407123439222e+01 -7.964820060785588396e+01 5.658919171958417138e+01 1.019603668036615929e+01 9.980626211804933234e+01 1.697291611384725911e+02 7.188598323283349600e+01 2.480842735208240413e+01 -1.040642237377230970e+02 1.750032201360205022e+02 -1.157837320971176354e+02 -1.683166550145911629e+02 6.691101624088629762e+01 1.134948947078058694e+02 1.997109712958330263e+01 -1.413442025169633780e+02 3.028593753370604347e+01 4.320046213390250500e+01 -2.951755475300327780e-01 1.332268355246872602e+02 9.921547599725573718e+01 1.740177830998278807e+01 7.971435425670971142e+01 -1.089304517753155466e+02 -6.385728609658454680e+00 1.000145684076571939e+02 3.018761631932660450e+01 -6.615461454334074176e+01 2.013864753503342229e+02 2.350185981493425800e+02 -1.276816316306989449e+02 -2.805451175486618709e+01 -2.137698379707304355e+02 -7.338891142464217410e+01 1.592613166525594579e+02 3.488720204350594045e+00 -7.215857066209879633e+01 1.665256881210601136e+02 -6.356388212004527105e+01 -1.632219625281612707e+02 1.387738458705586595e+02 -6.833654715074116837e+01 3.497929613118718351e+01 8.777168026541413326e+01 1.399192017717272130e+01 -2.420251191162360271e+02 4.294195627748426602e+01 -6.202784141760848691e+00 9.148989610231652136e+01 -2.393202006173821061e+01 1.028008610955250646e+02 1.721579294172254038e+01 -8.614293621727615857e+01 -2.079164369764275122e+01 -1.779650635625063444e+02 1.168109755737161493e+02 2.565863005289211785e+01 -4.229240251339463441e+01 -5.263443468666758918e+01 -6.382817148990489642e+01 4.172811050200832739e+01 1.631977751423754910e+02 1.347860886376292910e+02 4.376228525698380167e+01 -2.009508254398882059e+02 -3.939794211745354602e+01 4.448817957378731336e+01 1.191946291290999227e+02 8.862029641705298388e+01 1.570937055809111094e+01 -1.889680845399670091e+02 1.338127831979840323e+02 -2.272759880305974889e+02 -2.090378622611897015e+02 -1.890388064149131075e+00 -7.494000590969527309e+01 -2.443088982861153724e+01 8.850717389549673442e+01 5.680307724657475177e+01 -1.129747278446246526e+02 -1.538085852477021263e+02 1.483376648554938981e+01 1.256373993589931217e+02 2.105509273658453395e+01 -5.760220494669045621e+01 -5.239879950568833777e+01 -1.200677672024034592e+01 1.639095425386205704e+02 2.273582736702061169e+01 -1.795133023156458307e+02 1.325924346550848725e+02 -6.903653378925078243e+01 -4.319944529090125940e+00 1.592241204161748556e+02 -5.410572008944048861e+01 -2.023779570432389363e+01 -1.135813598696604458e+02 -6.220083411023929365e+00 -2.467890458531939402e+01 1.362168943996641701e+02 1.242002101166381181e+02 6.987909743842143939e+01 6.761260191508198147e+01 -1.935412663630180319e+01 1.398590836690571280e+02 -1.165654866917480064e+02 -4.415432080250765168e+00 -9.415137624873656819e+01 1.625283203015444258e+02 7.543684847851613995e+01 5.347722612012483978e+01 8.580490810417364500e+00 -5.507201666601839207e+01 3.555514504657612918e+01 7.000923785625364104e+00 3.681332318331582698e+00 2.495134652113354079e+01 6.180778779529830302e+01 1.760286283562634253e+02 -4.011813052619262976e+01 -5.376635642817814897e+01 6.904204943927507543e+01 1.196013820993801744e+02 -1.323733213726500679e+01 9.501091392442327788e+01 1.075001729236990968e+02 2.178444119019960965e+02 -8.947908608864626956e+01 -1.268542342747373652e+02 -2.959534689280792463e+01 6.421359925600322072e+01 -1.048696909968248825e+01 1.110346876540897512e+02 3.847146177757908703e+01 -1.680890082566587296e+02 4.657615809916073601e+01 -9.245335712366657788e+01 -1.398224158859061390e+02 1.389796271098565796e+02 -7.852716271748991517e+01 6.107637358416759810e+01 1.149183155231413167e+02 -1.023356747676720460e+02 2.422407803087309119e+01 -7.452569630605880491e+01 4.155860829859574324e+01 -1.182836019692771430e+02 6.354956005338495117e+01 5.642514796432503488e+01 4.087454626286626258e+00 8.681486192499234278e+01 -1.579017978961031758e+02 7.884452853460565791e+01 -3.014196983564801258e+01 -1.731162515822415173e+02 9.678343556657711133e+01 2.510374584224603112e+01 -2.010493173938864686e+02 2.410264417408102418e+02 -5.380868744628218847e-01 1.077804996415516854e+02 -1.235868726956167336e+02 -1.990069312811756674e+02 -9.562039015658611163e+01 2.517833038139988044e+00 1.464612350534825964e+02 4.140348793646844605e+00 -9.792213300379026464e+01 5.169498348817559474e+01 1.404359610844646795e+02 6.661146830778424999e+01 -5.304563627536325043e+01 -6.059582840462294939e+01 8.660146299595781727e+01 3.153909980120601020e+01 -2.003492394352827262e+02 -2.124899667090492628e+01 1.732277961094492866e+02 1.013080451457054920e+02 -5.872244458503465836e+01 -1.145692779920808988e+02 -4.374491609212920906e+01 -4.926859500703026384e+01 -1.172851919899551660e+02 -1.897816374110140814e+01 -4.679671352020350383e+01 -1.164207741131046703e+02 -1.351070379661875620e+02 -2.756887746721399424e+01 -1.287528852547060296e+02 -1.370448969378888080e+02 -3.927872005152801194e+01 -5.674154578699959472e+01 -1.137157455477220793e+02 1.976687280170085046e+02 1.118965457484458526e+01 -2.988239464001887669e+01 -1.807179083836678757e+01 8.353424496350255879e+01 1.659648618001861209e+01 2.659883324706581575e+01 -2.264520799971067788e+01 -4.904764813367561516e+01 2.222381771100350889e+01 -1.543433034689361705e+02 -1.690645998629784685e+02 -9.607635137981758078e+01 -2.026586198393852953e+02 -9.518654048500033582e+01 9.115457727717911496e+01 6.517585375452355834e+01 -2.768831791964552735e+01 6.453519213500031526e+01 -1.662210136947154240e+02 -4.329530706318976740e+01 -1.233013241159394227e+02 -7.089245468603958500e+01 2.239489990711996370e+02 -2.179975980906711186e+02 2.179818568638469856e+02 2.657358473403352050e+01 -5.999846120351984524e+01 9.800405318260867205e+01 1.317730670929627763e+02 -5.510859568290225496e+01 -2.163101458362116034e+02 -1.583365395102723028e+02 1.085866033161891266e+02 8.895360838050352470e+01 -1.440017946770132369e+02 3.396012453114166618e+01 -4.209890256027117061e+01 -8.219259998543898860e+01 -3.018172816199295028e+01 -5.823955634401865922e+01 -9.181545492037911060e+01 -3.612120371804598307e+01 4.714336753526351842e+00 -3.477621306140608937e+01 -4.438981583576711576e-01 -1.528679439116131888e+01 9.771396401915286845e+01 1.349238884296049434e+02 1.399370550601878982e+01 1.781648609590884291e+01 -6.698387531118659410e+01 -2.081245934702731972e+02 3.595632132136833548e+01 -9.743665864026765178e+01 2.741640786916533301e+01 -8.739557116058461972e+00 1.044415559040770436e+00 7.665982028825503392e+01 1.294153693237661571e+02 -7.480305632025704199e+01 4.035199672872951737e+01 -2.047250641305225543e+02 1.025176913438486537e+01 7.489465001952279266e+00 -1.301227791245500214e+02 -3.583123537304778239e+01 -4.707095648019433298e+01 5.075637844177523839e+00 -1.085942797487779217e+02 2.873643819410860090e+01 -1.037077113023256629e+02 5.964786289737453018e+01 7.202341744551209501e+01 3.914699772706594416e+01 -3.081757930091623976e+01 1.140697960482903142e+02 6.481696357739785697e+01 8.492356940581848335e+01 -7.110736145775950945e+01 2.158825590724321586e+01 1.357776784260246359e+02 -6.204654351072829144e+01 -7.332778277532656652e+00 3.396216623163311965e+01 -1.362530346602706288e+02 1.038292153639868332e+02 9.505379436693225159e+01 -1.072747947383562490e+02 -8.738516953393954623e+01 -5.888981136136235506e+01 -4.826791172972943400e+01 -1.700624469428092027e+02 -1.442035392861590424e+02 -1.404907369746464383e+02 1.120578271227520446e+02 6.335428373724710838e+01 1.691255858243766852e+02 7.619972818144092663e+00 -9.095247658397909163e+01 1.983269122044504940e+01 1.466755037430939268e+01 -6.726746789481298094e+01 7.847674944590397672e+01 1.251144592148075105e+02 1.061761957158850578e+01 1.520007744020740574e+02 2.387017087695573281e+01 1.175668246859071218e+02 1.601689927348408204e+01 -2.200886583691240048e+02 2.312997015440874407e+02 -5.183127828358475142e+01 -1.579761983687574229e+02 -7.115305800385185364e+01 -4.550604458473072356e+01 4.354382323369440400e+01 2.694959960255469866e+01 4.814816605621872725e+01 -7.806835102616020095e+01 1.288143753266461147e+02 -9.077915953626792600e+01 -7.374126650375862901e+00 1.499050144691932758e+02 1.153341190966142307e+02 6.095161010000513357e+01 -1.860744843897818157e+02 2.672816629664105648e+01 1.475443595273962103e+02 2.462505260017857367e+01 1.024561807903339457e+02 1.117116086557073942e+02 -2.217187652400957631e+02 8.067452931073633238e+01 -6.055555589759938329e+01 -2.357035179040545643e+02 9.269644539670734673e+01 2.573708305347983583e+01 -1.271817306719896834e+02 -6.095766868335290667e+01 1.443178000214482495e+02 1.531049125279956797e+02 -7.855727615374951256e+01 -1.323179354039971543e+02 -8.631625884622262390e+01 -1.714044980771377027e+02 2.018492245706646671e+01 3.908849989852033247e+01 -1.741932236901406483e+01 -1.273369993906187148e+01 -9.201232828315740164e+01 -9.084930802247494341e+01 -2.528895908961177597e+01 1.370783857422475762e+02 1.393850094995941049e+02 8.292252105623917657e+01 9.911104685140570325e+01 -8.023203617555275002e+01 -1.839756253049560826e+02 -1.350735184879705741e+01 -2.361846803650777460e+01 -7.219913935528721538e+01 1.534712676813303700e+00 7.433163244511165146e+01 -5.383799810307883860e+01 2.501113121709958520e+01 8.051704319254287157e+01 7.127954523639813544e+01 1.123786166429671738e+02 -1.517313874574274450e+02 4.032056244951935042e+01 8.472413967225938336e+01 9.636685730069584110e+01 6.009217954623071734e+01 -1.049937639862867513e+02 1.392706155882051746e+02 1.296016208986705465e+02 9.744844322329609554e+01 1.032468590483039463e+02 -8.566660897037201039e+01 -1.513578869357891676e+01 -1.312782299225708726e+01 7.838535888589160550e+01 6.606436171076309449e+01 5.687782219241967141e+01 9.925794753711925011e+01 1.184259437958749714e+02 1.259194567900125890e+02 -6.606016775296713206e+01 8.194879972246373256e+01 6.636760269235206522e+01 -1.196498624903963446e+02 1.338327324530022224e+02 -1.022189600086325001e+01 -2.838639375972010015e+01 2.026671354387416102e+02 8.996920992861851119e+01 1.262319068110632401e+02 -1.468417514404327449e+02 -1.605523183565132967e+02 -1.565377930309788042e+02 -1.243851276371751595e+02 -4.508681775160220440e+01 1.118683959193211592e+02 -1.717636105500552048e+02 3.316003644505044434e+01 1.470919021542358962e+02 -6.046645801879591886e+01 -9.312639662598263612e+01 -3.578104450527124669e+01 1.385872883010194982e+02 2.318465975453786143e+02 -6.793951493833243660e+01 2.020762030393998998e+01 -2.827851044307842798e+01 6.988870852658037336e+01 6.152509439669772462e+01 -2.176599908231412996e+02 -9.051183588943712266e+01 1.404601022313568706e+02 1.427685640348087759e+02 9.655362496215906276e+01 -5.084722185011154494e+01 -7.745910328462322525e+01 -4.642001997740403851e+01 -1.803334118516619640e+02 7.273732205657560712e+01 -2.625298373960965748e+01 1.700655303843371087e+02 -2.853167233942407677e+01 -3.215193639065795423e+02 1.481308816271493640e+02 5.148709796900491398e+01 -1.206461470254454298e+02 -2.261668773613664740e+01 3.612516423946469502e+01 -2.123855958009039853e+02 -1.169138109743383467e+02 -1.120696167419598055e+02 -5.776816785098635876e+01 6.427563601611036859e+01 -1.686061264123200374e+02 1.104668028268027911e+02 -5.557324117913908879e+01 2.963989100920634279e+00 -1.365321141807427239e+02 -1.059692283662744217e+02 1.799967576980951094e+02 8.869947747469970523e+01 -4.323591090318100072e+01 3.808041771203150461e+01 -2.873679951121906484e+01 4.420833735147218135e+01 -1.071163405164865736e+02 1.011530061404373413e+02 5.174308307170470300e+01 -1.217854888255282617e+02 1.195886874768107617e+02 -5.035613227951552062e+01 1.023531171136713454e+02 -5.062585822813208836e+01 9.056682812704336527e+01 -1.571889291952172130e+02 1.461893354365200821e+02 2.539137219571042792e+01 1.031148281533727129e+02 1.336379700886531054e+02 -1.502867108727897971e+02 -8.803302346262820777e+01 -1.082657026349905607e+02 6.856543723720983508e+01 -1.756482616686884057e+02 1.552526427213430509e+02 1.460266204252300781e+02 5.433598104487295188e+01 -8.705005107698774225e+01 5.849714800810071580e+01 -1.100049660623671173e+02 -1.125534223299709957e+01 3.589714364229847376e+01 -1.884567166557377504e+02 -8.371296030328137761e+01 -1.388489161813884287e+01 1.048740668006620353e+02 -5.149997030870409986e+01 1.114958694641567831e+02 -6.603319143541064307e+01 -2.163563798226893482e+02 -1.099145946721938571e+02 -3.500957190017298615e+01 -6.179230818556023053e+01 3.090980976645399991e+01 5.270771110292189832e+01 6.531103249218938700e+00 2.592364980363903726e+01 -1.204005179509357504e+02 5.524302892224719841e+01 3.350074003527460320e+01 -7.416313882039516159e+01 9.493358866157663556e+00 5.780086325979888784e+01 -9.802113104277646016e+01 -5.656148567487675649e+01 -2.477856259757143675e+01 1.002975796826834483e+02 -1.759792636392694121e+01 4.306873690764882134e+00 -2.343066707494240575e+02 -9.768986684576709933e+01 1.016641932026549711e+02 -9.176622340439995185e+01 3.221826860104516754e+01 3.194005183917775170e+01 3.902828745807442345e+01 6.793962559136745938e+01 -1.824356725903637653e+02 1.479990994629946783e+02 8.371153055907197427e+01 -7.707914399799098426e+00 -8.308787598561180232e+01 1.151199097767448905e+02 6.384688562376697263e+01 -2.067487173303934469e+02 -5.182381884758603974e+01 -8.398292647687456736e+01 -5.334324340101873219e+01 -6.372667582709730283e+01 -1.019110060582234922e+02 -6.209958070830855803e+01 1.969093127338944385e+02 -1.756844604245125652e+02 6.736599549799876741e+01 2.852982374325198833e+01 -7.731141509914561993e+01 1.066666142945407003e+01 -4.052514074232584562e+01 3.516220893983185380e+00 -9.886366289857532763e+01 -2.031890029280353360e+02 1.891823274628962892e+01 4.313027004912692774e+01 -1.316944810712818104e+01 -9.327136037993723150e+00 -4.092542664862677526e+01 -1.954160553312454738e+02 -3.154769970392715805e+01 -6.725895509360326230e+01 1.439637513376512956e+01 -1.605482129224223797e+01 9.312781067816648317e+01 -6.485092501071935089e+01 -1.067108570280615254e+02 -3.681670684208264532e+01 -9.303536242833276404e+00 4.687804956089519948e+01 -2.280388086806021875e+01 -7.581374728056485424e+01 -1.632707472721871156e+01 2.066877750298166205e+01 4.888581041326037280e+01 -1.173588001219585806e+02 -1.430994528714023488e+02 2.370595944504722183e+02 -2.246436146269110736e+02 -7.819868117607165914e+01 -4.772243595295962848e+01 1.439759522024397427e+02 6.514517240203822723e+01 2.355369519299885326e+02 2.519295706643558788e+02 -6.414584885011602466e+01 1.333066357219205997e+02 -5.753985570416151063e+01 -4.200254459272914431e+01 -1.036407972086060596e+02 -8.220128221455117057e+01 -7.164852658793888907e+01 -9.159599375328733117e+01 -2.509572727911612446e+02 -2.788952026377017432e+02 1.386911644498404712e+02 -2.730132995942365781e+01 5.483371615680967892e+01 1.346950152239201088e+02
