# 
#                 ----------------------------------------------------
#                 Data from a 3D direct N-body simulation. 
# 
#                 rows are i-particle; 
#                 coumns are :mass, tag, x ,y, z, vx, vy, vz, ax, ay, az
# 
#                 NTHU, Computational Physics Lab
# 
#                 ----------------------------------------------------
#                 Time = 8.299999999999867
1.000000000000000000e+00 2.000000000000000000e+00 3.000000000000000000e+00 4.000000000000000000e+00 5.000000000000000000e+00 6.000000000000000000e+00 7.000000000000000000e+00 8.000000000000000000e+00 9.000000000000000000e+00 1.000000000000000000e+01 1.100000000000000000e+01 1.200000000000000000e+01 1.300000000000000000e+01 1.400000000000000000e+01 1.500000000000000000e+01 1.600000000000000000e+01 1.700000000000000000e+01 1.800000000000000000e+01 1.900000000000000000e+01 2.000000000000000000e+01 2.100000000000000000e+01 2.200000000000000000e+01 2.300000000000000000e+01 2.400000000000000000e+01 2.500000000000000000e+01 2.600000000000000000e+01 2.700000000000000000e+01 2.800000000000000000e+01 2.900000000000000000e+01 3.000000000000000000e+01 3.100000000000000000e+01 3.200000000000000000e+01 3.300000000000000000e+01 3.400000000000000000e+01 3.500000000000000000e+01 3.600000000000000000e+01 3.700000000000000000e+01 3.800000000000000000e+01 3.900000000000000000e+01 4.000000000000000000e+01 4.100000000000000000e+01 4.200000000000000000e+01 4.300000000000000000e+01 4.400000000000000000e+01 4.500000000000000000e+01 4.600000000000000000e+01 4.700000000000000000e+01 4.800000000000000000e+01 4.900000000000000000e+01 5.000000000000000000e+01 5.100000000000000000e+01 5.200000000000000000e+01 5.300000000000000000e+01 5.400000000000000000e+01 5.500000000000000000e+01 5.600000000000000000e+01 5.700000000000000000e+01 5.800000000000000000e+01 5.900000000000000000e+01 6.000000000000000000e+01 6.100000000000000000e+01 6.200000000000000000e+01 6.300000000000000000e+01 6.400000000000000000e+01 6.500000000000000000e+01 6.600000000000000000e+01 6.700000000000000000e+01 6.800000000000000000e+01 6.900000000000000000e+01 7.000000000000000000e+01 7.100000000000000000e+01 7.200000000000000000e+01 7.300000000000000000e+01 7.400000000000000000e+01 7.500000000000000000e+01 7.600000000000000000e+01 7.700000000000000000e+01 7.800000000000000000e+01 7.900000000000000000e+01 8.000000000000000000e+01 8.100000000000000000e+01 8.200000000000000000e+01 8.300000000000000000e+01 8.400000000000000000e+01 8.500000000000000000e+01 8.600000000000000000e+01 8.700000000000000000e+01 8.800000000000000000e+01 8.900000000000000000e+01 9.000000000000000000e+01 9.100000000000000000e+01 9.200000000000000000e+01 9.300000000000000000e+01 9.400000000000000000e+01 9.500000000000000000e+01 9.600000000000000000e+01 9.700000000000000000e+01 9.800000000000000000e+01 9.900000000000000000e+01 1.000000000000000000e+02 1.010000000000000000e+02 1.020000000000000000e+02 1.030000000000000000e+02 1.040000000000000000e+02 1.050000000000000000e+02 1.060000000000000000e+02 1.070000000000000000e+02 1.080000000000000000e+02 1.090000000000000000e+02 1.100000000000000000e+02 1.110000000000000000e+02 1.120000000000000000e+02 1.130000000000000000e+02 1.140000000000000000e+02 1.150000000000000000e+02 1.160000000000000000e+02 1.170000000000000000e+02 1.180000000000000000e+02 1.190000000000000000e+02 1.200000000000000000e+02 1.210000000000000000e+02 1.220000000000000000e+02 1.230000000000000000e+02 1.240000000000000000e+02 1.250000000000000000e+02 1.260000000000000000e+02 1.270000000000000000e+02 1.280000000000000000e+02 1.290000000000000000e+02 1.300000000000000000e+02 1.310000000000000000e+02 1.320000000000000000e+02 1.330000000000000000e+02 1.340000000000000000e+02 1.350000000000000000e+02 1.360000000000000000e+02 1.370000000000000000e+02 1.380000000000000000e+02 1.390000000000000000e+02 1.400000000000000000e+02 1.410000000000000000e+02 1.420000000000000000e+02 1.430000000000000000e+02 1.440000000000000000e+02 1.450000000000000000e+02 1.460000000000000000e+02 1.470000000000000000e+02 1.480000000000000000e+02 1.490000000000000000e+02 1.500000000000000000e+02 1.510000000000000000e+02 1.520000000000000000e+02 1.530000000000000000e+02 1.540000000000000000e+02 1.550000000000000000e+02 1.560000000000000000e+02 1.570000000000000000e+02 1.580000000000000000e+02 1.590000000000000000e+02 1.600000000000000000e+02 1.610000000000000000e+02 1.620000000000000000e+02 1.630000000000000000e+02 1.640000000000000000e+02 1.650000000000000000e+02 1.660000000000000000e+02 1.670000000000000000e+02 1.680000000000000000e+02 1.690000000000000000e+02 1.700000000000000000e+02 1.710000000000000000e+02 1.720000000000000000e+02 1.730000000000000000e+02 1.740000000000000000e+02 1.750000000000000000e+02 1.760000000000000000e+02 1.770000000000000000e+02 1.780000000000000000e+02 1.790000000000000000e+02 1.800000000000000000e+02 1.810000000000000000e+02 1.820000000000000000e+02 1.830000000000000000e+02 1.840000000000000000e+02 1.850000000000000000e+02 1.860000000000000000e+02 1.870000000000000000e+02 1.880000000000000000e+02 1.890000000000000000e+02 1.900000000000000000e+02 1.910000000000000000e+02 1.920000000000000000e+02 1.930000000000000000e+02 1.940000000000000000e+02 1.950000000000000000e+02 1.960000000000000000e+02 1.970000000000000000e+02 1.980000000000000000e+02 1.990000000000000000e+02 2.000000000000000000e+02 2.010000000000000000e+02 2.020000000000000000e+02 2.030000000000000000e+02 2.040000000000000000e+02 2.050000000000000000e+02 2.060000000000000000e+02 2.070000000000000000e+02 2.080000000000000000e+02 2.090000000000000000e+02 2.100000000000000000e+02 2.110000000000000000e+02 2.120000000000000000e+02 2.130000000000000000e+02 2.140000000000000000e+02 2.150000000000000000e+02 2.160000000000000000e+02 2.170000000000000000e+02 2.180000000000000000e+02 2.190000000000000000e+02 2.200000000000000000e+02 2.210000000000000000e+02 2.220000000000000000e+02 2.230000000000000000e+02 2.240000000000000000e+02 2.250000000000000000e+02 2.260000000000000000e+02 2.270000000000000000e+02 2.280000000000000000e+02 2.290000000000000000e+02 2.300000000000000000e+02 2.310000000000000000e+02 2.320000000000000000e+02 2.330000000000000000e+02 2.340000000000000000e+02 2.350000000000000000e+02 2.360000000000000000e+02 2.370000000000000000e+02 2.380000000000000000e+02 2.390000000000000000e+02 2.400000000000000000e+02 2.410000000000000000e+02 2.420000000000000000e+02 2.430000000000000000e+02 2.440000000000000000e+02 2.450000000000000000e+02 2.460000000000000000e+02 2.470000000000000000e+02 2.480000000000000000e+02 2.490000000000000000e+02 2.500000000000000000e+02 2.510000000000000000e+02 2.520000000000000000e+02 2.530000000000000000e+02 2.540000000000000000e+02 2.550000000000000000e+02 2.560000000000000000e+02 2.570000000000000000e+02 2.580000000000000000e+02 2.590000000000000000e+02 2.600000000000000000e+02 2.610000000000000000e+02 2.620000000000000000e+02 2.630000000000000000e+02 2.640000000000000000e+02 2.650000000000000000e+02 2.660000000000000000e+02 2.670000000000000000e+02 2.680000000000000000e+02 2.690000000000000000e+02 2.700000000000000000e+02 2.710000000000000000e+02 2.720000000000000000e+02 2.730000000000000000e+02 2.740000000000000000e+02 2.750000000000000000e+02 2.760000000000000000e+02 2.770000000000000000e+02 2.780000000000000000e+02 2.790000000000000000e+02 2.800000000000000000e+02 2.810000000000000000e+02 2.820000000000000000e+02 2.830000000000000000e+02 2.840000000000000000e+02 2.850000000000000000e+02 2.860000000000000000e+02 2.870000000000000000e+02 2.880000000000000000e+02 2.890000000000000000e+02 2.900000000000000000e+02 2.910000000000000000e+02 2.920000000000000000e+02 2.930000000000000000e+02 2.940000000000000000e+02 2.950000000000000000e+02 2.960000000000000000e+02 2.970000000000000000e+02 2.980000000000000000e+02 2.990000000000000000e+02 3.000000000000000000e+02 3.010000000000000000e+02 3.020000000000000000e+02 3.030000000000000000e+02 3.040000000000000000e+02 3.050000000000000000e+02 3.060000000000000000e+02 3.070000000000000000e+02 3.080000000000000000e+02 3.090000000000000000e+02 3.100000000000000000e+02 3.110000000000000000e+02 3.120000000000000000e+02 3.130000000000000000e+02 3.140000000000000000e+02 3.150000000000000000e+02 3.160000000000000000e+02 3.170000000000000000e+02 3.180000000000000000e+02 3.190000000000000000e+02 3.200000000000000000e+02 3.210000000000000000e+02 3.220000000000000000e+02 3.230000000000000000e+02 3.240000000000000000e+02 3.250000000000000000e+02 3.260000000000000000e+02 3.270000000000000000e+02 3.280000000000000000e+02 3.290000000000000000e+02 3.300000000000000000e+02 3.310000000000000000e+02 3.320000000000000000e+02 3.330000000000000000e+02 3.340000000000000000e+02 3.350000000000000000e+02 3.360000000000000000e+02 3.370000000000000000e+02 3.380000000000000000e+02 3.390000000000000000e+02 3.400000000000000000e+02 3.410000000000000000e+02 3.420000000000000000e+02 3.430000000000000000e+02 3.440000000000000000e+02 3.450000000000000000e+02 3.460000000000000000e+02 3.470000000000000000e+02 3.480000000000000000e+02 3.490000000000000000e+02 3.500000000000000000e+02 3.510000000000000000e+02 3.520000000000000000e+02 3.530000000000000000e+02 3.540000000000000000e+02 3.550000000000000000e+02 3.560000000000000000e+02 3.570000000000000000e+02 3.580000000000000000e+02 3.590000000000000000e+02 3.600000000000000000e+02 3.610000000000000000e+02 3.620000000000000000e+02 3.630000000000000000e+02 3.640000000000000000e+02 3.650000000000000000e+02 3.660000000000000000e+02 3.670000000000000000e+02 3.680000000000000000e+02 3.690000000000000000e+02 3.700000000000000000e+02 3.710000000000000000e+02 3.720000000000000000e+02 3.730000000000000000e+02 3.740000000000000000e+02 3.750000000000000000e+02 3.760000000000000000e+02 3.770000000000000000e+02 3.780000000000000000e+02 3.790000000000000000e+02 3.800000000000000000e+02 3.810000000000000000e+02 3.820000000000000000e+02 3.830000000000000000e+02 3.840000000000000000e+02 3.850000000000000000e+02 3.860000000000000000e+02 3.870000000000000000e+02 3.880000000000000000e+02 3.890000000000000000e+02 3.900000000000000000e+02 3.910000000000000000e+02 3.920000000000000000e+02 3.930000000000000000e+02 3.940000000000000000e+02 3.950000000000000000e+02 3.960000000000000000e+02 3.970000000000000000e+02 3.980000000000000000e+02 3.990000000000000000e+02 4.000000000000000000e+02 4.010000000000000000e+02 4.020000000000000000e+02 4.030000000000000000e+02 4.040000000000000000e+02 4.050000000000000000e+02 4.060000000000000000e+02 4.070000000000000000e+02 4.080000000000000000e+02 4.090000000000000000e+02 4.100000000000000000e+02 4.110000000000000000e+02 4.120000000000000000e+02 4.130000000000000000e+02 4.140000000000000000e+02 4.150000000000000000e+02 4.160000000000000000e+02 4.170000000000000000e+02 4.180000000000000000e+02 4.190000000000000000e+02 4.200000000000000000e+02 4.210000000000000000e+02 4.220000000000000000e+02 4.230000000000000000e+02 4.240000000000000000e+02 4.250000000000000000e+02 4.260000000000000000e+02 4.270000000000000000e+02 4.280000000000000000e+02 4.290000000000000000e+02 4.300000000000000000e+02 4.310000000000000000e+02 4.320000000000000000e+02 4.330000000000000000e+02 4.340000000000000000e+02 4.350000000000000000e+02 4.360000000000000000e+02 4.370000000000000000e+02 4.380000000000000000e+02 4.390000000000000000e+02 4.400000000000000000e+02 4.410000000000000000e+02 4.420000000000000000e+02 4.430000000000000000e+02 4.440000000000000000e+02 4.450000000000000000e+02 4.460000000000000000e+02 4.470000000000000000e+02 4.480000000000000000e+02 4.490000000000000000e+02 4.500000000000000000e+02 4.510000000000000000e+02 4.520000000000000000e+02 4.530000000000000000e+02 4.540000000000000000e+02 4.550000000000000000e+02 4.560000000000000000e+02 4.570000000000000000e+02 4.580000000000000000e+02 4.590000000000000000e+02 4.600000000000000000e+02 4.610000000000000000e+02 4.620000000000000000e+02 4.630000000000000000e+02 4.640000000000000000e+02 4.650000000000000000e+02 4.660000000000000000e+02 4.670000000000000000e+02 4.680000000000000000e+02 4.690000000000000000e+02 4.700000000000000000e+02 4.710000000000000000e+02 4.720000000000000000e+02 4.730000000000000000e+02 4.740000000000000000e+02 4.750000000000000000e+02 4.760000000000000000e+02 4.770000000000000000e+02 4.780000000000000000e+02 4.790000000000000000e+02 4.800000000000000000e+02 4.810000000000000000e+02 4.820000000000000000e+02 4.830000000000000000e+02 4.840000000000000000e+02 4.850000000000000000e+02 4.860000000000000000e+02 4.870000000000000000e+02 4.880000000000000000e+02 4.890000000000000000e+02 4.900000000000000000e+02 4.910000000000000000e+02 4.920000000000000000e+02 4.930000000000000000e+02 4.940000000000000000e+02 4.950000000000000000e+02 4.960000000000000000e+02 4.970000000000000000e+02 4.980000000000000000e+02 4.990000000000000000e+02 5.000000000000000000e+02 5.010000000000000000e+02 5.020000000000000000e+02 5.030000000000000000e+02 5.040000000000000000e+02 5.050000000000000000e+02 5.060000000000000000e+02 5.070000000000000000e+02 5.080000000000000000e+02 5.090000000000000000e+02 5.100000000000000000e+02 5.110000000000000000e+02 5.120000000000000000e+02 5.130000000000000000e+02 5.140000000000000000e+02 5.150000000000000000e+02 5.160000000000000000e+02 5.170000000000000000e+02 5.180000000000000000e+02 5.190000000000000000e+02 5.200000000000000000e+02 5.210000000000000000e+02 5.220000000000000000e+02 5.230000000000000000e+02 5.240000000000000000e+02 5.250000000000000000e+02 5.260000000000000000e+02 5.270000000000000000e+02 5.280000000000000000e+02 5.290000000000000000e+02 5.300000000000000000e+02 5.310000000000000000e+02 5.320000000000000000e+02 5.330000000000000000e+02 5.340000000000000000e+02 5.350000000000000000e+02 5.360000000000000000e+02 5.370000000000000000e+02 5.380000000000000000e+02 5.390000000000000000e+02 5.400000000000000000e+02 5.410000000000000000e+02 5.420000000000000000e+02 5.430000000000000000e+02 5.440000000000000000e+02 5.450000000000000000e+02 5.460000000000000000e+02 5.470000000000000000e+02 5.480000000000000000e+02 5.490000000000000000e+02 5.500000000000000000e+02 5.510000000000000000e+02 5.520000000000000000e+02 5.530000000000000000e+02 5.540000000000000000e+02 5.550000000000000000e+02 5.560000000000000000e+02 5.570000000000000000e+02 5.580000000000000000e+02 5.590000000000000000e+02 5.600000000000000000e+02 5.610000000000000000e+02 5.620000000000000000e+02 5.630000000000000000e+02 5.640000000000000000e+02 5.650000000000000000e+02 5.660000000000000000e+02 5.670000000000000000e+02 5.680000000000000000e+02 5.690000000000000000e+02 5.700000000000000000e+02 5.710000000000000000e+02 5.720000000000000000e+02 5.730000000000000000e+02 5.740000000000000000e+02 5.750000000000000000e+02 5.760000000000000000e+02 5.770000000000000000e+02 5.780000000000000000e+02 5.790000000000000000e+02 5.800000000000000000e+02 5.810000000000000000e+02 5.820000000000000000e+02 5.830000000000000000e+02 5.840000000000000000e+02 5.850000000000000000e+02 5.860000000000000000e+02 5.870000000000000000e+02 5.880000000000000000e+02 5.890000000000000000e+02 5.900000000000000000e+02 5.910000000000000000e+02 5.920000000000000000e+02 5.930000000000000000e+02 5.940000000000000000e+02 5.950000000000000000e+02 5.960000000000000000e+02 5.970000000000000000e+02 5.980000000000000000e+02 5.990000000000000000e+02 6.000000000000000000e+02 6.010000000000000000e+02 6.020000000000000000e+02 6.030000000000000000e+02 6.040000000000000000e+02 6.050000000000000000e+02 6.060000000000000000e+02 6.070000000000000000e+02 6.080000000000000000e+02 6.090000000000000000e+02 6.100000000000000000e+02 6.110000000000000000e+02 6.120000000000000000e+02 6.130000000000000000e+02 6.140000000000000000e+02 6.150000000000000000e+02 6.160000000000000000e+02 6.170000000000000000e+02 6.180000000000000000e+02 6.190000000000000000e+02 6.200000000000000000e+02 6.210000000000000000e+02 6.220000000000000000e+02 6.230000000000000000e+02 6.240000000000000000e+02 6.250000000000000000e+02 6.260000000000000000e+02 6.270000000000000000e+02 6.280000000000000000e+02 6.290000000000000000e+02 6.300000000000000000e+02 6.310000000000000000e+02 6.320000000000000000e+02 6.330000000000000000e+02 6.340000000000000000e+02 6.350000000000000000e+02 6.360000000000000000e+02 6.370000000000000000e+02 6.380000000000000000e+02 6.390000000000000000e+02 6.400000000000000000e+02 6.410000000000000000e+02 6.420000000000000000e+02 6.430000000000000000e+02 6.440000000000000000e+02 6.450000000000000000e+02 6.460000000000000000e+02 6.470000000000000000e+02 6.480000000000000000e+02 6.490000000000000000e+02 6.500000000000000000e+02 6.510000000000000000e+02 6.520000000000000000e+02 6.530000000000000000e+02 6.540000000000000000e+02 6.550000000000000000e+02 6.560000000000000000e+02 6.570000000000000000e+02 6.580000000000000000e+02 6.590000000000000000e+02 6.600000000000000000e+02 6.610000000000000000e+02 6.620000000000000000e+02 6.630000000000000000e+02 6.640000000000000000e+02 6.650000000000000000e+02 6.660000000000000000e+02 6.670000000000000000e+02 6.680000000000000000e+02 6.690000000000000000e+02 6.700000000000000000e+02 6.710000000000000000e+02 6.720000000000000000e+02 6.730000000000000000e+02 6.740000000000000000e+02 6.750000000000000000e+02 6.760000000000000000e+02 6.770000000000000000e+02 6.780000000000000000e+02 6.790000000000000000e+02 6.800000000000000000e+02 6.810000000000000000e+02 6.820000000000000000e+02 6.830000000000000000e+02 6.840000000000000000e+02 6.850000000000000000e+02 6.860000000000000000e+02 6.870000000000000000e+02 6.880000000000000000e+02 6.890000000000000000e+02 6.900000000000000000e+02 6.910000000000000000e+02 6.920000000000000000e+02 6.930000000000000000e+02 6.940000000000000000e+02 6.950000000000000000e+02 6.960000000000000000e+02 6.970000000000000000e+02 6.980000000000000000e+02 6.990000000000000000e+02 7.000000000000000000e+02 7.010000000000000000e+02 7.020000000000000000e+02 7.030000000000000000e+02 7.040000000000000000e+02 7.050000000000000000e+02 7.060000000000000000e+02 7.070000000000000000e+02 7.080000000000000000e+02 7.090000000000000000e+02 7.100000000000000000e+02 7.110000000000000000e+02 7.120000000000000000e+02 7.130000000000000000e+02 7.140000000000000000e+02 7.150000000000000000e+02 7.160000000000000000e+02 7.170000000000000000e+02 7.180000000000000000e+02 7.190000000000000000e+02 7.200000000000000000e+02 7.210000000000000000e+02 7.220000000000000000e+02 7.230000000000000000e+02 7.240000000000000000e+02 7.250000000000000000e+02 7.260000000000000000e+02 7.270000000000000000e+02 7.280000000000000000e+02 7.290000000000000000e+02 7.300000000000000000e+02 7.310000000000000000e+02 7.320000000000000000e+02 7.330000000000000000e+02 7.340000000000000000e+02 7.350000000000000000e+02 7.360000000000000000e+02 7.370000000000000000e+02 7.380000000000000000e+02 7.390000000000000000e+02 7.400000000000000000e+02 7.410000000000000000e+02 7.420000000000000000e+02 7.430000000000000000e+02 7.440000000000000000e+02 7.450000000000000000e+02 7.460000000000000000e+02 7.470000000000000000e+02 7.480000000000000000e+02 7.490000000000000000e+02 7.500000000000000000e+02 7.510000000000000000e+02 7.520000000000000000e+02 7.530000000000000000e+02 7.540000000000000000e+02 7.550000000000000000e+02 7.560000000000000000e+02 7.570000000000000000e+02 7.580000000000000000e+02 7.590000000000000000e+02 7.600000000000000000e+02 7.610000000000000000e+02 7.620000000000000000e+02 7.630000000000000000e+02 7.640000000000000000e+02 7.650000000000000000e+02 7.660000000000000000e+02 7.670000000000000000e+02 7.680000000000000000e+02 7.690000000000000000e+02 7.700000000000000000e+02 7.710000000000000000e+02 7.720000000000000000e+02 7.730000000000000000e+02 7.740000000000000000e+02 7.750000000000000000e+02 7.760000000000000000e+02 7.770000000000000000e+02 7.780000000000000000e+02 7.790000000000000000e+02 7.800000000000000000e+02 7.810000000000000000e+02 7.820000000000000000e+02 7.830000000000000000e+02 7.840000000000000000e+02 7.850000000000000000e+02 7.860000000000000000e+02 7.870000000000000000e+02 7.880000000000000000e+02 7.890000000000000000e+02 7.900000000000000000e+02 7.910000000000000000e+02 7.920000000000000000e+02 7.930000000000000000e+02 7.940000000000000000e+02 7.950000000000000000e+02 7.960000000000000000e+02 7.970000000000000000e+02 7.980000000000000000e+02 7.990000000000000000e+02 8.000000000000000000e+02 8.010000000000000000e+02 8.020000000000000000e+02 8.030000000000000000e+02 8.040000000000000000e+02 8.050000000000000000e+02 8.060000000000000000e+02 8.070000000000000000e+02 8.080000000000000000e+02 8.090000000000000000e+02 8.100000000000000000e+02 8.110000000000000000e+02 8.120000000000000000e+02 8.130000000000000000e+02 8.140000000000000000e+02 8.150000000000000000e+02 8.160000000000000000e+02 8.170000000000000000e+02 8.180000000000000000e+02 8.190000000000000000e+02 8.200000000000000000e+02 8.210000000000000000e+02 8.220000000000000000e+02 8.230000000000000000e+02 8.240000000000000000e+02 8.250000000000000000e+02 8.260000000000000000e+02 8.270000000000000000e+02 8.280000000000000000e+02 8.290000000000000000e+02 8.300000000000000000e+02 8.310000000000000000e+02 8.320000000000000000e+02 8.330000000000000000e+02 8.340000000000000000e+02 8.350000000000000000e+02 8.360000000000000000e+02 8.370000000000000000e+02 8.380000000000000000e+02 8.390000000000000000e+02 8.400000000000000000e+02 8.410000000000000000e+02 8.420000000000000000e+02 8.430000000000000000e+02 8.440000000000000000e+02 8.450000000000000000e+02 8.460000000000000000e+02 8.470000000000000000e+02 8.480000000000000000e+02 8.490000000000000000e+02 8.500000000000000000e+02 8.510000000000000000e+02 8.520000000000000000e+02 8.530000000000000000e+02 8.540000000000000000e+02 8.550000000000000000e+02 8.560000000000000000e+02 8.570000000000000000e+02 8.580000000000000000e+02 8.590000000000000000e+02 8.600000000000000000e+02 8.610000000000000000e+02 8.620000000000000000e+02 8.630000000000000000e+02 8.640000000000000000e+02 8.650000000000000000e+02 8.660000000000000000e+02 8.670000000000000000e+02 8.680000000000000000e+02 8.690000000000000000e+02 8.700000000000000000e+02 8.710000000000000000e+02 8.720000000000000000e+02 8.730000000000000000e+02 8.740000000000000000e+02 8.750000000000000000e+02 8.760000000000000000e+02 8.770000000000000000e+02 8.780000000000000000e+02 8.790000000000000000e+02 8.800000000000000000e+02 8.810000000000000000e+02 8.820000000000000000e+02 8.830000000000000000e+02 8.840000000000000000e+02 8.850000000000000000e+02 8.860000000000000000e+02 8.870000000000000000e+02 8.880000000000000000e+02 8.890000000000000000e+02 8.900000000000000000e+02 8.910000000000000000e+02 8.920000000000000000e+02 8.930000000000000000e+02 8.940000000000000000e+02 8.950000000000000000e+02 8.960000000000000000e+02 8.970000000000000000e+02 8.980000000000000000e+02 8.990000000000000000e+02 9.000000000000000000e+02 9.010000000000000000e+02 9.020000000000000000e+02 9.030000000000000000e+02 9.040000000000000000e+02 9.050000000000000000e+02 9.060000000000000000e+02 9.070000000000000000e+02 9.080000000000000000e+02 9.090000000000000000e+02 9.100000000000000000e+02 9.110000000000000000e+02 9.120000000000000000e+02 9.130000000000000000e+02 9.140000000000000000e+02 9.150000000000000000e+02 9.160000000000000000e+02 9.170000000000000000e+02 9.180000000000000000e+02 9.190000000000000000e+02 9.200000000000000000e+02 9.210000000000000000e+02 9.220000000000000000e+02 9.230000000000000000e+02 9.240000000000000000e+02 9.250000000000000000e+02 9.260000000000000000e+02 9.270000000000000000e+02 9.280000000000000000e+02 9.290000000000000000e+02 9.300000000000000000e+02 9.310000000000000000e+02 9.320000000000000000e+02 9.330000000000000000e+02 9.340000000000000000e+02 9.350000000000000000e+02 9.360000000000000000e+02 9.370000000000000000e+02 9.380000000000000000e+02 9.390000000000000000e+02 9.400000000000000000e+02 9.410000000000000000e+02 9.420000000000000000e+02 9.430000000000000000e+02 9.440000000000000000e+02 9.450000000000000000e+02 9.460000000000000000e+02 9.470000000000000000e+02 9.480000000000000000e+02 9.490000000000000000e+02 9.500000000000000000e+02 9.510000000000000000e+02 9.520000000000000000e+02 9.530000000000000000e+02 9.540000000000000000e+02 9.550000000000000000e+02 9.560000000000000000e+02 9.570000000000000000e+02 9.580000000000000000e+02 9.590000000000000000e+02 9.600000000000000000e+02 9.610000000000000000e+02 9.620000000000000000e+02 9.630000000000000000e+02 9.640000000000000000e+02 9.650000000000000000e+02 9.660000000000000000e+02 9.670000000000000000e+02 9.680000000000000000e+02 9.690000000000000000e+02 9.700000000000000000e+02 9.710000000000000000e+02 9.720000000000000000e+02 9.730000000000000000e+02 9.740000000000000000e+02 9.750000000000000000e+02 9.760000000000000000e+02 9.770000000000000000e+02 9.780000000000000000e+02 9.790000000000000000e+02 9.800000000000000000e+02 9.810000000000000000e+02 9.820000000000000000e+02 9.830000000000000000e+02 9.840000000000000000e+02 9.850000000000000000e+02 9.860000000000000000e+02 9.870000000000000000e+02 9.880000000000000000e+02 9.890000000000000000e+02 9.900000000000000000e+02 9.910000000000000000e+02 9.920000000000000000e+02 9.930000000000000000e+02 9.940000000000000000e+02 9.950000000000000000e+02 9.960000000000000000e+02 9.970000000000000000e+02 9.980000000000000000e+02 9.990000000000000000e+02 1.000000000000000000e+03
1.000000000000000021e-02 1.000000000000000021e-02 1.000000000000000021e-02 1.000000000000000021e-02 1.000000000000000021e-02 1.000000000000000021e-02 1.000000000000000021e-02 1.000000000000000021e-02 1.000000000000000021e-02 1.000000000000000021e-02 1.000000000000000021e-02 1.000000000000000021e-02 1.000000000000000021e-02 1.000000000000000021e-02 1.000000000000000021e-02 1.000000000000000021e-02 1.000000000000000021e-02 1.000000000000000021e-02 1.000000000000000021e-02 1.000000000000000021e-02 1.000000000000000021e-02 1.000000000000000021e-02 1.000000000000000021e-02 1.000000000000000021e-02 1.000000000000000021e-02 1.000000000000000021e-02 1.000000000000000021e-02 1.000000000000000021e-02 1.000000000000000021e-02 1.000000000000000021e-02 1.000000000000000021e-02 1.000000000000000021e-02 1.000000000000000021e-02 1.000000000000000021e-02 1.000000000000000021e-02 1.000000000000000021e-02 1.000000000000000021e-02 1.000000000000000021e-02 1.000000000000000021e-02 1.000000000000000021e-02 1.000000000000000021e-02 1.000000000000000021e-02 1.000000000000000021e-02 1.000000000000000021e-02 1.000000000000000021e-02 1.000000000000000021e-02 1.000000000000000021e-02 1.000000000000000021e-02 1.000000000000000021e-02 1.000000000000000021e-02 1.000000000000000021e-02 1.000000000000000021e-02 1.000000000000000021e-02 1.000000000000000021e-02 1.000000000000000021e-02 1.000000000000000021e-02 1.000000000000000021e-02 1.000000000000000021e-02 1.000000000000000021e-02 1.000000000000000021e-02 1.000000000000000021e-02 1.000000000000000021e-02 1.000000000000000021e-02 1.000000000000000021e-02 1.000000000000000021e-02 1.000000000000000021e-02 1.000000000000000021e-02 1.000000000000000021e-02 1.000000000000000021e-02 1.000000000000000021e-02 1.000000000000000021e-02 1.000000000000000021e-02 1.000000000000000021e-02 1.000000000000000021e-02 1.000000000000000021e-02 1.000000000000000021e-02 1.000000000000000021e-02 1.000000000000000021e-02 1.000000000000000021e-02 1.000000000000000021e-02 1.000000000000000021e-02 1.000000000000000021e-02 1.000000000000000021e-02 1.000000000000000021e-02 1.000000000000000021e-02 1.000000000000000021e-02 1.000000000000000021e-02 1.000000000000000021e-02 1.000000000000000021e-02 1.000000000000000021e-02 1.000000000000000021e-02 1.000000000000000021e-02 1.000000000000000021e-02 1.000000000000000021e-02 1.000000000000000021e-02 1.000000000000000021e-02 1.000000000000000021e-02 1.000000000000000021e-02 1.000000000000000021e-02 1.000000000000000021e-02 1.000000000000000021e-02 1.000000000000000021e-02 1.000000000000000021e-02 1.000000000000000021e-02 1.000000000000000021e-02 1.000000000000000021e-02 1.000000000000000021e-02 1.000000000000000021e-02 1.000000000000000021e-02 1.000000000000000021e-02 1.000000000000000021e-02 1.000000000000000021e-02 1.000000000000000021e-02 1.000000000000000021e-02 1.000000000000000021e-02 1.000000000000000021e-02 1.000000000000000021e-02 1.000000000000000021e-02 1.000000000000000021e-02 1.000000000000000021e-02 1.000000000000000021e-02 1.000000000000000021e-02 1.000000000000000021e-02 1.000000000000000021e-02 1.000000000000000021e-02 1.000000000000000021e-02 1.000000000000000021e-02 1.000000000000000021e-02 1.000000000000000021e-02 1.000000000000000021e-02 1.000000000000000021e-02 1.000000000000000021e-02 1.000000000000000021e-02 1.000000000000000021e-02 1.000000000000000021e-02 1.000000000000000021e-02 1.000000000000000021e-02 1.000000000000000021e-02 1.000000000000000021e-02 1.000000000000000021e-02 1.000000000000000021e-02 1.000000000000000021e-02 1.000000000000000021e-02 1.000000000000000021e-02 1.000000000000000021e-02 1.000000000000000021e-02 1.000000000000000021e-02 1.000000000000000021e-02 1.000000000000000021e-02 1.000000000000000021e-02 1.000000000000000021e-02 1.000000000000000021e-02 1.000000000000000021e-02 1.000000000000000021e-02 1.000000000000000021e-02 1.000000000000000021e-02 1.000000000000000021e-02 1.000000000000000021e-02 1.000000000000000021e-02 1.000000000000000021e-02 1.000000000000000021e-02 1.000000000000000021e-02 1.000000000000000021e-02 1.000000000000000021e-02 1.000000000000000021e-02 1.000000000000000021e-02 1.000000000000000021e-02 1.000000000000000021e-02 1.000000000000000021e-02 1.000000000000000021e-02 1.000000000000000021e-02 1.000000000000000021e-02 1.000000000000000021e-02 1.000000000000000021e-02 1.000000000000000021e-02 1.000000000000000021e-02 1.000000000000000021e-02 1.000000000000000021e-02 1.000000000000000021e-02 1.000000000000000021e-02 1.000000000000000021e-02 1.000000000000000021e-02 1.000000000000000021e-02 1.000000000000000021e-02 1.000000000000000021e-02 1.000000000000000021e-02 1.000000000000000021e-02 1.000000000000000021e-02 1.000000000000000021e-02 1.000000000000000021e-02 1.000000000000000021e-02 1.000000000000000021e-02 1.000000000000000021e-02 1.000000000000000021e-02 1.000000000000000021e-02 1.000000000000000021e-02 1.000000000000000021e-02 1.000000000000000021e-02 1.000000000000000021e-02 1.000000000000000021e-02 1.000000000000000021e-02 1.000000000000000021e-02 1.000000000000000021e-02 1.000000000000000021e-02 1.000000000000000021e-02 1.000000000000000021e-02 1.000000000000000021e-02 1.000000000000000021e-02 1.000000000000000021e-02 1.000000000000000021e-02 1.000000000000000021e-02 1.000000000000000021e-02 1.000000000000000021e-02 1.000000000000000021e-02 1.000000000000000021e-02 1.000000000000000021e-02 1.000000000000000021e-02 1.000000000000000021e-02 1.000000000000000021e-02 1.000000000000000021e-02 1.000000000000000021e-02 1.000000000000000021e-02 1.000000000000000021e-02 1.000000000000000021e-02 1.000000000000000021e-02 1.000000000000000021e-02 1.000000000000000021e-02 1.000000000000000021e-02 1.000000000000000021e-02 1.000000000000000021e-02 1.000000000000000021e-02 1.000000000000000021e-02 1.000000000000000021e-02 1.000000000000000021e-02 1.000000000000000021e-02 1.000000000000000021e-02 1.000000000000000021e-02 1.000000000000000021e-02 1.000000000000000021e-02 1.000000000000000021e-02 1.000000000000000021e-02 1.000000000000000021e-02 1.000000000000000021e-02 1.000000000000000021e-02 1.000000000000000021e-02 1.000000000000000021e-02 1.000000000000000021e-02 1.000000000000000021e-02 1.000000000000000021e-02 1.000000000000000021e-02 1.000000000000000021e-02 1.000000000000000021e-02 1.000000000000000021e-02 1.000000000000000021e-02 1.000000000000000021e-02 1.000000000000000021e-02 1.000000000000000021e-02 1.000000000000000021e-02 1.000000000000000021e-02 1.000000000000000021e-02 1.000000000000000021e-02 1.000000000000000021e-02 1.000000000000000021e-02 1.000000000000000021e-02 1.000000000000000021e-02 1.000000000000000021e-02 1.000000000000000021e-02 1.000000000000000021e-02 1.000000000000000021e-02 1.000000000000000021e-02 1.000000000000000021e-02 1.000000000000000021e-02 1.000000000000000021e-02 1.000000000000000021e-02 1.000000000000000021e-02 1.000000000000000021e-02 1.000000000000000021e-02 1.000000000000000021e-02 1.000000000000000021e-02 1.000000000000000021e-02 1.000000000000000021e-02 1.000000000000000021e-02 1.000000000000000021e-02 1.000000000000000021e-02 1.000000000000000021e-02 1.000000000000000021e-02 1.000000000000000021e-02 1.000000000000000021e-02 1.000000000000000021e-02 1.000000000000000021e-02 1.000000000000000021e-02 1.000000000000000021e-02 1.000000000000000021e-02 1.000000000000000021e-02 1.000000000000000021e-02 1.000000000000000021e-02 1.000000000000000021e-02 1.000000000000000021e-02 1.000000000000000021e-02 1.000000000000000021e-02 1.000000000000000021e-02 1.000000000000000021e-02 1.000000000000000021e-02 1.000000000000000021e-02 1.000000000000000021e-02 1.000000000000000021e-02 1.000000000000000021e-02 1.000000000000000021e-02 1.000000000000000021e-02 1.000000000000000021e-02 1.000000000000000021e-02 1.000000000000000021e-02 1.000000000000000021e-02 1.000000000000000021e-02 1.000000000000000021e-02 1.000000000000000021e-02 1.000000000000000021e-02 1.000000000000000021e-02 1.000000000000000021e-02 1.000000000000000021e-02 1.000000000000000021e-02 1.000000000000000021e-02 1.000000000000000021e-02 1.000000000000000021e-02 1.000000000000000021e-02 1.000000000000000021e-02 1.000000000000000021e-02 1.000000000000000021e-02 1.000000000000000021e-02 1.000000000000000021e-02 1.000000000000000021e-02 1.000000000000000021e-02 1.000000000000000021e-02 1.000000000000000021e-02 1.000000000000000021e-02 1.000000000000000021e-02 1.000000000000000021e-02 1.000000000000000021e-02 1.000000000000000021e-02 1.000000000000000021e-02 1.000000000000000021e-02 1.000000000000000021e-02 1.000000000000000021e-02 1.000000000000000021e-02 1.000000000000000021e-02 1.000000000000000021e-02 1.000000000000000021e-02 1.000000000000000021e-02 1.000000000000000021e-02 1.000000000000000021e-02 1.000000000000000021e-02 1.000000000000000021e-02 1.000000000000000021e-02 1.000000000000000021e-02 1.000000000000000021e-02 1.000000000000000021e-02 1.000000000000000021e-02 1.000000000000000021e-02 1.000000000000000021e-02 1.000000000000000021e-02 1.000000000000000021e-02 1.000000000000000021e-02 1.000000000000000021e-02 1.000000000000000021e-02 1.000000000000000021e-02 1.000000000000000021e-02 1.000000000000000021e-02 1.000000000000000021e-02 1.000000000000000021e-02 1.000000000000000021e-02 1.000000000000000021e-02 1.000000000000000021e-02 1.000000000000000021e-02 1.000000000000000021e-02 1.000000000000000021e-02 1.000000000000000021e-02 1.000000000000000021e-02 1.000000000000000021e-02 1.000000000000000021e-02 1.000000000000000021e-02 1.000000000000000021e-02 1.000000000000000021e-02 1.000000000000000021e-02 1.000000000000000021e-02 1.000000000000000021e-02 1.000000000000000021e-02 1.000000000000000021e-02 1.000000000000000021e-02 1.000000000000000021e-02 1.000000000000000021e-02 1.000000000000000021e-02 1.000000000000000021e-02 1.000000000000000021e-02 1.000000000000000021e-02 1.000000000000000021e-02 1.000000000000000021e-02 1.000000000000000021e-02 1.000000000000000021e-02 1.000000000000000021e-02 1.000000000000000021e-02 1.000000000000000021e-02 1.000000000000000021e-02 1.000000000000000021e-02 1.000000000000000021e-02 1.000000000000000021e-02 1.000000000000000021e-02 1.000000000000000021e-02 1.000000000000000021e-02 1.000000000000000021e-02 1.000000000000000021e-02 1.000000000000000021e-02 1.000000000000000021e-02 1.000000000000000021e-02 1.000000000000000021e-02 1.000000000000000021e-02 1.000000000000000021e-02 1.000000000000000021e-02 1.000000000000000021e-02 1.000000000000000021e-02 1.000000000000000021e-02 1.000000000000000021e-02 1.000000000000000021e-02 1.000000000000000021e-02 1.000000000000000021e-02 1.000000000000000021e-02 1.000000000000000021e-02 1.000000000000000021e-02 1.000000000000000021e-02 1.000000000000000021e-02 1.000000000000000021e-02 1.000000000000000021e-02 1.000000000000000021e-02 1.000000000000000021e-02 1.000000000000000021e-02 1.000000000000000021e-02 1.000000000000000021e-02 1.000000000000000021e-02 1.000000000000000021e-02 1.000000000000000021e-02 1.000000000000000021e-02 1.000000000000000021e-02 1.000000000000000021e-02 1.000000000000000021e-02 1.000000000000000021e-02 1.000000000000000021e-02 1.000000000000000021e-02 1.000000000000000021e-02 1.000000000000000021e-02 1.000000000000000021e-02 1.000000000000000021e-02 1.000000000000000021e-02 1.000000000000000021e-02 1.000000000000000021e-02 1.000000000000000021e-02 1.000000000000000021e-02 1.000000000000000021e-02 1.000000000000000021e-02 1.000000000000000021e-02 1.000000000000000021e-02 1.000000000000000021e-02 1.000000000000000021e-02 1.000000000000000021e-02 1.000000000000000021e-02 1.000000000000000021e-02 1.000000000000000021e-02 1.000000000000000021e-02 1.000000000000000021e-02 1.000000000000000021e-02 1.000000000000000021e-02 1.000000000000000021e-02 1.000000000000000021e-02 1.000000000000000021e-02 1.000000000000000021e-02 1.000000000000000021e-02 1.000000000000000021e-02 1.000000000000000021e-02 1.000000000000000021e-02 1.000000000000000021e-02 1.000000000000000021e-02 1.000000000000000021e-02 1.000000000000000021e-02 1.000000000000000021e-02 1.000000000000000021e-02 1.000000000000000021e-02 1.000000000000000021e-02 1.000000000000000021e-02 1.000000000000000021e-02 1.000000000000000021e-02 1.000000000000000021e-02 1.000000000000000021e-02 1.000000000000000021e-02 1.000000000000000021e-02 1.000000000000000021e-02 1.000000000000000021e-02 1.000000000000000021e-02 1.000000000000000021e-02 1.000000000000000021e-02 1.000000000000000021e-02 1.000000000000000021e-02 1.000000000000000021e-02 1.000000000000000021e-02 1.000000000000000021e-02 1.000000000000000021e-02 1.000000000000000021e-02 1.000000000000000021e-02 1.000000000000000021e-02 1.000000000000000021e-02 1.000000000000000021e-02 1.000000000000000021e-02 1.000000000000000021e-02 1.000000000000000021e-02 1.000000000000000021e-02 1.000000000000000021e-02 1.000000000000000021e-02 1.000000000000000021e-02 1.000000000000000021e-02 1.000000000000000021e-02 1.000000000000000021e-02 1.000000000000000021e-02 1.000000000000000021e-02 1.000000000000000021e-02 1.000000000000000021e-02 1.000000000000000021e-02 1.000000000000000021e-02 1.000000000000000021e-02 1.000000000000000021e-02 1.000000000000000021e-02 1.000000000000000021e-02 1.000000000000000021e-02 1.000000000000000021e-02 1.000000000000000021e-02 1.000000000000000021e-02 1.000000000000000021e-02 1.000000000000000021e-02 1.000000000000000021e-02 1.000000000000000021e-02 1.000000000000000021e-02 1.000000000000000021e-02 1.000000000000000021e-02 1.000000000000000021e-02 1.000000000000000021e-02 1.000000000000000021e-02 1.000000000000000021e-02 1.000000000000000021e-02 1.000000000000000021e-02 1.000000000000000021e-02 1.000000000000000021e-02 1.000000000000000021e-02 1.000000000000000021e-02 1.000000000000000021e-02 1.000000000000000021e-02 1.000000000000000021e-02 1.000000000000000021e-02 1.000000000000000021e-02 1.000000000000000021e-02 1.000000000000000021e-02 1.000000000000000021e-02 1.000000000000000021e-02 1.000000000000000021e-02 1.000000000000000021e-02 1.000000000000000021e-02 1.000000000000000021e-02 1.000000000000000021e-02 1.000000000000000021e-02 1.000000000000000021e-02 1.000000000000000021e-02 1.000000000000000021e-02 1.000000000000000021e-02 1.000000000000000021e-02 1.000000000000000021e-02 1.000000000000000021e-02 1.000000000000000021e-02 1.000000000000000021e-02 1.000000000000000021e-02 1.000000000000000021e-02 1.000000000000000021e-02 1.000000000000000021e-02 1.000000000000000021e-02 1.000000000000000021e-02 1.000000000000000021e-02 1.000000000000000021e-02 1.000000000000000021e-02 1.000000000000000021e-02 1.000000000000000021e-02 1.000000000000000021e-02 1.000000000000000021e-02 1.000000000000000021e-02 1.000000000000000021e-02 1.000000000000000021e-02 1.000000000000000021e-02 1.000000000000000021e-02 1.000000000000000021e-02 1.000000000000000021e-02 1.000000000000000021e-02 1.000000000000000021e-02 1.000000000000000021e-02 1.000000000000000021e-02 1.000000000000000021e-02 1.000000000000000021e-02 1.000000000000000021e-02 1.000000000000000021e-02 1.000000000000000021e-02 1.000000000000000021e-02 1.000000000000000021e-02 1.000000000000000021e-02 1.000000000000000021e-02 1.000000000000000021e-02 1.000000000000000021e-02 1.000000000000000021e-02 1.000000000000000021e-02 1.000000000000000021e-02 1.000000000000000021e-02 1.000000000000000021e-02 1.000000000000000021e-02 1.000000000000000021e-02 1.000000000000000021e-02 1.000000000000000021e-02 1.000000000000000021e-02 1.000000000000000021e-02 1.000000000000000021e-02 1.000000000000000021e-02 1.000000000000000021e-02 1.000000000000000021e-02 1.000000000000000021e-02 1.000000000000000021e-02 1.000000000000000021e-02 1.000000000000000021e-02 1.000000000000000021e-02 1.000000000000000021e-02 1.000000000000000021e-02 1.000000000000000021e-02 1.000000000000000021e-02 1.000000000000000021e-02 1.000000000000000021e-02 1.000000000000000021e-02 1.000000000000000021e-02 1.000000000000000021e-02 1.000000000000000021e-02 1.000000000000000021e-02 1.000000000000000021e-02 1.000000000000000021e-02 1.000000000000000021e-02 1.000000000000000021e-02 1.000000000000000021e-02 1.000000000000000021e-02 1.000000000000000021e-02 1.000000000000000021e-02 1.000000000000000021e-02 1.000000000000000021e-02 1.000000000000000021e-02 1.000000000000000021e-02 1.000000000000000021e-02 1.000000000000000021e-02 1.000000000000000021e-02 1.000000000000000021e-02 1.000000000000000021e-02 1.000000000000000021e-02 1.000000000000000021e-02 1.000000000000000021e-02 1.000000000000000021e-02 1.000000000000000021e-02 1.000000000000000021e-02 1.000000000000000021e-02 1.000000000000000021e-02 1.000000000000000021e-02 1.000000000000000021e-02 1.000000000000000021e-02 1.000000000000000021e-02 1.000000000000000021e-02 1.000000000000000021e-02 1.000000000000000021e-02 1.000000000000000021e-02 1.000000000000000021e-02 1.000000000000000021e-02 1.000000000000000021e-02 1.000000000000000021e-02 1.000000000000000021e-02 1.000000000000000021e-02 1.000000000000000021e-02 1.000000000000000021e-02 1.000000000000000021e-02 1.000000000000000021e-02 1.000000000000000021e-02 1.000000000000000021e-02 1.000000000000000021e-02 1.000000000000000021e-02 1.000000000000000021e-02 1.000000000000000021e-02 1.000000000000000021e-02 1.000000000000000021e-02 1.000000000000000021e-02 1.000000000000000021e-02 1.000000000000000021e-02 1.000000000000000021e-02 1.000000000000000021e-02 1.000000000000000021e-02 1.000000000000000021e-02 1.000000000000000021e-02 1.000000000000000021e-02 1.000000000000000021e-02 1.000000000000000021e-02 1.000000000000000021e-02 1.000000000000000021e-02 1.000000000000000021e-02 1.000000000000000021e-02 1.000000000000000021e-02 1.000000000000000021e-02 1.000000000000000021e-02 1.000000000000000021e-02 1.000000000000000021e-02 1.000000000000000021e-02 1.000000000000000021e-02 1.000000000000000021e-02 1.000000000000000021e-02 1.000000000000000021e-02 1.000000000000000021e-02 1.000000000000000021e-02 1.000000000000000021e-02 1.000000000000000021e-02 1.000000000000000021e-02 1.000000000000000021e-02 1.000000000000000021e-02 1.000000000000000021e-02 1.000000000000000021e-02 1.000000000000000021e-02 1.000000000000000021e-02 1.000000000000000021e-02 1.000000000000000021e-02 1.000000000000000021e-02 1.000000000000000021e-02 1.000000000000000021e-02 1.000000000000000021e-02 1.000000000000000021e-02 1.000000000000000021e-02 1.000000000000000021e-02 1.000000000000000021e-02 1.000000000000000021e-02 1.000000000000000021e-02 1.000000000000000021e-02 1.000000000000000021e-02 1.000000000000000021e-02 1.000000000000000021e-02 1.000000000000000021e-02 1.000000000000000021e-02 1.000000000000000021e-02 1.000000000000000021e-02 1.000000000000000021e-02 1.000000000000000021e-02 1.000000000000000021e-02 1.000000000000000021e-02 1.000000000000000021e-02 1.000000000000000021e-02 1.000000000000000021e-02 1.000000000000000021e-02 1.000000000000000021e-02 1.000000000000000021e-02 1.000000000000000021e-02 1.000000000000000021e-02 1.000000000000000021e-02 1.000000000000000021e-02 1.000000000000000021e-02 1.000000000000000021e-02 1.000000000000000021e-02 1.000000000000000021e-02 1.000000000000000021e-02 1.000000000000000021e-02 1.000000000000000021e-02 1.000000000000000021e-02 1.000000000000000021e-02 1.000000000000000021e-02 1.000000000000000021e-02 1.000000000000000021e-02 1.000000000000000021e-02 1.000000000000000021e-02 1.000000000000000021e-02 1.000000000000000021e-02 1.000000000000000021e-02 1.000000000000000021e-02 1.000000000000000021e-02 1.000000000000000021e-02 1.000000000000000021e-02 1.000000000000000021e-02 1.000000000000000021e-02 1.000000000000000021e-02 1.000000000000000021e-02 1.000000000000000021e-02 1.000000000000000021e-02 1.000000000000000021e-02 1.000000000000000021e-02 1.000000000000000021e-02 1.000000000000000021e-02 1.000000000000000021e-02 1.000000000000000021e-02 1.000000000000000021e-02 1.000000000000000021e-02 1.000000000000000021e-02 1.000000000000000021e-02 1.000000000000000021e-02 1.000000000000000021e-02 1.000000000000000021e-02 1.000000000000000021e-02 1.000000000000000021e-02 1.000000000000000021e-02 1.000000000000000021e-02 1.000000000000000021e-02 1.000000000000000021e-02 1.000000000000000021e-02 1.000000000000000021e-02 1.000000000000000021e-02 1.000000000000000021e-02 1.000000000000000021e-02 1.000000000000000021e-02 1.000000000000000021e-02 1.000000000000000021e-02 1.000000000000000021e-02 1.000000000000000021e-02 1.000000000000000021e-02 1.000000000000000021e-02 1.000000000000000021e-02 1.000000000000000021e-02 1.000000000000000021e-02 1.000000000000000021e-02 1.000000000000000021e-02 1.000000000000000021e-02 1.000000000000000021e-02 1.000000000000000021e-02 1.000000000000000021e-02 1.000000000000000021e-02 1.000000000000000021e-02 1.000000000000000021e-02 1.000000000000000021e-02 1.000000000000000021e-02 1.000000000000000021e-02 1.000000000000000021e-02 1.000000000000000021e-02 1.000000000000000021e-02 1.000000000000000021e-02 1.000000000000000021e-02 1.000000000000000021e-02 1.000000000000000021e-02 1.000000000000000021e-02 1.000000000000000021e-02 1.000000000000000021e-02 1.000000000000000021e-02 1.000000000000000021e-02 1.000000000000000021e-02 1.000000000000000021e-02 1.000000000000000021e-02 1.000000000000000021e-02 1.000000000000000021e-02 1.000000000000000021e-02 1.000000000000000021e-02 1.000000000000000021e-02 1.000000000000000021e-02 1.000000000000000021e-02 1.000000000000000021e-02 1.000000000000000021e-02 1.000000000000000021e-02 1.000000000000000021e-02 1.000000000000000021e-02 1.000000000000000021e-02 1.000000000000000021e-02 1.000000000000000021e-02 1.000000000000000021e-02 1.000000000000000021e-02 1.000000000000000021e-02 1.000000000000000021e-02 1.000000000000000021e-02 1.000000000000000021e-02 1.000000000000000021e-02 1.000000000000000021e-02 1.000000000000000021e-02 1.000000000000000021e-02 1.000000000000000021e-02 1.000000000000000021e-02 1.000000000000000021e-02 1.000000000000000021e-02 1.000000000000000021e-02 1.000000000000000021e-02 1.000000000000000021e-02 1.000000000000000021e-02 1.000000000000000021e-02 1.000000000000000021e-02 1.000000000000000021e-02 1.000000000000000021e-02 1.000000000000000021e-02 1.000000000000000021e-02 1.000000000000000021e-02 1.000000000000000021e-02 1.000000000000000021e-02 1.000000000000000021e-02 1.000000000000000021e-02 1.000000000000000021e-02 1.000000000000000021e-02 1.000000000000000021e-02 1.000000000000000021e-02 1.000000000000000021e-02 1.000000000000000021e-02 1.000000000000000021e-02 1.000000000000000021e-02 1.000000000000000021e-02 1.000000000000000021e-02 1.000000000000000021e-02 1.000000000000000021e-02 1.000000000000000021e-02 1.000000000000000021e-02 1.000000000000000021e-02 1.000000000000000021e-02 1.000000000000000021e-02 1.000000000000000021e-02 1.000000000000000021e-02 1.000000000000000021e-02 1.000000000000000021e-02 1.000000000000000021e-02 1.000000000000000021e-02 1.000000000000000021e-02 1.000000000000000021e-02 1.000000000000000021e-02 1.000000000000000021e-02 1.000000000000000021e-02 1.000000000000000021e-02 1.000000000000000021e-02 1.000000000000000021e-02 1.000000000000000021e-02 1.000000000000000021e-02 1.000000000000000021e-02 1.000000000000000021e-02 1.000000000000000021e-02 1.000000000000000021e-02 1.000000000000000021e-02 1.000000000000000021e-02 1.000000000000000021e-02 1.000000000000000021e-02 1.000000000000000021e-02 1.000000000000000021e-02 1.000000000000000021e-02 1.000000000000000021e-02 1.000000000000000021e-02 1.000000000000000021e-02 1.000000000000000021e-02 1.000000000000000021e-02 1.000000000000000021e-02 1.000000000000000021e-02 1.000000000000000021e-02 1.000000000000000021e-02 1.000000000000000021e-02 1.000000000000000021e-02 1.000000000000000021e-02 1.000000000000000021e-02 1.000000000000000021e-02 1.000000000000000021e-02 1.000000000000000021e-02 1.000000000000000021e-02 1.000000000000000021e-02 1.000000000000000021e-02 1.000000000000000021e-02 1.000000000000000021e-02 1.000000000000000021e-02 1.000000000000000021e-02 1.000000000000000021e-02 1.000000000000000021e-02 1.000000000000000021e-02 1.000000000000000021e-02 1.000000000000000021e-02 1.000000000000000021e-02 1.000000000000000021e-02 1.000000000000000021e-02 1.000000000000000021e-02 1.000000000000000021e-02 1.000000000000000021e-02 1.000000000000000021e-02 1.000000000000000021e-02 1.000000000000000021e-02 1.000000000000000021e-02 1.000000000000000021e-02 1.000000000000000021e-02 1.000000000000000021e-02 1.000000000000000021e-02 1.000000000000000021e-02 1.000000000000000021e-02 1.000000000000000021e-02 1.000000000000000021e-02 1.000000000000000021e-02 1.000000000000000021e-02 1.000000000000000021e-02 1.000000000000000021e-02 1.000000000000000021e-02 1.000000000000000021e-02 1.000000000000000021e-02 1.000000000000000021e-02 1.000000000000000021e-02 1.000000000000000021e-02 1.000000000000000021e-02 1.000000000000000021e-02 1.000000000000000021e-02 1.000000000000000021e-02 1.000000000000000021e-02 1.000000000000000021e-02 1.000000000000000021e-02 1.000000000000000021e-02
-1.147319975962409160e+02 1.742958569333509331e+02 4.047282085967703580e+01 -9.102128517409630248e+00 -9.035024378849146842e+01 -1.376935073886346750e+01 -2.137005054396020682e+02 6.907962578651658525e-01 -8.712531641008921213e+01 -1.434950779356561235e+01 -2.037483637749766885e+01 6.676600413313424021e+00 -1.830187454539157654e+00 1.725018123327064075e+02 8.698802689641907193e+01 -3.983771376782739537e+01 -5.423490329233717233e+01 8.144226537467359606e+01 3.373614437616333817e+01 -2.607089781630596548e+01 -8.107850849084317701e+01 -7.590166972878354557e+01 -1.420556907143907743e+01 2.974606688668616172e+01 -2.004066032063567775e+02 -1.015266291150062159e+02 -2.681628519512933195e+01 2.073182651022910363e+02 7.275276442103488250e+01 7.884701044564981487e+01 8.254248841945560855e+01 1.221975833194521854e+00 -8.138797507189273972e+01 2.132099948366688977e+02 -2.516730369197040602e+02 6.043593104744385869e+01 -1.235702033732719087e+02 -3.564704310850316915e+01 4.143047657313603693e+00 1.302713006259149324e+02 -1.263734260998108851e+02 -1.405617573972286927e+01 7.955872159728194504e+01 1.784660874679921108e+02 7.338729641626601108e+01 -7.038092936130786370e+01 4.242769289451030801e+01 -2.916596529821136485e+01 -6.792458899414714324e+01 1.610068818963116826e+02 -7.261609226935586037e+01 -5.360147469930873854e+01 -1.431958853967646803e+02 5.859073639577163206e+00 -5.197923447926637408e+01 3.974443546435410468e+01 -9.122440593401130116e+01 -5.148337188020929034e+01 -1.042674822309044060e+02 -1.598191006587015863e+02 2.003727912618878904e+01 4.659777118419033570e+01 -1.265916760070997071e+02 1.322792965179433544e+01 -8.156352972076653884e+01 5.050234332773148083e+01 1.712875885796045452e+02 -1.483246572515718924e+02 -4.455106721094766442e+01 7.377091593828385641e+00 3.003196009693468671e+00 4.357076289793955226e+01 8.635943472635327112e+01 9.676633151825063672e-01 -9.020513378772310631e+00 -7.202682480427465350e+01 8.049154587350015788e+01 -3.373597899970904734e+01 2.702638547584115258e+01 1.069497998492999926e+02 9.074988214701106415e+01 -4.395216742989806846e+01 5.948073612530748733e+01 1.516220359986542121e+02 1.194935839464113769e+02 -4.160870803602112922e+00 1.791697448681487401e+02 -1.146680105438789923e+02 4.345752596969161274e+00 -4.312714633546753618e+01 2.127221835536189474e+02 -2.182507884005824650e+01 2.947817924731680250e+00 -7.896121364236240936e+01 -7.326993372523150860e+00 -6.568229047018412814e+01 6.968084574189249736e+01 -9.722492817123095676e+01 7.046881481159681471e+01 -4.908452004639092081e+01 -5.118904905480519574e+01 -9.425521598930443190e+01 5.462508819694846807e+01 -5.630001541474463522e+01 -1.535799371221072818e+02 -8.174372690334868707e+01 -1.075966383503003669e+02 -1.617012084631302287e+02 1.398200449309260307e+02 -2.831760006229409043e+01 3.292972497229862938e+01 9.221831040147188219e+01 -1.070591861446117434e+02 5.860760777710519420e+01 -4.455783383199185721e+01 -7.124719934840865676e+01 -9.260914995501366320e+01 2.091069156475533646e+02 -5.836167973458711344e+01 -5.087765952628924282e+01 -4.859156282383715819e+01 8.269615896465801086e+01 -4.257518311142072065e+01 1.419377471996265001e+02 -5.125188599705207793e+01 5.662955815258155212e+01 4.670827589608839148e+00 -8.349103565745031119e+01 7.080443954864877298e+01 2.852714673961974654e+02 -9.461254887676852832e+01 4.886379665700011543e+01 -7.838042049325804328e+01 4.652184352962829195e+01 1.349268971669548591e+02 -5.281411114573185728e+01 1.498761905668564687e+01 -2.767888993047136736e+01 -1.048404929952117470e+02 -1.775136234930655377e+01 4.376467736265572839e+00 -8.052742627578931334e+00 -1.539279764456076194e+01 1.216615398218575166e+02 1.340683788522760835e+02 1.918023766254237330e+02 -3.130503780191817214e+02 3.932167194087100626e+01 -1.619153205003711093e+01 -6.416447791290657676e+01 1.855594986654195679e+02 7.846336875879235606e+01 -2.631347277811511010e+00 -1.193606780429114167e+02 -1.123861671578114851e+01 1.030145701002384868e+02 -1.383627440240917110e+02 -1.736010749137865048e+02 1.105080351934768679e+01 4.369773130923258009e+01 -6.280996138448302446e+01 4.327815779963435006e+01 -1.102683646559924568e+02 -1.558445386116703730e+02 2.175988960188973564e+01 5.003672465069783470e+01 4.935102762993265557e+00 -8.603260958975738504e+01 -9.642543437680865281e+01 -8.690926925622919441e+01 -9.020748702995686585e+01 1.299499211611420080e+01 5.859190439530186723e+01 1.200817734821759331e+02 8.190184509510346800e+01 9.227720481690067800e+01 1.107763007194042757e+02 -7.714530585622641468e+01 -8.512066456634487110e+01 7.275013262781250489e+01 7.059050412134804731e+01 6.112346690378276293e+01 -9.699766299755703258e+00 -9.401808783958749416e+01 5.572846354364808974e+01 -1.847584651645152576e+02 6.934668168476758865e+01 -4.603280853699570230e+01 -9.965329026130569900e+01 7.667815407773193215e+01 -1.769029692660888742e+01 -7.975655603867714660e+01 -5.943850317024335794e+01 -9.446140716425970751e+00 2.509860832816317782e+02 7.943605037731275331e+01 5.673421045372241878e+01 -1.075525646193380425e+02 1.534659300503021200e+02 1.066112719946852083e+00 -9.361718703887959236e+01 1.613544750650783897e+02 -1.596956653057276299e+02 1.634286934376733669e+01 -3.374910128947129806e+01 -2.302502648393250695e+02 -1.398263336103098311e+02 -9.142681643478913145e+01 -3.064354042454207061e+01 -1.249766852680160127e+02 6.043740770799257689e+01 6.809074569930855603e+01 -2.887370300933713452e+01 -1.044718982254704827e+02 1.185197044951513021e+02 1.239127013720234203e+02 4.843844230766079306e+01 1.828190748685657496e+01 2.739371531878242081e+02 4.579299046711805943e+01 -1.251606055609842230e+02 -4.721749340020647878e+01 -1.770859058302031599e+02 3.342067826162569588e+01 1.608218951360306335e+02 -1.556827617487504654e+02 1.381841960060028498e+02 -9.542540438482214427e+01 -1.981270572942425545e+01 -7.610613870904856526e-01 5.545052472660124465e+01 -1.218954092905875441e+01 -2.389812621736599851e+01 -1.988700524017309590e+01 -1.329152846355603970e+02 4.873629002524121745e+01 -3.187865713632081111e+01 -1.365352970960425161e+01 -1.124113021106134624e+01 2.371890250056765694e+02 1.828384588838561911e+02 2.442056912398756765e+02 1.383649212988307795e+02 -9.088715773238389772e+01 7.896461440443290769e+01 2.215300419470870708e+01 5.000399549581474190e+01 -4.174540986971324230e+01 2.682103112117963519e+02 -2.445351703812760391e+01 -1.435781696450254685e+02 -1.571470033264891342e+01 -4.811656468823940003e+01 -8.130582887730966490e+01 4.533308608452255584e+01 -1.230310204898505866e+01 1.910741256176621619e+02 9.710232080553566902e+01 4.295418492542938793e+01 1.030055480825370182e+02 9.921221259371715462e+01 -2.415203199370265708e+01 1.467018650203629022e+02 2.780795403572940927e+01 9.409182907076484526e+01 5.004864323213705291e+01 7.292381572921494914e+00 -1.216483471374623662e+02 -1.216887963858656150e+02 -9.457144216469035314e+01 -1.636948598967956769e+01 9.107717611033729099e+01 -3.223430472093428989e+01 1.039157853260808935e+02 4.602362667978118083e+01 -7.641941224424179779e+01 -3.150158776642522440e+01 -6.157999574536265897e+01 1.845234251037689432e+01 -4.870626763642441404e+01 -1.177394586834964940e+02 1.277259841850905531e+02 1.274954844222032193e+02 -8.294427687314720288e+01 5.754312955886274672e+00 -4.760398290258235932e+01 -3.429453203022309538e+01 -1.191917243776229185e+01 -3.279487907554938175e+01 4.668456058845546863e+01 -1.476327195668948775e+02 -5.550029941599547811e+01 -1.595872817848506884e+02 1.829195997328738770e+02 -2.128012189680567090e+01 6.193372647747396798e+01 1.254116501152709873e+01 1.516519861434197196e+02 4.690481730854727971e+01 3.754192764671515192e+01 1.620338699783298466e+02 -5.171898019740557118e+01 -1.024227023696127929e+02 2.848733265262325176e+01 -1.658319372127561735e+02 -5.603120240742758540e+01 1.073243979064992004e+02 -1.340655137469734655e+02 -3.815783079633717279e+01 9.578604720531693317e+01 -9.915293373188811188e+01 -9.391488600933622877e+01 -8.671030743576868360e+01 -6.698050489680503006e+01 2.611839253893464274e+02 2.078534018473359311e+02 1.080405448562369770e+02 -1.071741281421274863e+02 7.850853287928259761e+01 -6.930604645507899875e+01 -3.267771124324949739e+01 1.739631647938040260e+01 -3.370609700785488627e+01 -9.825798413790776920e+01 -2.819002823008262215e+00 1.552145006765054980e+01 1.139192695271550235e+02 -1.345518094622018737e+02 4.382306976477192251e+01 6.674006566406382035e+01 3.618423556957068143e+01 -9.482765811124006916e+01 -1.553760545620021389e+02 2.021770794124074939e+02 -1.864383121422874368e+01 2.635143195124167192e+01 1.636753290020435543e+02 2.789199145238538335e+01 2.901672923775951318e+01 -4.654849287160428872e+01 9.259994040576067675e+01 -1.425196381021276579e+02 -3.220459255306859347e+01 -6.409553498012803274e+00 -5.582844412960160696e+01 6.423033779659437670e+00 2.228067113540585709e+01 -3.738858423555539190e+01 1.427665205465985743e+01 2.232294940533111287e+02 -2.859984111812925178e+01 -2.919313033587467743e+01 -1.061653589372806010e+02 -1.734407419947298079e+00 -8.433587636328226722e+01 6.701308127886937527e+00 1.170051534278872509e+02 -5.432877166330221996e+01 6.320126954568897837e+00 -5.672317786557977826e+01 3.487761927211058044e+00 9.105158996036230690e+01 -1.209472840531820310e+02 -1.010425767834130539e+02 -1.070395898004620960e+02 7.454029719925152619e+01 9.035407853405641276e+01 -9.637048030464106319e+01 6.532512659891894202e+01 2.693203767910308954e+01 4.037819582559573206e+01 -1.853865971224478670e+01 9.531602347967854882e+01 8.322831474936026552e+01 -8.066394298369645810e+01 1.239642023143664140e+01 8.443862005260650960e+01 7.604921591150592519e+01 -2.073457997028576472e+01 2.608329865876753928e+01 -1.383574919490387742e+02 5.061349216304220278e+01 -3.418733372599648845e+01 -3.405142066330613915e+01 1.807176061178449231e+02 4.951356528660227951e+01 1.254529634106878433e+02 1.992318056468676843e+02 -1.436879220057074349e+02 1.555257187664010416e+02 -6.611188379746668886e+01 -1.409914315401973681e+02 8.589978785013315132e+01 -1.399175561878525400e+02 -2.994470581340130977e+01 5.888062201575441179e+01 8.455544637682399056e+00 -1.753708969212403872e+02 8.785849138967556371e+01 2.629808329916655296e+01 7.210179294827312901e+01 3.783283443240667054e+01 9.891482773929006100e+00 -7.003198396038557405e+01 1.207766630211089876e+02 5.684551034835507721e+01 -6.482521134423224396e+01 -1.056280152760345885e+02 4.065933385679989698e+01 2.675188479415966114e+01 8.594497863567930551e+01 1.916641579537202063e+02 -2.571681436190110048e+01 -1.149085541609130132e+02 -8.844095033220966684e+01 -5.354685663944513863e+01 -4.633272247385031051e+01 -1.530978121915809425e+02 -2.346007621611247274e+01 1.350728877022776828e+02 7.778057033647887408e+01 -1.276682234387826753e+02 -1.562702278821464006e+02 -7.106817411545436869e+01 -7.970242299761314086e+01 1.530517141805429446e+02 -1.778124563509478548e+02 9.024805790495294389e+01 -4.807756060424491551e+00 -4.486914503417754929e+01 1.389124857869385465e+01 9.513226410868642802e+01 5.176364818575052595e+01 1.441684510910409642e+02 -1.659856719981403046e+02 -8.446297352766626432e+01 2.640699626322444260e+01 4.374841978134556086e+01 2.150515715799170664e+02 1.517032899011801135e+02 6.832759700215989085e+01 7.521053528220450346e+01 -3.576204198100306542e+01 1.583870759688326473e+02 -1.870106981770793482e+02 -6.610536610968506466e+01 -5.600000537914355903e+01 -5.402273337371686068e+01 -1.077498439977042324e+02 -1.561919996995664661e+01 -7.160221787482532818e+01 7.425695039621301419e+01 -9.568233542157278393e+00 -6.062884039397717828e+01 -6.502740376365194663e+01 1.879348443518295824e+02 6.149474907929072742e+01 -1.426967878393969080e+01 2.178309169688889426e+02 -1.129527955533734485e+02 -3.685960515636508461e+01 6.982152352262306749e+01 -1.305458945145247518e-01 1.555580425471747219e+01 -1.303730960806661585e+02 1.837124872809298211e+02 -5.111519745101760748e+01 -2.812489992562275631e+01 -1.143846918728074940e+02 1.311973509287069533e+02 9.998774587359568500e+01 -8.081911556835319743e+01 -3.911693361250011947e+01 4.056723034126615346e+01 -1.577939289130155771e+02 -1.237229898416608298e-01 -7.784033512373090957e+01 8.041614624720800464e+00 -1.126688923735682124e+02 -1.651649262586806799e+02 -7.362002010588642520e+01 1.543251232109616922e+02 5.896379883768037189e+01 -9.331520778191274701e+01 9.289266252700753057e+01 3.567679646059597331e+01 9.191008712602815933e+01 -4.384404131226108348e+01 -8.756319217389784626e+01 1.780081095277699603e+02 4.338214372263264096e+01 3.014175815692934890e+01 -7.599414082689530403e+01 -4.402430068885421122e+01 9.969752442957329208e+00 -7.439502312879635149e+00 -1.797855049692712441e+02 -3.598472586981120713e+01 6.701398367562795499e+01 1.161091429473045196e+02 1.619061068597901851e+02 -1.378551661762603331e+01 9.317486874153108545e+01 1.639365975075028246e+02 6.593654010820628741e+01 1.536510979001041051e+02 1.669041389560773325e+01 1.364185582841628843e+02 -8.720220341613504900e+01 5.545060641434754700e+01 3.049469618832030804e+01 7.878674100246691125e+01 -1.102527516517406951e+02 2.055050236294374599e+02 -1.337032105889654474e+02 9.159554920966417058e+01 -1.114936535768650003e+02 4.784102561112695895e+01 1.430412357577911031e+01 9.407411161819094048e+01 -7.640330589455490440e+01 -7.827945375987546583e+01 -1.159160455357137032e+01 9.232926493352822206e+01 -3.065191861626345826e+01 -1.690691464338620520e+01 -2.033823499304016380e+01 4.907741283046293645e+00 1.016280853258919876e+02 -6.478978679090462833e+01 -2.816560006098154378e+00 -2.003883242236871638e+02 1.259176708250174812e+02 -1.289134398327146016e+02 -7.628524180298403223e+01 -2.431872779861122069e+01 -1.114054948027177687e+02 -5.488856263618311004e+01 -6.044756702753008426e+01 -2.028945131613227559e+01 1.406836232824915669e+02 5.580258703945603571e+01 1.036830881580516603e+02 -1.404800921557427955e+02 -1.430544013658185349e+02 -2.956988753649199566e+02 1.054144796192096152e+02 1.076607029314150310e+02 4.361562006169376104e+01 -4.375909151738778036e+01 -3.844490558468616825e+01 -1.895413269125926092e+02 1.508819617890405880e+02 -1.108994321877136997e+02 1.104172452979892824e+02 -1.643964223884226215e+02 -1.476479977771243668e+01 -5.716858821943710467e+01 -1.231066684958576047e+02 -4.758596686416002797e+01 -1.286701240166131477e+01 -9.565216243644267990e+01 -1.068826067715046833e+02 -1.275189432801415634e+01 7.352910106520712930e+01 -1.287046384539840176e+02 -1.619086247816237289e+01 -7.616820951863431333e+01 -1.357114788663635068e+02 6.929594090610724955e+00 9.833757871169630960e+01 1.709191190813000105e+02 -1.970817049472183058e+01 -4.757732389289324004e+01 -1.282115683589350112e+02 -1.689384562898422928e+02 1.071747238015618251e+02 -7.515721636985942666e+01 8.165389212939695085e+01 9.719712461340181520e+00 3.024347919097147752e+01 7.631454274366842583e+01 -8.753224099408186021e+01 8.541211982826121130e+01 1.191165775706487722e+02 1.626457774648434054e+02 -1.205223578862028972e+02 1.074127663809317852e+02 -4.934995839789037575e+01 -9.383430294947355321e+01 2.217317317702100752e+02 5.093131231235617662e+01 8.626528925417903793e+01 2.204037043537041285e+01 -6.525652806489313207e+01 -3.611136873295350114e+01 -2.174237362109920753e+02 1.091684540413159681e+02 8.425696890589304644e+01 -7.824460366320164439e+01 -7.563423036764982044e+01 1.500783653320821998e+02 1.044614811325827048e+02 5.282679261713273888e+01 7.865280556397138412e+01 -8.189958340363491018e+00 1.066712385400009282e+02 -1.069901486745039705e+02 1.927070378819831546e+02 -4.081052052242657879e+01 -1.260820904909621731e+02 -3.890871280317913516e+01 7.416314836312049863e+01 1.523111442083407212e+02 1.339648013544183236e+01 1.796765912116223660e+02 5.397731504717879858e+01 3.473583443929842218e+01 -1.150804625802883550e+02 4.634256469100693465e+01 -1.292820933530304330e+02 4.928627920191979683e+01 3.997913819877050656e+01 -1.274793888772062189e+02 -8.790092676980411568e+01 4.116469546753248210e+01 9.021058559272143285e+00 -2.403576405158240803e+01 4.324857408809379677e+01 -2.211850503703842108e+01 -6.522357246088347438e+01 -2.698069931821751410e+01 -2.323587205699049463e+01 -4.117989710182606444e+01 1.942223250402485490e+01 -8.318813147272459219e+01 1.229738697154143239e+02 -7.686743367978753838e+01 -4.474117005499184785e+00 6.767913248087072020e+01 4.044102397429562679e+00 1.647040120938198626e+01 1.648795056116916058e+01 -1.211049394769972309e+02 -4.574728054451697723e+00 6.725334901920061270e+01 -2.392557539507888009e+02 -8.769350516988582456e+01 -1.165475127845402028e+02 4.526074920556938963e+01 9.947510210934682107e+01 -9.483089106926237832e+01 -1.735514882716617535e+02 -1.913534735742011605e+02 2.065618355888674529e+01 -1.498223980654658476e+02 -6.525019392388262673e+00 1.524957273703943486e+02 -7.365334028816727496e+00 3.837451182329937183e+01 -1.021425388621193235e+02 8.236947448647507031e+01 -1.222594860939265828e+02 -1.586831371652915124e+01 -3.125807726731708414e+01 5.929924297039161729e+01 -9.171095122859448168e+00 1.088220486751502563e+02 -1.256151032809914199e+02 -5.153300594065230911e+01 8.897422614178972822e+01 6.802919933292115218e+01 -8.469941825619422104e+01 -5.590527054530923579e+01 -5.070554189323077310e+01 -2.972700619981612249e+02 1.987741566245632896e+02 7.818628241549052404e+01 -2.425077990026387909e+01 -3.044540736343960674e+01 4.262280260741076887e+01 -8.639236651431427561e+01 1.021421846177865120e+02 6.198524682345292547e+01 8.416178431099098134e+01 -8.622937245230838244e+01 -2.727777991302205152e+01 3.420647135432030694e+01 1.781608987866736982e+01 -4.385715781530399937e+01 1.617607719017681802e+02 -1.772604079128002041e+01 3.623280242786796634e+01 -2.353596486328110302e+02 -8.675340763987509263e+01 -7.494020103934506949e+01 2.356373553177942526e+01 1.118027488482481004e+02 -2.371460175738370708e+02 -1.914753912816606771e+02 2.269587360033633274e+02 -1.082343755119692119e+01 9.836963274665399126e+01 6.424852013861976729e+01 -5.669949727256600625e+01 -1.341099967215212132e+02 -9.741811077508936023e+01 -5.146240108211524245e+01 -3.834084577603233868e+01 -4.007961595858975556e+01 1.657714197075048190e+01 3.798822792234649626e+01 1.707339175750883840e+02 1.260829021481172276e+02 7.061937682781613823e+00 -4.476478371009873669e+00 -1.625803520938822544e+02 1.224771921497293192e+02 1.631050432884874510e+02 -1.058343861679789768e+02 7.548082424193682982e+01 1.850998032103198243e+00 5.616482682275248095e+01 1.284364762939043771e+02 7.261969839368380519e+01 -1.371812501642704660e+02 1.654665981562639843e+01 -3.008103252350491985e+01 1.140071007464024611e+01 -2.375528980911045096e+01 4.645018871807845784e+01 -2.667305605710097893e+02 1.856017786611825215e+02 7.517410411958826977e+00 1.633328209649692724e+02 -1.084247767353368808e+01 1.088348275366446103e+02 7.342016029175707104e+01 -4.308177869424508089e+01 3.062440814309834991e+01 -7.461475566814347360e+01 -9.121838994903789910e+01 -7.394453795487187620e+01 -3.286945550756779966e+01 4.636328625372048151e+01 1.130573496953188197e+02 2.926159759963901408e+01 6.369371723871310564e+01 -1.075787412140921049e+02 -1.407764602884487886e+02 -1.384378047050346616e+01 4.765798383514349723e+01 -4.677533855660831819e+01 9.705073130317518348e+01 5.699822518384153369e+01 -2.840697219016739439e+01 3.076902831664286708e+01 6.302284000244490159e+01 -7.409506335168616431e+01 -1.373808305615315248e+02 1.460020640027398713e+02 8.032929000852952584e+00 5.153839378744625321e+01 -1.534400593773508490e+02 -5.490026706835820391e+01 -4.918053864542766829e-01 -6.753795468623361842e+01 4.400526832436769453e+00 5.788025054385985868e+01 1.917803673261213362e+02 4.024977445529378173e+01 -1.128502122691330811e+01 7.427175537071227041e+01 -4.682507797488485579e+01 -1.121830077608158120e+02 -1.422927424039440609e+02 9.659020455529779170e+00 2.586317693432350495e+01 2.448677507642918272e+01 -5.858990475365216355e+01 1.244997717204610694e+02 -8.330915850029295200e+01 1.322580915424026102e+02 8.998887435060250084e+01 -6.705492629076516664e+01 -8.727801871718774862e+01 8.680471590545667482e+01 2.115172813651064132e+01 -5.411634642689119090e+01 -5.555150901436500277e+01 1.409585059559758804e+02 5.910316030100981521e+01 8.240387273306828320e+01 2.698154798120958020e+01 -4.345295480488888273e+01 1.109603778585026532e+02 -5.632764084929483062e+01 5.352553101375450151e-01 7.909022502856740289e+01 1.028378857448947201e+02 2.638343568145801328e+02 -1.809021373365669376e+02 1.662971264808263641e+02 -6.987925852891568468e+01 -1.572932739639451505e+01 -2.586075683900930144e+01 -2.143553805790004674e+01 -5.708323001359062943e+01 9.607880116039893892e+01 1.904436062782714600e+02 -1.229484204069024713e+02 3.201447980201547239e+01 -1.313852144912712276e+02 7.268709351636880456e+01 -4.611239891537729108e+01 -8.388818054108641320e+01 -5.583034236830410890e+01 4.267487586368763175e+01 2.012201377551327042e+01 -8.486658617844427965e+01 -1.463873529164643230e+02 2.156657731349181972e+01 1.636449552162941359e+02 1.483495943333963218e+01 1.895603261511191988e+02 7.762176900476909225e+00 1.398959505677445634e+02 -3.597291128584743092e+01 9.429528179159636636e+01 -7.430688096345468807e+01 -1.174570129328005095e+02 5.143758405269144163e+01 -6.039498792686914186e+01 -8.172901162521090157e+01 7.594205791641586245e+01 6.692772172217121174e+00 -9.825560477972631190e+01 -1.568515341914259977e+02 1.541350247758786054e+02 -9.296812815974453770e+01 -2.424811669322966878e+00 1.252319220319001403e+02 6.056160648005255354e+01 -1.024549937947343921e+02 1.106476407419059704e+01 2.944128659905777567e+02 5.569486825350076487e+01 -1.647540900170676821e+02 -4.983185857868215862e+01 -6.430971167574456615e+01 1.007687782259474218e+01 1.124194172308717015e+02 -1.081474171482843616e+02 2.252785888865211206e+01 1.364752000489508532e+02 1.964283631765916738e+01 -2.209646956852793380e+02 5.060861104160942858e+01 7.896272930904852672e+01 -1.419109464359942052e+01 3.433194854956384745e+01 1.206667599767963645e-01 2.350503891882253171e+01 2.902342872472510749e+01 1.211763143800656621e+02 1.025448636665523736e+02 1.621762918202326276e+01 1.559544830841347505e+02 -6.699672994095436707e+01 2.581112431841278863e+02 6.804128784069351354e+01 1.482608173600315524e+02 -2.300513201135442287e+01 9.425252275940376023e+01 -5.138711703709350331e+01 -1.532131704781936890e+02 2.743607861844813911e+01 9.958469997254266559e+01 -9.174729201504459297e+01 -1.096476771000803154e+02 -6.965841979385727711e+01 3.829226706678048231e+01 -1.196310657198871326e+02 7.826234356508669521e+01 2.941652336535488033e+01 -1.022071847854692095e+02 1.989089122015707005e+02 -1.231953226204834628e+01 -1.065235582914766752e+02 -1.398881219021616573e+01 -2.139792511958199128e+01 -1.468573733158708023e+02 -4.193794832444356757e+01 6.439775943881342357e+01 1.379771345745572262e+02 3.037106912078958132e+01 2.804714628488289918e+01 4.690700313388867926e+01 -3.747410446472344603e+01 -1.524526432874170609e+02 1.657511708401024819e+01 3.248648867509293581e+01 1.393698734111802082e+02 -1.044184287933578759e+01 -7.975753009899987944e+01 7.668131943166088149e+01 1.059141459653016426e+00 3.352043588658381879e+01 1.459298974965547586e+02 -1.860026503712378201e+02 -9.724680376199006560e+01 1.306401902406613544e+02 -2.195816419947637712e+02 -1.871845760476215048e+02 9.258176959484343627e+01 1.567357130608161810e+02 6.448435138559352708e+01 -4.509890127833876328e+00 1.585790668517752522e+02 -2.233601610515842708e+02 1.090635792746037396e+02 4.313768935548510086e+01 1.293423612812489978e+02 -1.919485636935598620e+02 1.085162328851566969e+02 -2.882062019229920580e+01 -1.360852238082653685e+02 -5.424128925398797207e+00 -9.406321579815775635e+01 -1.665873696088975819e+01 -4.321722216231577818e+00 -1.253817752720573111e+02 -1.255121843832367716e+02 -6.369686445588126134e+01 -1.312354599910919433e+02 2.045866693383822792e+02 -1.638332470394299207e+02 -5.105147459037050339e+01 1.756027625345130048e+02 3.452455277146651014e+01 -3.012408488454075268e+02 -1.293104005194078638e+02 3.617021278904800141e+01 5.560664406212932676e+01 8.793885782559078379e+00 -1.574052951593603495e+02 3.632364510966907289e+01 7.575888370832662311e+00 -7.564772501802931970e+01 2.062951493545463393e+02 2.062183266519315907e+02 4.396715401017515568e+00 -2.122194478335705412e+02 1.282392470737454460e+02 3.133315999203795243e+01 3.783849719106079590e+00 7.802062540931979129e+01 -2.111375454029284526e+02 -1.405035390601836127e+02 1.435689902838783780e+02 1.115809853027085552e+02 5.389243345866182011e+01 1.458049678861532357e+02 -1.814276215631435605e+02 -2.077616002144955942e+01 -1.327702575224713826e+02 4.431347503865155346e+01 -1.057006475273126256e+02 8.857359610411597828e+01 -3.444980589033791318e+01 1.259995043215078958e+01 1.805652060634180600e+02 2.896520099394762582e+01 -2.682395395207656179e+02 -1.285754969711937008e+02 -8.484020383206609495e+01 1.609041072113310520e+02 1.275338870537738778e+01 -5.472229503887841418e+01 3.095952059193713524e+01 6.364800209451519208e+01 -4.030641478621548401e+01 1.094206341734320915e+02 -1.025131606006373346e+02 5.008397983364603334e+01 1.139051592446217569e+02 -3.602478814805333229e+01 -9.985925259402185361e+01 -1.153936131554450242e+02 1.218761535577665427e+02 -5.052228700620830182e+01 2.000301973664671209e+02 5.821654268677158228e+01 1.129280278461268239e+02 1.876151678455245815e+02 8.716631341160177016e+00 -1.264525792599498715e+02 -1.687257274679876105e+02 -1.162280572373420426e+02 4.320121945382756223e+01
-1.356016631633124803e+01 -4.766652112660078267e+00 1.029671944185072761e+02 -2.276483440994906005e+02 1.544928826287895163e+02 6.316735512452196843e+01 1.512271632425762675e+02 -1.283795002790174919e+02 -2.777870977234699446e+00 -2.394265778649003096e+01 -2.181652594766286484e+02 3.256115064546210647e+01 -1.822124621128720889e+01 1.215559628524096354e+02 -1.242825314554075078e+02 6.133737398769374494e+01 1.245732197626772972e+02 -4.566051331028295124e+01 -4.940717824568757521e+01 -2.692726013592456624e+01 6.131582811521676035e+01 6.276569794308986872e+01 3.220905651009542225e+01 -2.311511920364884531e+02 -5.135065435219777896e+01 9.091340065241040236e+01 9.837812450222683580e+00 -1.027373223539600744e+01 -6.614378466045573646e+01 -1.534105345067572479e+01 7.289725132052878109e+01 -1.445338066765772282e+02 -6.150602109208039536e+01 8.953628680117935446e+00 2.062185230184807665e+02 2.107478924257653716e+02 -3.183909606579966933e+01 5.554985983028393548e+01 -2.830335498540840211e-01 -1.388298900978473682e+02 9.541221754742610983e+01 1.066065060169056693e+02 1.078687323659609376e+02 1.163189248058884573e+01 6.153331764964841710e+01 4.783845272761644907e+01 3.865612791272808835e+01 2.912806690140179100e+01 1.096263425861953493e+02 8.918830552926871746e+01 6.522214103275774733e+01 1.619785458604690405e+02 2.461005423598877542e+02 1.943747130547748725e+02 -5.876402673982389757e+01 4.896569674606197964e+01 -6.391879651282436470e+01 5.609255476412841546e+01 -1.909535351612393868e+02 5.615938442873167702e+01 -2.035500419919495130e+02 -1.676812097876813539e+02 1.285868176436342125e+01 -9.168098181053220941e+00 1.685238999011362182e+02 -2.066464550369059054e+02 7.483550831155744731e+01 2.283966533015689606e+02 -7.254973847976930124e+00 -1.934921227226623728e+02 3.540088921879561923e+01 1.960553254639017666e+02 -6.072928069919533556e+01 -2.648473882324676651e+02 -1.019523673995410178e+02 8.749652955108290442e+00 -2.287329868050827315e+02 3.180126151539200308e+01 -1.784213760385070771e+02 -1.845484474234419281e+02 -5.674924359442596966e+01 1.516630850255484120e+02 6.915655883311232799e+01 1.054067740154063770e+01 -8.813077108989891428e+01 -4.238779940073386854e+01 6.343747213627329273e+01 -2.308871104425830083e+02 5.384158701277732462e+01 -7.468163776773594975e+01 -7.770690919924099660e+01 -1.759562582831848374e+02 6.480874241883205400e+01 9.235372801766537521e+01 -1.615978555811053070e+02 1.719683337003033898e+02 -3.973551527418202056e+01 -1.683969269738836871e+01 8.714435000338094994e+01 1.556167308743329443e+02 2.156506618737116199e+01 1.507928066919229479e+02 -1.836908325072595716e+01 -9.033003057881980169e+01 -1.954420746915972629e+01 1.006806720428502331e+02 4.604164888813388501e+01 1.001540983702917487e+02 9.665934991748061123e+01 -8.500942514012039908e+01 -1.739653469167416802e+02 1.259999340757736945e+02 5.555929508149700524e+01 1.651623682868593335e+01 3.131673426405528815e+01 -6.955644423270412346e+01 9.835328572178678996e+01 9.198699212593223251e+01 -1.397713131676736253e+01 -7.295520195230561455e+01 3.154512387180950128e+01 6.420524587394305094e+00 -6.305722422721964193e+01 1.736612543715511663e+02 -3.385320956850249985e+01 1.245969519186246117e+02 -7.185302417160910693e+01 3.933360953751565603e+01 -3.703295585092602948e+01 9.167362115182771731e+01 2.407993922684546817e+01 1.184645880050040745e+02 -1.188887823584010164e+02 7.621530567518030352e+01 1.266251586780689706e+02 -4.586466239588271776e+01 7.748911245105681189e+00 -1.294046685570363486e+01 1.197400916209224704e+02 3.586345398240819993e+00 1.730561687587232598e+02 -1.450711139200962521e+02 1.197329710313467359e+02 -9.375907266958168407e+01 9.823916751285594273e+01 -1.406538593034981091e+02 3.030700659525286511e+01 2.538803210660951137e+01 1.884945883795495769e+00 3.728003020041276017e+01 4.708787698662322896e+01 -1.278718488498122774e+01 1.104901820048507055e+01 1.109990253667755553e+02 1.307172504444276342e+02 -8.900301012220637631e+01 -5.572129139324371749e+01 4.868002044448264343e+01 1.595765154606354264e+00 -1.406918331163753635e+02 -5.657786985408818481e+01 -3.646489709077639674e+01 5.028960207631057244e+01 -6.740584719488178678e+01 2.358238946931871993e+01 1.648604419413510414e+02 -8.172341269429797705e+01 8.305298932318694938e+01 8.650239976546131970e+01 1.152330279179514783e+01 1.269752935086201404e+02 6.470396005250660210e+01 1.729327804975627600e+02 -3.552557031405143562e+01 1.157861659446348028e+02 5.717335252904514675e+01 -1.656369569652115459e+01 2.102165375487165306e+02 -1.429910372343462086e+02 5.034738398011321436e+01 -1.932625438210012021e+02 -8.676107686946366471e+01 4.227059173537451642e+01 -7.442783393356853594e+01 -1.606952991719833790e+02 2.055231970228890077e+02 -8.846562189614937211e+01 -4.897940919977776275e+01 -4.774215344693023866e+01 1.255893586282860781e+02 2.009564582316646124e+02 6.681476370532661235e+01 1.509034601205413253e+02 2.264333448868421499e+02 -1.693574956729792413e+00 1.681370934025140400e+02 7.316160965651012305e+01 1.964910303283954249e+02 -1.297880611446729517e+02 -1.227120389681880575e+01 6.528334618060643635e+00 1.960584470132160391e+02 -9.384224090862836931e+01 -6.237504553209621605e+01 -5.466106906655240039e+01 -1.382164982720844364e+02 4.808003884351317758e+00 -1.041864349887084984e+02 1.590110629040875665e+02 2.434213595219364734e+01 1.240881334906961975e+01 7.463352503955053407e+01 -5.111289829916248806e+00 1.206747252399235890e+02 -1.639262509658193210e+02 4.684789298308378136e+01 -1.763748076670930800e+02 1.211965553914960338e+02 9.906260293871149258e+01 -6.949766050686285723e+01 4.824364408020260697e+01 2.457825378717558067e+02 -3.142054864742713249e+01 4.300416687410131544e+01 -3.371652236070874409e+01 5.979234272178096177e+01 6.636821255473631709e+01 -6.464405334419527804e+00 1.052170110544163322e+02 1.048060731139751738e+02 -2.000926978617887357e+02 -1.581552206616779301e+02 -1.236290775460915228e+02 -9.771969362188070107e+00 -1.546043595305592930e+02 1.192372117234928623e+02 1.138983583070776007e+02 6.083468099542846375e+01 1.151413777244455616e+01 1.627259511845221311e+02 8.663952269674960860e+01 6.963334290076662114e+01 -1.049020086557177507e+02 1.571378737284009048e+02 -3.672914207408142229e+00 1.127769748006237620e+02 9.091209461504936584e+00 3.791147296944238576e+01 -7.811918350979476600e+01 -9.363329114691985922e+01 7.383605529654610677e+01 -3.935189496434166045e+00 1.508861623528042628e+02 -1.298094176917978793e+01 -2.954801509212505728e+00 4.728619198092227549e+01 2.335939846199713799e+01 1.458100439082750199e+02 1.505240028216417159e+01 3.693894263660023114e+01 -1.594919228013263250e+02 6.789176138148954465e+01 1.377629296387339934e+02 -1.825895517017956138e+01 -2.349244185415018080e+02 8.694979845094565007e+01 1.401129051505708389e+02 2.086381477678493468e+01 1.942860768300237737e+02 -4.210426066187578087e+00 4.408991154238693611e+01 -4.474184621112041782e+01 -1.423776368246550135e+02 5.744118174035708790e+01 -4.869355205458006708e+01 -8.318107801982466754e+01 4.225551267420170376e+01 -1.894756185703824940e+02 7.355997251222865430e+01 1.684209842613408625e+02 -1.037249874224186925e+02 1.771569094156934909e+02 -1.000654690541150273e+02 -6.141976041695833999e+00 -1.075453486627384514e+01 7.839903004739853998e+01 -4.764640100216058016e+01 -1.103477767528648172e+02 -9.055703100405885664e+01 1.490981213430818002e+02 6.043961651404871560e+01 -1.346481178970284418e+02 4.553133571497038901e+00 4.441725287382258358e+01 8.439152969875044619e+01 -4.121949123510366775e+01 6.131559451823825668e+01 -7.046311553120824556e+01 -1.658909680189294704e+02 -3.538430452832641748e+01 1.440021216414598939e+02 -1.157525220893982549e+02 -6.574149078338038521e+00 -1.663914022576057050e+02 -4.840233931450190319e+00 -1.489236797587975616e+02 3.355584724783004447e+01 6.135499816224046299e+01 -5.137211392439294855e+01 -8.410205699969398552e+01 5.739808333445213684e+00 7.589689072949924764e+01 -6.913971425595877918e+01 1.374278067382404629e+02 1.075821165326936040e+02 -1.301773218426089613e+02 -1.075226662167290783e+02 1.377273672188828471e+02 7.274844048582977507e+01 1.530826133074875770e+02 1.022290754493786267e+02 8.273502830267936758e+01 -6.139166798316718143e+01 -8.332442144368876313e+01 -7.851639686543943242e+01 2.082672768634534179e+02 3.105400163285471393e+01 -2.533794509823642116e+01 -6.978996422636704722e+01 -5.094725061608419026e+01 -1.334896520825747359e+02 -1.680538895955816514e+01 -1.778493850907074147e+02 1.267628701721929900e+02 4.667293631604769644e+01 -1.168384784515450150e+02 -4.903696423525562409e+01 1.213934604841064555e+02 -9.833475297930966974e+01 1.042175729737639784e+02 -1.200486361336021588e+02 -1.191868435583275776e+01 -9.679379719127152271e+01 9.090139464017045157e+01 -4.305884899787061926e+01 1.050079909537461376e+01 2.970529767385009379e+01 -1.283539633040843455e+02 1.267080671448960949e+01 4.895136915026271396e+01 -2.273215349737150603e+01 -6.965240788377035130e+01 2.051212592525260163e+02 8.756954722253600210e+01 4.776479714189923698e+01 -3.183382224911065350e+01 8.129643413291729814e+01 1.697585144626321494e+02 -9.350488949864701738e+01 2.121347210046338034e+02 -1.348068789650212409e+02 -1.863062170855573925e+02 1.538355063584717186e+02 -2.369360321045211322e+02 -1.030800769340023404e+00 -2.480434929352118445e+02 -1.548957774258744848e+02 7.266120642027092913e+01 -1.475166266025757977e+02 5.913572165310610274e+01 1.112566678643647009e+02 -1.624456947454032445e+02 -3.054431483538082759e+01 7.635158932802649190e+01 1.356416078770367051e+02 -1.884283116933706594e+02 8.855151836585095282e+01 -9.918738302106908122e+01 -1.001425779629517976e+01 -1.408145430788613339e+01 -8.060305308353866849e+01 -9.147497717951645768e+01 1.836627246366728627e+02 -2.193168999684513665e+01 1.338829668546802409e+00 1.318795059827389764e+02 -8.776734022551481473e+01 -3.486919787744941601e+01 -1.090427202413326455e+02 -4.949806791333784162e+01 5.268224222703750570e+00 6.021020731549743488e+01 -1.369990626063806474e+02 2.406610781156763608e+02 -5.473460363799370043e+01 1.246140146603865304e+02 -4.960520359469509799e+01 1.217492863191571217e+02 1.413234215314218147e+02 4.882917232938702767e+01 1.241670019179307900e+02 -4.395229036256020549e+01 1.423377306132538251e+02 -1.590844239188924405e+02 -6.651023262048833828e+01 -6.405812734651483709e+01 2.594827910549238936e+01 -1.651299501961834721e+02 7.382389573706784347e+01 -3.137173979108418820e+01 -8.408750152881667361e+01 9.119310503225099751e+01 -1.537471285079955976e+02 -9.280222096311773328e+01 -5.349959781422256810e+01 3.367081657799275263e+01 1.321174164148826549e+02 1.189525730297172714e+02 7.037007709856042936e+01 -1.662929874047002432e+00 1.779045417469844494e+02 1.246789895344688546e+02 -9.606565444544969523e+01 -7.955589090210436609e+01 5.651678795983583115e+01 1.018314584557748148e+01 9.969252626712439280e+01 1.695382215312616836e+02 7.180462605475047155e+01 2.478196429360901831e+01 -1.039468073283502463e+02 1.748029309710751136e+02 -1.156514804153643041e+02 -1.681248603583607064e+02 6.683529216207804780e+01 1.133665443079075033e+02 1.994911657261773641e+01 -1.411836610886376491e+02 3.025065973919474871e+01 4.315062851800508525e+01 -2.963044709390065257e-01 1.330759610085969200e+02 9.910808387454304125e+01 1.738222591869135059e+01 7.962369436608427975e+01 -1.088041442555826848e+02 -6.380258540627452568e+00 9.990148737191002226e+01 3.015366313239678675e+01 -6.607917238922631498e+01 2.011587025649447469e+02 2.347519648791215729e+02 -1.275346441290593162e+02 -2.802347804465600234e+01 -2.135251030984628073e+02 -7.330537931497036652e+01 1.590781865794805015e+02 3.483405480756264438e+00 -7.207652668502397830e+01 1.663348058716754849e+02 -6.349043543253376498e+01 -1.630364897124272829e+02 1.386160835197963195e+02 -6.825750212258691363e+01 3.494138495463393923e+01 8.767069912601452586e+01 1.397642960726480332e+01 -2.417502540414029966e+02 4.289420243797086130e+01 -6.197129937299242108e+00 9.138692193011387133e+01 -2.390493987118757602e+01 1.026817949573620581e+02 1.719721187724534772e+01 -8.604244775434261783e+01 -2.076832556846398248e+01 -1.777632048364053219e+02 1.166774663428760732e+02 2.562985330066210210e+01 -4.224375605074508400e+01 -5.257406399415249609e+01 -6.375706459051407649e+01 4.168151714024981658e+01 1.630123207649250787e+02 1.346323149927152087e+02 4.371152055503105771e+01 -2.007222559723630013e+02 -3.935316885349195815e+01 4.443794803225901546e+01 1.190580950740799580e+02 8.851794895629181781e+01 1.569083204547067822e+01 -1.887519642174698333e+02 1.336586142867016065e+02 -2.270163503256657123e+02 -2.087994891806230839e+02 -1.887537254782546636e+00 -7.485421840799014603e+01 -2.440447024186230962e+01 8.840575643979391884e+01 5.673812418460491358e+01 -1.128449507918057293e+02 -1.536339134255264582e+02 1.481634918121259581e+01 1.254938887042943350e+02 2.102980904226010495e+01 -5.753641066573402441e+01 -5.234039282733175469e+01 -1.199073447200581555e+01 1.637225042670311268e+02 2.270945824885027875e+01 -1.793108316226221461e+02 1.324436254003843771e+02 -6.895929320387051575e+01 -4.314924876934920661e+00 1.590427485750265078e+02 -5.404304684987821616e+01 -2.021518970592763509e+01 -1.134520197277815186e+02 -6.212669588006726862e+00 -2.465033636378619519e+01 1.360603340499493186e+02 1.240575591153969697e+02 6.979946030309474736e+01 6.753681033581266036e+01 -1.933183282223104982e+01 1.396977133637495285e+02 -1.164334370662618028e+02 -4.410058103468530888e+00 -9.404397132323578035e+01 1.623409795840779566e+02 7.535031165645476392e+01 5.341516535201716209e+01 8.569722280262608294e+00 -5.501009415476291053e+01 3.551447123653993998e+01 6.991981780483284226e+00 3.679132160983092259e+00 2.492220359228274518e+01 6.173719787482857413e+01 1.758279674091785125e+02 -4.007362524439009377e+01 -5.370438828990058511e+01 6.896359236572678242e+01 1.194645823523982955e+02 -1.322248703337653453e+01 9.490373268681760521e+01 1.073800088564036628e+02 2.175976052984782143e+02 -8.937675452119138697e+01 -1.267087851602023818e+02 -2.956196672350632682e+01 6.414140332696126734e+01 -1.047508606854287372e+01 1.109079451052701870e+02 3.842823788236449190e+01 -1.678973038914601261e+02 4.652283041129066277e+01 -9.234796699158364675e+01 -1.396628697335245874e+02 1.388214417138919430e+02 -7.843877574963963184e+01 6.100817939352557318e+01 1.147858959194927309e+02 -1.022175825846807413e+02 2.419755447749401611e+01 -7.444048358194947923e+01 4.151225685891423467e+01 -1.181510480884814456e+02 6.347838772722855083e+01 5.636166356773156139e+01 4.081016465972667540e+00 8.671468061624338475e+01 -1.577202684297634789e+02 7.875437684739723920e+01 -3.010989802816895988e+01 -1.729193313850998948e+02 9.667459609961728972e+01 2.507624499323538814e+01 -2.008188478532529473e+02 2.407536836428222671e+02 -5.377524739628151140e-01 1.076574324497774029e+02 -1.234459725181131944e+02 -1.987802103051253653e+02 -9.551165084602374122e+01 2.515853015703532591e+00 1.462933420310374402e+02 4.134129061146166073e+00 -9.781102694179497803e+01 5.163424778711908658e+01 1.402759755847267513e+02 6.653482636280918427e+01 -5.298434570642130836e+01 -6.052711199022127175e+01 8.650268154339558180e+01 3.150198913358733321e+01 -2.001225831456603430e+02 -2.122468163863818447e+01 1.730300636208794742e+02 1.011913058839310366e+02 -5.865627705841198036e+01 -1.144387991186604125e+02 -4.369473048638563029e+01 -4.921253142199786623e+01 -1.171514976679555389e+02 -1.895490723723084869e+01 -4.674323920356355444e+01 -1.162883740607456247e+02 -1.349547944741458707e+02 -2.753857468286450683e+01 -1.286069522914943946e+02 -1.368908611330996337e+02 -3.923401664219559848e+01 -5.667603678069757933e+01 -1.135874576595036274e+02 1.974427013071898784e+02 1.117653551161235370e+01 -2.984793195726343029e+01 -1.805070129557135061e+01 8.343876019912268305e+01 1.657788410278420699e+01 2.656837626109598460e+01 -2.261760105763937645e+01 -4.899351105732270639e+01 2.219800848458823594e+01 -1.541674569183752794e+02 -1.688706233276991782e+02 -9.596448590965033532e+01 -2.024267174577589117e+02 -9.507700720979848086e+01 9.104870076613453023e+01 6.510153225167840674e+01 -2.765611838838516690e+01 6.446119871141108604e+01 -1.660318569857965656e+02 -4.324797697900345383e+01 -1.231608636121425349e+02 -7.081104884845322545e+01 2.236947196885689664e+02 -2.177480448072118406e+02 2.177321333244565267e+02 2.654194928950863641e+01 -5.992868865711760407e+01 9.789014035135089387e+01 1.316220035453181652e+02 -5.504532462270466198e+01 -2.160639240371739334e+02 -1.581551032366408833e+02 1.084628771275717440e+02 8.885159421023828941e+01 -1.438361584969482294e+02 3.392033453443042390e+01 -4.205160952996766355e+01 -8.209855469976231745e+01 -3.014729048594326599e+01 -5.817229221602025291e+01 -9.170953275490266776e+01 -3.608080039851521548e+01 4.710587445966763376e+00 -3.473467904260209593e+01 -4.424396385077950522e-01 -1.526776610036124815e+01 9.760059783634160624e+01 1.347706469025200988e+02 1.397732137747046366e+01 1.779659674911074774e+01 -6.690852642596765065e+01 -2.078879608705949522e+02 3.591493995958700935e+01 -9.732436592956487686e+01 2.738551153417383333e+01 -8.727492752648604579e+00 1.044700512357701783e+00 7.657565320178099455e+01 1.292677644837878859e+02 -7.471837801371385979e+01 4.030582730431798666e+01 -2.044931377784751021e+02 1.024068505595079515e+01 7.478630695678221585e+00 -1.299744814136571165e+02 -3.578962784263159591e+01 -4.701714923958819980e+01 5.069515360987961294e+00 -1.084696517817029928e+02 2.870336850514365779e+01 -1.035886897148398447e+02 5.957739700240145453e+01 7.194196989204132819e+01 3.910286142646992147e+01 -3.078220354242053602e+01 1.139403984036331678e+02 6.474392264660426122e+01 8.482694995097142510e+01 -7.102680228571897203e+01 2.156203916540213328e+01 1.356221910172394871e+02 -6.197656708339324894e+01 -7.324608275688185621e+00 3.392317791254333059e+01 -1.360985393099213070e+02 1.037102131746208471e+02 9.494544686102285880e+01 -1.071540713660392754e+02 -8.728537382584616466e+01 -5.882331562082614340e+01 -4.821550796805384209e+01 -1.698670198753981424e+02 -1.440384200079375603e+02 -1.403313970940683078e+02 1.119303679025438498e+02 6.328343293258381408e+01 1.689339462635288669e+02 7.611688317146090732e+00 -9.084712395567147780e+01 1.981107437043481667e+01 1.465068197566014518e+01 -6.719285547798848768e+01 7.838759288091509347e+01 1.249721173839392065e+02 1.060441100419810390e+01 1.518260540209690248e+02 2.384226963013247769e+01 1.174325905979624736e+02 1.599773685709299897e+01 -2.198385341072201697e+02 2.310366872130571210e+02 -5.177227244997175859e+01 -1.577945708634210007e+02 -7.107206186795470160e+01 -4.545205274428797537e+01 4.349614332073765155e+01 2.691947657985882003e+01 4.809470877090613072e+01 -7.797890804366136308e+01 1.286689320102179579e+02 -9.067659727154949678e+01 -7.365874689789328578e+00 1.497336206029464449e+02 1.152018817954989913e+02 6.088362325579097956e+01 -1.858633454821877251e+02 2.669774671834752056e+01 1.473756402595275574e+02 2.459666264250596868e+01 1.023395785964845004e+02 1.115839755933902353e+02 -2.214688268487410028e+02 8.058263292880565132e+01 -6.048648991937931640e+01 -2.354358842423855549e+02 9.259097795316000656e+01 2.570729496731901875e+01 -1.270363361431952569e+02 -6.088779956118947467e+01 1.441514662528523445e+02 1.529310483402228158e+02 -7.846910800710480771e+01 -1.321673522158785659e+02 -8.621741001723677300e+01 -1.712083428014654203e+02 2.016228755863479094e+01 3.904495041384026166e+01 -1.740118549976477880e+01 -1.271949478834061686e+01 -9.190896795183583379e+01 -9.074416276265168335e+01 -2.526076242117884263e+01 1.369225414980409710e+02 1.392242709986034583e+02 8.282722424467237943e+01 9.899862149240384213e+01 -8.013812896135982555e+01 -1.837671979707842240e+02 -1.349069263953174946e+01 -2.358981714527235951e+01 -7.211758983727573025e+01 1.532524178863227560e+00 7.424585863313077994e+01 -5.377585198864863969e+01 2.498447280482688981e+01 8.042511428432483456e+01 7.119819477996803414e+01 1.122507202118355423e+02 -1.515568578601279057e+02 4.027411799709889806e+01 8.462710886086607331e+01 9.625640245569360332e+01 6.002255998675892101e+01 -1.048733057287278996e+02 1.391105683222621110e+02 1.294538916159103223e+02 9.733727896065255436e+01 1.031287650535119127e+02 -8.556793116683729750e+01 -1.511801300107621415e+01 -1.311350742265316605e+01 7.829481093425415850e+01 6.598886141988700160e+01 5.681422005737009329e+01 9.914347419503958747e+01 1.182912582122181817e+02 1.257775566450360287e+02 -6.598231348946288222e+01 8.185543742329447525e+01 6.629100977516252158e+01 -1.195129334330285502e+02 1.336795675095725642e+02 -1.020970447357350253e+01 -2.835425708411040091e+01 2.024366745678979385e+02 8.986764185343417921e+01 1.260888270005721097e+02 -1.466751341175707353e+02 -1.603700543488898518e+02 -1.563573847723292261e+02 -1.242427830239127786e+02 -4.503550233961598792e+01 1.117394096836927275e+02 -1.715687952227878270e+02 3.312147068631618652e+01 1.469242818303530953e+02 -6.039811397545803118e+01 -9.302007428643177889e+01 -3.574105020924905318e+01 1.384286266500765805e+02 2.315821495742961247e+02 -6.786402018562378657e+01 2.018495665501467684e+01 -2.824570892147672652e+01 6.980952250106474821e+01 6.145439016132767307e+01 -2.174129302099493088e+02 -9.040933069168100644e+01 1.403011877969051966e+02 1.426062536514872363e+02 9.644392948248970754e+01 -5.079059278842169078e+01 -7.737049120604099528e+01 -4.636625637189024474e+01 -1.801302799751969985e+02 7.265388327665498025e+01 -2.622244195757527407e+01 1.698720618414552348e+02 -2.849983637048726948e+01 -3.211561561405965790e+02 1.479622202826860189e+02 5.142620666900512560e+01 -1.205083273584924797e+02 -2.259215253908350007e+01 3.608366765652260710e+01 -2.121447999674951461e+02 -1.167801572651482331e+02 -1.119437903794786706e+02 -5.770105667722071985e+01 6.420172161895956719e+01 -1.684153843632843461e+02 1.103398127843480694e+02 -5.551021597025233945e+01 2.961181039243021562e+00 -1.363767800474352327e+02 -1.058509028587170349e+02 1.797915027223513107e+02 8.859866466494848680e+01 -4.318658544792037901e+01 3.803609301036949830e+01 -2.870363437727936073e+01 4.416028180228340005e+01 -1.069944919185435168e+02 1.010403485376593267e+02 5.168342551218320580e+01 -1.216463318329909100e+02 1.194521166244104791e+02 -5.029772714671622680e+01 1.022359982032221097e+02 -5.056764565402251321e+01 9.046280604904004008e+01 -1.570089488077758233e+02 1.460233623221015478e+02 2.536203341861668648e+01 1.029978631088971497e+02 1.334858691134643891e+02 -1.501155605634899928e+02 -8.793281637466675704e+01 -1.081423621576937819e+02 6.848675842940544101e+01 -1.754479782639915584e+02 1.550774871082817299e+02 1.458585139020057682e+02 5.427353809963677378e+01 -8.695070010736870358e+01 5.843072620965569541e+01 -1.098805900433558520e+02 -1.124157944964951916e+01 3.585551675678165395e+01 -1.882413580417569676e+02 -8.361637825055819917e+01 -1.386898559417352317e+01 1.047533309911845407e+02 -5.144147509832355070e+01 1.113698880267992166e+02 -6.595705523060958342e+01 -2.161079973007300623e+02 -1.097886829005402234e+02 -3.496800905890699340e+01 -6.172114487973396990e+01 3.087390835168848113e+01 5.264896743972834514e+01 6.523132966719826342e+00 2.589661711818830270e+01 -1.202648123285706703e+02 5.518155274947400812e+01 3.346278655189083651e+01 -7.407736265194758118e+01 9.483284432787804974e+00 5.773701441067593976e+01 -9.790899180713302030e+01 -5.649778091090136201e+01 -2.475136720020613623e+01 1.001824546204097004e+02 -1.757798211278360156e+01 4.302055459700893536e+00 -2.340422830384697477e+02 -9.757799900615256661e+01 1.015489860379462357e+02 -9.165962435152890464e+01 3.218142097953145964e+01 3.190340232626441619e+01 3.898265839813859657e+01 6.786212244869308563e+01 -1.822279952438479427e+02 1.478312397509577920e+02 8.361866478514716050e+01 -7.699948824976649675e+00 -8.299322271466839140e+01 1.149871699337754052e+02 6.377436402018295780e+01 -2.065147617296153442e+02 -5.176441446086929687e+01 -8.388823504206294501e+01 -5.328128728006186066e+01 -6.365301954301758514e+01 -1.017933913195257674e+02 -6.202846612093261314e+01 1.966866016286177796e+02 -1.754831675002688769e+02 6.728872899544656150e+01 2.849751344753399707e+01 -7.722394002342639396e+01 1.065504418481240023e+01 -4.047976266907129883e+01 3.512606926996485246e+00 -9.875193076603672182e+01 -2.029587406999522159e+02 1.889680469983087718e+01 4.308058787177667881e+01 -1.315433913739411231e+01 -9.314570693753985609e+00 -4.087880620491070971e+01 -1.951928026751118921e+02 -3.151118687005800112e+01 -6.718205706636693719e+01 1.437893898630928113e+01 -1.603678985523920986e+01 9.302335145797381699e+01 -6.477731837897597700e+01 -1.065889497555469632e+02 -3.677322364219639894e+01 -9.291764317554871866e+00 4.682249546341053303e+01 -2.277711728303643213e+01 -7.573019831758071518e+01 -1.630880005220369355e+01 2.064446871951907880e+01 4.883015044052782372e+01 -1.172242751381787258e+02 -1.429361835365021989e+02 2.367902443228425966e+02 -2.243885889896090475e+02 -7.810877350087550042e+01 -4.766728593430324423e+01 1.438116121302684292e+02 6.507080510190284883e+01 2.352711449207783403e+02 2.516434847485200805e+02 -6.407380634753776860e+01 1.331539807014273435e+02 -5.747700641236389885e+01 -4.195517085641692745e+01 -1.035217919878886050e+02 -8.210758437815340471e+01 -7.156596932697651425e+01 -9.149278502814836145e+01 -2.506721622057406478e+02 -2.785767812282140312e+02 1.385326913295309339e+02 -2.727072845122907196e+01 5.477152897375249552e+01 1.345434032534177788e+02
