# 
#                 ----------------------------------------------------
#                 Data from a 3D direct N-body simulation. 
# 
#                 rows are i-particle; 
#                 coumns are :mass, tag, x ,y, z, vx, vy, vz, ax, ay, az
# 
#                 NTHU, Computational Physics Lab
# 
#                 ----------------------------------------------------
#                 Time = 0.9000000000000006
1.000000000000000000e+00 2.000000000000000000e+00 3.000000000000000000e+00 4.000000000000000000e+00 5.000000000000000000e+00 6.000000000000000000e+00 7.000000000000000000e+00 8.000000000000000000e+00 9.000000000000000000e+00 1.000000000000000000e+01 1.100000000000000000e+01 1.200000000000000000e+01 1.300000000000000000e+01 1.400000000000000000e+01 1.500000000000000000e+01 1.600000000000000000e+01 1.700000000000000000e+01 1.800000000000000000e+01 1.900000000000000000e+01 2.000000000000000000e+01 2.100000000000000000e+01 2.200000000000000000e+01 2.300000000000000000e+01 2.400000000000000000e+01 2.500000000000000000e+01 2.600000000000000000e+01 2.700000000000000000e+01 2.800000000000000000e+01 2.900000000000000000e+01 3.000000000000000000e+01 3.100000000000000000e+01 3.200000000000000000e+01 3.300000000000000000e+01 3.400000000000000000e+01 3.500000000000000000e+01 3.600000000000000000e+01 3.700000000000000000e+01 3.800000000000000000e+01 3.900000000000000000e+01 4.000000000000000000e+01 4.100000000000000000e+01 4.200000000000000000e+01 4.300000000000000000e+01 4.400000000000000000e+01 4.500000000000000000e+01 4.600000000000000000e+01 4.700000000000000000e+01 4.800000000000000000e+01 4.900000000000000000e+01 5.000000000000000000e+01 5.100000000000000000e+01 5.200000000000000000e+01 5.300000000000000000e+01 5.400000000000000000e+01 5.500000000000000000e+01 5.600000000000000000e+01 5.700000000000000000e+01 5.800000000000000000e+01 5.900000000000000000e+01 6.000000000000000000e+01 6.100000000000000000e+01 6.200000000000000000e+01 6.300000000000000000e+01 6.400000000000000000e+01 6.500000000000000000e+01 6.600000000000000000e+01 6.700000000000000000e+01 6.800000000000000000e+01 6.900000000000000000e+01 7.000000000000000000e+01 7.100000000000000000e+01 7.200000000000000000e+01 7.300000000000000000e+01 7.400000000000000000e+01 7.500000000000000000e+01 7.600000000000000000e+01 7.700000000000000000e+01 7.800000000000000000e+01 7.900000000000000000e+01 8.000000000000000000e+01 8.100000000000000000e+01 8.200000000000000000e+01 8.300000000000000000e+01 8.400000000000000000e+01 8.500000000000000000e+01 8.600000000000000000e+01 8.700000000000000000e+01 8.800000000000000000e+01 8.900000000000000000e+01 9.000000000000000000e+01 9.100000000000000000e+01 9.200000000000000000e+01 9.300000000000000000e+01 9.400000000000000000e+01 9.500000000000000000e+01 9.600000000000000000e+01 9.700000000000000000e+01 9.800000000000000000e+01 9.900000000000000000e+01 1.000000000000000000e+02 1.010000000000000000e+02 1.020000000000000000e+02 1.030000000000000000e+02 1.040000000000000000e+02 1.050000000000000000e+02 1.060000000000000000e+02 1.070000000000000000e+02 1.080000000000000000e+02 1.090000000000000000e+02 1.100000000000000000e+02 1.110000000000000000e+02 1.120000000000000000e+02 1.130000000000000000e+02 1.140000000000000000e+02 1.150000000000000000e+02 1.160000000000000000e+02 1.170000000000000000e+02 1.180000000000000000e+02 1.190000000000000000e+02 1.200000000000000000e+02 1.210000000000000000e+02 1.220000000000000000e+02 1.230000000000000000e+02 1.240000000000000000e+02 1.250000000000000000e+02 1.260000000000000000e+02 1.270000000000000000e+02 1.280000000000000000e+02 1.290000000000000000e+02 1.300000000000000000e+02 1.310000000000000000e+02 1.320000000000000000e+02 1.330000000000000000e+02 1.340000000000000000e+02 1.350000000000000000e+02 1.360000000000000000e+02 1.370000000000000000e+02 1.380000000000000000e+02 1.390000000000000000e+02 1.400000000000000000e+02 1.410000000000000000e+02 1.420000000000000000e+02 1.430000000000000000e+02 1.440000000000000000e+02 1.450000000000000000e+02 1.460000000000000000e+02 1.470000000000000000e+02 1.480000000000000000e+02 1.490000000000000000e+02 1.500000000000000000e+02 1.510000000000000000e+02 1.520000000000000000e+02 1.530000000000000000e+02 1.540000000000000000e+02 1.550000000000000000e+02 1.560000000000000000e+02 1.570000000000000000e+02 1.580000000000000000e+02 1.590000000000000000e+02 1.600000000000000000e+02 1.610000000000000000e+02 1.620000000000000000e+02 1.630000000000000000e+02 1.640000000000000000e+02 1.650000000000000000e+02 1.660000000000000000e+02 1.670000000000000000e+02 1.680000000000000000e+02 1.690000000000000000e+02 1.700000000000000000e+02 1.710000000000000000e+02 1.720000000000000000e+02 1.730000000000000000e+02 1.740000000000000000e+02 1.750000000000000000e+02 1.760000000000000000e+02 1.770000000000000000e+02 1.780000000000000000e+02 1.790000000000000000e+02 1.800000000000000000e+02 1.810000000000000000e+02 1.820000000000000000e+02 1.830000000000000000e+02 1.840000000000000000e+02 1.850000000000000000e+02 1.860000000000000000e+02 1.870000000000000000e+02 1.880000000000000000e+02 1.890000000000000000e+02 1.900000000000000000e+02 1.910000000000000000e+02 1.920000000000000000e+02 1.930000000000000000e+02 1.940000000000000000e+02 1.950000000000000000e+02 1.960000000000000000e+02 1.970000000000000000e+02 1.980000000000000000e+02 1.990000000000000000e+02 2.000000000000000000e+02 2.010000000000000000e+02 2.020000000000000000e+02 2.030000000000000000e+02 2.040000000000000000e+02 2.050000000000000000e+02 2.060000000000000000e+02 2.070000000000000000e+02 2.080000000000000000e+02 2.090000000000000000e+02 2.100000000000000000e+02 2.110000000000000000e+02 2.120000000000000000e+02 2.130000000000000000e+02 2.140000000000000000e+02 2.150000000000000000e+02 2.160000000000000000e+02 2.170000000000000000e+02 2.180000000000000000e+02 2.190000000000000000e+02 2.200000000000000000e+02 2.210000000000000000e+02 2.220000000000000000e+02 2.230000000000000000e+02 2.240000000000000000e+02 2.250000000000000000e+02 2.260000000000000000e+02 2.270000000000000000e+02 2.280000000000000000e+02 2.290000000000000000e+02 2.300000000000000000e+02 2.310000000000000000e+02 2.320000000000000000e+02 2.330000000000000000e+02 2.340000000000000000e+02 2.350000000000000000e+02 2.360000000000000000e+02 2.370000000000000000e+02 2.380000000000000000e+02 2.390000000000000000e+02 2.400000000000000000e+02 2.410000000000000000e+02 2.420000000000000000e+02 2.430000000000000000e+02 2.440000000000000000e+02 2.450000000000000000e+02 2.460000000000000000e+02 2.470000000000000000e+02 2.480000000000000000e+02 2.490000000000000000e+02 2.500000000000000000e+02 2.510000000000000000e+02 2.520000000000000000e+02 2.530000000000000000e+02 2.540000000000000000e+02 2.550000000000000000e+02 2.560000000000000000e+02 2.570000000000000000e+02 2.580000000000000000e+02 2.590000000000000000e+02 2.600000000000000000e+02 2.610000000000000000e+02 2.620000000000000000e+02 2.630000000000000000e+02 2.640000000000000000e+02 2.650000000000000000e+02 2.660000000000000000e+02 2.670000000000000000e+02 2.680000000000000000e+02 2.690000000000000000e+02 2.700000000000000000e+02 2.710000000000000000e+02 2.720000000000000000e+02 2.730000000000000000e+02 2.740000000000000000e+02 2.750000000000000000e+02 2.760000000000000000e+02 2.770000000000000000e+02 2.780000000000000000e+02 2.790000000000000000e+02 2.800000000000000000e+02 2.810000000000000000e+02 2.820000000000000000e+02 2.830000000000000000e+02 2.840000000000000000e+02 2.850000000000000000e+02 2.860000000000000000e+02 2.870000000000000000e+02 2.880000000000000000e+02 2.890000000000000000e+02 2.900000000000000000e+02 2.910000000000000000e+02 2.920000000000000000e+02 2.930000000000000000e+02 2.940000000000000000e+02 2.950000000000000000e+02 2.960000000000000000e+02 2.970000000000000000e+02 2.980000000000000000e+02 2.990000000000000000e+02 3.000000000000000000e+02 3.010000000000000000e+02 3.020000000000000000e+02 3.030000000000000000e+02 3.040000000000000000e+02 3.050000000000000000e+02 3.060000000000000000e+02 3.070000000000000000e+02 3.080000000000000000e+02 3.090000000000000000e+02 3.100000000000000000e+02 3.110000000000000000e+02 3.120000000000000000e+02 3.130000000000000000e+02 3.140000000000000000e+02 3.150000000000000000e+02 3.160000000000000000e+02 3.170000000000000000e+02 3.180000000000000000e+02 3.190000000000000000e+02 3.200000000000000000e+02 3.210000000000000000e+02 3.220000000000000000e+02 3.230000000000000000e+02 3.240000000000000000e+02 3.250000000000000000e+02 3.260000000000000000e+02 3.270000000000000000e+02 3.280000000000000000e+02 3.290000000000000000e+02 3.300000000000000000e+02 3.310000000000000000e+02 3.320000000000000000e+02 3.330000000000000000e+02 3.340000000000000000e+02 3.350000000000000000e+02 3.360000000000000000e+02 3.370000000000000000e+02 3.380000000000000000e+02 3.390000000000000000e+02 3.400000000000000000e+02 3.410000000000000000e+02 3.420000000000000000e+02 3.430000000000000000e+02 3.440000000000000000e+02 3.450000000000000000e+02 3.460000000000000000e+02 3.470000000000000000e+02 3.480000000000000000e+02 3.490000000000000000e+02 3.500000000000000000e+02 3.510000000000000000e+02 3.520000000000000000e+02 3.530000000000000000e+02 3.540000000000000000e+02 3.550000000000000000e+02 3.560000000000000000e+02 3.570000000000000000e+02 3.580000000000000000e+02 3.590000000000000000e+02 3.600000000000000000e+02 3.610000000000000000e+02 3.620000000000000000e+02 3.630000000000000000e+02 3.640000000000000000e+02 3.650000000000000000e+02 3.660000000000000000e+02 3.670000000000000000e+02 3.680000000000000000e+02 3.690000000000000000e+02 3.700000000000000000e+02 3.710000000000000000e+02 3.720000000000000000e+02 3.730000000000000000e+02 3.740000000000000000e+02 3.750000000000000000e+02 3.760000000000000000e+02 3.770000000000000000e+02 3.780000000000000000e+02 3.790000000000000000e+02 3.800000000000000000e+02 3.810000000000000000e+02 3.820000000000000000e+02 3.830000000000000000e+02 3.840000000000000000e+02 3.850000000000000000e+02 3.860000000000000000e+02 3.870000000000000000e+02 3.880000000000000000e+02 3.890000000000000000e+02 3.900000000000000000e+02 3.910000000000000000e+02 3.920000000000000000e+02 3.930000000000000000e+02 3.940000000000000000e+02 3.950000000000000000e+02 3.960000000000000000e+02 3.970000000000000000e+02 3.980000000000000000e+02 3.990000000000000000e+02 4.000000000000000000e+02 4.010000000000000000e+02 4.020000000000000000e+02 4.030000000000000000e+02 4.040000000000000000e+02 4.050000000000000000e+02 4.060000000000000000e+02 4.070000000000000000e+02 4.080000000000000000e+02 4.090000000000000000e+02 4.100000000000000000e+02 4.110000000000000000e+02 4.120000000000000000e+02 4.130000000000000000e+02 4.140000000000000000e+02 4.150000000000000000e+02 4.160000000000000000e+02 4.170000000000000000e+02 4.180000000000000000e+02 4.190000000000000000e+02 4.200000000000000000e+02 4.210000000000000000e+02 4.220000000000000000e+02 4.230000000000000000e+02 4.240000000000000000e+02 4.250000000000000000e+02 4.260000000000000000e+02 4.270000000000000000e+02 4.280000000000000000e+02 4.290000000000000000e+02 4.300000000000000000e+02 4.310000000000000000e+02 4.320000000000000000e+02 4.330000000000000000e+02 4.340000000000000000e+02 4.350000000000000000e+02 4.360000000000000000e+02 4.370000000000000000e+02 4.380000000000000000e+02 4.390000000000000000e+02 4.400000000000000000e+02 4.410000000000000000e+02 4.420000000000000000e+02 4.430000000000000000e+02 4.440000000000000000e+02 4.450000000000000000e+02 4.460000000000000000e+02 4.470000000000000000e+02 4.480000000000000000e+02 4.490000000000000000e+02 4.500000000000000000e+02 4.510000000000000000e+02 4.520000000000000000e+02 4.530000000000000000e+02 4.540000000000000000e+02 4.550000000000000000e+02 4.560000000000000000e+02 4.570000000000000000e+02 4.580000000000000000e+02 4.590000000000000000e+02 4.600000000000000000e+02 4.610000000000000000e+02 4.620000000000000000e+02 4.630000000000000000e+02 4.640000000000000000e+02 4.650000000000000000e+02 4.660000000000000000e+02 4.670000000000000000e+02 4.680000000000000000e+02 4.690000000000000000e+02 4.700000000000000000e+02 4.710000000000000000e+02 4.720000000000000000e+02 4.730000000000000000e+02 4.740000000000000000e+02 4.750000000000000000e+02 4.760000000000000000e+02 4.770000000000000000e+02 4.780000000000000000e+02 4.790000000000000000e+02 4.800000000000000000e+02 4.810000000000000000e+02 4.820000000000000000e+02 4.830000000000000000e+02 4.840000000000000000e+02 4.850000000000000000e+02 4.860000000000000000e+02 4.870000000000000000e+02 4.880000000000000000e+02 4.890000000000000000e+02 4.900000000000000000e+02 4.910000000000000000e+02 4.920000000000000000e+02 4.930000000000000000e+02 4.940000000000000000e+02 4.950000000000000000e+02 4.960000000000000000e+02 4.970000000000000000e+02 4.980000000000000000e+02 4.990000000000000000e+02 5.000000000000000000e+02 5.010000000000000000e+02 5.020000000000000000e+02 5.030000000000000000e+02 5.040000000000000000e+02 5.050000000000000000e+02 5.060000000000000000e+02 5.070000000000000000e+02 5.080000000000000000e+02 5.090000000000000000e+02 5.100000000000000000e+02 5.110000000000000000e+02 5.120000000000000000e+02 5.130000000000000000e+02 5.140000000000000000e+02 5.150000000000000000e+02 5.160000000000000000e+02 5.170000000000000000e+02 5.180000000000000000e+02 5.190000000000000000e+02 5.200000000000000000e+02 5.210000000000000000e+02 5.220000000000000000e+02 5.230000000000000000e+02 5.240000000000000000e+02 5.250000000000000000e+02 5.260000000000000000e+02 5.270000000000000000e+02 5.280000000000000000e+02 5.290000000000000000e+02 5.300000000000000000e+02 5.310000000000000000e+02 5.320000000000000000e+02 5.330000000000000000e+02 5.340000000000000000e+02 5.350000000000000000e+02 5.360000000000000000e+02 5.370000000000000000e+02 5.380000000000000000e+02 5.390000000000000000e+02 5.400000000000000000e+02 5.410000000000000000e+02 5.420000000000000000e+02 5.430000000000000000e+02 5.440000000000000000e+02 5.450000000000000000e+02 5.460000000000000000e+02 5.470000000000000000e+02 5.480000000000000000e+02 5.490000000000000000e+02 5.500000000000000000e+02 5.510000000000000000e+02 5.520000000000000000e+02 5.530000000000000000e+02 5.540000000000000000e+02 5.550000000000000000e+02 5.560000000000000000e+02 5.570000000000000000e+02 5.580000000000000000e+02 5.590000000000000000e+02 5.600000000000000000e+02 5.610000000000000000e+02 5.620000000000000000e+02 5.630000000000000000e+02 5.640000000000000000e+02 5.650000000000000000e+02 5.660000000000000000e+02 5.670000000000000000e+02 5.680000000000000000e+02 5.690000000000000000e+02 5.700000000000000000e+02 5.710000000000000000e+02 5.720000000000000000e+02 5.730000000000000000e+02 5.740000000000000000e+02 5.750000000000000000e+02 5.760000000000000000e+02 5.770000000000000000e+02 5.780000000000000000e+02 5.790000000000000000e+02 5.800000000000000000e+02 5.810000000000000000e+02 5.820000000000000000e+02 5.830000000000000000e+02 5.840000000000000000e+02 5.850000000000000000e+02 5.860000000000000000e+02 5.870000000000000000e+02 5.880000000000000000e+02 5.890000000000000000e+02 5.900000000000000000e+02 5.910000000000000000e+02 5.920000000000000000e+02 5.930000000000000000e+02 5.940000000000000000e+02 5.950000000000000000e+02 5.960000000000000000e+02 5.970000000000000000e+02 5.980000000000000000e+02 5.990000000000000000e+02 6.000000000000000000e+02 6.010000000000000000e+02 6.020000000000000000e+02 6.030000000000000000e+02 6.040000000000000000e+02 6.050000000000000000e+02 6.060000000000000000e+02 6.070000000000000000e+02 6.080000000000000000e+02 6.090000000000000000e+02 6.100000000000000000e+02 6.110000000000000000e+02 6.120000000000000000e+02 6.130000000000000000e+02 6.140000000000000000e+02 6.150000000000000000e+02 6.160000000000000000e+02 6.170000000000000000e+02 6.180000000000000000e+02 6.190000000000000000e+02 6.200000000000000000e+02 6.210000000000000000e+02 6.220000000000000000e+02 6.230000000000000000e+02 6.240000000000000000e+02 6.250000000000000000e+02 6.260000000000000000e+02 6.270000000000000000e+02 6.280000000000000000e+02 6.290000000000000000e+02 6.300000000000000000e+02 6.310000000000000000e+02 6.320000000000000000e+02 6.330000000000000000e+02 6.340000000000000000e+02 6.350000000000000000e+02 6.360000000000000000e+02 6.370000000000000000e+02 6.380000000000000000e+02 6.390000000000000000e+02 6.400000000000000000e+02 6.410000000000000000e+02 6.420000000000000000e+02 6.430000000000000000e+02 6.440000000000000000e+02 6.450000000000000000e+02 6.460000000000000000e+02 6.470000000000000000e+02 6.480000000000000000e+02 6.490000000000000000e+02 6.500000000000000000e+02 6.510000000000000000e+02 6.520000000000000000e+02 6.530000000000000000e+02 6.540000000000000000e+02 6.550000000000000000e+02 6.560000000000000000e+02 6.570000000000000000e+02 6.580000000000000000e+02 6.590000000000000000e+02 6.600000000000000000e+02 6.610000000000000000e+02 6.620000000000000000e+02 6.630000000000000000e+02 6.640000000000000000e+02 6.650000000000000000e+02 6.660000000000000000e+02 6.670000000000000000e+02 6.680000000000000000e+02 6.690000000000000000e+02 6.700000000000000000e+02 6.710000000000000000e+02 6.720000000000000000e+02 6.730000000000000000e+02 6.740000000000000000e+02 6.750000000000000000e+02 6.760000000000000000e+02 6.770000000000000000e+02 6.780000000000000000e+02 6.790000000000000000e+02 6.800000000000000000e+02 6.810000000000000000e+02 6.820000000000000000e+02 6.830000000000000000e+02 6.840000000000000000e+02 6.850000000000000000e+02 6.860000000000000000e+02 6.870000000000000000e+02 6.880000000000000000e+02 6.890000000000000000e+02 6.900000000000000000e+02 6.910000000000000000e+02 6.920000000000000000e+02 6.930000000000000000e+02 6.940000000000000000e+02 6.950000000000000000e+02 6.960000000000000000e+02 6.970000000000000000e+02 6.980000000000000000e+02 6.990000000000000000e+02 7.000000000000000000e+02 7.010000000000000000e+02 7.020000000000000000e+02 7.030000000000000000e+02 7.040000000000000000e+02 7.050000000000000000e+02 7.060000000000000000e+02 7.070000000000000000e+02 7.080000000000000000e+02 7.090000000000000000e+02 7.100000000000000000e+02 7.110000000000000000e+02 7.120000000000000000e+02 7.130000000000000000e+02 7.140000000000000000e+02 7.150000000000000000e+02 7.160000000000000000e+02 7.170000000000000000e+02 7.180000000000000000e+02 7.190000000000000000e+02 7.200000000000000000e+02 7.210000000000000000e+02 7.220000000000000000e+02 7.230000000000000000e+02 7.240000000000000000e+02 7.250000000000000000e+02 7.260000000000000000e+02 7.270000000000000000e+02 7.280000000000000000e+02 7.290000000000000000e+02 7.300000000000000000e+02 7.310000000000000000e+02 7.320000000000000000e+02 7.330000000000000000e+02 7.340000000000000000e+02 7.350000000000000000e+02 7.360000000000000000e+02 7.370000000000000000e+02 7.380000000000000000e+02 7.390000000000000000e+02 7.400000000000000000e+02 7.410000000000000000e+02 7.420000000000000000e+02 7.430000000000000000e+02 7.440000000000000000e+02 7.450000000000000000e+02 7.460000000000000000e+02 7.470000000000000000e+02 7.480000000000000000e+02 7.490000000000000000e+02 7.500000000000000000e+02 7.510000000000000000e+02 7.520000000000000000e+02 7.530000000000000000e+02 7.540000000000000000e+02 7.550000000000000000e+02 7.560000000000000000e+02 7.570000000000000000e+02 7.580000000000000000e+02 7.590000000000000000e+02 7.600000000000000000e+02 7.610000000000000000e+02 7.620000000000000000e+02 7.630000000000000000e+02 7.640000000000000000e+02 7.650000000000000000e+02 7.660000000000000000e+02 7.670000000000000000e+02 7.680000000000000000e+02 7.690000000000000000e+02 7.700000000000000000e+02 7.710000000000000000e+02 7.720000000000000000e+02 7.730000000000000000e+02 7.740000000000000000e+02 7.750000000000000000e+02 7.760000000000000000e+02 7.770000000000000000e+02 7.780000000000000000e+02 7.790000000000000000e+02 7.800000000000000000e+02 7.810000000000000000e+02 7.820000000000000000e+02 7.830000000000000000e+02 7.840000000000000000e+02 7.850000000000000000e+02 7.860000000000000000e+02 7.870000000000000000e+02 7.880000000000000000e+02 7.890000000000000000e+02 7.900000000000000000e+02 7.910000000000000000e+02 7.920000000000000000e+02 7.930000000000000000e+02 7.940000000000000000e+02 7.950000000000000000e+02 7.960000000000000000e+02 7.970000000000000000e+02 7.980000000000000000e+02 7.990000000000000000e+02 8.000000000000000000e+02 8.010000000000000000e+02 8.020000000000000000e+02 8.030000000000000000e+02 8.040000000000000000e+02 8.050000000000000000e+02 8.060000000000000000e+02 8.070000000000000000e+02 8.080000000000000000e+02 8.090000000000000000e+02 8.100000000000000000e+02 8.110000000000000000e+02 8.120000000000000000e+02 8.130000000000000000e+02 8.140000000000000000e+02 8.150000000000000000e+02 8.160000000000000000e+02 8.170000000000000000e+02 8.180000000000000000e+02 8.190000000000000000e+02 8.200000000000000000e+02 8.210000000000000000e+02 8.220000000000000000e+02 8.230000000000000000e+02 8.240000000000000000e+02 8.250000000000000000e+02 8.260000000000000000e+02 8.270000000000000000e+02 8.280000000000000000e+02 8.290000000000000000e+02 8.300000000000000000e+02 8.310000000000000000e+02 8.320000000000000000e+02 8.330000000000000000e+02 8.340000000000000000e+02 8.350000000000000000e+02 8.360000000000000000e+02 8.370000000000000000e+02 8.380000000000000000e+02 8.390000000000000000e+02 8.400000000000000000e+02 8.410000000000000000e+02 8.420000000000000000e+02 8.430000000000000000e+02 8.440000000000000000e+02 8.450000000000000000e+02 8.460000000000000000e+02 8.470000000000000000e+02 8.480000000000000000e+02 8.490000000000000000e+02 8.500000000000000000e+02 8.510000000000000000e+02 8.520000000000000000e+02 8.530000000000000000e+02 8.540000000000000000e+02 8.550000000000000000e+02 8.560000000000000000e+02 8.570000000000000000e+02 8.580000000000000000e+02 8.590000000000000000e+02 8.600000000000000000e+02 8.610000000000000000e+02 8.620000000000000000e+02 8.630000000000000000e+02 8.640000000000000000e+02 8.650000000000000000e+02 8.660000000000000000e+02 8.670000000000000000e+02 8.680000000000000000e+02 8.690000000000000000e+02 8.700000000000000000e+02 8.710000000000000000e+02 8.720000000000000000e+02 8.730000000000000000e+02 8.740000000000000000e+02 8.750000000000000000e+02 8.760000000000000000e+02 8.770000000000000000e+02 8.780000000000000000e+02 8.790000000000000000e+02 8.800000000000000000e+02 8.810000000000000000e+02 8.820000000000000000e+02 8.830000000000000000e+02 8.840000000000000000e+02 8.850000000000000000e+02 8.860000000000000000e+02 8.870000000000000000e+02 8.880000000000000000e+02 8.890000000000000000e+02 8.900000000000000000e+02 8.910000000000000000e+02 8.920000000000000000e+02 8.930000000000000000e+02 8.940000000000000000e+02 8.950000000000000000e+02 8.960000000000000000e+02 8.970000000000000000e+02 8.980000000000000000e+02 8.990000000000000000e+02 9.000000000000000000e+02 9.010000000000000000e+02 9.020000000000000000e+02 9.030000000000000000e+02 9.040000000000000000e+02 9.050000000000000000e+02 9.060000000000000000e+02 9.070000000000000000e+02 9.080000000000000000e+02 9.090000000000000000e+02 9.100000000000000000e+02 9.110000000000000000e+02 9.120000000000000000e+02 9.130000000000000000e+02 9.140000000000000000e+02 9.150000000000000000e+02 9.160000000000000000e+02 9.170000000000000000e+02 9.180000000000000000e+02 9.190000000000000000e+02 9.200000000000000000e+02 9.210000000000000000e+02 9.220000000000000000e+02 9.230000000000000000e+02 9.240000000000000000e+02 9.250000000000000000e+02 9.260000000000000000e+02 9.270000000000000000e+02 9.280000000000000000e+02 9.290000000000000000e+02 9.300000000000000000e+02 9.310000000000000000e+02 9.320000000000000000e+02 9.330000000000000000e+02 9.340000000000000000e+02 9.350000000000000000e+02 9.360000000000000000e+02 9.370000000000000000e+02 9.380000000000000000e+02 9.390000000000000000e+02 9.400000000000000000e+02 9.410000000000000000e+02 9.420000000000000000e+02 9.430000000000000000e+02 9.440000000000000000e+02 9.450000000000000000e+02 9.460000000000000000e+02 9.470000000000000000e+02 9.480000000000000000e+02 9.490000000000000000e+02 9.500000000000000000e+02 9.510000000000000000e+02 9.520000000000000000e+02 9.530000000000000000e+02 9.540000000000000000e+02 9.550000000000000000e+02 9.560000000000000000e+02 9.570000000000000000e+02 9.580000000000000000e+02 9.590000000000000000e+02 9.600000000000000000e+02 9.610000000000000000e+02 9.620000000000000000e+02 9.630000000000000000e+02 9.640000000000000000e+02 9.650000000000000000e+02 9.660000000000000000e+02 9.670000000000000000e+02 9.680000000000000000e+02 9.690000000000000000e+02 9.700000000000000000e+02 9.710000000000000000e+02 9.720000000000000000e+02 9.730000000000000000e+02 9.740000000000000000e+02 9.750000000000000000e+02 9.760000000000000000e+02 9.770000000000000000e+02 9.780000000000000000e+02 9.790000000000000000e+02 9.800000000000000000e+02 9.810000000000000000e+02 9.820000000000000000e+02 9.830000000000000000e+02 9.840000000000000000e+02 9.850000000000000000e+02 9.860000000000000000e+02 9.870000000000000000e+02 9.880000000000000000e+02 9.890000000000000000e+02 9.900000000000000000e+02 9.910000000000000000e+02 9.920000000000000000e+02 9.930000000000000000e+02 9.940000000000000000e+02 9.950000000000000000e+02 9.960000000000000000e+02 9.970000000000000000e+02 9.980000000000000000e+02 9.990000000000000000e+02 1.000000000000000000e+03
1.000000000000000021e-02 1.000000000000000021e-02 1.000000000000000021e-02 1.000000000000000021e-02 1.000000000000000021e-02 1.000000000000000021e-02 1.000000000000000021e-02 1.000000000000000021e-02 1.000000000000000021e-02 1.000000000000000021e-02 1.000000000000000021e-02 1.000000000000000021e-02 1.000000000000000021e-02 1.000000000000000021e-02 1.000000000000000021e-02 1.000000000000000021e-02 1.000000000000000021e-02 1.000000000000000021e-02 1.000000000000000021e-02 1.000000000000000021e-02 1.000000000000000021e-02 1.000000000000000021e-02 1.000000000000000021e-02 1.000000000000000021e-02 1.000000000000000021e-02 1.000000000000000021e-02 1.000000000000000021e-02 1.000000000000000021e-02 1.000000000000000021e-02 1.000000000000000021e-02 1.000000000000000021e-02 1.000000000000000021e-02 1.000000000000000021e-02 1.000000000000000021e-02 1.000000000000000021e-02 1.000000000000000021e-02 1.000000000000000021e-02 1.000000000000000021e-02 1.000000000000000021e-02 1.000000000000000021e-02 1.000000000000000021e-02 1.000000000000000021e-02 1.000000000000000021e-02 1.000000000000000021e-02 1.000000000000000021e-02 1.000000000000000021e-02 1.000000000000000021e-02 1.000000000000000021e-02 1.000000000000000021e-02 1.000000000000000021e-02 1.000000000000000021e-02 1.000000000000000021e-02 1.000000000000000021e-02 1.000000000000000021e-02 1.000000000000000021e-02 1.000000000000000021e-02 1.000000000000000021e-02 1.000000000000000021e-02 1.000000000000000021e-02 1.000000000000000021e-02 1.000000000000000021e-02 1.000000000000000021e-02 1.000000000000000021e-02 1.000000000000000021e-02 1.000000000000000021e-02 1.000000000000000021e-02 1.000000000000000021e-02 1.000000000000000021e-02 1.000000000000000021e-02 1.000000000000000021e-02 1.000000000000000021e-02 1.000000000000000021e-02 1.000000000000000021e-02 1.000000000000000021e-02 1.000000000000000021e-02 1.000000000000000021e-02 1.000000000000000021e-02 1.000000000000000021e-02 1.000000000000000021e-02 1.000000000000000021e-02 1.000000000000000021e-02 1.000000000000000021e-02 1.000000000000000021e-02 1.000000000000000021e-02 1.000000000000000021e-02 1.000000000000000021e-02 1.000000000000000021e-02 1.000000000000000021e-02 1.000000000000000021e-02 1.000000000000000021e-02 1.000000000000000021e-02 1.000000000000000021e-02 1.000000000000000021e-02 1.000000000000000021e-02 1.000000000000000021e-02 1.000000000000000021e-02 1.000000000000000021e-02 1.000000000000000021e-02 1.000000000000000021e-02 1.000000000000000021e-02 1.000000000000000021e-02 1.000000000000000021e-02 1.000000000000000021e-02 1.000000000000000021e-02 1.000000000000000021e-02 1.000000000000000021e-02 1.000000000000000021e-02 1.000000000000000021e-02 1.000000000000000021e-02 1.000000000000000021e-02 1.000000000000000021e-02 1.000000000000000021e-02 1.000000000000000021e-02 1.000000000000000021e-02 1.000000000000000021e-02 1.000000000000000021e-02 1.000000000000000021e-02 1.000000000000000021e-02 1.000000000000000021e-02 1.000000000000000021e-02 1.000000000000000021e-02 1.000000000000000021e-02 1.000000000000000021e-02 1.000000000000000021e-02 1.000000000000000021e-02 1.000000000000000021e-02 1.000000000000000021e-02 1.000000000000000021e-02 1.000000000000000021e-02 1.000000000000000021e-02 1.000000000000000021e-02 1.000000000000000021e-02 1.000000000000000021e-02 1.000000000000000021e-02 1.000000000000000021e-02 1.000000000000000021e-02 1.000000000000000021e-02 1.000000000000000021e-02 1.000000000000000021e-02 1.000000000000000021e-02 1.000000000000000021e-02 1.000000000000000021e-02 1.000000000000000021e-02 1.000000000000000021e-02 1.000000000000000021e-02 1.000000000000000021e-02 1.000000000000000021e-02 1.000000000000000021e-02 1.000000000000000021e-02 1.000000000000000021e-02 1.000000000000000021e-02 1.000000000000000021e-02 1.000000000000000021e-02 1.000000000000000021e-02 1.000000000000000021e-02 1.000000000000000021e-02 1.000000000000000021e-02 1.000000000000000021e-02 1.000000000000000021e-02 1.000000000000000021e-02 1.000000000000000021e-02 1.000000000000000021e-02 1.000000000000000021e-02 1.000000000000000021e-02 1.000000000000000021e-02 1.000000000000000021e-02 1.000000000000000021e-02 1.000000000000000021e-02 1.000000000000000021e-02 1.000000000000000021e-02 1.000000000000000021e-02 1.000000000000000021e-02 1.000000000000000021e-02 1.000000000000000021e-02 1.000000000000000021e-02 1.000000000000000021e-02 1.000000000000000021e-02 1.000000000000000021e-02 1.000000000000000021e-02 1.000000000000000021e-02 1.000000000000000021e-02 1.000000000000000021e-02 1.000000000000000021e-02 1.000000000000000021e-02 1.000000000000000021e-02 1.000000000000000021e-02 1.000000000000000021e-02 1.000000000000000021e-02 1.000000000000000021e-02 1.000000000000000021e-02 1.000000000000000021e-02 1.000000000000000021e-02 1.000000000000000021e-02 1.000000000000000021e-02 1.000000000000000021e-02 1.000000000000000021e-02 1.000000000000000021e-02 1.000000000000000021e-02 1.000000000000000021e-02 1.000000000000000021e-02 1.000000000000000021e-02 1.000000000000000021e-02 1.000000000000000021e-02 1.000000000000000021e-02 1.000000000000000021e-02 1.000000000000000021e-02 1.000000000000000021e-02 1.000000000000000021e-02 1.000000000000000021e-02 1.000000000000000021e-02 1.000000000000000021e-02 1.000000000000000021e-02 1.000000000000000021e-02 1.000000000000000021e-02 1.000000000000000021e-02 1.000000000000000021e-02 1.000000000000000021e-02 1.000000000000000021e-02 1.000000000000000021e-02 1.000000000000000021e-02 1.000000000000000021e-02 1.000000000000000021e-02 1.000000000000000021e-02 1.000000000000000021e-02 1.000000000000000021e-02 1.000000000000000021e-02 1.000000000000000021e-02 1.000000000000000021e-02 1.000000000000000021e-02 1.000000000000000021e-02 1.000000000000000021e-02 1.000000000000000021e-02 1.000000000000000021e-02 1.000000000000000021e-02 1.000000000000000021e-02 1.000000000000000021e-02 1.000000000000000021e-02 1.000000000000000021e-02 1.000000000000000021e-02 1.000000000000000021e-02 1.000000000000000021e-02 1.000000000000000021e-02 1.000000000000000021e-02 1.000000000000000021e-02 1.000000000000000021e-02 1.000000000000000021e-02 1.000000000000000021e-02 1.000000000000000021e-02 1.000000000000000021e-02 1.000000000000000021e-02 1.000000000000000021e-02 1.000000000000000021e-02 1.000000000000000021e-02 1.000000000000000021e-02 1.000000000000000021e-02 1.000000000000000021e-02 1.000000000000000021e-02 1.000000000000000021e-02 1.000000000000000021e-02 1.000000000000000021e-02 1.000000000000000021e-02 1.000000000000000021e-02 1.000000000000000021e-02 1.000000000000000021e-02 1.000000000000000021e-02 1.000000000000000021e-02 1.000000000000000021e-02 1.000000000000000021e-02 1.000000000000000021e-02 1.000000000000000021e-02 1.000000000000000021e-02 1.000000000000000021e-02 1.000000000000000021e-02 1.000000000000000021e-02 1.000000000000000021e-02 1.000000000000000021e-02 1.000000000000000021e-02 1.000000000000000021e-02 1.000000000000000021e-02 1.000000000000000021e-02 1.000000000000000021e-02 1.000000000000000021e-02 1.000000000000000021e-02 1.000000000000000021e-02 1.000000000000000021e-02 1.000000000000000021e-02 1.000000000000000021e-02 1.000000000000000021e-02 1.000000000000000021e-02 1.000000000000000021e-02 1.000000000000000021e-02 1.000000000000000021e-02 1.000000000000000021e-02 1.000000000000000021e-02 1.000000000000000021e-02 1.000000000000000021e-02 1.000000000000000021e-02 1.000000000000000021e-02 1.000000000000000021e-02 1.000000000000000021e-02 1.000000000000000021e-02 1.000000000000000021e-02 1.000000000000000021e-02 1.000000000000000021e-02 1.000000000000000021e-02 1.000000000000000021e-02 1.000000000000000021e-02 1.000000000000000021e-02 1.000000000000000021e-02 1.000000000000000021e-02 1.000000000000000021e-02 1.000000000000000021e-02 1.000000000000000021e-02 1.000000000000000021e-02 1.000000000000000021e-02 1.000000000000000021e-02 1.000000000000000021e-02 1.000000000000000021e-02 1.000000000000000021e-02 1.000000000000000021e-02 1.000000000000000021e-02 1.000000000000000021e-02 1.000000000000000021e-02 1.000000000000000021e-02 1.000000000000000021e-02 1.000000000000000021e-02 1.000000000000000021e-02 1.000000000000000021e-02 1.000000000000000021e-02 1.000000000000000021e-02 1.000000000000000021e-02 1.000000000000000021e-02 1.000000000000000021e-02 1.000000000000000021e-02 1.000000000000000021e-02 1.000000000000000021e-02 1.000000000000000021e-02 1.000000000000000021e-02 1.000000000000000021e-02 1.000000000000000021e-02 1.000000000000000021e-02 1.000000000000000021e-02 1.000000000000000021e-02 1.000000000000000021e-02 1.000000000000000021e-02 1.000000000000000021e-02 1.000000000000000021e-02 1.000000000000000021e-02 1.000000000000000021e-02 1.000000000000000021e-02 1.000000000000000021e-02 1.000000000000000021e-02 1.000000000000000021e-02 1.000000000000000021e-02 1.000000000000000021e-02 1.000000000000000021e-02 1.000000000000000021e-02 1.000000000000000021e-02 1.000000000000000021e-02 1.000000000000000021e-02 1.000000000000000021e-02 1.000000000000000021e-02 1.000000000000000021e-02 1.000000000000000021e-02 1.000000000000000021e-02 1.000000000000000021e-02 1.000000000000000021e-02 1.000000000000000021e-02 1.000000000000000021e-02 1.000000000000000021e-02 1.000000000000000021e-02 1.000000000000000021e-02 1.000000000000000021e-02 1.000000000000000021e-02 1.000000000000000021e-02 1.000000000000000021e-02 1.000000000000000021e-02 1.000000000000000021e-02 1.000000000000000021e-02 1.000000000000000021e-02 1.000000000000000021e-02 1.000000000000000021e-02 1.000000000000000021e-02 1.000000000000000021e-02 1.000000000000000021e-02 1.000000000000000021e-02 1.000000000000000021e-02 1.000000000000000021e-02 1.000000000000000021e-02 1.000000000000000021e-02 1.000000000000000021e-02 1.000000000000000021e-02 1.000000000000000021e-02 1.000000000000000021e-02 1.000000000000000021e-02 1.000000000000000021e-02 1.000000000000000021e-02 1.000000000000000021e-02 1.000000000000000021e-02 1.000000000000000021e-02 1.000000000000000021e-02 1.000000000000000021e-02 1.000000000000000021e-02 1.000000000000000021e-02 1.000000000000000021e-02 1.000000000000000021e-02 1.000000000000000021e-02 1.000000000000000021e-02 1.000000000000000021e-02 1.000000000000000021e-02 1.000000000000000021e-02 1.000000000000000021e-02 1.000000000000000021e-02 1.000000000000000021e-02 1.000000000000000021e-02 1.000000000000000021e-02 1.000000000000000021e-02 1.000000000000000021e-02 1.000000000000000021e-02 1.000000000000000021e-02 1.000000000000000021e-02 1.000000000000000021e-02 1.000000000000000021e-02 1.000000000000000021e-02 1.000000000000000021e-02 1.000000000000000021e-02 1.000000000000000021e-02 1.000000000000000021e-02 1.000000000000000021e-02 1.000000000000000021e-02 1.000000000000000021e-02 1.000000000000000021e-02 1.000000000000000021e-02 1.000000000000000021e-02 1.000000000000000021e-02 1.000000000000000021e-02 1.000000000000000021e-02 1.000000000000000021e-02 1.000000000000000021e-02 1.000000000000000021e-02 1.000000000000000021e-02 1.000000000000000021e-02 1.000000000000000021e-02 1.000000000000000021e-02 1.000000000000000021e-02 1.000000000000000021e-02 1.000000000000000021e-02 1.000000000000000021e-02 1.000000000000000021e-02 1.000000000000000021e-02 1.000000000000000021e-02 1.000000000000000021e-02 1.000000000000000021e-02 1.000000000000000021e-02 1.000000000000000021e-02 1.000000000000000021e-02 1.000000000000000021e-02 1.000000000000000021e-02 1.000000000000000021e-02 1.000000000000000021e-02 1.000000000000000021e-02 1.000000000000000021e-02 1.000000000000000021e-02 1.000000000000000021e-02 1.000000000000000021e-02 1.000000000000000021e-02 1.000000000000000021e-02 1.000000000000000021e-02 1.000000000000000021e-02 1.000000000000000021e-02 1.000000000000000021e-02 1.000000000000000021e-02 1.000000000000000021e-02 1.000000000000000021e-02 1.000000000000000021e-02 1.000000000000000021e-02 1.000000000000000021e-02 1.000000000000000021e-02 1.000000000000000021e-02 1.000000000000000021e-02 1.000000000000000021e-02 1.000000000000000021e-02 1.000000000000000021e-02 1.000000000000000021e-02 1.000000000000000021e-02 1.000000000000000021e-02 1.000000000000000021e-02 1.000000000000000021e-02 1.000000000000000021e-02 1.000000000000000021e-02 1.000000000000000021e-02 1.000000000000000021e-02 1.000000000000000021e-02 1.000000000000000021e-02 1.000000000000000021e-02 1.000000000000000021e-02 1.000000000000000021e-02 1.000000000000000021e-02 1.000000000000000021e-02 1.000000000000000021e-02 1.000000000000000021e-02 1.000000000000000021e-02 1.000000000000000021e-02 1.000000000000000021e-02 1.000000000000000021e-02 1.000000000000000021e-02 1.000000000000000021e-02 1.000000000000000021e-02 1.000000000000000021e-02 1.000000000000000021e-02 1.000000000000000021e-02 1.000000000000000021e-02 1.000000000000000021e-02 1.000000000000000021e-02 1.000000000000000021e-02 1.000000000000000021e-02 1.000000000000000021e-02 1.000000000000000021e-02 1.000000000000000021e-02 1.000000000000000021e-02 1.000000000000000021e-02 1.000000000000000021e-02 1.000000000000000021e-02 1.000000000000000021e-02 1.000000000000000021e-02 1.000000000000000021e-02 1.000000000000000021e-02 1.000000000000000021e-02 1.000000000000000021e-02 1.000000000000000021e-02 1.000000000000000021e-02 1.000000000000000021e-02 1.000000000000000021e-02 1.000000000000000021e-02 1.000000000000000021e-02 1.000000000000000021e-02 1.000000000000000021e-02 1.000000000000000021e-02 1.000000000000000021e-02 1.000000000000000021e-02 1.000000000000000021e-02 1.000000000000000021e-02 1.000000000000000021e-02 1.000000000000000021e-02 1.000000000000000021e-02 1.000000000000000021e-02 1.000000000000000021e-02 1.000000000000000021e-02 1.000000000000000021e-02 1.000000000000000021e-02 1.000000000000000021e-02 1.000000000000000021e-02 1.000000000000000021e-02 1.000000000000000021e-02 1.000000000000000021e-02 1.000000000000000021e-02 1.000000000000000021e-02 1.000000000000000021e-02 1.000000000000000021e-02 1.000000000000000021e-02 1.000000000000000021e-02 1.000000000000000021e-02 1.000000000000000021e-02 1.000000000000000021e-02 1.000000000000000021e-02 1.000000000000000021e-02 1.000000000000000021e-02 1.000000000000000021e-02 1.000000000000000021e-02 1.000000000000000021e-02 1.000000000000000021e-02 1.000000000000000021e-02 1.000000000000000021e-02 1.000000000000000021e-02 1.000000000000000021e-02 1.000000000000000021e-02 1.000000000000000021e-02 1.000000000000000021e-02 1.000000000000000021e-02 1.000000000000000021e-02 1.000000000000000021e-02 1.000000000000000021e-02 1.000000000000000021e-02 1.000000000000000021e-02 1.000000000000000021e-02 1.000000000000000021e-02 1.000000000000000021e-02 1.000000000000000021e-02 1.000000000000000021e-02 1.000000000000000021e-02 1.000000000000000021e-02 1.000000000000000021e-02 1.000000000000000021e-02 1.000000000000000021e-02 1.000000000000000021e-02 1.000000000000000021e-02 1.000000000000000021e-02 1.000000000000000021e-02 1.000000000000000021e-02 1.000000000000000021e-02 1.000000000000000021e-02 1.000000000000000021e-02 1.000000000000000021e-02 1.000000000000000021e-02 1.000000000000000021e-02 1.000000000000000021e-02 1.000000000000000021e-02 1.000000000000000021e-02 1.000000000000000021e-02 1.000000000000000021e-02 1.000000000000000021e-02 1.000000000000000021e-02 1.000000000000000021e-02 1.000000000000000021e-02 1.000000000000000021e-02 1.000000000000000021e-02 1.000000000000000021e-02 1.000000000000000021e-02 1.000000000000000021e-02 1.000000000000000021e-02 1.000000000000000021e-02 1.000000000000000021e-02 1.000000000000000021e-02 1.000000000000000021e-02 1.000000000000000021e-02 1.000000000000000021e-02 1.000000000000000021e-02 1.000000000000000021e-02 1.000000000000000021e-02 1.000000000000000021e-02 1.000000000000000021e-02 1.000000000000000021e-02 1.000000000000000021e-02 1.000000000000000021e-02 1.000000000000000021e-02 1.000000000000000021e-02 1.000000000000000021e-02 1.000000000000000021e-02 1.000000000000000021e-02 1.000000000000000021e-02 1.000000000000000021e-02 1.000000000000000021e-02 1.000000000000000021e-02 1.000000000000000021e-02 1.000000000000000021e-02 1.000000000000000021e-02 1.000000000000000021e-02 1.000000000000000021e-02 1.000000000000000021e-02 1.000000000000000021e-02 1.000000000000000021e-02 1.000000000000000021e-02 1.000000000000000021e-02 1.000000000000000021e-02 1.000000000000000021e-02 1.000000000000000021e-02 1.000000000000000021e-02 1.000000000000000021e-02 1.000000000000000021e-02 1.000000000000000021e-02 1.000000000000000021e-02 1.000000000000000021e-02 1.000000000000000021e-02 1.000000000000000021e-02 1.000000000000000021e-02 1.000000000000000021e-02 1.000000000000000021e-02 1.000000000000000021e-02 1.000000000000000021e-02 1.000000000000000021e-02 1.000000000000000021e-02 1.000000000000000021e-02 1.000000000000000021e-02 1.000000000000000021e-02 1.000000000000000021e-02 1.000000000000000021e-02 1.000000000000000021e-02 1.000000000000000021e-02 1.000000000000000021e-02 1.000000000000000021e-02 1.000000000000000021e-02 1.000000000000000021e-02 1.000000000000000021e-02 1.000000000000000021e-02 1.000000000000000021e-02 1.000000000000000021e-02 1.000000000000000021e-02 1.000000000000000021e-02 1.000000000000000021e-02 1.000000000000000021e-02 1.000000000000000021e-02 1.000000000000000021e-02 1.000000000000000021e-02 1.000000000000000021e-02 1.000000000000000021e-02 1.000000000000000021e-02 1.000000000000000021e-02 1.000000000000000021e-02 1.000000000000000021e-02 1.000000000000000021e-02 1.000000000000000021e-02 1.000000000000000021e-02 1.000000000000000021e-02 1.000000000000000021e-02 1.000000000000000021e-02 1.000000000000000021e-02 1.000000000000000021e-02 1.000000000000000021e-02 1.000000000000000021e-02 1.000000000000000021e-02 1.000000000000000021e-02 1.000000000000000021e-02 1.000000000000000021e-02 1.000000000000000021e-02 1.000000000000000021e-02 1.000000000000000021e-02 1.000000000000000021e-02 1.000000000000000021e-02 1.000000000000000021e-02 1.000000000000000021e-02 1.000000000000000021e-02 1.000000000000000021e-02 1.000000000000000021e-02 1.000000000000000021e-02 1.000000000000000021e-02 1.000000000000000021e-02 1.000000000000000021e-02 1.000000000000000021e-02 1.000000000000000021e-02 1.000000000000000021e-02 1.000000000000000021e-02 1.000000000000000021e-02 1.000000000000000021e-02 1.000000000000000021e-02 1.000000000000000021e-02 1.000000000000000021e-02 1.000000000000000021e-02 1.000000000000000021e-02 1.000000000000000021e-02 1.000000000000000021e-02 1.000000000000000021e-02 1.000000000000000021e-02 1.000000000000000021e-02 1.000000000000000021e-02 1.000000000000000021e-02 1.000000000000000021e-02 1.000000000000000021e-02 1.000000000000000021e-02 1.000000000000000021e-02 1.000000000000000021e-02 1.000000000000000021e-02 1.000000000000000021e-02 1.000000000000000021e-02 1.000000000000000021e-02 1.000000000000000021e-02 1.000000000000000021e-02 1.000000000000000021e-02 1.000000000000000021e-02 1.000000000000000021e-02 1.000000000000000021e-02 1.000000000000000021e-02 1.000000000000000021e-02 1.000000000000000021e-02 1.000000000000000021e-02 1.000000000000000021e-02 1.000000000000000021e-02 1.000000000000000021e-02 1.000000000000000021e-02 1.000000000000000021e-02 1.000000000000000021e-02 1.000000000000000021e-02 1.000000000000000021e-02 1.000000000000000021e-02 1.000000000000000021e-02 1.000000000000000021e-02 1.000000000000000021e-02 1.000000000000000021e-02 1.000000000000000021e-02 1.000000000000000021e-02 1.000000000000000021e-02 1.000000000000000021e-02 1.000000000000000021e-02 1.000000000000000021e-02 1.000000000000000021e-02 1.000000000000000021e-02 1.000000000000000021e-02 1.000000000000000021e-02 1.000000000000000021e-02 1.000000000000000021e-02 1.000000000000000021e-02 1.000000000000000021e-02 1.000000000000000021e-02 1.000000000000000021e-02 1.000000000000000021e-02 1.000000000000000021e-02 1.000000000000000021e-02 1.000000000000000021e-02 1.000000000000000021e-02 1.000000000000000021e-02 1.000000000000000021e-02 1.000000000000000021e-02 1.000000000000000021e-02 1.000000000000000021e-02 1.000000000000000021e-02 1.000000000000000021e-02 1.000000000000000021e-02 1.000000000000000021e-02 1.000000000000000021e-02 1.000000000000000021e-02 1.000000000000000021e-02 1.000000000000000021e-02 1.000000000000000021e-02 1.000000000000000021e-02 1.000000000000000021e-02 1.000000000000000021e-02 1.000000000000000021e-02 1.000000000000000021e-02 1.000000000000000021e-02 1.000000000000000021e-02 1.000000000000000021e-02 1.000000000000000021e-02 1.000000000000000021e-02 1.000000000000000021e-02 1.000000000000000021e-02 1.000000000000000021e-02 1.000000000000000021e-02 1.000000000000000021e-02 1.000000000000000021e-02 1.000000000000000021e-02 1.000000000000000021e-02 1.000000000000000021e-02 1.000000000000000021e-02 1.000000000000000021e-02 1.000000000000000021e-02 1.000000000000000021e-02 1.000000000000000021e-02 1.000000000000000021e-02 1.000000000000000021e-02 1.000000000000000021e-02 1.000000000000000021e-02 1.000000000000000021e-02 1.000000000000000021e-02 1.000000000000000021e-02 1.000000000000000021e-02 1.000000000000000021e-02 1.000000000000000021e-02 1.000000000000000021e-02 1.000000000000000021e-02 1.000000000000000021e-02 1.000000000000000021e-02 1.000000000000000021e-02 1.000000000000000021e-02 1.000000000000000021e-02 1.000000000000000021e-02 1.000000000000000021e-02 1.000000000000000021e-02 1.000000000000000021e-02 1.000000000000000021e-02 1.000000000000000021e-02 1.000000000000000021e-02 1.000000000000000021e-02 1.000000000000000021e-02 1.000000000000000021e-02 1.000000000000000021e-02 1.000000000000000021e-02 1.000000000000000021e-02 1.000000000000000021e-02 1.000000000000000021e-02 1.000000000000000021e-02 1.000000000000000021e-02 1.000000000000000021e-02 1.000000000000000021e-02 1.000000000000000021e-02 1.000000000000000021e-02 1.000000000000000021e-02 1.000000000000000021e-02 1.000000000000000021e-02 1.000000000000000021e-02 1.000000000000000021e-02 1.000000000000000021e-02 1.000000000000000021e-02 1.000000000000000021e-02 1.000000000000000021e-02 1.000000000000000021e-02 1.000000000000000021e-02 1.000000000000000021e-02 1.000000000000000021e-02 1.000000000000000021e-02 1.000000000000000021e-02 1.000000000000000021e-02 1.000000000000000021e-02 1.000000000000000021e-02 1.000000000000000021e-02 1.000000000000000021e-02 1.000000000000000021e-02 1.000000000000000021e-02 1.000000000000000021e-02 1.000000000000000021e-02 1.000000000000000021e-02 1.000000000000000021e-02 1.000000000000000021e-02 1.000000000000000021e-02 1.000000000000000021e-02 1.000000000000000021e-02 1.000000000000000021e-02 1.000000000000000021e-02 1.000000000000000021e-02 1.000000000000000021e-02 1.000000000000000021e-02 1.000000000000000021e-02 1.000000000000000021e-02 1.000000000000000021e-02 1.000000000000000021e-02 1.000000000000000021e-02 1.000000000000000021e-02 1.000000000000000021e-02 1.000000000000000021e-02 1.000000000000000021e-02 1.000000000000000021e-02 1.000000000000000021e-02 1.000000000000000021e-02 1.000000000000000021e-02 1.000000000000000021e-02 1.000000000000000021e-02 1.000000000000000021e-02 1.000000000000000021e-02 1.000000000000000021e-02 1.000000000000000021e-02 1.000000000000000021e-02 1.000000000000000021e-02 1.000000000000000021e-02 1.000000000000000021e-02 1.000000000000000021e-02 1.000000000000000021e-02 1.000000000000000021e-02 1.000000000000000021e-02 1.000000000000000021e-02 1.000000000000000021e-02 1.000000000000000021e-02 1.000000000000000021e-02 1.000000000000000021e-02 1.000000000000000021e-02 1.000000000000000021e-02 1.000000000000000021e-02 1.000000000000000021e-02 1.000000000000000021e-02 1.000000000000000021e-02 1.000000000000000021e-02 1.000000000000000021e-02 1.000000000000000021e-02 1.000000000000000021e-02 1.000000000000000021e-02 1.000000000000000021e-02 1.000000000000000021e-02 1.000000000000000021e-02 1.000000000000000021e-02 1.000000000000000021e-02 1.000000000000000021e-02 1.000000000000000021e-02 1.000000000000000021e-02 1.000000000000000021e-02 1.000000000000000021e-02 1.000000000000000021e-02 1.000000000000000021e-02 1.000000000000000021e-02 1.000000000000000021e-02 1.000000000000000021e-02 1.000000000000000021e-02 1.000000000000000021e-02 1.000000000000000021e-02 1.000000000000000021e-02 1.000000000000000021e-02 1.000000000000000021e-02 1.000000000000000021e-02 1.000000000000000021e-02 1.000000000000000021e-02 1.000000000000000021e-02 1.000000000000000021e-02 1.000000000000000021e-02 1.000000000000000021e-02 1.000000000000000021e-02 1.000000000000000021e-02 1.000000000000000021e-02 1.000000000000000021e-02 1.000000000000000021e-02 1.000000000000000021e-02 1.000000000000000021e-02 1.000000000000000021e-02 1.000000000000000021e-02 1.000000000000000021e-02 1.000000000000000021e-02 1.000000000000000021e-02 1.000000000000000021e-02 1.000000000000000021e-02 1.000000000000000021e-02 1.000000000000000021e-02 1.000000000000000021e-02 1.000000000000000021e-02 1.000000000000000021e-02 1.000000000000000021e-02
-1.049506841130502153e+02 1.597360795558511484e+02 3.695212784354733060e+01 -8.293397878981126681e+00 -8.269315586271557095e+01 -1.259735617417111975e+01 -1.957576355767368455e+02 6.828931927539657609e-01 -7.969025267925788114e+01 -1.340882843668631885e+01 -1.869795495215476322e+01 6.190325373834045131e+00 -1.679202714807850993e+00 1.579270841154190350e+02 7.966412827277113706e+01 -3.657254409780851034e+01 -4.978175721685903454e+01 7.456420624433880562e+01 3.091225572417478418e+01 -2.390609169048080318e+01 -7.418915136696338664e+01 -6.943216471868444728e+01 -1.296925970605448519e+01 2.723471550332369873e+01 -1.834571136505137758e+02 -9.289705245823466839e+01 -2.456858333778564685e+01 1.897578725347536306e+02 6.660803648688106193e+01 7.228702297610567484e+01 7.559871891650784903e+01 1.106853006004923312e+00 -7.474547381610723562e+01 1.953904144702398753e+02 -2.305895466360634884e+02 5.547849056039760995e+01 -1.130046563896563327e+02 -3.266818118605860377e+01 3.806175986517963405e+00 1.192926208374914125e+02 -1.156664858212969023e+02 -1.279937498794168960e+01 7.277496212124357555e+01 1.634577146225246338e+02 6.712399615203560188e+01 -6.432672877339882689e+01 3.871388596738713517e+01 -2.675090340669574829e+01 -6.219204237639261379e+01 1.474007839555979729e+02 -6.629892990530196073e+01 -4.901715619119148215e+01 -1.312769374065341879e+02 5.537156344081500592e+00 -4.753985740235257396e+01 3.642672307737985449e+01 -8.354255891347730767e+01 -4.710633057095812859e+01 -9.547563637488867982e+01 -1.463757677463165692e+02 1.824793325346218253e+01 4.279039861468484673e+01 -1.159401141340536157e+02 1.209040859236275089e+01 -7.459395135111159902e+01 4.625775692233891334e+01 1.569836397788345437e+02 -1.358625195828696803e+02 -4.074540440194430602e+01 6.822333453517126500e+00 2.777830355124419448e+00 3.992565148063299318e+01 7.907465661878248397e+01 6.869401967903266959e-01 -8.350858860541665152e+00 -6.590020246282701066e+01 7.365987938320718342e+01 -3.076617242779038719e+01 2.478619333905782085e+01 9.796324119410569153e+01 8.301707983146542347e+01 -4.028987164307809365e+01 5.434249016624361417e+01 1.388108253070769820e+02 1.094418019986104014e+02 -3.736485551590870369e+00 1.639897989609912941e+02 -1.050301629570469686e+02 3.895670706894766688e+00 -3.949127131068259899e+01 1.947203915700705465e+02 -1.998478346598452760e+01 2.748158689358612516e+00 -7.230125234690427760e+01 -6.746508554313205508e+00 -6.006175902134141609e+01 6.384479313362696473e+01 -8.905070894275679905e+01 6.468359698570961314e+01 -4.500353830495384955e+01 -4.682499611418687380e+01 -8.632472503423323928e+01 4.993333536231190806e+01 -5.145490693578103247e+01 -1.406033742490706402e+02 -7.479300970560318262e+01 -9.848443038116316472e+01 -1.480410849602592975e+02 1.279701124428950862e+02 -2.579967592504000606e+01 3.018704542961067716e+01 8.442849154184234806e+01 -9.793032497645468482e+01 5.359910746104311841e+01 -4.078032976996613712e+01 -6.542051172257893654e+01 -8.491735765086727383e+01 1.912747557178136333e+02 -5.341769438622840482e+01 -4.665594064146558395e+01 -4.437037494065921805e+01 7.569080266300731807e+01 -3.901716764022642536e+01 1.298740012632844412e+02 -4.706353921847404109e+01 5.195482514082666370e+01 4.278887843946627356e+00 -7.629486611944420815e+01 6.472884342355915521e+01 2.612216014960081907e+02 -8.673561435976239409e+01 4.467935675495279924e+01 -7.186726216819437241e+01 4.261588008183770881e+01 1.235771825051345871e+02 -4.848085564156047411e+01 1.379405780369232204e+01 -2.540222717675840869e+01 -9.605745106767302843e+01 -1.639947144031191328e+01 4.087491954605840583e+00 -7.345384967141503019e+00 -1.405996251578455336e+01 1.113104946751929560e+02 1.228889777825908709e+02 1.757227271176921306e+02 -2.868409401753296493e+02 3.598689196725667472e+01 -1.488763697798983188e+01 -5.873768893301571836e+01 1.699855991102488133e+02 7.171041901374680094e+01 -2.502211259364134133e+00 -1.092562087728089182e+02 -1.022932701228145014e+01 9.436218528187518473e+01 -1.266319239342455489e+02 -1.589357111991140812e+02 1.012507365264964143e+01 3.997481821442791272e+01 -5.756810420721797783e+01 3.964563277306771027e+01 -1.009615762444993550e+02 -1.426587503389468452e+02 1.986273573837031137e+01 4.580978224300554302e+01 4.569224582716874039e+00 -7.865268856576852841e+01 -8.826660540657212550e+01 -7.946192395312648671e+01 -8.260572914884120621e+01 1.197923484395659877e+01 5.359726608716542273e+01 1.099729926987931918e+02 7.494285796788686582e+01 8.451965499849220009e+01 1.015201270380593144e+02 -7.059915447316323878e+01 -7.790014933610056858e+01 6.660886821726424500e+01 6.483261454919446010e+01 5.595683944551037570e+01 -8.855116680826043307e+00 -8.606951164311368530e+01 5.105223990500753928e+01 -1.694161075045451810e+02 6.355590216014523008e+01 -4.207273542899886110e+01 -9.120250818953272187e+01 7.022381409423537946e+01 -1.627187638495787780e+01 -7.295065416905450206e+01 -5.435009033907618914e+01 -8.707932769887408497e+00 2.299133935113824521e+02 7.296214109071992482e+01 5.197993260434544993e+01 -9.840757521202988301e+01 1.405821465810467714e+02 1.037819756822473849e+00 -8.567607741386979114e+01 1.478463644819893830e+02 -1.462294110909224116e+02 1.497630707389575555e+01 -3.083361507375898114e+01 -2.109209967549804787e+02 -1.278938904733507087e+02 -8.367070341865462524e+01 -2.827367541283575036e+01 -1.143416124743173015e+02 5.528158700378831014e+01 6.237803620343154876e+01 -2.651189717140621482e+01 -9.578554497153939451e+01 1.085079684678523080e+02 1.133410412830308331e+02 4.433496809821594553e+01 1.683435836658191320e+01 2.509498817968608364e+02 4.188397986030232545e+01 -1.148002249442362341e+02 -4.331230566874180710e+01 -1.620709175992645612e+02 3.060843605682829249e+01 1.471671365980986934e+02 -1.423362480210122385e+02 1.265251219602470911e+02 -8.737562811063571644e+01 -1.821696592425827177e+01 -8.209385157468238603e-01 5.082232259781267913e+01 -1.109620515903791649e+01 -2.196001159383853008e+01 -1.801031421816903944e+01 -1.218970333592734647e+02 4.456745309346929673e+01 -2.913815302796599838e+01 -1.237470405705520626e+01 -1.031406650097535938e+01 2.172380646573257081e+02 1.675756641314811191e+02 2.236550996762755688e+02 1.267187969603227913e+02 -8.324099243084572208e+01 7.222958477380660725e+01 2.036032403432348659e+01 4.564039020256626600e+01 -3.809389167756346950e+01 2.455826029496516014e+02 -2.244205342470987219e+01 -1.314995020072124703e+02 -1.435518167431269987e+01 -4.410139356747100692e+01 -7.439595023827457965e+01 4.149822238061589275e+01 -1.126298405228153676e+01 1.749598823429158472e+02 8.875177787801814588e+01 3.930608399633614880e+01 9.420724619422846047e+01 9.111141005231453960e+01 -2.210740203334315979e+01 1.343121435182874848e+02 2.555779754613925547e+01 8.623523256847992968e+01 4.590742322645020579e+01 6.652631600507945997e+00 -1.113487021809340973e+02 -1.115128483970622142e+02 -8.665761865016236243e+01 -1.496698581174359255e+01 8.343471639859379252e+01 -2.944084016854798946e+01 9.514621075098750680e+01 4.218620690865871126e+01 -6.997839958728377496e+01 -2.879413200316633237e+01 -5.636489289864444174e+01 1.691184230200246574e+01 -4.451513810732510024e+01 -1.078154423303871710e+02 1.169015380134851654e+02 1.167811528691124749e+02 -7.602350751889706260e+01 5.152418623830651967e+00 -4.363548943113441680e+01 -3.129367337784029957e+01 -1.091288433321964924e+01 -3.008416883574889411e+01 4.285688674669160037e+01 -1.353141935798857673e+02 -5.088288788219241354e+01 -1.460736677887019539e+02 1.674959990502268568e+02 -1.937222141272610898e+01 5.662291835043131272e+01 1.143179596312636015e+01 1.388313025864516987e+02 4.285216155547283989e+01 3.428993792203535662e+01 1.484283692913113271e+02 -4.734711291681025358e+01 -9.386909001655629936e+01 2.619989139924937049e+01 -1.518422320389317122e+02 -5.132746764395557904e+01 9.835078491794493516e+01 -1.224344186216946042e+02 -3.491891010568831888e+01 8.767209864681780118e+01 -9.066287069937934007e+01 -8.587288502993622785e+01 -7.933315918435707204e+01 -6.120393425113373809e+01 2.392114196877380721e+02 1.902950522573345324e+02 9.882444389082036196e+01 -9.809480089222695653e+01 7.180857446990610526e+01 -6.360372828026942926e+01 -3.028002150090410893e+01 1.595863015248842842e+01 -3.102567526890744887e+01 -8.990501098584702788e+01 -2.754506948223893303e+00 1.411463610630781318e+01 1.043787235068011370e+02 -1.232263194879752604e+02 4.030702997617502348e+01 6.114859405409045934e+01 3.304737317628831050e+01 -8.685791277546741185e+01 -1.423746582713186228e+02 1.850237949053120872e+02 -1.704407171805920029e+01 2.412472146555720443e+01 1.500285141285979478e+02 2.552636688091837769e+01 2.653966907112120666e+01 -4.266571087524621220e+01 8.484319773079546678e+01 -1.304802178940981889e+02 -2.946276167987982930e+01 -5.876573860955009110e+00 -5.106670411211541705e+01 6.114321201101171610e+00 2.029160828597705191e+01 -3.423463376309786810e+01 1.307143245724622282e+01 2.044167204850135704e+02 -2.621827733792726889e+01 -2.681268491315965719e+01 -9.720838793880062667e+01 -1.549897859785441812e+00 -7.717825165347261418e+01 6.070809411853989701e+00 1.071695275992434944e+02 -4.971785670866212570e+01 5.768063265555343655e+00 -5.189001554012140360e+01 3.151866181258399013e+00 8.331694314129431689e+01 -1.107063659984778354e+02 -9.256972139277522160e+01 -9.805412586842739131e+01 6.814406661298420431e+01 8.270549549373264142e+01 -8.807310553552171939e+01 5.988961834080161850e+01 2.470743869993484410e+01 3.696480158889904288e+01 -1.694027733342045039e+01 8.730314820215841110e+01 7.611170303375971002e+01 -7.377811239184462977e+01 1.122336069965014183e+01 7.723573902110307188e+01 6.956434151593036574e+01 -1.904154392395019002e+01 2.382656957433350087e+01 -1.266652129455905254e+02 4.638651703983912000e+01 -3.132375516605324250e+01 -3.125037818871371442e+01 1.654203684709161450e+02 4.527357508242911877e+01 1.147922194037142134e+02 1.824322523090398818e+02 -1.314839956751602301e+02 1.424359851727101614e+02 -6.065588702168923874e+01 -1.290975601677548070e+02 7.861558176261272024e+01 -1.280096330805525042e+02 -2.743549595897536975e+01 5.384883864829927802e+01 7.654886380849305283e+00 -1.606866454312140604e+02 8.052525299587392738e+01 2.412501655654709154e+01 6.597750226099591941e+01 3.470394310571869312e+01 9.033190275547536174e+00 -6.409840119612201192e+01 1.104839401220157811e+02 5.205363015513967184e+01 -5.931923470193712689e+01 -9.670072797313598301e+01 3.712990563477367090e+01 2.462109137740545606e+01 7.872180926808064783e+01 1.755971924201957393e+02 -2.349215834108798973e+01 -1.052259037859562341e+02 -8.082650349854000638e+01 -4.900630764763280212e+01 -4.228947381089128754e+01 -1.401084625578943701e+02 -2.153471090356535100e+01 1.237315096922123985e+02 7.116090684689031320e+01 -1.168583949881282393e+02 -1.432543854180693472e+02 -6.499440142429276079e+01 -7.283037805580546831e+01 1.402688415783041194e+02 -1.628061840202251744e+02 8.270466848418143968e+01 -4.398423665453700337e+00 -4.111515993951040571e+01 1.267328063189744292e+01 8.700663544314885200e+01 4.728312692859442024e+01 1.319750970589117003e+02 -1.519772971911707771e+02 -7.731828883014796361e+01 2.426333312812685961e+01 4.002944085155338882e+01 1.967861115600556445e+02 1.389188452751277225e+02 6.261643423543857523e+01 6.884917607110530469e+01 -3.240893240296444588e+01 1.449157921646399529e+02 -1.713193244936764188e+02 -6.058902145725762267e+01 -5.125118001019836811e+01 -4.945151395628539603e+01 -9.856380963652475202e+01 -1.433064777375987653e+01 -6.551774941514855755e+01 6.792491668674927041e+01 -8.712804523009811675e+00 -5.539164113941962597e+01 -5.934637293937710467e+01 1.720283325787232229e+02 5.641013157130866773e+01 -1.314376041506384674e+01 1.994438864995416623e+02 -1.034739837302032157e+02 -3.371647974094008759e+01 6.393805944160352084e+01 -1.375170798904386260e-01 1.432897316914272068e+01 -1.195049680478378491e+02 1.682083181228674391e+02 -4.668946169639639976e+01 -2.563940748871032582e+01 -1.046919700510626399e+02 1.201034932432575602e+02 9.142162728839225849e+01 -7.394165168571059610e+01 -3.595047973649937489e+01 3.719634199793288332e+01 -1.444017827796756990e+02 -2.216689071906872699e-01 -7.125971490315299661e+01 7.312324274150373782e+00 -1.030737275346062773e+02 -1.511916859757780287e+02 -6.741851729982290919e+01 1.413204084988752527e+02 5.388423601428353038e+01 -8.548633048107015497e+01 8.497732721256829791e+01 3.258523484689396810e+01 8.425769112580378817e+01 -4.014996823670485782e+01 -8.010532922055256222e+01 1.630134245046339458e+02 3.964814511914215700e+01 2.757188973811641119e+01 -6.951755114632430832e+01 -4.031364173858007405e+01 9.032309449420242942e+00 -6.844904580901200575e+00 -1.646389534822190797e+02 -3.298752596436709439e+01 6.132468845234038923e+01 1.062247649791441830e+02 1.483123478495359677e+02 -1.266453639555897936e+01 8.532345317975753574e+01 1.501776489479622114e+02 6.033797872318087485e+01 1.404735539254692753e+02 1.529028658014925135e+01 1.249375764657875010e+02 -7.985458056860660747e+01 5.070336418425566194e+01 2.783756777051365106e+01 7.210366244706081318e+01 -1.009637907430785191e+02 1.882657441433523786e+02 -1.222173370006823774e+02 8.392975684997320229e+01 -1.019381293451557866e+02 4.386485175299542760e+01 1.311833634414592353e+01 8.607312707857501266e+01 -6.987612475730173855e+01 -7.164978152956071256e+01 -1.054225075786209409e+01 8.450969428711010778e+01 -2.807032837098552847e+01 -1.544307569042455519e+01 -1.861021919402835323e+01 4.486940745567977729e+00 9.297261178076631438e+01 -5.922123113090988511e+01 -2.552980421841711589e+00 -1.834353482186072313e+02 1.154288047216018782e+02 -1.180323814684116286e+02 -6.979903476369619852e+01 -2.221393375789258329e+01 -1.020308315964889943e+02 -5.021246701711719851e+01 -5.537949654525495902e+01 -1.862744466331225013e+01 1.286938378109337577e+02 5.107993869795123487e+01 9.485695375183701117e+01 -1.285858825589857872e+02 -1.309081405375718248e+02 -2.709404347471227652e+02 9.657769321095838677e+01 9.843524794022525271e+01 4.001739984547499063e+01 -4.016508262689276876e+01 -3.508015653509126963e+01 -1.735588135523558151e+02 1.379825131474524085e+02 -1.014649331321207768e+02 1.010564495449170579e+02 -1.503701917489910613e+02 -1.353845537248870201e+01 -5.232040161851961102e+01 -1.126891307855623836e+02 -4.356816760548876033e+01 -1.188952058337917350e+01 -8.758324257422859205e+01 -9.773306125321991544e+01 -1.168535168077229436e+01 6.724843883991844962e+01 -1.177284097672125966e+02 -1.477190549660074304e+01 -6.968217077533719817e+01 -1.241709213881176623e+02 6.181075335146737793e+00 8.981154393972281014e+01 1.564722675135350016e+02 -1.799932619860302552e+01 -4.351621946603546576e+01 -1.174056072769060108e+02 -1.547400168904663360e+02 9.817209931384407184e+01 -6.876957844294953759e+01 7.466979437811197329e+01 8.882848406865225144e+00 2.760088272828021161e+01 6.983210924432231081e+01 -8.020360065554638140e+01 7.823277504090158629e+01 1.090699125782829668e+02 1.490735946556324620e+02 -1.102019980801070886e+02 9.838085291409059607e+01 -4.523660790745975646e+01 -8.593044700913016243e+01 2.031153042734882774e+02 4.653905343596577637e+01 7.899610348013163730e+01 2.002376816312461472e+01 -5.994847221389742487e+01 -3.305941738755837633e+01 -1.991232961970283384e+02 9.998677740027697780e+01 7.709976114533486680e+01 -7.163662842358768046e+01 -6.916436125834485438e+01 1.373984459380154703e+02 9.564661681716629005e+01 4.838564044572017764e+01 7.197223055080829113e+01 -7.394184413358165564e+00 9.765186410369952341e+01 -9.806469650682466010e+01 1.763183117640406294e+02 -3.736669433467434942e+01 -1.154806133947440685e+02 -3.571781030493864506e+01 6.789071111008156834e+01 1.394206232088093884e+02 1.211269660104283830e+01 1.645020025291687205e+02 4.937108354811597621e+01 3.184753355993453638e+01 -1.053246285914308231e+02 4.235547410192786799e+01 -1.182484076627718821e+02 4.517615182545286245e+01 3.646486123482022634e+01 -1.167884545167445083e+02 -8.048101818169902799e+01 3.773980285144818225e+01 8.256393701998909762e+00 -2.194390540643707155e+01 3.966137705308285177e+01 -2.025792835448298490e+01 -5.970233548808590740e+01 -2.488893431861674799e+01 -2.119002022006177555e+01 -3.767545900185017871e+01 1.774592000941724024e+01 -7.623766635457089080e+01 1.125503897420333743e+02 -7.025175213660678253e+01 -3.925787113275784002e+00 6.216860175363235186e+01 3.649685104624646570e+00 1.512322217599065155e+01 1.512323399183173933e+01 -1.108068242233673573e+02 -4.161923825143629685e+00 6.154431849929856213e+01 -2.189815780537367118e+02 -8.035328578727620652e+01 -1.066100027053887374e+02 4.145123666482324865e+01 9.103029994434115224e+01 -8.684304887996637490e+01 -1.588445268035122524e+02 -1.752546510370222848e+02 1.886717618968273769e+01 -1.370841363837948563e+02 -5.992470140628832098e+00 1.395866004215309886e+02 -6.661007699660006054e+00 3.507607059501972913e+01 -9.336636043344482516e+01 7.539837514788914064e+01 -1.118563306902526335e+02 -1.457936704737167943e+01 -2.853436973696314638e+01 5.432042078188634804e+01 -8.301969197062069483e+00 9.957705345947877618e+01 -1.150484766175995048e+02 -4.718028729972925817e+01 8.168838149062179355e+01 6.228325281147474612e+01 -7.745621261457365847e+01 -5.122596406465549990e+01 -4.648634130991425195e+01 -2.722567850763628030e+02 1.820155955140982371e+02 7.149096876172590953e+01 -2.213153141157820869e+01 -2.789154744488982374e+01 3.902108790728557608e+01 -7.895917255333816342e+01 9.341830729706717307e+01 5.681725060780001968e+01 7.683398758069198209e+01 -7.892028220723420873e+01 -2.481705480419303456e+01 3.123041699916065639e+01 1.630405400965869589e+01 -4.021916484823408666e+01 1.482095807235034783e+02 -1.619711239329577168e+01 3.323109411126994672e+01 -2.155936693350988378e+02 -7.935457848712333373e+01 -6.855421530435278044e+01 2.159570352037962238e+01 1.023416405833440308e+02 -2.173154004133906199e+02 -1.753407349181537711e+02 2.077168568206492694e+02 -9.899014990455897944e+00 8.999813627213353584e+01 5.865987847525557441e+01 -5.184727950037250110e+01 -1.227758910797172405e+02 -8.918687630642050124e+01 -4.708385876519589885e+01 -3.504277216205371559e+01 -3.670742452890815599e+01 1.509291931558570710e+01 3.491923395271020780e+01 1.564284521343788867e+02 1.155543371888796003e+02 6.594213676685144243e+00 -4.148996023166798608e+00 -1.487453377635756055e+02 1.121453306967327421e+02 1.492816118516556401e+02 -9.700230139170039934e+01 6.908719774961262772e+01 1.541713567284248798e+00 5.152345839659859905e+01 1.174684983231153126e+02 6.649206222217706852e+01 -1.256650899513087012e+02 1.508519248154633274e+01 -2.754853488765802183e+01 1.045132483774708199e+01 -2.160947494350559239e+01 4.248617448920813899e+01 -2.444540057453698694e+02 1.698506466489108107e+02 6.777170604292834355e+00 1.494958057640553193e+02 -9.840806427536906043e+00 9.956199690964176341e+01 6.720086223504848988e+01 -3.935621882737098076e+01 2.814065887608919780e+01 -6.839156793013142988e+01 -8.358023739750171899e+01 -6.762253260538408028e+01 -3.011039638089992110e+01 4.240708205890840077e+01 1.034522745075904311e+02 2.671767574851165250e+01 5.845639437495342605e+01 -9.851268402890262621e+01 -1.288694056422670826e+02 -1.267126946404666832e+01 4.357305896044516658e+01 -4.266163771777445390e+01 8.896392264741670886e+01 5.224410022549231059e+01 -2.597705659546922519e+01 2.814723014959507097e+01 5.774922943576177659e+01 -6.777880303986276544e+01 -1.257531322387296768e+02 1.335859818808071395e+02 7.345816556797501562e+00 4.716299103584908181e+01 -1.405140622350402282e+02 -5.026845985187921428e+01 -3.905200314852898535e-01 -6.200941848478422713e+01 4.002975420192582234e+00 5.303109470617238230e+01 1.756239808046471467e+02 3.686906171121212594e+01 -1.031962071695210525e+01 6.812253954961110480e+01 -4.283663381353400723e+01 -1.027127561000341416e+02 -1.302446331643611757e+02 8.818582216371158466e+00 2.367770024497568926e+01 2.250500786924537877e+01 -5.365708365416267611e+01 1.139608116657511658e+02 -7.624772927534772293e+01 1.210852023646761211e+02 8.237430843885022114e+01 -6.138703206770891541e+01 -8.006851332147941491e+01 7.952739357167349965e+01 1.924299104312136066e+01 -4.963064790531593218e+01 -5.084405214800874973e+01 1.292466464922472937e+02 5.419863067028244075e+01 7.555828472467963763e+01 2.471387771474711315e+01 -3.972160580773348215e+01 1.015154099371486609e+02 -5.160343974832036196e+01 5.600024430512232643e-01 7.236346886508785303e+01 9.422147873575384835e+01 2.417969251764908734e+02 -1.658195060239592067e+02 1.522726986601824137e+02 -6.389733741703475545e+01 -1.442620703918563230e+01 -2.383265319439099272e+01 -1.962745661313557477e+01 -5.215460870983628894e+01 8.813181639978584769e+01 1.743269478947547100e+02 -1.125304431122176396e+02 2.931873004750078593e+01 -1.203105879027132659e+02 6.656838839296773358e+01 -4.215828219673920785e+01 -7.691671740135316782e+01 -5.119004516227375490e+01 3.913244901139974985e+01 1.837558292104490576e+01 -7.764031995530565666e+01 -1.339942848513274214e+02 1.972544013896044035e+01 1.498266158519305407e+02 1.358610836172213432e+01 1.735517565058353853e+02 7.086345951465697901e+00 1.281131869308640319e+02 -3.291088771727847018e+01 8.642674900327592979e+01 -6.801756937329886910e+01 -1.075302525384768728e+02 4.709477182254854455e+01 -5.525262046089404322e+01 -7.486429795319001812e+01 6.942192349200915658e+01 6.192864162658453075e+00 -8.988702107835079858e+01 -1.436759217999014595e+02 1.411771048368906349e+02 -8.511501714569421040e+01 -2.282707788629481094e+00 1.146991497599350254e+02 5.538994759654011801e+01 -9.384697219668632329e+01 1.020212179907477257e+01 2.695780039755452435e+02 5.093304127306575424e+01 -1.507910386091099895e+02 -4.565776332653299363e+01 -5.879753566657644370e+01 9.188540480893943041e+00 1.029359254278438129e+02 -9.908049806461568210e+01 2.068830852669491094e+01 1.249077417052695580e+02 1.797274779300048309e+01 -2.023508445503732389e+02 4.621975794035679286e+01 7.231544267360504818e+01 -1.303590715054148319e+01 3.139961132414602929e+01 1.890811298079129454e-01 2.165231467517972064e+01 2.657477946575727046e+01 1.110203161711727375e+02 9.398488771114789131e+01 1.502929067337643865e+01 1.428075819087938214e+02 -6.135545583668704239e+01 2.364014135645709302e+02 6.235150807766604686e+01 1.358803087647892482e+02 -2.104678426156131010e+01 8.636288451757769735e+01 -4.684818422764563195e+01 -1.403342469461255178e+02 2.506237404622904918e+01 9.101212215336381917e+01 -8.392658763643143516e+01 -1.004303325793610213e+02 -6.380183166513290871e+01 3.512849651264878759e+01 -1.094602795802373834e+02 7.160652918464425909e+01 2.686496780425458297e+01 -9.359797825269743043e+01 1.820864450193651010e+02 -1.127561404623284957e+01 -9.761124491271829129e+01 -1.288509381599125980e+01 -1.959750333812691281e+01 -1.344509255416587905e+02 -3.836395501328554758e+01 5.899594331395223179e+01 1.264048476322256391e+02 2.786994559308961783e+01 2.562914224360439519e+01 4.294888303758588677e+01 -3.422401699993245927e+01 -1.396671694849668199e+02 1.526891533256052114e+01 2.965897176213465158e+01 1.276854887245273176e+02 -9.451993408752604964e+00 -7.299553196827532986e+01 7.019614048638644022e+01 9.215132201528838385e-01 3.043814149379460332e+01 1.334804317419044821e+02 -1.701721136498738360e+02 -8.906888192079054534e+01 1.196385622244976474e+02 -2.010537592807647798e+02 -1.713912397283350799e+02 8.486094134671515121e+01 1.435168161383043923e+02 5.913133270437355549e+01 -4.190216850621585110e+00 1.450976569743006337e+02 -2.046265428779310582e+02 9.986407857457004411e+01 3.949105974885436154e+01 1.184239747843795811e+02 -1.757573883065091991e+02 9.919828504155081816e+01 -2.627327520856413656e+01 -1.245872490325717479e+02 -4.957218021478849934e+00 -8.609078674965753919e+01 -1.506219132937071592e+01 -4.090442187226783766e+00 -1.148135359792480443e+02 -1.149277474248775093e+02 -5.830069751171087233e+01 -1.201190926299842801e+02 1.872900077114080659e+02 -1.502111462321390150e+02 -4.677584447307232551e+01 1.608050869384160535e+02 3.162737444376273999e+01 -2.758626286108629984e+02 -1.185151121233643607e+02 3.307091780678606341e+01 5.095524579493690709e+01 7.921746644463283360e+00 -1.440478079273953824e+02 3.325591353253929583e+01 7.019505033598419708e+00 -6.927400663271095027e+01 1.889611671563305890e+02 1.887679137115086121e+02 4.063548381175134061e+00 -1.943760693310227623e+02 1.173973153694172282e+02 2.864267264709044269e+01 3.589427784938402866e+00 7.134369321499789862e+01 -1.933862318651154908e+02 -1.286125780376258376e+02 1.314006258283036175e+02 1.022009831934003756e+02 4.928278931216746628e+01 1.334017681166445755e+02 -1.661331379764885128e+02 -1.909327812760062670e+01 -1.215046218212965954e+02 4.074186662748036269e+01 -9.681237073010969141e+01 8.116374524013266978e+01 -3.164132231229271852e+01 1.154463328338212946e+01 1.653762037657499206e+02 2.664068938792492958e+01 -2.456370530938312697e+02 -1.178128270030220364e+02 -7.766190462805538175e+01 1.473527449965826293e+02 1.169036471876771799e+01 -5.026857675841890227e+01 2.821973712119336852e+01 5.821103858607203563e+01 -3.683297607241157579e+01 1.001928853928651080e+02 -9.389799538752653518e+01 4.586479039390380308e+01 1.043199494905041007e+02 -3.315205153020787776e+01 -9.145011015950564115e+01 -1.057706226845207880e+02 1.116149148140880527e+02 -4.631946766677720007e+01 1.831760507856311051e+02 5.331342642641022422e+01 1.033863468789899542e+02 1.720140131052893082e+02 7.969816080314855000e+00 -1.158763331535584200e+02 -1.544212102701254139e+02 -1.063789960808755524e+02 3.964054866486140583e+01
-1.235147879941874116e+01 -4.431722615239375607e+00 9.423588332049318694e+01 -2.085098148595213559e+02 1.414801332391692199e+02 5.776936268145738040e+01 1.385029630562884790e+02 -1.175878005009656420e+02 -2.505472831045755022e+00 -2.188948823010225198e+01 -1.998065347722189244e+02 2.975059756806090761e+01 -1.666818625567357515e+01 1.113459421763865862e+02 -1.139146982357406159e+02 5.617868764400584780e+01 1.140086078052434715e+02 -4.183995919922702456e+01 -4.508345686588381795e+01 -2.451204091768439497e+01 5.620903472393040801e+01 5.736686415943743356e+01 2.953844497179976614e+01 -2.115974700365389936e+02 -4.688368220801832820e+01 8.336864032813986114e+01 9.030552503890520555e+00 -9.466965163849700104e+00 -6.053122320842368254e+01 -1.413724869137586637e+01 6.674477356210475421e+01 -1.323251593334253471e+02 -5.641922251996066251e+01 8.145704055724557691e+00 1.889645690809212795e+02 1.930032418385229107e+02 -2.930224370751601981e+01 5.085591065031753288e+01 -2.249484617302965617e-01 -1.270634986813180944e+02 8.732060589015776486e+01 9.755126733525992222e+01 9.873629262667603257e+01 1.061149623365505512e+01 5.629509887658854694e+01 4.377924226428956445e+01 3.536934920901379087e+01 2.674604005693446140e+01 1.003397186785351636e+02 8.161300209563984254e+01 5.964940603481500148e+01 1.483313712315084274e+02 2.255909274926527246e+02 1.779868530077744992e+02 -5.382173863565325433e+01 4.483202986239813015e+01 -5.845351931986137828e+01 5.128501549511340585e+01 -1.749285458790986070e+02 5.140816692197298465e+01 -1.862799002972364804e+02 -1.535317528545916161e+02 1.179404974291210451e+01 -8.450683002858632165e+00 1.542357894319390823e+02 -1.892906570668252186e+02 6.848618727601068201e+01 2.091942078716995752e+02 -6.770237408535089152e+00 -1.773415049954880658e+02 3.229359441074684867e+01 1.794153858004309257e+02 -5.562347840932713439e+01 -2.426632497272771616e+02 -9.334954511350264283e+01 8.158277646667457361e+00 -2.094239006567970023e+02 2.925778808308328749e+01 -1.633549357694512025e+02 -1.688990132236853299e+02 -5.210839510179022938e+01 1.387490784082531832e+02 6.319817863005677339e+01 9.679072422726958891e+00 -8.079139601030693996e+01 -3.879245854757273548e+01 5.803422788498134821e+01 -2.115121013424762850e+02 4.927835541915279549e+01 -6.822149688144750712e+01 -7.122689847091304216e+01 -1.610925893719444275e+02 5.921690199695446211e+01 8.443093176339357342e+01 -1.478959490977883604e+02 1.574968571251932303e+02 -3.632446808587644682e+01 -1.542514303840319556e+01 7.994467580862567502e+01 1.425368250077606262e+02 1.986488230049529236e+01 1.380871483353706708e+02 -1.690257278344450498e+01 -8.269516356355943287e+01 -1.786629946881718922e+01 9.213255862721807432e+01 4.217166503669017885e+01 9.173847011551868036e+01 8.849137092737943533e+01 -7.795404303574034088e+01 -1.593427190427503035e+02 1.153877761410490876e+02 5.085784304611733120e+01 1.527696281767220832e+01 2.866532625677729840e+01 -6.370478563351837664e+01 9.005746756348762005e+01 8.430910416857476264e+01 -1.291501038821812664e+01 -6.685407663786662624e+01 2.875324942956362051e+01 5.904726245484646086e+00 -5.764387796798936847e+01 1.591287650072749216e+02 -3.067539377587374361e+01 1.140917547917598966e+02 -6.575396112960279993e+01 3.602491604433367911e+01 -3.381571670386685469e+01 8.400132266128031233e+01 2.201771466000721844e+01 1.084932050031973176e+02 -1.089405976654284274e+02 6.979415207236107221e+01 1.158876530658311310e+02 -4.193796194914582287e+01 7.226355565522288416e+00 -1.207178187724320395e+01 1.097254404125720129e+02 3.500301082844109679e+00 1.583077974438899105e+02 -1.328194702008367472e+02 1.095363144303624807e+02 -8.569130882722585341e+01 9.003952948941585532e+01 -1.287738103517961576e+02 2.771693411355748893e+01 2.327340414577840022e+01 1.646926178688993936e+00 3.412910900193338648e+01 4.329952114172258604e+01 -1.160288688489762876e+01 1.030505191470224347e+01 1.016186535220556522e+02 1.196031985885049238e+02 -8.155423987732805813e+01 -5.089878858971117381e+01 4.447139623633537298e+01 1.408265125929582195e+00 -1.288549301383886529e+02 -5.189929013078280207e+01 -3.327109467655942865e+01 4.597208370221692775e+01 -6.160897656993220295e+01 2.154027334172496211e+01 1.509252567072409761e+02 -7.475623589779593203e+01 7.612594973766165651e+01 7.911245833582438536e+01 1.065381421820289098e+01 1.162577414694730180e+02 5.922461701559819147e+01 1.582947976693112651e+02 -3.266132054967270193e+01 1.059354949091525100e+02 5.238292153848629340e+01 -1.512895122671467441e+01 1.924790513465801496e+02 -1.308623979958582026e+02 4.613357589050118435e+01 -1.769917820360446399e+02 -7.942064869897650681e+01 3.875914616189322714e+01 -6.818507906124104068e+01 -1.470867168643326295e+02 1.882609086062549011e+02 -8.101962811857296742e+01 -4.486980412463216084e+01 -4.371391663206957645e+01 1.150328527069471249e+02 1.840225002532599774e+02 6.117639282940613299e+01 1.381991887204840168e+02 2.074293428182316177e+02 -1.488771168808058931e+00 1.539065946403294163e+02 6.698949681361220598e+01 1.799516339346482710e+02 -1.189328157942114217e+02 -1.115868171027286415e+01 6.024710672502862074e+00 1.795061672822967580e+02 -8.583722591029197702e+01 -5.725032929037097773e+01 -5.001729206785743997e+01 -1.267328701231537167e+02 4.423159253881769892e+00 -9.538474342915571924e+01 1.457801997479876377e+02 2.223475086324102890e+01 1.131592154570160780e+01 6.833939856188951012e+01 -4.622618097502248169e+00 1.106346431251300828e+02 -1.502041838197264951e+02 4.295868143108042858e+01 -1.613887750071727680e+02 1.109927169138220364e+02 9.089766367458489071e+01 -6.357299471360233412e+01 4.426815370863207733e+01 2.251066331077444715e+02 -2.882276122428213583e+01 3.936146162957740557e+01 -3.089766964482722855e+01 5.477829392913864837e+01 6.072060838865746035e+01 -5.952474419376698300e+00 9.628112955668525785e+01 9.584059784555452666e+01 -1.832223342665726875e+02 -1.448175286564323585e+02 -1.132881985535844365e+02 -8.888008040022759459e+00 -1.415066809964924630e+02 1.092026423177944849e+02 1.042371456455270362e+02 5.578663044157718787e+01 1.055436000537632957e+01 1.489804433774602330e+02 7.933269443946255706e+01 6.380687605453121591e+01 -9.595934944430996438e+01 1.440869133139846383e+02 -3.428638493318165725e+00 1.033513053762144409e+02 8.340250640249545100e+00 3.471035865271508669e+01 -7.147481033782462134e+01 -8.569565802343397820e+01 6.762455533570063437e+01 -3.676143579607272560e+00 1.380241797427801771e+02 -1.184279472329317251e+01 -2.674528624327598969e+00 4.330100775740833541e+01 2.134806504333458221e+01 1.335128794155156413e+02 1.391680410578886473e+01 3.385798124956114918e+01 -1.459754598755868926e+02 6.208916513778243740e+01 1.260928083804080160e+02 -1.653494737568021833e+01 -2.150582817194964775e+02 7.958801325558900430e+01 1.283379498283866837e+02 1.923918558120175959e+01 1.780109448275053126e+02 -4.096454362039430919e+00 4.031606658552598077e+01 -4.105842997678718120e+01 -1.302746486739405896e+02 5.267922374154760945e+01 -4.462025176665617465e+01 -7.602223881086379720e+01 3.872162638864279671e+01 -1.734338858938881458e+02 6.719407225842365960e+01 1.543660678751586488e+02 -9.495892163599492619e+01 1.623289294601214863e+02 -9.149067690918454332e+01 -5.574731854462406488e+00 -9.908323761640994931e+00 7.188334504173940331e+01 -4.373270555476176469e+01 -1.009653356329052798e+02 -8.304232924903870128e+01 1.365786394397635490e+02 5.536642989616222366e+01 -1.235012482952065938e+02 4.119078975691245148e+00 4.061185018766020960e+01 7.724949497336422155e+01 -3.773158155718963513e+01 5.605748988632078067e+01 -6.452330100699654736e+01 -1.517869167490224243e+02 -3.237576545774136605e+01 1.318030552014111834e+02 -1.060783838432410562e+02 -5.945777449156581795e+00 -1.522030046540922115e+02 -4.579161986727633860e+00 -1.363642785202574430e+02 3.082562009124719893e+01 5.633893629979360185e+01 -4.702067438585196868e+01 -7.693542233466220637e+01 5.279305073467376097e+00 6.950980892037796366e+01 -6.329769489002258354e+01 1.257471160763587363e+02 9.861558990902368294e+01 -1.191671486171775456e+02 -9.846065917207143059e+01 1.260739592967513829e+02 6.651673829084130318e+01 1.401658354671720019e+02 9.316428572475378189e+01 7.565116950126990503e+01 -5.622526614289137825e+01 -7.619226519420158183e+01 -7.180928379289753138e+01 1.905898445002487165e+02 2.856986876642947948e+01 -2.323173295987888309e+01 -6.376507934181072557e+01 -4.644027819801577550e+01 -1.222311129900779889e+02 -1.530258988115774521e+01 -1.628516518376703743e+02 1.160141261091274458e+02 4.263385715800859543e+01 -1.068854855696188650e+02 -4.493086538392662277e+01 1.110882256826737091e+02 -8.987615087904465838e+01 9.542601624636132840e+01 -1.099454394395156100e+02 -1.093788822469353406e+01 -8.860858911363398249e+01 8.328842875955120917e+01 -3.939463121322588535e+01 9.472310659405060562e+00 2.725023037474894849e+01 -1.174561886763598721e+02 1.158916015760394025e+01 4.489921894336927011e+01 -2.068281075548042836e+01 -6.375414914421713064e+01 1.879525176872497525e+02 8.019381083687146372e+01 4.365314324422888603e+01 -2.911884881694176030e+01 7.434673907934335091e+01 1.554295644179309477e+02 -8.547832262925278712e+01 1.942626638048009227e+02 -1.234271471426661861e+02 -1.704959839787416058e+02 1.406772514579396898e+02 -2.169507400996818944e+02 -8.417642735591831515e-01 -2.271021303939662062e+02 -1.417123928556645183e+02 6.656045400908443810e+01 -1.349577005381255788e+02 5.410174614487272038e+01 1.020008177234738866e+02 -1.486052576120975459e+02 -2.786244739043906193e+01 6.993714215164760617e+01 1.241371220098591550e+02 -1.725960127277596712e+02 8.115419713719633421e+01 -9.084560848628667884e+01 -9.110044326158821093e+00 -1.281397157323083569e+01 -7.374881107527831148e+01 -8.368411093779282339e+01 1.681618259737008714e+02 -2.016111690016839830e+01 1.269036364820292251e+00 1.207903489187431489e+02 -8.048950223649021041e+01 -3.193833220105910797e+01 -9.994010619409745289e+01 -4.528550981748308857e+01 4.749088667447050938e+00 5.506370486529078789e+01 -1.254351876055955728e+02 2.203715472173996943e+02 -5.006343270487769814e+01 1.139576447194618964e+02 -4.540023525940093663e+01 1.113730517834811877e+02 1.295327319129370665e+02 4.456192791375236339e+01 1.135675250987684421e+02 -4.023484552438978312e+01 1.302956504532986628e+02 -1.457446420198632779e+02 -6.090004180268802969e+01 -5.863907502116307313e+01 2.385839237530185741e+01 -1.511390212510517586e+02 6.755085377084088805e+01 -2.873315619908443708e+01 -7.697688435326955414e+01 8.341954319813515895e+01 -1.407669508657965594e+02 -8.500545610696597976e+01 -4.909464080668023200e+01 3.079991686206779988e+01 1.209091884995008854e+02 1.087992571496008907e+02 6.433031117695080070e+01 -1.411513108474433453e+00 1.629955905941631045e+02 1.141479957861169936e+02 -8.806844261052719958e+01 -7.272607858074351839e+01 5.115969858970789375e+01 9.229066146379278024e+00 9.127700480285456308e+01 1.554096748452630550e+02 6.578494873954583966e+01 2.282455666801823213e+01 -9.525914898296322519e+01 1.599834108899669900e+02 -1.058656373102356980e+02 -1.539331400573070709e+02 6.123231866740145790e+01 1.038694842404669458e+02 1.832298120454781909e+01 -1.293051170349800429e+02 2.764030469368852749e+01 3.946321733123417630e+01 -3.798538648563404285e-01 1.219125938314913213e+02 9.116056314304955777e+01 1.593538433755932004e+01 7.291537683725002239e+01 -9.945855459876186444e+01 -5.975473672924213275e+00 9.153482515863042579e+01 2.764021377854958317e+01 -6.049689995663388231e+01 1.843048406081900907e+02 2.150220941782301622e+02 -1.166587588947970175e+02 -2.572738065062821633e+01 -1.954162498101200072e+02 -6.712445335492404297e+01 1.455293912701657746e+02 3.090380493417256513e+00 -6.600582255212694349e+01 1.522109813584673930e+02 -5.805639966139546004e+01 -1.493133539724219929e+02 1.269426593719388450e+02 -6.240853220930598155e+01 3.213589027803559617e+01 8.019941229185123177e+01 1.283116651030932687e+01 -2.214116678391035862e+02 3.936067313822035629e+01 -5.776656874351132842e+00 8.376773098288725805e+01 -2.190111338402914143e+01 9.387232689530688390e+01 1.582234753074810207e+01 -7.860683013508904082e+01 -1.904287223859518718e+01 -1.628270312332517449e+02 1.067994894093221632e+02 2.350207317926511408e+01 -3.864442264464773302e+01 -4.810347843083861363e+01 -5.849572504123191408e+01 3.823429595378648571e+01 1.492901499957473845e+02 1.232545273953093528e+02 3.995593722432017358e+01 -1.838094715399305699e+02 -3.604043785454626914e+01 4.072126820201962261e+01 1.089550683384357086e+02 8.094509209610205858e+01 1.431940156196360725e+01 -1.727603808261679603e+02 1.222517806425127276e+02 -2.078048511542877463e+02 -1.911615822875974686e+02 -1.676824618081444340e+00 -6.850740194650830972e+01 -2.244974918468612302e+01 8.090173360253868395e+01 5.193248874039954899e+01 -1.032428657435251722e+02 -1.407093748512210425e+02 1.352728692342016537e+01 1.148754764552876679e+02 1.915915386871880699e+01 -5.266913609228434723e+01 -4.801864572303750123e+01 -1.080458919375109517e+01 1.498828085014787348e+02 2.075803204999428431e+01 -1.643282802255218371e+02 1.214326394512791722e+02 -6.324383731061495695e+01 -3.943932929619817784e+00 1.456227680173033150e+02 -4.940593827148205008e+01 -1.854283618370298825e+01 -1.038823097852891237e+02 -5.663956735888515226e+00 -2.253676621382681233e+01 1.244764775672706207e+02 1.135034463134875580e+02 6.390646264190751680e+01 6.192943689542283892e+01 -1.768262837801261256e+01 1.277575844336438990e+02 -1.066630437481028935e+02 -4.012504552978379380e+00 -8.609690346095230495e+01 1.484797469396819452e+02 6.894699049742679620e+01 4.882302101550372697e+01 7.773088570062154368e+00 -5.043193498526249385e+01 3.250509308036705391e+01 6.329807206081990323e+00 3.516006221205616011e+00 2.276587241620417146e+01 5.651387252338930978e+01 1.609805324102148916e+02 -3.678094386159960294e+01 -4.911941073867205887e+01 6.315849758936459324e+01 1.093423958875789737e+02 -1.212401716690192544e+01 8.697153673148814335e+01 9.848686655808980106e+01 1.993352937149018942e+02 -8.180503712927175286e+01 -1.159472715927025774e+02 -2.709200673216632183e+01 5.879946712514264817e+01 -9.596168009531501397e+00 1.015325901563648046e+02 3.522917307140015453e+01 -1.537125150766002264e+02 4.257710945480864950e+01 -8.455038236821174280e+01 -1.278574619729620707e+02 1.271170970386880725e+02 -7.189872996567810048e+01 5.596225949670670730e+01 1.049884411727708056e+02 -9.348038747057313458e+01 2.223464661035216849e+01 -6.813633737043343785e+01 3.808296449658442384e+01 -1.083430190926076335e+02 5.821226086922154508e+01 5.166475529220261365e+01 3.604379799582369426e+00 7.930269857602834804e+01 -1.442887269043444292e+02 7.208292353605746428e+01 -2.773694115220779111e+01 -1.583484395849495172e+02 8.862159845356235621e+01 2.304167313675347728e+01 -1.837652773869731391e+02 2.205705551954785335e+02 -5.125825155730219240e-01 9.855134127458858018e+01 -1.130200508785317908e+02 -1.820041163096354069e+02 -8.746591746173568538e+01 2.369526086390095543e+00 1.338707860364740725e+02 3.673061379732518894e+00 -8.959015170660187266e+01 4.713976795111273788e+01 1.284379796540988536e+02 6.086374693201841524e+01 -4.844927113421410070e+01 -5.544302029907653662e+01 7.919472309906106489e+01 2.875595254717337212e+01 -1.833510423202699542e+02 -1.942573026848427631e+01 1.583992435926292899e+02 9.255362139443728609e+01 -5.375996162631074071e+01 -1.047846878035579152e+02 -3.998152668126854081e+01 -4.506441072131893577e+01 -1.072590140872513018e+02 -1.723451255424130224e+01 -4.278648418722173119e+01 -1.064916801411614529e+02 -1.236888001591106558e+02 -2.529655824954340559e+01 -1.178088491970349594e+02 -1.254934673010895239e+02 -3.592611551221703081e+01 -5.182893195745533887e+01 -1.040947146298886707e+02 1.807186158851361313e+02 1.020528008225798544e+01 -2.729848973190489403e+01 -1.649063219608422770e+01 7.637370303848975084e+01 1.520322341802266131e+01 2.431500903365990851e+01 -2.057471024257855774e+01 -4.498830026154693940e+01 2.028920517337736129e+01 -1.411563610388551240e+02 -1.545181863934732576e+02 -8.768692158630227595e+01 -1.852680970344338505e+02 -8.697290533219066333e+01 8.321429247773035343e+01 5.960279376174295862e+01 -2.527436822334083288e+01 5.898657005099658335e+01 -1.520345832169151379e+02 -3.974559448835388054e+01 -1.127681353796289159e+02 -6.478833475354558402e+01 2.048794495276458747e+02 -1.992826185635676097e+02 1.992543285988535615e+02 2.420188855484708057e+01 -5.476641935474652456e+01 8.946171920795438837e+01 1.204450668711448742e+02 -5.036374436231545815e+01 -1.978448800790580719e+02 -1.447299007561800579e+02 9.930820600793168751e+01 8.130400211798321664e+01 -1.315802313502144898e+02 3.097614912964947820e+01 -3.855241285980289945e+01 -7.514050471214675042e+01 -2.759966976147598317e+01 -5.319536554888406954e+01 -8.387210085150692862e+01 -3.309109072804182716e+01 4.434767365930603056e+00 -3.166158024194265863e+01 -3.343595756177420997e-01 -1.385948515536508374e+01 8.921216099126951349e+01 1.234322205979100033e+02 1.276500529285760877e+01 1.632494868834138657e+01 -6.133342711752870002e+01 -1.903781354614667407e+02 3.285322830877296241e+01 -8.901593042846199921e+01 2.509947128335218736e+01 -7.834947542895290162e+00 1.065350815919589467e+00 7.034774625053731256e+01 1.183452433264718877e+02 -6.845261023124872679e+01 3.688979678320604449e+01 -1.873312924285495740e+02 9.420672665788986322e+00 6.673590343502302069e+00 -1.190011194785785733e+02 -3.271054743905130380e+01 -4.303612586253115069e+01 4.616320959382684386e+00 -9.924838503137695511e+01 2.625545874535228918e+01 -9.478266543682985912e+01 5.436354654321357316e+01 6.591552310811900384e+01 3.583841552266925135e+01 -2.816493305437161965e+01 1.043660079930773605e+02 5.933906831200387444e+01 7.767793124081866551e+01 -6.506583917166277331e+01 1.962212158061795719e+01 1.241167487143624726e+02 -5.679830656870586836e+01 -6.720191265685217630e+00 3.103834962602379122e+01 -1.246666544667760093e+02 9.490484032297811723e+01 8.692947032058273749e+01 -9.822066328300454074e+01 -7.990088755431514755e+01 -5.390362300987179367e+01 -4.433811113288314232e+01 -1.554065894050620784e+02 -1.318216686039788215e+02 -1.285416296738364963e+02 1.024986506746459867e+02 5.804076707198099427e+01 1.547533517646817813e+02 6.999448660699391311e+00 -8.305238333138605356e+01 1.821191464074714972e+01 1.340262557606223126e+01 -6.167219187229936495e+01 7.179086541235088248e+01 1.144397881018424812e+02 9.626657291005477290e+00 1.388982481479034732e+02 2.177766017642172969e+01 1.074999273237291817e+02 1.457981318211320954e+01 -2.013306190139510363e+02 2.115748829529414934e+02 -4.740673387304158126e+01 -1.443557611340002609e+02 -6.507916407144736581e+01 -4.145684736615830701e+01 3.996802239487760744e+01 2.469104707972497437e+01 4.413798734473865437e+01 -7.136058155449899232e+01 1.179074303329063014e+02 -8.308823703827356155e+01 -6.755329816732062120e+00 1.370518432519103555e+02 1.054171812726052622e+02 5.585320934977670504e+01 -1.702400584609337670e+02 2.444814993039739193e+01 1.348920481388602468e+02 2.249616601038070129e+01 9.371229613872556286e+01 1.021398877324618581e+02 -2.029745110224224334e+02 7.378266208722234865e+01 -5.537642952529138540e+01 -2.156322103196028763e+02 8.478729045976531609e+01 2.350328360168311193e+01 -1.162788245307672952e+02 -5.571798339818715817e+01 1.318444100624142266e+02 1.400657914904169559e+02 -7.194570255053956487e+01 -1.210250508457003917e+02 -7.890310184222012424e+01 -1.566943933584238380e+02 1.848750317739130011e+01 3.582256247514963832e+01 -1.605940895850607575e+01 -1.166858448424572536e+01 -8.426092483186612014e+01 -8.296456555469114846e+01 -2.317394861748683610e+01 1.253906546278694520e+02 1.273302664135099889e+02 7.577603178155412422e+01 9.068012310436250800e+01 -7.318967077955885259e+01 -1.683444007290925981e+02 -1.225785560675778640e+01 -2.146978675457744146e+01 -6.608415717393845057e+01 1.370086883277997769e+00 6.789945145792609082e+01 -4.917773300752207177e+01 2.301164592486976446e+01 7.362275003743370405e+01 6.517878891554464360e+01 1.027879916041365931e+02 -1.386436343974251315e+02 3.683750359319345336e+01 7.744651787239311602e+01 8.808392493147913171e+01 5.487101293692204251e+01 -9.596019060240931253e+01 1.272682685253908659e+02 1.185235146039298400e+02 8.911180873831534655e+01 9.439071069094275401e+01 -7.826658040643938818e+01 -1.380250341191110941e+01 -1.205412887051996584e+01 7.159504759053827172e+01 6.040239204109340676e+01 5.210789537818005357e+01 9.067279828229538907e+01 1.083253512437877504e+02 1.152779154075434036e+02 -6.022199900942092654e+01 7.494744233051544313e+01 6.062286442604070658e+01 -1.093820226795048001e+02 1.223466399002149956e+02 -9.307705006676258108e+00 -2.597633207604088312e+01 1.853835449853587818e+02 8.235289444514107515e+01 1.155014026375380212e+02 -1.343467096771084073e+02 -1.468835574354728237e+02 -1.430083623382010387e+02 -1.137102605950938994e+02 -4.123744968463136473e+01 1.021953250962883146e+02 -1.571532517669645586e+02 3.026785118173748756e+01 1.345212113002559136e+02 -5.534147224222117245e+01 -8.515265603126334781e+01 -3.278140397728019195e+01 1.266886754000934872e+02 2.120139088937841620e+02 -6.227764810075751001e+01 1.850813815306080201e+01 -2.581872059123858065e+01 6.395026917962056956e+01 5.622251901678419728e+01 -1.991313754872072366e+02 -8.282444680910026591e+01 1.285427584641077488e+02 1.305962840553224282e+02 8.832716327244678212e+01 -4.660042074480529806e+01 -7.081366680864458374e+01 -4.238821635449947678e+01 -1.650992547361381355e+02 6.647978674012932743e+01 -2.396254527626156872e+01 1.555563335329327117e+02 -2.614400748950113140e+01 -2.942794732760123111e+02 1.354819529959726481e+02 4.692088704613527739e+01 -1.103104639642490383e+02 -2.077787057728261999e+01 3.301347301711802373e+01 -1.943269332946920258e+02 -1.068905396348671246e+02 -1.026333584870458111e+02 -5.273566836514774536e+01 5.873255296500066436e+01 -1.543012941902233024e+02 1.009437493031014839e+02 -5.084682575343893518e+01 2.753156285601281450e+00 -1.248829603801187886e+02 -9.709624115712236403e+01 1.646041483447106941e+02 8.113908367711323422e+01 -3.953727408040663249e+01 3.475597357633625961e+01 -2.624955773267550541e+01 4.060451788240401072e+01 -9.797796676432324148e+01 9.270290078947466839e+01 4.727354564651117386e+01 -1.113492205448947914e+02 1.093463803372610812e+02 -4.597604455865024420e+01 9.357027455035117214e+01 -4.626183451795456136e+01 8.276556935252072833e+01 -1.436912038438099728e+02 1.337424921678681926e+02 2.319119868723352695e+01 9.434313943116477219e+01 1.222320138428798799e+02 -1.374514440053438875e+02 -8.051801969706305329e+01 -9.901575727051182696e+01 6.266504771139641861e+01 -1.606282014061949894e+02 1.421161553590688129e+02 1.334200126620518461e+02 4.965420374399229075e+01 -7.959938006672686583e+01 5.351620440812927626e+01 -1.006780088091301053e+02 -1.022313607904546373e+01 3.277524157705424557e+01 -1.723055385066485314e+02 -7.647038350958079889e+01 -1.269234933755993744e+01 9.581971608237299165e+01 -4.711308928793366135e+01 1.020481691501066592e+02 -6.032334141842880371e+01 -1.977286393869356687e+02 -1.004717044354905653e+02 -3.189261366148446442e+01 -5.645531325150432167e+01 2.821825487750136574e+01 4.829737733743355221e+01 5.933343290187067964e+00 2.389623685545172904e+01 -1.102237031819052362e+02 5.063239980330803292e+01 3.065432840773256729e+01 -6.773093295405361403e+01 8.738029874318748114e+00 5.301295147187921231e+01 -8.961083360298515288e+01 -5.178390384432211846e+01 -2.273919527667479201e+01 9.166386325787863143e+01 -1.610217537840169300e+01 3.945529363597247929e+00 -2.144781632255649413e+02 -8.930075147235874056e+01 9.302483310875987854e+01 -8.377152909335895004e+01 2.945510963701028473e+01 2.919174217807707095e+01 3.560635213589514336e+01 6.212744755924245510e+01 -1.668605936968071433e+02 1.354108275622145356e+02 7.674746098145216422e+01 -7.110514737052909595e+00 -7.598917308923473968e+01 1.051648451470256305e+02 5.840832932414085121e+01 -1.892027652274659602e+02 -4.736884939601685574e+01 -7.688129830131883580e+01 -4.869737248083988135e+01 -5.820300046026723351e+01 -9.309064919152338291e+01 -5.676600389125911761e+01 1.802066614391146118e+02 -1.605884197041457071e+02 6.157149302142997982e+01 2.610660689225922582e+01 -7.075127103994392996e+01 9.795361030617163678e+00 -3.712192238914045817e+01 3.245244022623382296e+00 -9.048454967564684637e+01 -1.859206309393184995e+02 1.731078004863511310e+01 3.940425545293933141e+01 -1.203614575656749075e+01 -8.384753384009083987e+00 -3.742895086194751286e+01 -1.786730659790543427e+02 -2.880956031857055066e+01 -6.149210829471947903e+01 1.308870423915841030e+01 -1.470236390576141616e+01 8.529416924742659489e+01 -5.933047591585770419e+01 -9.756830277319731692e+01 -3.355576382563918258e+01 -8.420722865299865134e+00 4.271208397911014032e+01 -2.079686394655351833e+01 -6.954772103837946418e+01 -1.495648757527828998e+01 1.884574028594033734e+01 4.471165737773787896e+01 -1.072699987348170509e+02 -1.308552566381776785e+02 2.168591095659902521e+02 -2.055178316119099691e+02 -7.145604846991004422e+01 -4.358658258828652521e+01 1.316514404744406193e+02 5.956802921114324079e+01 2.156022889136436902e+02 2.304738996024030939e+02 -5.874291526337403013e+01 1.218582854541130587e+02 -5.282663731353343906e+01 -3.844987000313547298e+01 -9.471623808559425584e+01 -7.517431609113059210e+01 -6.545717113963786460e+01 -8.385546946599801288e+01 -2.295743680785157892e+02 -2.550145101757698001e+02 1.268054835033602075e+02 -2.500638004547689874e+01 5.017007262078165297e+01 1.233251208241128580e+02
