# 
#                 ----------------------------------------------------
#                 Data from a 3D direct N-body simulation. 
# 
#                 rows are i-particle; 
#                 coumns are :mass, tag, x ,y, z, vx, vy, vz, ax, ay, az
# 
#                 NTHU, Computational Physics Lab
# 
#                 ----------------------------------------------------
#                 Time = 5.099999999999936
1.000000000000000000e+00 2.000000000000000000e+00 3.000000000000000000e+00 4.000000000000000000e+00 5.000000000000000000e+00 6.000000000000000000e+00 7.000000000000000000e+00 8.000000000000000000e+00 9.000000000000000000e+00 1.000000000000000000e+01 1.100000000000000000e+01 1.200000000000000000e+01 1.300000000000000000e+01 1.400000000000000000e+01 1.500000000000000000e+01 1.600000000000000000e+01 1.700000000000000000e+01 1.800000000000000000e+01 1.900000000000000000e+01 2.000000000000000000e+01 2.100000000000000000e+01 2.200000000000000000e+01 2.300000000000000000e+01 2.400000000000000000e+01 2.500000000000000000e+01 2.600000000000000000e+01 2.700000000000000000e+01 2.800000000000000000e+01 2.900000000000000000e+01 3.000000000000000000e+01 3.100000000000000000e+01 3.200000000000000000e+01 3.300000000000000000e+01 3.400000000000000000e+01 3.500000000000000000e+01 3.600000000000000000e+01 3.700000000000000000e+01 3.800000000000000000e+01 3.900000000000000000e+01 4.000000000000000000e+01 4.100000000000000000e+01 4.200000000000000000e+01 4.300000000000000000e+01 4.400000000000000000e+01 4.500000000000000000e+01 4.600000000000000000e+01 4.700000000000000000e+01 4.800000000000000000e+01 4.900000000000000000e+01 5.000000000000000000e+01 5.100000000000000000e+01 5.200000000000000000e+01 5.300000000000000000e+01 5.400000000000000000e+01 5.500000000000000000e+01 5.600000000000000000e+01 5.700000000000000000e+01 5.800000000000000000e+01 5.900000000000000000e+01 6.000000000000000000e+01 6.100000000000000000e+01 6.200000000000000000e+01 6.300000000000000000e+01 6.400000000000000000e+01 6.500000000000000000e+01 6.600000000000000000e+01 6.700000000000000000e+01 6.800000000000000000e+01 6.900000000000000000e+01 7.000000000000000000e+01 7.100000000000000000e+01 7.200000000000000000e+01 7.300000000000000000e+01 7.400000000000000000e+01 7.500000000000000000e+01 7.600000000000000000e+01 7.700000000000000000e+01 7.800000000000000000e+01 7.900000000000000000e+01 8.000000000000000000e+01 8.100000000000000000e+01 8.200000000000000000e+01 8.300000000000000000e+01 8.400000000000000000e+01 8.500000000000000000e+01 8.600000000000000000e+01 8.700000000000000000e+01 8.800000000000000000e+01 8.900000000000000000e+01 9.000000000000000000e+01 9.100000000000000000e+01 9.200000000000000000e+01 9.300000000000000000e+01 9.400000000000000000e+01 9.500000000000000000e+01 9.600000000000000000e+01 9.700000000000000000e+01 9.800000000000000000e+01 9.900000000000000000e+01 1.000000000000000000e+02 1.010000000000000000e+02 1.020000000000000000e+02 1.030000000000000000e+02 1.040000000000000000e+02 1.050000000000000000e+02 1.060000000000000000e+02 1.070000000000000000e+02 1.080000000000000000e+02 1.090000000000000000e+02 1.100000000000000000e+02 1.110000000000000000e+02 1.120000000000000000e+02 1.130000000000000000e+02 1.140000000000000000e+02 1.150000000000000000e+02 1.160000000000000000e+02 1.170000000000000000e+02 1.180000000000000000e+02 1.190000000000000000e+02 1.200000000000000000e+02 1.210000000000000000e+02 1.220000000000000000e+02 1.230000000000000000e+02 1.240000000000000000e+02 1.250000000000000000e+02 1.260000000000000000e+02 1.270000000000000000e+02 1.280000000000000000e+02 1.290000000000000000e+02 1.300000000000000000e+02 1.310000000000000000e+02 1.320000000000000000e+02 1.330000000000000000e+02 1.340000000000000000e+02 1.350000000000000000e+02 1.360000000000000000e+02 1.370000000000000000e+02 1.380000000000000000e+02 1.390000000000000000e+02 1.400000000000000000e+02 1.410000000000000000e+02 1.420000000000000000e+02 1.430000000000000000e+02 1.440000000000000000e+02 1.450000000000000000e+02 1.460000000000000000e+02 1.470000000000000000e+02 1.480000000000000000e+02 1.490000000000000000e+02 1.500000000000000000e+02 1.510000000000000000e+02 1.520000000000000000e+02 1.530000000000000000e+02 1.540000000000000000e+02 1.550000000000000000e+02 1.560000000000000000e+02 1.570000000000000000e+02 1.580000000000000000e+02 1.590000000000000000e+02 1.600000000000000000e+02 1.610000000000000000e+02 1.620000000000000000e+02 1.630000000000000000e+02 1.640000000000000000e+02 1.650000000000000000e+02 1.660000000000000000e+02 1.670000000000000000e+02 1.680000000000000000e+02 1.690000000000000000e+02 1.700000000000000000e+02 1.710000000000000000e+02 1.720000000000000000e+02 1.730000000000000000e+02 1.740000000000000000e+02 1.750000000000000000e+02 1.760000000000000000e+02 1.770000000000000000e+02 1.780000000000000000e+02 1.790000000000000000e+02 1.800000000000000000e+02 1.810000000000000000e+02 1.820000000000000000e+02 1.830000000000000000e+02 1.840000000000000000e+02 1.850000000000000000e+02 1.860000000000000000e+02 1.870000000000000000e+02 1.880000000000000000e+02 1.890000000000000000e+02 1.900000000000000000e+02 1.910000000000000000e+02 1.920000000000000000e+02 1.930000000000000000e+02 1.940000000000000000e+02 1.950000000000000000e+02 1.960000000000000000e+02 1.970000000000000000e+02 1.980000000000000000e+02 1.990000000000000000e+02 2.000000000000000000e+02 2.010000000000000000e+02 2.020000000000000000e+02 2.030000000000000000e+02 2.040000000000000000e+02 2.050000000000000000e+02 2.060000000000000000e+02 2.070000000000000000e+02 2.080000000000000000e+02 2.090000000000000000e+02 2.100000000000000000e+02 2.110000000000000000e+02 2.120000000000000000e+02 2.130000000000000000e+02 2.140000000000000000e+02 2.150000000000000000e+02 2.160000000000000000e+02 2.170000000000000000e+02 2.180000000000000000e+02 2.190000000000000000e+02 2.200000000000000000e+02 2.210000000000000000e+02 2.220000000000000000e+02 2.230000000000000000e+02 2.240000000000000000e+02 2.250000000000000000e+02 2.260000000000000000e+02 2.270000000000000000e+02 2.280000000000000000e+02 2.290000000000000000e+02 2.300000000000000000e+02 2.310000000000000000e+02 2.320000000000000000e+02 2.330000000000000000e+02 2.340000000000000000e+02 2.350000000000000000e+02 2.360000000000000000e+02 2.370000000000000000e+02 2.380000000000000000e+02 2.390000000000000000e+02 2.400000000000000000e+02 2.410000000000000000e+02 2.420000000000000000e+02 2.430000000000000000e+02 2.440000000000000000e+02 2.450000000000000000e+02 2.460000000000000000e+02 2.470000000000000000e+02 2.480000000000000000e+02 2.490000000000000000e+02 2.500000000000000000e+02 2.510000000000000000e+02 2.520000000000000000e+02 2.530000000000000000e+02 2.540000000000000000e+02 2.550000000000000000e+02 2.560000000000000000e+02 2.570000000000000000e+02 2.580000000000000000e+02 2.590000000000000000e+02 2.600000000000000000e+02 2.610000000000000000e+02 2.620000000000000000e+02 2.630000000000000000e+02 2.640000000000000000e+02 2.650000000000000000e+02 2.660000000000000000e+02 2.670000000000000000e+02 2.680000000000000000e+02 2.690000000000000000e+02 2.700000000000000000e+02 2.710000000000000000e+02 2.720000000000000000e+02 2.730000000000000000e+02 2.740000000000000000e+02 2.750000000000000000e+02 2.760000000000000000e+02 2.770000000000000000e+02 2.780000000000000000e+02 2.790000000000000000e+02 2.800000000000000000e+02 2.810000000000000000e+02 2.820000000000000000e+02 2.830000000000000000e+02 2.840000000000000000e+02 2.850000000000000000e+02 2.860000000000000000e+02 2.870000000000000000e+02 2.880000000000000000e+02 2.890000000000000000e+02 2.900000000000000000e+02 2.910000000000000000e+02 2.920000000000000000e+02 2.930000000000000000e+02 2.940000000000000000e+02 2.950000000000000000e+02 2.960000000000000000e+02 2.970000000000000000e+02 2.980000000000000000e+02 2.990000000000000000e+02 3.000000000000000000e+02 3.010000000000000000e+02 3.020000000000000000e+02 3.030000000000000000e+02 3.040000000000000000e+02 3.050000000000000000e+02 3.060000000000000000e+02 3.070000000000000000e+02 3.080000000000000000e+02 3.090000000000000000e+02 3.100000000000000000e+02 3.110000000000000000e+02 3.120000000000000000e+02 3.130000000000000000e+02 3.140000000000000000e+02 3.150000000000000000e+02 3.160000000000000000e+02 3.170000000000000000e+02 3.180000000000000000e+02 3.190000000000000000e+02 3.200000000000000000e+02 3.210000000000000000e+02 3.220000000000000000e+02 3.230000000000000000e+02 3.240000000000000000e+02 3.250000000000000000e+02 3.260000000000000000e+02 3.270000000000000000e+02 3.280000000000000000e+02 3.290000000000000000e+02 3.300000000000000000e+02 3.310000000000000000e+02 3.320000000000000000e+02 3.330000000000000000e+02 3.340000000000000000e+02 3.350000000000000000e+02 3.360000000000000000e+02 3.370000000000000000e+02 3.380000000000000000e+02 3.390000000000000000e+02 3.400000000000000000e+02 3.410000000000000000e+02 3.420000000000000000e+02 3.430000000000000000e+02 3.440000000000000000e+02 3.450000000000000000e+02 3.460000000000000000e+02 3.470000000000000000e+02 3.480000000000000000e+02 3.490000000000000000e+02 3.500000000000000000e+02 3.510000000000000000e+02 3.520000000000000000e+02 3.530000000000000000e+02 3.540000000000000000e+02 3.550000000000000000e+02 3.560000000000000000e+02 3.570000000000000000e+02 3.580000000000000000e+02 3.590000000000000000e+02 3.600000000000000000e+02 3.610000000000000000e+02 3.620000000000000000e+02 3.630000000000000000e+02 3.640000000000000000e+02 3.650000000000000000e+02 3.660000000000000000e+02 3.670000000000000000e+02 3.680000000000000000e+02 3.690000000000000000e+02 3.700000000000000000e+02 3.710000000000000000e+02 3.720000000000000000e+02 3.730000000000000000e+02 3.740000000000000000e+02 3.750000000000000000e+02 3.760000000000000000e+02 3.770000000000000000e+02 3.780000000000000000e+02 3.790000000000000000e+02 3.800000000000000000e+02 3.810000000000000000e+02 3.820000000000000000e+02 3.830000000000000000e+02 3.840000000000000000e+02 3.850000000000000000e+02 3.860000000000000000e+02 3.870000000000000000e+02 3.880000000000000000e+02 3.890000000000000000e+02 3.900000000000000000e+02 3.910000000000000000e+02 3.920000000000000000e+02 3.930000000000000000e+02 3.940000000000000000e+02 3.950000000000000000e+02 3.960000000000000000e+02 3.970000000000000000e+02 3.980000000000000000e+02 3.990000000000000000e+02 4.000000000000000000e+02 4.010000000000000000e+02 4.020000000000000000e+02 4.030000000000000000e+02 4.040000000000000000e+02 4.050000000000000000e+02 4.060000000000000000e+02 4.070000000000000000e+02 4.080000000000000000e+02 4.090000000000000000e+02 4.100000000000000000e+02 4.110000000000000000e+02 4.120000000000000000e+02 4.130000000000000000e+02 4.140000000000000000e+02 4.150000000000000000e+02 4.160000000000000000e+02 4.170000000000000000e+02 4.180000000000000000e+02 4.190000000000000000e+02 4.200000000000000000e+02 4.210000000000000000e+02 4.220000000000000000e+02 4.230000000000000000e+02 4.240000000000000000e+02 4.250000000000000000e+02 4.260000000000000000e+02 4.270000000000000000e+02 4.280000000000000000e+02 4.290000000000000000e+02 4.300000000000000000e+02 4.310000000000000000e+02 4.320000000000000000e+02 4.330000000000000000e+02 4.340000000000000000e+02 4.350000000000000000e+02 4.360000000000000000e+02 4.370000000000000000e+02 4.380000000000000000e+02 4.390000000000000000e+02 4.400000000000000000e+02 4.410000000000000000e+02 4.420000000000000000e+02 4.430000000000000000e+02 4.440000000000000000e+02 4.450000000000000000e+02 4.460000000000000000e+02 4.470000000000000000e+02 4.480000000000000000e+02 4.490000000000000000e+02 4.500000000000000000e+02 4.510000000000000000e+02 4.520000000000000000e+02 4.530000000000000000e+02 4.540000000000000000e+02 4.550000000000000000e+02 4.560000000000000000e+02 4.570000000000000000e+02 4.580000000000000000e+02 4.590000000000000000e+02 4.600000000000000000e+02 4.610000000000000000e+02 4.620000000000000000e+02 4.630000000000000000e+02 4.640000000000000000e+02 4.650000000000000000e+02 4.660000000000000000e+02 4.670000000000000000e+02 4.680000000000000000e+02 4.690000000000000000e+02 4.700000000000000000e+02 4.710000000000000000e+02 4.720000000000000000e+02 4.730000000000000000e+02 4.740000000000000000e+02 4.750000000000000000e+02 4.760000000000000000e+02 4.770000000000000000e+02 4.780000000000000000e+02 4.790000000000000000e+02 4.800000000000000000e+02 4.810000000000000000e+02 4.820000000000000000e+02 4.830000000000000000e+02 4.840000000000000000e+02 4.850000000000000000e+02 4.860000000000000000e+02 4.870000000000000000e+02 4.880000000000000000e+02 4.890000000000000000e+02 4.900000000000000000e+02 4.910000000000000000e+02 4.920000000000000000e+02 4.930000000000000000e+02 4.940000000000000000e+02 4.950000000000000000e+02 4.960000000000000000e+02 4.970000000000000000e+02 4.980000000000000000e+02 4.990000000000000000e+02 5.000000000000000000e+02 5.010000000000000000e+02 5.020000000000000000e+02 5.030000000000000000e+02 5.040000000000000000e+02 5.050000000000000000e+02 5.060000000000000000e+02 5.070000000000000000e+02 5.080000000000000000e+02 5.090000000000000000e+02 5.100000000000000000e+02 5.110000000000000000e+02 5.120000000000000000e+02 5.130000000000000000e+02 5.140000000000000000e+02 5.150000000000000000e+02 5.160000000000000000e+02 5.170000000000000000e+02 5.180000000000000000e+02 5.190000000000000000e+02 5.200000000000000000e+02 5.210000000000000000e+02 5.220000000000000000e+02 5.230000000000000000e+02 5.240000000000000000e+02 5.250000000000000000e+02 5.260000000000000000e+02 5.270000000000000000e+02 5.280000000000000000e+02 5.290000000000000000e+02 5.300000000000000000e+02 5.310000000000000000e+02 5.320000000000000000e+02 5.330000000000000000e+02 5.340000000000000000e+02 5.350000000000000000e+02 5.360000000000000000e+02 5.370000000000000000e+02 5.380000000000000000e+02 5.390000000000000000e+02 5.400000000000000000e+02 5.410000000000000000e+02 5.420000000000000000e+02 5.430000000000000000e+02 5.440000000000000000e+02 5.450000000000000000e+02 5.460000000000000000e+02 5.470000000000000000e+02 5.480000000000000000e+02 5.490000000000000000e+02 5.500000000000000000e+02 5.510000000000000000e+02 5.520000000000000000e+02 5.530000000000000000e+02 5.540000000000000000e+02 5.550000000000000000e+02 5.560000000000000000e+02 5.570000000000000000e+02 5.580000000000000000e+02 5.590000000000000000e+02 5.600000000000000000e+02 5.610000000000000000e+02 5.620000000000000000e+02 5.630000000000000000e+02 5.640000000000000000e+02 5.650000000000000000e+02 5.660000000000000000e+02 5.670000000000000000e+02 5.680000000000000000e+02 5.690000000000000000e+02 5.700000000000000000e+02 5.710000000000000000e+02 5.720000000000000000e+02 5.730000000000000000e+02 5.740000000000000000e+02 5.750000000000000000e+02 5.760000000000000000e+02 5.770000000000000000e+02 5.780000000000000000e+02 5.790000000000000000e+02 5.800000000000000000e+02 5.810000000000000000e+02 5.820000000000000000e+02 5.830000000000000000e+02 5.840000000000000000e+02 5.850000000000000000e+02 5.860000000000000000e+02 5.870000000000000000e+02 5.880000000000000000e+02 5.890000000000000000e+02 5.900000000000000000e+02 5.910000000000000000e+02 5.920000000000000000e+02 5.930000000000000000e+02 5.940000000000000000e+02 5.950000000000000000e+02 5.960000000000000000e+02 5.970000000000000000e+02 5.980000000000000000e+02 5.990000000000000000e+02 6.000000000000000000e+02 6.010000000000000000e+02 6.020000000000000000e+02 6.030000000000000000e+02 6.040000000000000000e+02 6.050000000000000000e+02 6.060000000000000000e+02 6.070000000000000000e+02 6.080000000000000000e+02 6.090000000000000000e+02 6.100000000000000000e+02 6.110000000000000000e+02 6.120000000000000000e+02 6.130000000000000000e+02 6.140000000000000000e+02 6.150000000000000000e+02 6.160000000000000000e+02 6.170000000000000000e+02 6.180000000000000000e+02 6.190000000000000000e+02 6.200000000000000000e+02 6.210000000000000000e+02 6.220000000000000000e+02 6.230000000000000000e+02 6.240000000000000000e+02 6.250000000000000000e+02 6.260000000000000000e+02 6.270000000000000000e+02 6.280000000000000000e+02 6.290000000000000000e+02 6.300000000000000000e+02 6.310000000000000000e+02 6.320000000000000000e+02 6.330000000000000000e+02 6.340000000000000000e+02 6.350000000000000000e+02 6.360000000000000000e+02 6.370000000000000000e+02 6.380000000000000000e+02 6.390000000000000000e+02 6.400000000000000000e+02 6.410000000000000000e+02 6.420000000000000000e+02 6.430000000000000000e+02 6.440000000000000000e+02 6.450000000000000000e+02 6.460000000000000000e+02 6.470000000000000000e+02 6.480000000000000000e+02 6.490000000000000000e+02 6.500000000000000000e+02 6.510000000000000000e+02 6.520000000000000000e+02 6.530000000000000000e+02 6.540000000000000000e+02 6.550000000000000000e+02 6.560000000000000000e+02 6.570000000000000000e+02 6.580000000000000000e+02 6.590000000000000000e+02 6.600000000000000000e+02 6.610000000000000000e+02 6.620000000000000000e+02 6.630000000000000000e+02 6.640000000000000000e+02 6.650000000000000000e+02 6.660000000000000000e+02 6.670000000000000000e+02 6.680000000000000000e+02 6.690000000000000000e+02 6.700000000000000000e+02 6.710000000000000000e+02 6.720000000000000000e+02 6.730000000000000000e+02 6.740000000000000000e+02 6.750000000000000000e+02 6.760000000000000000e+02 6.770000000000000000e+02 6.780000000000000000e+02 6.790000000000000000e+02 6.800000000000000000e+02 6.810000000000000000e+02 6.820000000000000000e+02 6.830000000000000000e+02 6.840000000000000000e+02 6.850000000000000000e+02 6.860000000000000000e+02 6.870000000000000000e+02 6.880000000000000000e+02 6.890000000000000000e+02 6.900000000000000000e+02 6.910000000000000000e+02 6.920000000000000000e+02 6.930000000000000000e+02 6.940000000000000000e+02 6.950000000000000000e+02 6.960000000000000000e+02 6.970000000000000000e+02 6.980000000000000000e+02 6.990000000000000000e+02 7.000000000000000000e+02 7.010000000000000000e+02 7.020000000000000000e+02 7.030000000000000000e+02 7.040000000000000000e+02 7.050000000000000000e+02 7.060000000000000000e+02 7.070000000000000000e+02 7.080000000000000000e+02 7.090000000000000000e+02 7.100000000000000000e+02 7.110000000000000000e+02 7.120000000000000000e+02 7.130000000000000000e+02 7.140000000000000000e+02 7.150000000000000000e+02 7.160000000000000000e+02 7.170000000000000000e+02 7.180000000000000000e+02 7.190000000000000000e+02 7.200000000000000000e+02 7.210000000000000000e+02 7.220000000000000000e+02 7.230000000000000000e+02 7.240000000000000000e+02 7.250000000000000000e+02 7.260000000000000000e+02 7.270000000000000000e+02 7.280000000000000000e+02 7.290000000000000000e+02 7.300000000000000000e+02 7.310000000000000000e+02 7.320000000000000000e+02 7.330000000000000000e+02 7.340000000000000000e+02 7.350000000000000000e+02 7.360000000000000000e+02 7.370000000000000000e+02 7.380000000000000000e+02 7.390000000000000000e+02 7.400000000000000000e+02 7.410000000000000000e+02 7.420000000000000000e+02 7.430000000000000000e+02 7.440000000000000000e+02 7.450000000000000000e+02 7.460000000000000000e+02 7.470000000000000000e+02 7.480000000000000000e+02 7.490000000000000000e+02 7.500000000000000000e+02 7.510000000000000000e+02 7.520000000000000000e+02 7.530000000000000000e+02 7.540000000000000000e+02 7.550000000000000000e+02 7.560000000000000000e+02 7.570000000000000000e+02 7.580000000000000000e+02 7.590000000000000000e+02 7.600000000000000000e+02 7.610000000000000000e+02 7.620000000000000000e+02 7.630000000000000000e+02 7.640000000000000000e+02 7.650000000000000000e+02 7.660000000000000000e+02 7.670000000000000000e+02 7.680000000000000000e+02 7.690000000000000000e+02 7.700000000000000000e+02 7.710000000000000000e+02 7.720000000000000000e+02 7.730000000000000000e+02 7.740000000000000000e+02 7.750000000000000000e+02 7.760000000000000000e+02 7.770000000000000000e+02 7.780000000000000000e+02 7.790000000000000000e+02 7.800000000000000000e+02 7.810000000000000000e+02 7.820000000000000000e+02 7.830000000000000000e+02 7.840000000000000000e+02 7.850000000000000000e+02 7.860000000000000000e+02 7.870000000000000000e+02 7.880000000000000000e+02 7.890000000000000000e+02 7.900000000000000000e+02 7.910000000000000000e+02 7.920000000000000000e+02 7.930000000000000000e+02 7.940000000000000000e+02 7.950000000000000000e+02 7.960000000000000000e+02 7.970000000000000000e+02 7.980000000000000000e+02 7.990000000000000000e+02 8.000000000000000000e+02 8.010000000000000000e+02 8.020000000000000000e+02 8.030000000000000000e+02 8.040000000000000000e+02 8.050000000000000000e+02 8.060000000000000000e+02 8.070000000000000000e+02 8.080000000000000000e+02 8.090000000000000000e+02 8.100000000000000000e+02 8.110000000000000000e+02 8.120000000000000000e+02 8.130000000000000000e+02 8.140000000000000000e+02 8.150000000000000000e+02 8.160000000000000000e+02 8.170000000000000000e+02 8.180000000000000000e+02 8.190000000000000000e+02 8.200000000000000000e+02 8.210000000000000000e+02 8.220000000000000000e+02 8.230000000000000000e+02 8.240000000000000000e+02 8.250000000000000000e+02 8.260000000000000000e+02 8.270000000000000000e+02 8.280000000000000000e+02 8.290000000000000000e+02 8.300000000000000000e+02 8.310000000000000000e+02 8.320000000000000000e+02 8.330000000000000000e+02 8.340000000000000000e+02 8.350000000000000000e+02 8.360000000000000000e+02 8.370000000000000000e+02 8.380000000000000000e+02 8.390000000000000000e+02 8.400000000000000000e+02 8.410000000000000000e+02 8.420000000000000000e+02 8.430000000000000000e+02 8.440000000000000000e+02 8.450000000000000000e+02 8.460000000000000000e+02 8.470000000000000000e+02 8.480000000000000000e+02 8.490000000000000000e+02 8.500000000000000000e+02 8.510000000000000000e+02 8.520000000000000000e+02 8.530000000000000000e+02 8.540000000000000000e+02 8.550000000000000000e+02 8.560000000000000000e+02 8.570000000000000000e+02 8.580000000000000000e+02 8.590000000000000000e+02 8.600000000000000000e+02 8.610000000000000000e+02 8.620000000000000000e+02 8.630000000000000000e+02 8.640000000000000000e+02 8.650000000000000000e+02 8.660000000000000000e+02 8.670000000000000000e+02 8.680000000000000000e+02 8.690000000000000000e+02 8.700000000000000000e+02 8.710000000000000000e+02 8.720000000000000000e+02 8.730000000000000000e+02 8.740000000000000000e+02 8.750000000000000000e+02 8.760000000000000000e+02 8.770000000000000000e+02 8.780000000000000000e+02 8.790000000000000000e+02 8.800000000000000000e+02 8.810000000000000000e+02 8.820000000000000000e+02 8.830000000000000000e+02 8.840000000000000000e+02 8.850000000000000000e+02 8.860000000000000000e+02 8.870000000000000000e+02 8.880000000000000000e+02 8.890000000000000000e+02 8.900000000000000000e+02 8.910000000000000000e+02 8.920000000000000000e+02 8.930000000000000000e+02 8.940000000000000000e+02 8.950000000000000000e+02 8.960000000000000000e+02 8.970000000000000000e+02 8.980000000000000000e+02 8.990000000000000000e+02 9.000000000000000000e+02 9.010000000000000000e+02 9.020000000000000000e+02 9.030000000000000000e+02 9.040000000000000000e+02 9.050000000000000000e+02 9.060000000000000000e+02 9.070000000000000000e+02 9.080000000000000000e+02 9.090000000000000000e+02 9.100000000000000000e+02 9.110000000000000000e+02 9.120000000000000000e+02 9.130000000000000000e+02 9.140000000000000000e+02 9.150000000000000000e+02 9.160000000000000000e+02 9.170000000000000000e+02 9.180000000000000000e+02 9.190000000000000000e+02 9.200000000000000000e+02 9.210000000000000000e+02 9.220000000000000000e+02 9.230000000000000000e+02 9.240000000000000000e+02 9.250000000000000000e+02 9.260000000000000000e+02 9.270000000000000000e+02 9.280000000000000000e+02 9.290000000000000000e+02 9.300000000000000000e+02 9.310000000000000000e+02 9.320000000000000000e+02 9.330000000000000000e+02 9.340000000000000000e+02 9.350000000000000000e+02 9.360000000000000000e+02 9.370000000000000000e+02 9.380000000000000000e+02 9.390000000000000000e+02 9.400000000000000000e+02 9.410000000000000000e+02 9.420000000000000000e+02 9.430000000000000000e+02 9.440000000000000000e+02 9.450000000000000000e+02 9.460000000000000000e+02 9.470000000000000000e+02 9.480000000000000000e+02 9.490000000000000000e+02 9.500000000000000000e+02 9.510000000000000000e+02 9.520000000000000000e+02 9.530000000000000000e+02 9.540000000000000000e+02 9.550000000000000000e+02 9.560000000000000000e+02 9.570000000000000000e+02 9.580000000000000000e+02 9.590000000000000000e+02 9.600000000000000000e+02 9.610000000000000000e+02 9.620000000000000000e+02 9.630000000000000000e+02 9.640000000000000000e+02 9.650000000000000000e+02 9.660000000000000000e+02 9.670000000000000000e+02 9.680000000000000000e+02 9.690000000000000000e+02 9.700000000000000000e+02 9.710000000000000000e+02 9.720000000000000000e+02 9.730000000000000000e+02 9.740000000000000000e+02 9.750000000000000000e+02 9.760000000000000000e+02 9.770000000000000000e+02 9.780000000000000000e+02 9.790000000000000000e+02 9.800000000000000000e+02 9.810000000000000000e+02 9.820000000000000000e+02 9.830000000000000000e+02 9.840000000000000000e+02 9.850000000000000000e+02 9.860000000000000000e+02 9.870000000000000000e+02 9.880000000000000000e+02 9.890000000000000000e+02 9.900000000000000000e+02 9.910000000000000000e+02 9.920000000000000000e+02 9.930000000000000000e+02 9.940000000000000000e+02 9.950000000000000000e+02 9.960000000000000000e+02 9.970000000000000000e+02 9.980000000000000000e+02 9.990000000000000000e+02 1.000000000000000000e+03
1.000000000000000021e-02 1.000000000000000021e-02 1.000000000000000021e-02 1.000000000000000021e-02 1.000000000000000021e-02 1.000000000000000021e-02 1.000000000000000021e-02 1.000000000000000021e-02 1.000000000000000021e-02 1.000000000000000021e-02 1.000000000000000021e-02 1.000000000000000021e-02 1.000000000000000021e-02 1.000000000000000021e-02 1.000000000000000021e-02 1.000000000000000021e-02 1.000000000000000021e-02 1.000000000000000021e-02 1.000000000000000021e-02 1.000000000000000021e-02 1.000000000000000021e-02 1.000000000000000021e-02 1.000000000000000021e-02 1.000000000000000021e-02 1.000000000000000021e-02 1.000000000000000021e-02 1.000000000000000021e-02 1.000000000000000021e-02 1.000000000000000021e-02 1.000000000000000021e-02 1.000000000000000021e-02 1.000000000000000021e-02 1.000000000000000021e-02 1.000000000000000021e-02 1.000000000000000021e-02 1.000000000000000021e-02 1.000000000000000021e-02 1.000000000000000021e-02 1.000000000000000021e-02 1.000000000000000021e-02 1.000000000000000021e-02 1.000000000000000021e-02 1.000000000000000021e-02 1.000000000000000021e-02 1.000000000000000021e-02 1.000000000000000021e-02 1.000000000000000021e-02 1.000000000000000021e-02 1.000000000000000021e-02 1.000000000000000021e-02 1.000000000000000021e-02 1.000000000000000021e-02 1.000000000000000021e-02 1.000000000000000021e-02 1.000000000000000021e-02 1.000000000000000021e-02 1.000000000000000021e-02 1.000000000000000021e-02 1.000000000000000021e-02 1.000000000000000021e-02 1.000000000000000021e-02 1.000000000000000021e-02 1.000000000000000021e-02 1.000000000000000021e-02 1.000000000000000021e-02 1.000000000000000021e-02 1.000000000000000021e-02 1.000000000000000021e-02 1.000000000000000021e-02 1.000000000000000021e-02 1.000000000000000021e-02 1.000000000000000021e-02 1.000000000000000021e-02 1.000000000000000021e-02 1.000000000000000021e-02 1.000000000000000021e-02 1.000000000000000021e-02 1.000000000000000021e-02 1.000000000000000021e-02 1.000000000000000021e-02 1.000000000000000021e-02 1.000000000000000021e-02 1.000000000000000021e-02 1.000000000000000021e-02 1.000000000000000021e-02 1.000000000000000021e-02 1.000000000000000021e-02 1.000000000000000021e-02 1.000000000000000021e-02 1.000000000000000021e-02 1.000000000000000021e-02 1.000000000000000021e-02 1.000000000000000021e-02 1.000000000000000021e-02 1.000000000000000021e-02 1.000000000000000021e-02 1.000000000000000021e-02 1.000000000000000021e-02 1.000000000000000021e-02 1.000000000000000021e-02 1.000000000000000021e-02 1.000000000000000021e-02 1.000000000000000021e-02 1.000000000000000021e-02 1.000000000000000021e-02 1.000000000000000021e-02 1.000000000000000021e-02 1.000000000000000021e-02 1.000000000000000021e-02 1.000000000000000021e-02 1.000000000000000021e-02 1.000000000000000021e-02 1.000000000000000021e-02 1.000000000000000021e-02 1.000000000000000021e-02 1.000000000000000021e-02 1.000000000000000021e-02 1.000000000000000021e-02 1.000000000000000021e-02 1.000000000000000021e-02 1.000000000000000021e-02 1.000000000000000021e-02 1.000000000000000021e-02 1.000000000000000021e-02 1.000000000000000021e-02 1.000000000000000021e-02 1.000000000000000021e-02 1.000000000000000021e-02 1.000000000000000021e-02 1.000000000000000021e-02 1.000000000000000021e-02 1.000000000000000021e-02 1.000000000000000021e-02 1.000000000000000021e-02 1.000000000000000021e-02 1.000000000000000021e-02 1.000000000000000021e-02 1.000000000000000021e-02 1.000000000000000021e-02 1.000000000000000021e-02 1.000000000000000021e-02 1.000000000000000021e-02 1.000000000000000021e-02 1.000000000000000021e-02 1.000000000000000021e-02 1.000000000000000021e-02 1.000000000000000021e-02 1.000000000000000021e-02 1.000000000000000021e-02 1.000000000000000021e-02 1.000000000000000021e-02 1.000000000000000021e-02 1.000000000000000021e-02 1.000000000000000021e-02 1.000000000000000021e-02 1.000000000000000021e-02 1.000000000000000021e-02 1.000000000000000021e-02 1.000000000000000021e-02 1.000000000000000021e-02 1.000000000000000021e-02 1.000000000000000021e-02 1.000000000000000021e-02 1.000000000000000021e-02 1.000000000000000021e-02 1.000000000000000021e-02 1.000000000000000021e-02 1.000000000000000021e-02 1.000000000000000021e-02 1.000000000000000021e-02 1.000000000000000021e-02 1.000000000000000021e-02 1.000000000000000021e-02 1.000000000000000021e-02 1.000000000000000021e-02 1.000000000000000021e-02 1.000000000000000021e-02 1.000000000000000021e-02 1.000000000000000021e-02 1.000000000000000021e-02 1.000000000000000021e-02 1.000000000000000021e-02 1.000000000000000021e-02 1.000000000000000021e-02 1.000000000000000021e-02 1.000000000000000021e-02 1.000000000000000021e-02 1.000000000000000021e-02 1.000000000000000021e-02 1.000000000000000021e-02 1.000000000000000021e-02 1.000000000000000021e-02 1.000000000000000021e-02 1.000000000000000021e-02 1.000000000000000021e-02 1.000000000000000021e-02 1.000000000000000021e-02 1.000000000000000021e-02 1.000000000000000021e-02 1.000000000000000021e-02 1.000000000000000021e-02 1.000000000000000021e-02 1.000000000000000021e-02 1.000000000000000021e-02 1.000000000000000021e-02 1.000000000000000021e-02 1.000000000000000021e-02 1.000000000000000021e-02 1.000000000000000021e-02 1.000000000000000021e-02 1.000000000000000021e-02 1.000000000000000021e-02 1.000000000000000021e-02 1.000000000000000021e-02 1.000000000000000021e-02 1.000000000000000021e-02 1.000000000000000021e-02 1.000000000000000021e-02 1.000000000000000021e-02 1.000000000000000021e-02 1.000000000000000021e-02 1.000000000000000021e-02 1.000000000000000021e-02 1.000000000000000021e-02 1.000000000000000021e-02 1.000000000000000021e-02 1.000000000000000021e-02 1.000000000000000021e-02 1.000000000000000021e-02 1.000000000000000021e-02 1.000000000000000021e-02 1.000000000000000021e-02 1.000000000000000021e-02 1.000000000000000021e-02 1.000000000000000021e-02 1.000000000000000021e-02 1.000000000000000021e-02 1.000000000000000021e-02 1.000000000000000021e-02 1.000000000000000021e-02 1.000000000000000021e-02 1.000000000000000021e-02 1.000000000000000021e-02 1.000000000000000021e-02 1.000000000000000021e-02 1.000000000000000021e-02 1.000000000000000021e-02 1.000000000000000021e-02 1.000000000000000021e-02 1.000000000000000021e-02 1.000000000000000021e-02 1.000000000000000021e-02 1.000000000000000021e-02 1.000000000000000021e-02 1.000000000000000021e-02 1.000000000000000021e-02 1.000000000000000021e-02 1.000000000000000021e-02 1.000000000000000021e-02 1.000000000000000021e-02 1.000000000000000021e-02 1.000000000000000021e-02 1.000000000000000021e-02 1.000000000000000021e-02 1.000000000000000021e-02 1.000000000000000021e-02 1.000000000000000021e-02 1.000000000000000021e-02 1.000000000000000021e-02 1.000000000000000021e-02 1.000000000000000021e-02 1.000000000000000021e-02 1.000000000000000021e-02 1.000000000000000021e-02 1.000000000000000021e-02 1.000000000000000021e-02 1.000000000000000021e-02 1.000000000000000021e-02 1.000000000000000021e-02 1.000000000000000021e-02 1.000000000000000021e-02 1.000000000000000021e-02 1.000000000000000021e-02 1.000000000000000021e-02 1.000000000000000021e-02 1.000000000000000021e-02 1.000000000000000021e-02 1.000000000000000021e-02 1.000000000000000021e-02 1.000000000000000021e-02 1.000000000000000021e-02 1.000000000000000021e-02 1.000000000000000021e-02 1.000000000000000021e-02 1.000000000000000021e-02 1.000000000000000021e-02 1.000000000000000021e-02 1.000000000000000021e-02 1.000000000000000021e-02 1.000000000000000021e-02 1.000000000000000021e-02 1.000000000000000021e-02 1.000000000000000021e-02 1.000000000000000021e-02 1.000000000000000021e-02 1.000000000000000021e-02 1.000000000000000021e-02 1.000000000000000021e-02 1.000000000000000021e-02 1.000000000000000021e-02 1.000000000000000021e-02 1.000000000000000021e-02 1.000000000000000021e-02 1.000000000000000021e-02 1.000000000000000021e-02 1.000000000000000021e-02 1.000000000000000021e-02 1.000000000000000021e-02 1.000000000000000021e-02 1.000000000000000021e-02 1.000000000000000021e-02 1.000000000000000021e-02 1.000000000000000021e-02 1.000000000000000021e-02 1.000000000000000021e-02 1.000000000000000021e-02 1.000000000000000021e-02 1.000000000000000021e-02 1.000000000000000021e-02 1.000000000000000021e-02 1.000000000000000021e-02 1.000000000000000021e-02 1.000000000000000021e-02 1.000000000000000021e-02 1.000000000000000021e-02 1.000000000000000021e-02 1.000000000000000021e-02 1.000000000000000021e-02 1.000000000000000021e-02 1.000000000000000021e-02 1.000000000000000021e-02 1.000000000000000021e-02 1.000000000000000021e-02 1.000000000000000021e-02 1.000000000000000021e-02 1.000000000000000021e-02 1.000000000000000021e-02 1.000000000000000021e-02 1.000000000000000021e-02 1.000000000000000021e-02 1.000000000000000021e-02 1.000000000000000021e-02 1.000000000000000021e-02 1.000000000000000021e-02 1.000000000000000021e-02 1.000000000000000021e-02 1.000000000000000021e-02 1.000000000000000021e-02 1.000000000000000021e-02 1.000000000000000021e-02 1.000000000000000021e-02 1.000000000000000021e-02 1.000000000000000021e-02 1.000000000000000021e-02 1.000000000000000021e-02 1.000000000000000021e-02 1.000000000000000021e-02 1.000000000000000021e-02 1.000000000000000021e-02 1.000000000000000021e-02 1.000000000000000021e-02 1.000000000000000021e-02 1.000000000000000021e-02 1.000000000000000021e-02 1.000000000000000021e-02 1.000000000000000021e-02 1.000000000000000021e-02 1.000000000000000021e-02 1.000000000000000021e-02 1.000000000000000021e-02 1.000000000000000021e-02 1.000000000000000021e-02 1.000000000000000021e-02 1.000000000000000021e-02 1.000000000000000021e-02 1.000000000000000021e-02 1.000000000000000021e-02 1.000000000000000021e-02 1.000000000000000021e-02 1.000000000000000021e-02 1.000000000000000021e-02 1.000000000000000021e-02 1.000000000000000021e-02 1.000000000000000021e-02 1.000000000000000021e-02 1.000000000000000021e-02 1.000000000000000021e-02 1.000000000000000021e-02 1.000000000000000021e-02 1.000000000000000021e-02 1.000000000000000021e-02 1.000000000000000021e-02 1.000000000000000021e-02 1.000000000000000021e-02 1.000000000000000021e-02 1.000000000000000021e-02 1.000000000000000021e-02 1.000000000000000021e-02 1.000000000000000021e-02 1.000000000000000021e-02 1.000000000000000021e-02 1.000000000000000021e-02 1.000000000000000021e-02 1.000000000000000021e-02 1.000000000000000021e-02 1.000000000000000021e-02 1.000000000000000021e-02 1.000000000000000021e-02 1.000000000000000021e-02 1.000000000000000021e-02 1.000000000000000021e-02 1.000000000000000021e-02 1.000000000000000021e-02 1.000000000000000021e-02 1.000000000000000021e-02 1.000000000000000021e-02 1.000000000000000021e-02 1.000000000000000021e-02 1.000000000000000021e-02 1.000000000000000021e-02 1.000000000000000021e-02 1.000000000000000021e-02 1.000000000000000021e-02 1.000000000000000021e-02 1.000000000000000021e-02 1.000000000000000021e-02 1.000000000000000021e-02 1.000000000000000021e-02 1.000000000000000021e-02 1.000000000000000021e-02 1.000000000000000021e-02 1.000000000000000021e-02 1.000000000000000021e-02 1.000000000000000021e-02 1.000000000000000021e-02 1.000000000000000021e-02 1.000000000000000021e-02 1.000000000000000021e-02 1.000000000000000021e-02 1.000000000000000021e-02 1.000000000000000021e-02 1.000000000000000021e-02 1.000000000000000021e-02 1.000000000000000021e-02 1.000000000000000021e-02 1.000000000000000021e-02 1.000000000000000021e-02 1.000000000000000021e-02 1.000000000000000021e-02 1.000000000000000021e-02 1.000000000000000021e-02 1.000000000000000021e-02 1.000000000000000021e-02 1.000000000000000021e-02 1.000000000000000021e-02 1.000000000000000021e-02 1.000000000000000021e-02 1.000000000000000021e-02 1.000000000000000021e-02 1.000000000000000021e-02 1.000000000000000021e-02 1.000000000000000021e-02 1.000000000000000021e-02 1.000000000000000021e-02 1.000000000000000021e-02 1.000000000000000021e-02 1.000000000000000021e-02 1.000000000000000021e-02 1.000000000000000021e-02 1.000000000000000021e-02 1.000000000000000021e-02 1.000000000000000021e-02 1.000000000000000021e-02 1.000000000000000021e-02 1.000000000000000021e-02 1.000000000000000021e-02 1.000000000000000021e-02 1.000000000000000021e-02 1.000000000000000021e-02 1.000000000000000021e-02 1.000000000000000021e-02 1.000000000000000021e-02 1.000000000000000021e-02 1.000000000000000021e-02 1.000000000000000021e-02 1.000000000000000021e-02 1.000000000000000021e-02 1.000000000000000021e-02 1.000000000000000021e-02 1.000000000000000021e-02 1.000000000000000021e-02 1.000000000000000021e-02 1.000000000000000021e-02 1.000000000000000021e-02 1.000000000000000021e-02 1.000000000000000021e-02 1.000000000000000021e-02 1.000000000000000021e-02 1.000000000000000021e-02 1.000000000000000021e-02 1.000000000000000021e-02 1.000000000000000021e-02 1.000000000000000021e-02 1.000000000000000021e-02 1.000000000000000021e-02 1.000000000000000021e-02 1.000000000000000021e-02 1.000000000000000021e-02 1.000000000000000021e-02 1.000000000000000021e-02 1.000000000000000021e-02 1.000000000000000021e-02 1.000000000000000021e-02 1.000000000000000021e-02 1.000000000000000021e-02 1.000000000000000021e-02 1.000000000000000021e-02 1.000000000000000021e-02 1.000000000000000021e-02 1.000000000000000021e-02 1.000000000000000021e-02 1.000000000000000021e-02 1.000000000000000021e-02 1.000000000000000021e-02 1.000000000000000021e-02 1.000000000000000021e-02 1.000000000000000021e-02 1.000000000000000021e-02 1.000000000000000021e-02 1.000000000000000021e-02 1.000000000000000021e-02 1.000000000000000021e-02 1.000000000000000021e-02 1.000000000000000021e-02 1.000000000000000021e-02 1.000000000000000021e-02 1.000000000000000021e-02 1.000000000000000021e-02 1.000000000000000021e-02 1.000000000000000021e-02 1.000000000000000021e-02 1.000000000000000021e-02 1.000000000000000021e-02 1.000000000000000021e-02 1.000000000000000021e-02 1.000000000000000021e-02 1.000000000000000021e-02 1.000000000000000021e-02 1.000000000000000021e-02 1.000000000000000021e-02 1.000000000000000021e-02 1.000000000000000021e-02 1.000000000000000021e-02 1.000000000000000021e-02 1.000000000000000021e-02 1.000000000000000021e-02 1.000000000000000021e-02 1.000000000000000021e-02 1.000000000000000021e-02 1.000000000000000021e-02 1.000000000000000021e-02 1.000000000000000021e-02 1.000000000000000021e-02 1.000000000000000021e-02 1.000000000000000021e-02 1.000000000000000021e-02 1.000000000000000021e-02 1.000000000000000021e-02 1.000000000000000021e-02 1.000000000000000021e-02 1.000000000000000021e-02 1.000000000000000021e-02 1.000000000000000021e-02 1.000000000000000021e-02 1.000000000000000021e-02 1.000000000000000021e-02 1.000000000000000021e-02 1.000000000000000021e-02 1.000000000000000021e-02 1.000000000000000021e-02 1.000000000000000021e-02 1.000000000000000021e-02 1.000000000000000021e-02 1.000000000000000021e-02 1.000000000000000021e-02 1.000000000000000021e-02 1.000000000000000021e-02 1.000000000000000021e-02 1.000000000000000021e-02 1.000000000000000021e-02 1.000000000000000021e-02 1.000000000000000021e-02 1.000000000000000021e-02 1.000000000000000021e-02 1.000000000000000021e-02 1.000000000000000021e-02 1.000000000000000021e-02 1.000000000000000021e-02 1.000000000000000021e-02 1.000000000000000021e-02 1.000000000000000021e-02 1.000000000000000021e-02 1.000000000000000021e-02 1.000000000000000021e-02 1.000000000000000021e-02 1.000000000000000021e-02 1.000000000000000021e-02 1.000000000000000021e-02 1.000000000000000021e-02 1.000000000000000021e-02 1.000000000000000021e-02 1.000000000000000021e-02 1.000000000000000021e-02 1.000000000000000021e-02 1.000000000000000021e-02 1.000000000000000021e-02 1.000000000000000021e-02 1.000000000000000021e-02 1.000000000000000021e-02 1.000000000000000021e-02 1.000000000000000021e-02 1.000000000000000021e-02 1.000000000000000021e-02 1.000000000000000021e-02 1.000000000000000021e-02 1.000000000000000021e-02 1.000000000000000021e-02 1.000000000000000021e-02 1.000000000000000021e-02 1.000000000000000021e-02 1.000000000000000021e-02 1.000000000000000021e-02 1.000000000000000021e-02 1.000000000000000021e-02 1.000000000000000021e-02 1.000000000000000021e-02 1.000000000000000021e-02 1.000000000000000021e-02 1.000000000000000021e-02 1.000000000000000021e-02 1.000000000000000021e-02 1.000000000000000021e-02 1.000000000000000021e-02 1.000000000000000021e-02 1.000000000000000021e-02 1.000000000000000021e-02 1.000000000000000021e-02 1.000000000000000021e-02 1.000000000000000021e-02 1.000000000000000021e-02 1.000000000000000021e-02 1.000000000000000021e-02 1.000000000000000021e-02 1.000000000000000021e-02 1.000000000000000021e-02 1.000000000000000021e-02 1.000000000000000021e-02 1.000000000000000021e-02 1.000000000000000021e-02 1.000000000000000021e-02 1.000000000000000021e-02 1.000000000000000021e-02 1.000000000000000021e-02 1.000000000000000021e-02 1.000000000000000021e-02 1.000000000000000021e-02 1.000000000000000021e-02 1.000000000000000021e-02 1.000000000000000021e-02 1.000000000000000021e-02 1.000000000000000021e-02 1.000000000000000021e-02 1.000000000000000021e-02 1.000000000000000021e-02 1.000000000000000021e-02 1.000000000000000021e-02 1.000000000000000021e-02 1.000000000000000021e-02 1.000000000000000021e-02 1.000000000000000021e-02 1.000000000000000021e-02 1.000000000000000021e-02 1.000000000000000021e-02 1.000000000000000021e-02 1.000000000000000021e-02 1.000000000000000021e-02 1.000000000000000021e-02 1.000000000000000021e-02 1.000000000000000021e-02 1.000000000000000021e-02 1.000000000000000021e-02 1.000000000000000021e-02 1.000000000000000021e-02 1.000000000000000021e-02 1.000000000000000021e-02 1.000000000000000021e-02 1.000000000000000021e-02 1.000000000000000021e-02 1.000000000000000021e-02 1.000000000000000021e-02 1.000000000000000021e-02 1.000000000000000021e-02 1.000000000000000021e-02 1.000000000000000021e-02 1.000000000000000021e-02 1.000000000000000021e-02 1.000000000000000021e-02 1.000000000000000021e-02 1.000000000000000021e-02 1.000000000000000021e-02 1.000000000000000021e-02 1.000000000000000021e-02 1.000000000000000021e-02 1.000000000000000021e-02 1.000000000000000021e-02 1.000000000000000021e-02 1.000000000000000021e-02 1.000000000000000021e-02 1.000000000000000021e-02 1.000000000000000021e-02 1.000000000000000021e-02 1.000000000000000021e-02 1.000000000000000021e-02 1.000000000000000021e-02 1.000000000000000021e-02 1.000000000000000021e-02 1.000000000000000021e-02 1.000000000000000021e-02 1.000000000000000021e-02 1.000000000000000021e-02 1.000000000000000021e-02 1.000000000000000021e-02 1.000000000000000021e-02 1.000000000000000021e-02 1.000000000000000021e-02 1.000000000000000021e-02 1.000000000000000021e-02 1.000000000000000021e-02 1.000000000000000021e-02 1.000000000000000021e-02 1.000000000000000021e-02 1.000000000000000021e-02 1.000000000000000021e-02 1.000000000000000021e-02 1.000000000000000021e-02 1.000000000000000021e-02 1.000000000000000021e-02 1.000000000000000021e-02 1.000000000000000021e-02 1.000000000000000021e-02 1.000000000000000021e-02 1.000000000000000021e-02 1.000000000000000021e-02 1.000000000000000021e-02 1.000000000000000021e-02 1.000000000000000021e-02 1.000000000000000021e-02 1.000000000000000021e-02 1.000000000000000021e-02 1.000000000000000021e-02 1.000000000000000021e-02 1.000000000000000021e-02 1.000000000000000021e-02 1.000000000000000021e-02 1.000000000000000021e-02 1.000000000000000021e-02 1.000000000000000021e-02 1.000000000000000021e-02 1.000000000000000021e-02 1.000000000000000021e-02 1.000000000000000021e-02 1.000000000000000021e-02 1.000000000000000021e-02 1.000000000000000021e-02 1.000000000000000021e-02 1.000000000000000021e-02 1.000000000000000021e-02 1.000000000000000021e-02 1.000000000000000021e-02 1.000000000000000021e-02 1.000000000000000021e-02 1.000000000000000021e-02 1.000000000000000021e-02 1.000000000000000021e-02 1.000000000000000021e-02 1.000000000000000021e-02 1.000000000000000021e-02 1.000000000000000021e-02 1.000000000000000021e-02 1.000000000000000021e-02 1.000000000000000021e-02 1.000000000000000021e-02 1.000000000000000021e-02 1.000000000000000021e-02 1.000000000000000021e-02 1.000000000000000021e-02 1.000000000000000021e-02 1.000000000000000021e-02 1.000000000000000021e-02 1.000000000000000021e-02 1.000000000000000021e-02 1.000000000000000021e-02 1.000000000000000021e-02 1.000000000000000021e-02 1.000000000000000021e-02 1.000000000000000021e-02 1.000000000000000021e-02 1.000000000000000021e-02 1.000000000000000021e-02 1.000000000000000021e-02 1.000000000000000021e-02 1.000000000000000021e-02 1.000000000000000021e-02 1.000000000000000021e-02 1.000000000000000021e-02 1.000000000000000021e-02 1.000000000000000021e-02 1.000000000000000021e-02 1.000000000000000021e-02 1.000000000000000021e-02 1.000000000000000021e-02 1.000000000000000021e-02 1.000000000000000021e-02 1.000000000000000021e-02 1.000000000000000021e-02 1.000000000000000021e-02 1.000000000000000021e-02 1.000000000000000021e-02 1.000000000000000021e-02 1.000000000000000021e-02 1.000000000000000021e-02 1.000000000000000021e-02 1.000000000000000021e-02 1.000000000000000021e-02 1.000000000000000021e-02 1.000000000000000021e-02 1.000000000000000021e-02 1.000000000000000021e-02 1.000000000000000021e-02 1.000000000000000021e-02 1.000000000000000021e-02 1.000000000000000021e-02 1.000000000000000021e-02 1.000000000000000021e-02 1.000000000000000021e-02 1.000000000000000021e-02 1.000000000000000021e-02 1.000000000000000021e-02 1.000000000000000021e-02 1.000000000000000021e-02 1.000000000000000021e-02 1.000000000000000021e-02 1.000000000000000021e-02 1.000000000000000021e-02 1.000000000000000021e-02 1.000000000000000021e-02 1.000000000000000021e-02 1.000000000000000021e-02 1.000000000000000021e-02 1.000000000000000021e-02 1.000000000000000021e-02 1.000000000000000021e-02 1.000000000000000021e-02 1.000000000000000021e-02 1.000000000000000021e-02 1.000000000000000021e-02 1.000000000000000021e-02 1.000000000000000021e-02 1.000000000000000021e-02 1.000000000000000021e-02 1.000000000000000021e-02 1.000000000000000021e-02 1.000000000000000021e-02 1.000000000000000021e-02 1.000000000000000021e-02 1.000000000000000021e-02 1.000000000000000021e-02 1.000000000000000021e-02 1.000000000000000021e-02 1.000000000000000021e-02 1.000000000000000021e-02 1.000000000000000021e-02 1.000000000000000021e-02 1.000000000000000021e-02 1.000000000000000021e-02 1.000000000000000021e-02 1.000000000000000021e-02 1.000000000000000021e-02 1.000000000000000021e-02 1.000000000000000021e-02 1.000000000000000021e-02 1.000000000000000021e-02 1.000000000000000021e-02 1.000000000000000021e-02 1.000000000000000021e-02 1.000000000000000021e-02 1.000000000000000021e-02 1.000000000000000021e-02 1.000000000000000021e-02 1.000000000000000021e-02 1.000000000000000021e-02 1.000000000000000021e-02 1.000000000000000021e-02 1.000000000000000021e-02 1.000000000000000021e-02 1.000000000000000021e-02 1.000000000000000021e-02 1.000000000000000021e-02 1.000000000000000021e-02 1.000000000000000021e-02 1.000000000000000021e-02 1.000000000000000021e-02 1.000000000000000021e-02 1.000000000000000021e-02 1.000000000000000021e-02 1.000000000000000021e-02 1.000000000000000021e-02 1.000000000000000021e-02 1.000000000000000021e-02 1.000000000000000021e-02 1.000000000000000021e-02 1.000000000000000021e-02 1.000000000000000021e-02 1.000000000000000021e-02 1.000000000000000021e-02 1.000000000000000021e-02 1.000000000000000021e-02 1.000000000000000021e-02 1.000000000000000021e-02 1.000000000000000021e-02 1.000000000000000021e-02 1.000000000000000021e-02 1.000000000000000021e-02 1.000000000000000021e-02 1.000000000000000021e-02 1.000000000000000021e-02 1.000000000000000021e-02 1.000000000000000021e-02 1.000000000000000021e-02 1.000000000000000021e-02 1.000000000000000021e-02 1.000000000000000021e-02 1.000000000000000021e-02 1.000000000000000021e-02 1.000000000000000021e-02 1.000000000000000021e-02 1.000000000000000021e-02 1.000000000000000021e-02 1.000000000000000021e-02 1.000000000000000021e-02 1.000000000000000021e-02 1.000000000000000021e-02 1.000000000000000021e-02 1.000000000000000021e-02 1.000000000000000021e-02 1.000000000000000021e-02 1.000000000000000021e-02 1.000000000000000021e-02 1.000000000000000021e-02 1.000000000000000021e-02 1.000000000000000021e-02 1.000000000000000021e-02 1.000000000000000021e-02 1.000000000000000021e-02 1.000000000000000021e-02 1.000000000000000021e-02 1.000000000000000021e-02 1.000000000000000021e-02 1.000000000000000021e-02 1.000000000000000021e-02 1.000000000000000021e-02 1.000000000000000021e-02 1.000000000000000021e-02 1.000000000000000021e-02 1.000000000000000021e-02 1.000000000000000021e-02 1.000000000000000021e-02 1.000000000000000021e-02 1.000000000000000021e-02 1.000000000000000021e-02 1.000000000000000021e-02 1.000000000000000021e-02 1.000000000000000021e-02 1.000000000000000021e-02 1.000000000000000021e-02 1.000000000000000021e-02 1.000000000000000021e-02 1.000000000000000021e-02 1.000000000000000021e-02 1.000000000000000021e-02
-1.105020030297150413e+02 1.679995052480165612e+02 3.895026102583448591e+01 -8.752385342613120400e+00 -8.703889737465787846e+01 -1.326251607285263745e+01 -2.059412457630519953e+02 6.873496732834469825e-01 -8.391001326835343832e+01 -1.394270572141344289e+01 -1.964967226295015124e+01 6.466314782877465639e+00 -1.764960829690993105e+00 1.661990115247125743e+02 8.382077924876739417e+01 -3.842560773912153849e+01 -5.230915313111788123e+01 7.846776472079180564e+01 3.251489017870162712e+01 -2.513474473171282852e+01 -7.809916314388051717e+01 -7.310393476884243569e+01 -1.367099187633012924e+01 2.866006131493562137e+01 -1.930768506322801557e+02 -9.779462639703999116e+01 -2.584422609206204413e+01 1.997243537552743646e+02 7.009544854937807656e+01 7.601019240717680248e+01 7.953952107844307307e+01 1.172176740574464748e+00 -7.851528368819604964e+01 2.055040263129537834e+02 -2.425557287179276216e+02 5.829212336628149416e+01 -1.190010691575996447e+02 -3.435886155439141021e+01 3.997346430876506762e+00 1.255235917287030958e+02 -1.217432045764745965e+02 -1.351270620323272986e+01 7.662499952478896148e+01 1.719757839734963056e+02 7.067872799515303939e+01 -6.776286020589465409e+01 4.082145531407161343e+01 -2.812149864436918634e+01 -6.544551386822956829e+01 1.551230071765396303e+02 -6.988427346442192345e+01 -5.161914031864797892e+01 -1.380416825251863315e+02 5.719849460282348197e+00 -5.005932523054997318e+01 3.830969046745084938e+01 -8.790238906925561935e+01 -4.959060305104063104e+01 -1.004654576616275534e+02 -1.540053629978422691e+02 1.926353046356662446e+01 4.495124370461096674e+01 -1.219853128176656014e+02 1.273600168707512381e+01 -7.854952972821594415e+01 4.866676510218902507e+01 1.651018865144126266e+02 -1.429354878378601086e+02 -4.290506963443308308e+01 7.137097438881468747e+00 2.905660361144117854e+00 4.199443276898443145e+01 8.320912323334212601e+01 8.462768461037971646e-01 -8.730928568326365991e+00 -6.937745531153568379e+01 7.753724631912295706e+01 -3.245141608399662658e+01 2.605766128114509783e+01 1.030635915044890680e+02 8.740589210943379328e+01 -4.236836610305842754e+01 5.725873304979852918e+01 1.460818218339379087e+02 1.151467580081267812e+02 -3.977377888068865719e+00 1.726051848375973634e+02 -1.105001842577349436e+02 4.151048654657861547e+00 -4.155469160125825567e+01 2.049373860246345203e+02 -2.102924935176227450e+01 2.861465795382617028e+00 -7.608120143471852259e+01 -7.075965420775559345e+00 -6.325159404174637956e+01 6.715695020215871125e+01 -9.368990153852108449e+01 6.796704689625347839e+01 -4.731972460225145483e+01 -4.930174225922461062e+01 -9.082562518405394769e+01 5.259606592693405247e+01 -5.420465301031028105e+01 -1.479681971338113158e+02 -7.873793004171075438e+01 -1.036559494621876070e+02 -1.557939476147528808e+02 1.346955995146616374e+02 -2.722860467180992927e+01 3.174372359310398650e+01 8.884943751746814655e+01 -1.031112040615447256e+02 5.644161234572551678e+01 -4.292426295253082458e+01 -6.872742952161205210e+01 -8.928283285073827358e+01 2.013954543083154931e+02 -5.622361529360319565e+01 -4.905211270368781129e+01 -4.676609770998990712e+01 7.966667409302054637e+01 -4.103650561093370186e+01 1.367208415862934316e+02 -4.944051510995378607e+01 5.460793525638203505e+01 4.501339361831020014e+00 -8.037897871258741134e+01 6.817717324472724272e+01 2.748713406208623837e+02 -9.120607769436598744e+01 4.705408759676858921e+01 -7.556372610191884576e+01 4.483265833338542450e+01 1.300187360524798805e+02 -5.094013418686347450e+01 1.447139990817104227e+01 -2.669442208713933340e+01 -1.010423008941437928e+02 -1.716751188554850671e+01 4.251474104864104930e+00 -7.746853136643975901e+00 -1.481639737816922597e+01 1.171851640598913207e+02 1.292338246446837218e+02 1.848488038345770690e+02 -3.017163840527159095e+02 3.787960123230077869e+01 -1.562705630730589768e+01 -6.181752117192336016e+01 1.788251494426893373e+02 7.554293619444528929e+01 -2.575337845387122293e+00 -1.149909377411034086e+02 -1.080220679343208268e+01 9.927281079553767995e+01 -1.332896790347590468e+02 -1.672591148915024348e+02 1.065041238871177853e+01 4.208753149815088079e+01 -6.054309365990027914e+01 4.170724146598704607e+01 -1.062436700582396298e+02 -1.501422604272174226e+02 2.093941031401230290e+01 4.820870914303525723e+01 4.776818486067341496e+00 -8.284113815238633549e+01 -9.289702361256051688e+01 -8.368840019214715653e+01 -8.692006269976495503e+01 1.255571350509670658e+01 5.643198361528976648e+01 1.157101995159349883e+02 7.889239353637123031e+01 8.892231526946009978e+01 1.067733560895961631e+02 -7.431445347685422576e+01 -8.199811895074209644e+01 7.009419747481345553e+01 6.810052347969845243e+01 5.888904407614187875e+01 -9.334690472036903941e+00 -9.058067837829224800e+01 5.370620161751936905e+01 -1.781237910513028169e+02 6.684244314849081547e+01 -4.432034857891352431e+01 -9.599863216703893443e+01 7.388703099110995254e+01 -1.707685642002852333e+01 -7.681320681817733487e+01 -5.723797193643208203e+01 -9.126883808356879513e+00 2.418733121817835467e+02 7.663643758463175004e+01 5.467809007658615883e+01 -1.035977758102279438e+02 1.478943514169032767e+02 1.053799589961515570e+00 -9.018313086125898792e+01 1.555129229220397633e+02 -1.538720923032158225e+02 1.575194558545728718e+01 -3.248817703346858821e+01 -2.218914673013527192e+02 -1.346659419914728915e+02 -8.807254831637852988e+01 -2.961870163667408562e+01 -1.203775354907937185e+02 5.820743836342918343e+01 6.562021742087686960e+01 -2.785277474783247698e+01 -1.007155213353145626e+02 1.141901041390686089e+02 1.193409411016300083e+02 4.666388776469163702e+01 1.765607076100851813e+01 2.639966126181768686e+02 4.410238163069920603e+01 -1.206801794780555213e+02 -4.552873933903883596e+01 -1.705925670674235732e+02 3.220441257387526690e+01 1.549167802733018675e+02 -1.499109705813483515e+02 1.331421397746009916e+02 -9.194412243528502415e+01 -1.912259295015164895e+01 -7.870938658639939911e-01 5.344904314514186439e+01 -1.171660510334212013e+01 -2.306002297810517376e+01 -1.907525629808746004e+01 -1.281504497021728355e+02 4.693334611217827756e+01 -3.069353469535901624e+01 -1.310047082016404651e+01 -1.084053816736524389e+01 2.285613816727575625e+02 1.762382029733923616e+02 2.353186845055045637e+02 1.333284470868196649e+02 -8.758052368965897472e+01 7.605187368309638885e+01 2.137779823693690417e+01 4.811694300363558341e+01 -4.016623607644667260e+01 2.584251293789957913e+02 -2.358367499410278256e+01 -1.383545707199164951e+02 -1.512678446819092315e+01 -4.638024111056844845e+01 -7.831736312963424496e+01 4.367456939498211455e+01 -1.185338099412490287e+01 1.841054010080814862e+02 9.349105440259835120e+01 4.137632929298577267e+01 9.920065452044073595e+01 9.570901635154712039e+01 -2.326784097392310002e+01 1.413437919523160815e+02 2.683476428197937835e+01 9.069428884581283512e+01 4.825766821369826687e+01 7.015564011639598974e+00 -1.171939607514678272e+02 -1.172881842050770160e+02 -9.114918891997585604e+01 -1.576276333605603952e+01 8.777209210454896038e+01 -3.102619133770015480e+01 1.001232198907656681e+02 4.436409352072320900e+01 -7.363380565969353597e+01 -3.033070156749028712e+01 -5.932477652643795096e+01 1.778592733769906786e+01 -4.689379039146292882e+01 -1.134477611523614797e+02 1.230449126288177411e+02 1.228620020786599838e+02 -7.995129089397615019e+01 5.493957212544436253e+00 -4.588762165037856278e+01 -3.299680609034102474e+01 -1.148393602816530112e+01 -3.162271528840663493e+01 4.502924358964495610e+01 -1.423052950352163464e+02 -5.350354752656905788e+01 -1.537432146011119585e+02 1.762490099694735761e+02 -2.045501358172134232e+01 5.963669475891151706e+01 1.206133958925957295e+01 1.461075909522690210e+02 4.515208616679869635e+01 3.613539857254146881e+01 1.561502843126512232e+02 -4.982839757322727792e+01 -9.872335592801846360e+01 2.749818864052425127e+01 -1.597821522090391966e+02 -5.399706053989465460e+01 1.034435864220393739e+02 -1.290354312209615557e+02 -3.675706100353271211e+01 9.227711198150345240e+01 -9.548123025384700213e+01 -9.043698506708341256e+01 -8.351984806626231261e+01 -6.448228124268069905e+01 2.516820483573573597e+02 2.002603586941151548e+02 1.040550103568220806e+02 -1.032477980298248355e+02 7.561094735301422531e+01 -6.684010304572123573e+01 -3.164120686275540351e+01 1.677444677711347154e+01 -3.254690489374259954e+01 -9.464571533732936359e+01 -2.791194419534816173e+00 1.491303296056442385e+01 1.097933191062310385e+02 -1.296541283897036863e+02 4.230261250252883087e+01 6.432185141766014169e+01 3.482779872467329341e+01 -9.138107225113640197e+01 -1.497536824510046642e+02 1.947591559292114312e+02 -1.795208429294191887e+01 2.538840345766027795e+01 1.577738247077809604e+02 2.686871636835813959e+01 2.794549218935404866e+01 -4.486923878983557756e+01 8.924539102891870357e+01 -1.373129657398991981e+02 -3.101892544292714504e+01 -6.179073661140800588e+00 -5.376905589835258326e+01 6.289571353349025173e+00 2.142045321434230232e+01 -3.602471707206414919e+01 1.375541900284222230e+01 2.150940077209298806e+02 -2.756995174486083755e+01 -2.816374627256733376e+01 -1.022919912301770893e+02 -1.654669742169973867e+00 -8.124053905949519105e+01 6.428475756827017662e+00 1.127515571994688770e+02 -5.233483136825361726e+01 6.081320452304713520e+00 -5.463311545002581227e+01 3.342441344683711790e+00 8.770667382853693539e+01 -1.165184206101715176e+02 -9.737850119009235073e+01 -1.031538766608438920e+02 7.177428641440515378e+01 8.704636963338069222e+01 -9.278207794621408766e+01 6.297455734034156194e+01 2.596989571669518426e+01 3.890218225747619130e+01 -1.784744365044688053e+01 9.185063074048032661e+01 8.015058614724347308e+01 -7.768600438571581890e+01 1.188914327991838071e+01 8.132367529522811367e+01 7.324462498557923595e+01 -2.000252682189332631e+01 2.510762275721980075e+01 -1.333010221080302244e+02 4.878547203077855698e+01 -3.294894351993355031e+01 -3.284004413212855411e+01 1.741022686485042072e+02 4.767983091339816326e+01 1.208424656431720194e+02 1.919668247999534003e+02 -1.384102544930316014e+02 1.498647161372916514e+02 -6.375223008685576787e+01 -1.358478617204688703e+02 8.274962904515359696e+01 -1.347680581217034614e+02 -2.885978331603115876e+01 5.670470177009070056e+01 8.109208727679856565e+00 -1.690206784888318907e+02 8.468700029964406895e+01 2.535830809619044501e+01 6.945325733164263227e+01 3.647964686824221303e+01 9.520390196410637884e+00 -6.746586281088237058e+01 1.163254270691504360e+02 5.477304008179660144e+01 -6.244403733050210548e+01 -1.017673003621822119e+02 3.913292657513484585e+01 2.583039005957686030e+01 8.282115164158568632e+01 1.847159985968479248e+02 -2.475489162719855329e+01 -1.107211262414004693e+02 -8.514790468999865425e+01 -5.158319289860904178e+01 -4.458411589797054120e+01 -1.474804079844584805e+02 -2.262748779957323819e+01 1.301685575792554346e+02 7.491776093756152477e+01 -1.229933937995038775e+02 -1.506413299898907212e+02 -6.844139436716820057e+01 -7.673055978331456117e+01 1.475236991528425676e+02 -1.713229961581496070e+02 8.698590118494350065e+01 -4.630679981189076422e+00 -4.324563466768794484e+01 1.336439817819959686e+01 9.161828249695912518e+01 4.982595394146743928e+01 1.388953882361764158e+02 -1.599275190854447715e+02 -8.137317524637256838e+01 2.547988583886668579e+01 4.214011167057202556e+01 2.071526021372607431e+02 1.461746114776784111e+02 6.585761020176852298e+01 7.245946153556216984e+01 -3.431113708009677055e+01 1.525613099810140341e+02 -1.802248486637588769e+02 -6.371957979809014461e+01 -5.394620739696891576e+01 -5.204596149464752841e+01 -1.037768637225998560e+02 -1.506207387651878093e+01 -6.897094195718241849e+01 7.151867915905580730e+01 -9.198239747200435801e+00 -5.836378113478336616e+01 -6.257065841670785744e+01 1.810560262646727097e+02 5.929614155363660899e+01 -1.378290311095633847e+01 2.098792796620763568e+02 -1.088536228270236847e+02 -3.550025251372422019e+01 6.727715663059852602e+01 -1.334629706909687130e-01 1.502526911980339364e+01 -1.256728885298957152e+02 1.770075184904674188e+02 -4.920115610133435524e+01 -2.705004984619989727e+01 -1.101929294425637949e+02 1.263991921271167342e+02 9.628311496649546086e+01 -7.784490351264007302e+01 -3.774750965780407341e+01 3.910955870320118066e+01 -1.520023112876310165e+02 -1.662718312926052822e-01 -7.499449668076252351e+01 7.726238322362226185e+00 -1.085195363324361324e+02 -1.591220013602041092e+02 -7.093883186510957728e+01 1.487011312929479629e+02 5.676682774731077785e+01 -8.992945530679909893e+01 8.946967703484830281e+01 3.433965482618659593e+01 8.860076236443995867e+01 -4.224635730247059229e+01 -8.433781506180470444e+01 1.715236075676019993e+02 4.176737506193629201e+01 2.903038110700522978e+01 -7.319328599935117552e+01 -4.241959278289623114e+01 9.564314535533826600e+00 -7.182318397590428560e+00 -1.732352022282240966e+02 -3.468842941520374978e+01 6.455349086010700432e+01 1.118344948719136625e+02 1.560273476069193634e+02 -1.330072710613151621e+01 8.977941318614533373e+01 1.579862334586142936e+02 6.351536699679395781e+01 1.479523916844542555e+02 1.608492606169369665e+01 1.314535104214019441e+02 -8.402457947708384722e+01 5.339736319841129131e+01 2.934563249598974011e+01 7.589673858734003886e+01 -1.062357105824211772e+02 1.980499601992833618e+02 -1.287358683711364051e+02 8.828042355983798473e+01 -1.073611866000627231e+02 4.612126114810595823e+01 1.379130949671174378e+01 9.061396924852525103e+01 -7.358041581722802960e+01 -7.541247465186886245e+01 -1.113775514826592961e+01 8.894756923581847730e+01 -2.953543781632890131e+01 -1.627386654514164377e+01 -1.959100211195374186e+01 4.725882055486210653e+00 9.788482737643867893e+01 -6.238154902327921292e+01 -2.702544095021692794e+00 -1.930568649313370031e+02 1.213815854045239035e+02 -1.242078607047384224e+02 -7.347900731414566167e+01 -2.340841133974205590e+01 -1.073512986764023367e+02 -5.286626076045164524e+01 -5.825571844492186102e+01 -1.957065856028182793e+01 1.354984729389704796e+02 5.376018275788611334e+01 9.986612064850966419e+01 -1.353362249365353307e+02 -1.378015732184933029e+02 -2.849923739289669697e+02 1.015930277563988682e+02 1.036713998114607875e+02 4.205957386478213067e+01 -4.220474418924278126e+01 -3.698975112319540415e+01 -1.826297132338289657e+02 1.453034723136997002e+02 -1.068192848382306153e+02 1.063685670330931572e+02 -1.583304830786087223e+02 -1.423446284943632278e+01 -5.507190617341203875e+01 -1.186016066959082593e+02 -4.584841801065284983e+01 -1.244421317713224262e+01 -9.216256384933763002e+01 -1.029258194119359757e+02 -1.229067758657027376e+01 7.081290668841846525e+01 -1.239577567452184468e+02 -1.557719610276713418e+01 -7.336309128830444592e+01 -1.307206550968000442e+02 6.605810929033298251e+00 9.465047817707034028e+01 1.646713876074924769e+02 -1.896917324115656811e+01 -4.582105335594894058e+01 -1.235383987639436043e+02 -1.627982138550109994e+02 1.032814815649348219e+02 -7.239473503039481272e+01 7.863345859509037439e+01 9.357732309007895211e+00 2.910072926720766162e+01 7.351095413681623825e+01 -8.436288719576660355e+01 8.230726944364727160e+01 1.147718470792056991e+02 1.567763642571109699e+02 -1.160589040816253998e+02 1.035068149685357639e+02 -4.757103314668871263e+01 -9.041610327680157866e+01 2.136812324590252388e+02 4.903194223115178829e+01 8.312151546403357827e+01 2.116821507467209784e+01 -6.296103467562939215e+01 -3.479153183404991267e+01 -2.095097263107632557e+02 1.051978798273886753e+02 8.116163766535741786e+01 -7.538692007433549236e+01 -7.283613405505992944e+01 1.445949501497586880e+02 1.006493487234762512e+02 5.090602860192659307e+01 7.576364213973960204e+01 -7.845785447574067817e+00 1.027704803654797132e+02 -1.031301168967128632e+02 1.856197039606705061e+02 -3.932113849630925273e+01 -1.214975133752767817e+02 -3.752880563404568903e+01 7.145054255596805604e+01 1.467365531581881442e+02 1.284137993874625572e+01 1.731143584975401666e+02 5.198531431990118534e+01 3.348674614060167443e+01 -1.108614469029572263e+02 4.461818857230122859e+01 -1.245105174872930149e+02 4.750880259243720616e+01 3.845912137586790891e+01 -1.228560285022142864e+02 -8.469233095089788321e+01 3.968319658461965815e+01 8.690350811297520295e+00 -2.313112146436098016e+01 4.169712273958829485e+01 -2.131374519119189515e+01 -6.283585595979359084e+01 -2.607633843337101354e+01 -2.235107648864207519e+01 -3.966423061323594368e+01 1.869719166979258773e+01 -8.018232408700268365e+01 1.184660293288998645e+02 -7.400636965612507367e+01 -4.236999573223119597e+00 6.529610411158580519e+01 3.873572711881935415e+00 1.588784689894905711e+01 1.589783811672214142e+01 -1.166513851901008536e+02 -4.396194998117782582e+00 6.478458482570628973e+01 -2.304882446170138053e+02 -8.451917371529610534e+01 -1.122499557087163282e+02 4.361362332822098864e+01 9.582281121579433147e+01 -9.137635805495915520e+01 -1.671915044482385895e+02 -1.843914707886220583e+02 1.988246163576987868e+01 -1.443135779073342349e+02 -6.294760812249273307e+00 1.469131012454691074e+02 -7.060704768024766764e+00 3.694714213645345069e+01 -9.834694646772041438e+01 7.935467650370495107e+01 -1.177606634783315798e+02 -1.531090279667826159e+01 -3.008015981055510224e+01 5.714600078345527834e+01 -8.795229315748073873e+00 1.048239063662644099e+02 -1.210455650358831150e+02 -4.965062607457825550e+01 8.582340067415523777e+01 6.554423493921392208e+01 -8.156694023574748087e+01 -5.388166639760481047e+01 -4.888081375038670018e+01 -2.864533447965440587e+02 1.915268977077588488e+02 7.529039729996053154e+01 -2.333440997847585763e+01 -2.934100465526492130e+01 4.106602516851045692e+01 -8.317782689831642529e+01 9.836952338344018187e+01 5.975032172037763445e+01 8.099281507089624199e+01 -8.306838841347496327e+01 -2.621283072017176252e+01 3.291945083978835385e+01 1.716222546922235281e+01 -4.228382730362525166e+01 1.559003976267043754e+02 -1.706472947157147502e+01 3.493465577519695842e+01 -2.268118974909263557e+02 -8.355356088266593417e+01 -7.217840114448019051e+01 2.271270020436936932e+01 1.077112067400783104e+02 -2.285703287945702300e+02 -1.844980410982450962e+02 2.186376576270669148e+02 -1.042360501631105940e+01 9.474924653378221251e+01 6.183147729892508693e+01 -5.460093061384625202e+01 -1.292083000566843793e+02 -9.385830388952074088e+01 -4.956875168169693069e+01 -3.691460555794866139e+01 -3.862132667651775364e+01 1.593524394972171976e+01 3.666082866589622569e+01 1.645474589010929094e+02 1.215298734818121460e+02 6.860062802548546834e+00 -4.334778274511133844e+00 -1.565971662890670473e+02 1.180090143648148455e+02 1.571268731679531925e+02 -1.020149264975587329e+02 7.271590560299090100e+01 1.717000209594821802e+00 5.415758654783661541e+01 1.236932031543207273e+02 6.996988876220299858e+01 -1.322008606900163272e+02 1.591466413979398098e+01 -2.898587707898787613e+01 1.099090558651972671e+01 -2.282717016397032950e+01 4.473580483711806011e+01 -2.570973059230441322e+02 1.787900952818681048e+02 7.197455442234327982e+00 1.573488647496964177e+02 -1.040924497450628472e+01 1.048246695842916267e+02 7.073055676589409302e+01 -4.147049595008634526e+01 2.955025337302298283e+01 -7.192391693255851237e+01 -8.791510497256696510e+01 -7.121054375446281881e+01 -3.167695199389149607e+01 4.465259888861013593e+01 1.089037744665426288e+02 2.816135175945451152e+01 6.142881630761336709e+01 -1.036581833945594013e+02 -1.356272578432195530e+02 -1.333658431932927257e+01 4.589145604343513440e+01 -4.499635755556143835e+01 9.355358537116566708e+01 5.494223162453978659e+01 -2.735613451665979667e+01 2.963521315868662853e+01 6.074232750076748744e+01 -7.136354379842491369e+01 -1.323523791148395503e+02 1.406328454053529526e+02 7.735777639673643513e+00 4.964606598768707357e+01 -1.478501135668487052e+02 -5.289713033267642572e+01 -4.479313676313334547e-01 -6.514721841811318370e+01 4.228528343095081077e+00 5.578326697102618681e+01 1.847936027943735837e+02 3.878769324897204029e+01 -1.086752305231590299e+01 7.161252747826186749e+01 -4.510023923253719147e+01 -1.080876298120479220e+02 -1.370824116709765121e+02 9.295640924610166778e+00 2.491808824766972563e+01 2.362982236591691532e+01 -5.645663703687633728e+01 1.199421064648417570e+02 -8.025529902143615857e+01 1.274262625808269718e+02 8.669586729028308980e+01 -6.460334858915513223e+01 -8.416027357931810116e+01 8.365790677965125610e+01 2.032635383928970896e+01 -5.217653010116148948e+01 -5.351575000249454206e+01 1.358936398852751211e+02 5.698189968718440213e+01 7.944355141191238090e+01 2.600091283471483194e+01 -4.183919148985478387e+01 1.068757765313114163e+02 -5.428457966915463118e+01 5.460646428657791596e-01 7.618112400664618633e+01 9.911161396892627806e+01 2.543043959360155668e+02 -1.743796971927073400e+02 1.602322128352936943e+02 -6.729227441602773752e+01 -1.516569431031823711e+01 -2.498369094125025569e+01 -2.065352462616430529e+01 -5.495180659107799670e+01 9.264217263416378501e+01 1.834739852189048293e+02 -1.184431195003822666e+02 3.084873233524709235e+01 -1.265960133280498354e+02 7.004086176282815757e+01 -4.440231132675525316e+01 -8.087335362482237144e+01 -5.382377670328299502e+01 4.114289607786191283e+01 1.936685056420203921e+01 -8.174149374045273930e+01 -1.410279428776636905e+02 2.077025051529091471e+01 1.576692636390330904e+02 1.429506170726781633e+01 1.826375036051362031e+02 7.469838986381653889e+00 1.348004363971811301e+02 -3.464873934294052304e+01 9.089235718695067590e+01 -7.158702730845143947e+01 -1.131641751749088769e+02 4.955947435242486421e+01 -5.817121892954320117e+01 -7.876036876575453505e+01 7.312231145842935121e+01 6.476580457118231493e+00 -9.463664277073719688e+01 -1.511536581122037148e+02 1.485313196274883580e+02 -8.957196643124801483e+01 -2.363273006215854455e+00 1.206769884048878509e+02 5.832509825495468192e+01 -9.873235592680310901e+01 1.069166878853723723e+01 2.836732687205432626e+02 5.363566896530143424e+01 -1.587158356230226275e+02 -4.802662583416216080e+01 -6.192595041860480620e+01 9.692581005177807185e+00 1.083181884150393444e+02 -1.042264667284047448e+02 2.173229259674783975e+01 1.314728248008375999e+02 1.892041784346266553e+01 -2.129151911166891011e+02 4.871067979127305847e+01 7.608806130683213098e+01 -1.369158863295930395e+01 3.306378396743036774e+01 1.501985549941140807e-01 2.270397814543595061e+01 2.796452642443492920e+01 1.167842270820724053e+02 9.884298572819695039e+01 1.570369102184653265e+01 1.502690089211531586e+02 -6.455720031904010625e+01 2.487230660907110007e+02 6.558085540140109515e+01 1.429095833452513489e+02 -2.215824458977741784e+01 9.084053256039115354e+01 -4.942421205603037038e+01 -1.476437209567971536e+02 2.640950607654432147e+01 9.587746552522057186e+01 -8.836522027749288100e+01 -1.056617431708074122e+02 -6.712565877544540172e+01 3.692414649743619037e+01 -1.152324383456358987e+02 7.538399422489870005e+01 2.831296815900410024e+01 -9.848410733133354711e+01 1.916340712077820569e+02 -1.186810757118221993e+01 -1.026694814880235640e+02 -1.351145121472022304e+01 -2.061922416266455826e+01 -1.414923269443410163e+02 -4.039239742826205060e+01 6.206174611814147113e+01 1.329726432945994929e+02 2.928936587049322426e+01 2.700148730524194107e+01 4.519533736714815575e+01 -3.606845738569234072e+01 -1.469234242528425511e+02 1.600955956209458719e+01 3.126377769615027447e+01 1.343169807639720261e+02 -1.001380267115582967e+01 -7.683332595975207369e+01 7.387660500744073033e+01 9.995990143123975047e-01 3.218752473790890178e+01 1.405434271534983566e+02 -1.791567155838009739e+02 -9.371015259094113503e+01 1.258825300684004986e+02 -2.115693402873785658e+02 -1.803548375051005337e+02 8.924290950516548548e+01 1.510192059975757672e+02 6.216946614146872463e+01 -4.371611868967346659e+00 1.527489700126827756e+02 -2.152588147474879747e+02 1.050851654198695542e+02 4.156066429644621252e+01 1.246205895185905632e+02 -1.849468408858349449e+02 1.044866405991220404e+02 -2.771898817944542515e+01 -1.311127181191945397e+02 -5.222042642867316786e+00 -9.061539820589602812e+01 -1.596829728995815323e+01 -4.221685713226825953e+00 -1.208115619879430795e+02 -1.209349248030731871e+02 -6.136323002153176276e+01 -1.264281948963479181e+02 1.971068715349308320e+02 -1.579424502407040052e+02 -4.920240523165857383e+01 1.692036113431605031e+02 3.327165628621358451e+01 -2.902663204212093433e+02 -1.246419536941247230e+02 3.482979474171104783e+01 5.359510252684937370e+01 8.416618576441896593e+00 -1.516289428035735227e+02 3.499699963408853876e+01 7.335269234743925892e+00 -7.289134882708744101e+01 1.987991240313002095e+02 1.986719396604963208e+02 4.252656904621727740e+00 -2.045030576042005066e+02 1.235506740334747491e+02 3.016961305192480935e+01 3.699762649346143739e+00 7.513315632313243952e+01 -2.034611249513432369e+02 -1.353612668999622315e+02 1.383067288332041471e+02 1.075246743372271681e+02 5.189892467235239337e+01 1.404412383561484319e+02 -1.748135340999120331e+02 -2.004835303874129337e+01 -1.278984032098826589e+02 4.276913952619673864e+01 -1.018569137544289589e+02 8.536916731334815722e+01 -3.323534562325404806e+01 1.214353447558633015e+01 1.739967260756990299e+02 2.795997630277583568e+01 -2.584654335154903038e+02 -1.239211820399828241e+02 -8.173590281429420656e+01 1.550438260079841086e+02 1.229368100483508819e+01 -5.279631263143024000e+01 2.977470123264139090e+01 6.129678495359322454e+01 -3.880426656380634398e+01 1.054300669002574438e+02 -9.878745980625170375e+01 4.825942478196805041e+01 1.097601096118349346e+02 -3.478262055405591724e+01 -9.622271549259156131e+01 -1.112320990897956392e+02 1.174387180707158507e+02 -4.870475471741487894e+01 1.927416553608224206e+02 5.609610533844547575e+01 1.088016861757736251e+02 1.808686362671810457e+02 8.393679854419712427e+00 -1.218790766509532943e+02 -1.625397644266188024e+02 -1.119688090933625375e+02 4.166152470523496731e+01
-1.303743162180764337e+01 -4.621811196562916280e+00 9.919129724216512045e+01 -2.193720307317904030e+02 1.488655095681334615e+02 6.083291482951818807e+01 1.457246977536640316e+02 -1.237126247092445652e+02 -2.660053029713041362e+00 -2.305478417643047706e+01 -2.102261088356370919e+02 3.134568532930884643e+01 -1.754956887547351840e+01 1.171406902732868929e+02 -1.197989420409323174e+02 5.910641778393006973e+01 1.200045542424949332e+02 -4.400825132106385240e+01 -4.753729839584787698e+01 -2.588271209139471907e+01 5.910740969187418159e+01 6.043087362007291574e+01 3.105410388524271781e+01 -2.226953238723326649e+02 -4.941891663813943580e+01 8.765060773193873445e+01 9.488707170148247272e+00 -9.924834637185103503e+00 -6.371663306160710505e+01 -1.482061774198466964e+01 7.023660027697700059e+01 -1.392542278502531587e+02 -5.930629592808567452e+01 8.604254319540288520e+00 1.987572566139773187e+02 2.030743177509919235e+02 -3.074203604485509445e+01 5.351994136730185403e+01 -2.578451928895029721e-01 -1.337415819131819319e+02 9.191299737018611893e+01 1.026906083857547856e+02 1.039194306633744844e+02 1.119063153801331545e+01 5.926806678884817359e+01 4.608309970971176739e+01 3.723459131526649202e+01 2.809788052745232889e+01 1.056103323374493499e+02 8.591242812511161731e+01 6.281209835167626920e+01 1.560769225907186524e+02 2.372314101745994037e+02 1.872878461830829622e+02 -5.662670066233440025e+01 4.717810206891550706e+01 -6.155533094727545063e+01 5.401353640247576493e+01 -1.840235831229217354e+02 5.410474047657682917e+01 -1.960815813182995555e+02 -1.615622151622904710e+02 1.239827249287925959e+01 -8.857856892909980573e+00 1.623450040720910295e+02 -1.991409269100738584e+02 7.208977891944967098e+01 2.200927067891958870e+02 -7.045248604250778257e+00 -1.865080495916420205e+02 3.405701990027458237e+01 1.888593461644227318e+02 -5.852132564607344278e+01 -2.552541711161030946e+02 -9.823196798405696484e+01 8.493898956689482915e+00 -2.203829193332874752e+02 3.070126272327107131e+01 -1.719058645058357513e+02 -1.777809160880415789e+02 -5.474232798628714391e+01 1.460783365664563860e+02 6.657978477920256921e+01 1.016809604789080090e+01 -8.495691680188319594e+01 -4.083299479105091478e+01 6.110085875109086118e+01 -2.225085041319999846e+02 5.186847246463398875e+01 -7.188777041952052116e+01 -7.490466339811773366e+01 -1.695284106838629725e+02 6.239028251600585406e+01 8.892739448819203574e+01 -1.556724535921575239e+02 1.657100311074313481e+02 -3.826042199549402767e+01 -1.622796147231111874e+01 8.403090575851533117e+01 1.499603267418536063e+02 2.082995110135693650e+01 1.452982619794954928e+02 -1.773485407370620237e+01 -8.702834242180922786e+01 -1.881856650542871279e+01 9.698406375733223683e+01 4.436801044432948515e+01 9.651479583049784594e+01 9.312716391856552889e+01 -8.195837628137043396e+01 -1.676418153133887472e+02 1.214106630514397409e+02 5.352638830969561923e+01 1.598026223357805797e+01 3.017013544296600003e+01 -6.702580839456828699e+01 9.476572193304807001e+01 8.866672737113948699e+01 -1.351775562433961753e+01 -7.031667879902336438e+01 3.033769608133896867e+01 6.197483651229688917e+00 -6.071624813246436503e+01 1.673767253691202654e+02 -3.247904556951942823e+01 1.200539514287877694e+02 -6.921551651815066464e+01 3.790286650969834881e+01 -3.564150604055905802e+01 8.835581561194976530e+01 2.318809951912532341e+01 1.141521948182529940e+02 -1.145865403934950848e+02 7.343852344819690359e+01 1.219817128253209972e+02 -4.416648640265319159e+01 7.523014170246510091e+00 -1.256494428304718447e+01 1.154092374411191315e+02 3.549900630549279512e+00 1.666781953523536117e+02 -1.397727911461065560e+02 1.153233566851713334e+02 -9.027018384538938278e+01 9.469322704988799444e+01 -1.355163752404937156e+02 2.918696178446259282e+01 2.447369069118595064e+01 1.781270978081397560e+00 3.591741157605181911e+01 4.545023740027736636e+01 -1.227498007343436726e+01 1.072750664075375759e+01 1.069424580568807812e+02 1.259108464593850982e+02 -8.578182570302128340e+01 -5.363574247226459590e+01 4.685998304156254335e+01 1.514703472205034318e+00 -1.355728047129646541e+02 -5.455458816717597159e+01 -3.508368432858483743e+01 4.842241174684249216e+01 -6.489897522321302858e+01 2.269930077528146484e+01 1.588341130718011982e+02 -7.871044464112506489e+01 8.005736857729563383e+01 8.330652217459261522e+01 1.114725806796023200e+01 1.223404340611288177e+02 6.233457608494543223e+01 1.666026158421858838e+02 -3.428695665597687992e+01 1.115261761661886908e+02 5.510172503470612071e+01 -1.594318696237906785e+01 2.025459867555683786e+02 -1.377459765714671960e+02 4.852515957226283660e+01 -1.862263201267510055e+02 -8.358666064843575327e+01 4.075215875581216807e+01 -7.172810354555606693e+01 -1.548103525358089598e+02 1.980582487566579744e+02 -8.524559667909342409e+01 -4.720196973849044042e+01 -4.600007513289437355e+01 1.210241401164758770e+02 1.936333418188380335e+02 6.437644249986213651e+01 1.454093118643083358e+02 2.182150209751787315e+02 -1.604992797419538597e+00 1.619831271282043588e+02 7.049250390269897082e+01 1.893386018096597923e+02 -1.250937182091572168e+02 -1.179014297863427885e+01 6.310550304866434423e+00 1.889004729803351381e+02 -9.038039672347856879e+01 -6.015890102615870205e+01 -5.265295523078581397e+01 -1.332504840735533094e+02 4.641523349303223078e+00 -1.003800674894503686e+02 1.532893167809447732e+02 2.343083110031684768e+01 1.193611625983329461e+01 7.191162364933488504e+01 -4.899786096951511460e+00 1.163328590553304167e+02 -1.579922043734873682e+02 4.516603068160357282e+01 -1.698941622602871746e+02 1.167838706114965390e+02 9.553177120935745847e+01 -6.693548160871800690e+01 4.652445943918397830e+01 2.368413269827233876e+02 -3.029713204382893466e+01 4.142887335099139534e+01 -3.249764195568937453e+01 5.762395943888962790e+01 6.392586706970229926e+01 -6.243040843861069611e+00 1.013524533975796800e+02 1.009287497776441427e+02 -1.927971588632904911e+02 -1.523872873010244007e+02 -1.191571028146932605e+02 -9.389788582841868347e+00 -1.489402660042983371e+02 1.148977588840004529e+02 1.097203281558913375e+02 5.865158992824758144e+01 1.109913289727143137e+01 1.567818030410046219e+02 8.347985866018814249e+01 6.711372705286507312e+01 -1.010347428363947131e+02 1.514939352673786459e+02 -3.567166262780779640e+00 1.087007593556580645e+02 8.766566745676113825e+00 3.652697007226291959e+01 -7.524588768295998875e+01 -9.020053064635868623e+01 7.114990150754168496e+01 -3.823134732394642299e+00 1.453238792600946852e+02 -1.248871391070450265e+01 -2.833573293488432121e+00 4.556237063373398399e+01 2.248960832797468612e+01 1.404919780741185207e+02 1.456138912642028416e+01 3.560669000340945445e+01 -1.536466032194601894e+02 6.538242491839530146e+01 1.327161550528617511e+02 -1.751266526713417093e+01 -2.263334106595795845e+02 8.376597021202353233e+01 1.350205774605909426e+02 2.016123689111587325e+01 1.872479401180082448e+02 -4.161164539685664465e+00 4.245798518311034542e+01 -4.314892937856463817e+01 -1.371437102328755770e+02 5.538184361254850074e+01 -4.693193561647606771e+01 -8.008502134280033147e+01 4.072731612273344126e+01 -1.825385147626573428e+02 7.080673835256709481e+01 1.623427528445498069e+02 -9.993400227571572714e+01 1.707445363021288642e+02 -9.635701267847024099e+01 -5.896517722833774400e+00 -1.038860286731332927e+01 7.558132429374531114e+01 -4.595386607249199784e+01 -1.062901018749844440e+02 -8.730726771712423329e+01 1.436839149520174601e+02 5.824563121650729869e+01 -1.298277757467737672e+02 4.365465461493146293e+00 4.277099626250765851e+01 8.130292222339885200e+01 -3.971125018147139940e+01 5.904167910197757863e+01 -6.789442762538736531e+01 -1.597915579099674801e+02 -3.408316750660392813e+01 1.387266875588792914e+02 -1.115686998855571233e+02 -6.302637221220619423e+00 -1.602555159760530046e+02 -4.727339363904494718e+00 -1.434922639657629873e+02 3.237514082634213963e+01 5.918562621222931597e+01 -4.949019311957040657e+01 -8.100267867311384862e+01 5.540638910204515710e+00 7.313458311801622358e+01 -6.661316500740272772e+01 1.323764061938171324e+02 1.037045954733689257e+02 -1.254160278676364584e+02 -1.036036521312263972e+02 1.326878544009728103e+02 7.005335816097525026e+01 1.474967153466012633e+02 9.830838414967318784e+01 7.967139655547440213e+01 -5.915719708708030566e+01 -8.024003442605791747e+01 -7.561568004311800451e+01 2.006226170613461761e+02 2.997974985031050110e+01 -2.442713040063829411e+01 -6.718441792414837721e+01 -4.899805565373078053e+01 -1.286209144505048698e+02 -1.615542121145613663e+01 -1.713637511277087526e+02 1.221146233395682401e+02 4.492598727113262669e+01 -1.125342359337535783e+02 -4.726118643041636602e+01 1.169368361487749581e+02 -9.467672890099687777e+01 1.004155110621257023e+02 -1.156794492498606814e+02 -1.149446471471667586e+01 -9.325362885811040314e+01 8.760914423823565755e+01 -4.147405267290606190e+01 1.005605609095655595e+01 2.864384412014635473e+01 -1.236411827678229969e+02 1.220304452001561657e+01 4.719905009898378978e+01 -2.184573782199202796e+01 -6.710138369162802974e+01 1.976966115251518374e+02 8.437966143512360873e+01 4.598671680656033800e+01 -3.065960411161117705e+01 7.829101851482586483e+01 1.635620583649678679e+02 -9.003367767252579768e+01 2.044058362016704962e+02 -1.298854948638526707e+02 -1.794690908179485689e+02 1.481451101285124139e+02 -2.282934561874321275e+02 -9.487374854749200948e-01 -2.389875960796043159e+02 -1.491944769044791599e+02 7.002278535586800956e+01 -1.420855477606071418e+02 5.695870267237584983e+01 1.072539822956993589e+02 -1.564602893074962822e+02 -2.938446820748499633e+01 7.357762074058298651e+01 1.306663966675077972e+02 -1.815815820305298587e+02 8.535260369135419012e+01 -9.557984694012338878e+01 -9.623379745654164097e+00 -1.353376701820159056e+01 -7.763890769148271431e+01 -8.810558766591600488e+01 1.769592451339825061e+02 -2.116595342197460283e+01 1.308696516535803989e+00 1.270839587504907655e+02 -8.462012445304395669e+01 -3.360177775664312350e+01 -1.051061567147660867e+02 -4.767624340212374534e+01 5.043679378142084779e+00 5.798451947534335460e+01 -1.319982033733371907e+02 2.318870070611630183e+02 -5.271455844882866160e+01 1.200054968627637209e+02 -4.778664898500146307e+01 1.172621135051348773e+02 1.362245090248777331e+02 4.698363244933833016e+01 1.195831241647053957e+02 -4.234454739178327287e+01 1.371300021990726066e+02 -1.533155060925704163e+02 -6.408403682596167528e+01 -6.171459540252516973e+01 2.504445336332577554e+01 -1.590795185353127863e+02 7.111099594474120522e+01 -3.023083236249998507e+01 -8.101239164527481762e+01 8.783143720665411536e+01 -1.481338992184654160e+02 -8.943040981568240966e+01 -5.159458111219674947e+01 3.242924122056987102e+01 1.272702210533912819e+02 1.145617492505355415e+02 6.775806755090681577e+01 -1.553703105835983145e+00 1.714569622843671937e+02 1.201247529885814629e+02 -9.260723150559047667e+01 -7.660218400723613286e+01 5.420001318025550319e+01 9.770610228379929652e+00 9.605315045209232494e+01 1.634283352305858728e+02 6.920133537536121082e+01 2.393530427912010694e+01 -1.001896946597114777e+02 1.683940229075075194e+02 -1.114195703320498296e+02 -1.619876308534381906e+02 6.441223361368362532e+01 1.092594915105548239e+02 1.924581704393650838e+01 -1.360466154132590191e+02 2.912180745097904833e+01 4.155600376242447425e+01 -3.324316686486110117e-01 1.282482238845549318e+02 9.567148474809266645e+01 1.675655592381753678e+01 7.672267254009403814e+01 -1.047625185310616303e+02 -6.205218222948471585e+00 9.628313937711976678e+01 2.906699241270110079e+01 -6.366510568493509936e+01 1.938702172451857848e+02 2.262198826582938409e+02 -1.228312642440269400e+02 -2.703047231488805835e+01 -2.056938681967033347e+02 -7.063243467443578538e+01 1.532185469231474144e+02 3.313383030185256040e+00 -6.945122070150625859e+01 1.602268428371885705e+02 -6.114032869833867068e+01 -1.571017004607497540e+02 1.335678704735455256e+02 -6.572812798548085311e+01 3.372821484563147720e+01 8.443954161860482088e+01 1.348092555597388831e+01 -2.329548346555941691e+02 4.136612656577482028e+01 -6.015811361027963322e+00 8.809191348887233630e+01 -2.303839354562090591e+01 9.887194008569838388e+01 1.660264277629153185e+01 -8.282691426147019342e+01 -2.002216162103643526e+01 -1.713039779328192935e+02 1.124054849463309296e+02 2.470931084583111570e+01 -4.068716211715964448e+01 -5.064166055634761676e+01 -6.148174899079920408e+01 4.019065606508418398e+01 1.570780483212533056e+02 1.297118275460657344e+02 4.208723521303344484e+01 -1.934082825732153594e+02 -3.792051444121640458e+01 4.283062184298931641e+01 1.146890960518888818e+02 8.524298746667805915e+01 1.509767686833234457e+01 -1.818363568174007980e+02 1.287255154931129653e+02 -2.187082549111853496e+02 -2.011718635638263208e+02 -1.796356893108383979e+00 -7.210928722407038549e+01 -2.355910384877842745e+01 8.516055766536013039e+01 5.465979010683452799e+01 -1.086923445629194731e+02 -1.480446316041781074e+02 1.425896144124410014e+01 1.209018007901924534e+02 2.022079375745415675e+01 -5.543126996088434311e+01 -5.047144284668500802e+01 -1.147756305616950101e+01 1.577374865144568332e+02 2.186562590725212729e+01 -1.728318212334731356e+02 1.276818946130352970e+02 -6.648765835788137224e+01 -4.154380864714928734e+00 1.532391321750823465e+02 -5.203763409502424508e+01 -1.949188776874834161e+01 -1.093134038961870829e+02 -5.975410273484094148e+00 -2.373624146222216424e+01 1.310506990372493021e+02 1.194931060104549516e+02 6.725110023364555900e+01 6.511170100251388249e+01 -1.861852963727465138e+01 1.345340983410345927e+02 -1.122080844146215952e+02 -4.238113171851870753e+00 -9.060717844515423280e+01 1.563464409238294763e+02 7.258120770914054276e+01 5.142928562045926810e+01 8.225172816358020000e+00 -5.302928983989101397e+01 3.421299839093570228e+01 6.705751354650148599e+00 3.608669623094674872e+00 2.398967475384275971e+01 5.947838107654282425e+01 1.694070881839176081e+02 -3.864959189364933678e+01 -5.172153033814809930e+01 6.645310008604322149e+01 1.150871735135056610e+02 -1.274745618952499093e+01 9.147379076406961929e+01 1.035344885504098897e+02 2.097000474208926448e+02 -8.610229483609110446e+01 -1.220547304426024056e+02 -2.849383309269315490e+01 6.183123700266023803e+01 -1.009490750065686626e+01 1.068529306871876230e+02 3.704498244329827372e+01 -1.617630097063987193e+02 4.481644149031801305e+01 -8.897571913472769722e+01 -1.345575780564149682e+02 1.337597619074510078e+02 -7.561050109474294345e+01 5.882604835264455545e+01 1.105487624567153517e+02 -9.843893196256462375e+01 2.334877031972078854e+01 -7.171396996325462680e+01 4.002914229886297193e+01 -1.139095002656602702e+02 6.120098843197732208e+01 5.433033490441138014e+01 3.874956130958142619e+00 8.350914272389265136e+01 -1.519116271506882185e+02 7.586948155689474049e+01 -2.908366574956712469e+01 -1.666181063498932531e+02 9.319193996959754145e+01 2.419630797611594275e+01 -1.934440387624322852e+02 2.320256031578379066e+02 -5.269736138509504286e-01 1.037194445490030148e+02 -1.189372940593873835e+02 -1.915253705902291870e+02 -9.203217249120430665e+01 2.452528430148545713e+00 1.409210464642266629e+02 3.934946121028322530e+00 -9.425581202250434387e+01 4.969069820468427423e+01 1.351566108492271496e+02 6.408236211819436789e+01 -5.102312658575640114e+01 -5.832835603566564942e+01 8.334201740943092318e+01 3.031447589713739887e+01 -1.928697704094475966e+02 -2.044666737051576888e+01 1.667028786422085602e+02 9.745583716189432266e+01 -5.653893087843422194e+01 -1.102637189896878738e+02 -4.208888849672968036e+01 -4.741860421061414854e+01 -1.128734443491728854e+02 -1.821080724548896512e+01 -4.503212450957484236e+01 -1.120517397600416984e+02 -1.300830084127307771e+02 -2.656895890983659925e+01 -1.239372692978681982e+02 -1.319619464054761693e+02 -3.780353538814203063e+01 -5.457985201322228619e+01 -1.094823483870141274e+02 1.902101945840393284e+02 1.075664339381183154e+01 -2.874527265576262991e+01 -1.737593651917418924e+01 8.038339761029637032e+01 1.598296867639181684e+01 2.559383534177521824e+01 -2.173418344106876887e+01 -4.726129702349206951e+01 2.137231158067821823e+01 -1.485406522695304261e+02 -1.626637102384143816e+02 -9.238487848580970763e+01 -1.950062370237507139e+02 -9.157219169068221731e+01 8.766073895314647757e+01 6.272343777468024939e+01 -2.662592050583378978e+01 6.209357182223086369e+01 -1.599789015256106666e+02 -4.173342231420692627e+01 -1.186663757184042254e+02 -6.820630536821317946e+01 2.155580378176850616e+02 -2.097626187434203189e+02 2.097412997137250272e+02 2.552978524213421707e+01 -5.769613266765542647e+01 9.424513767848776524e+01 1.267882937946393156e+02 -5.302073858216403579e+01 -2.081850784266415246e+02 -1.523493414413200640e+02 1.045038351436712247e+02 8.558740723502633330e+01 -1.385360124932283838e+02 3.264710462340080710e+01 -4.053832230052006480e+01 -7.908934495280556121e+01 -2.904542613198753287e+01 -5.601995350871035129e+01 -8.832017215564489732e+01 -3.478791916852033950e+01 4.590915589318320222e+00 -3.340566730285117814e+01 -3.957393806509338363e-01 -1.465882482572213341e+01 9.397300155627064555e+01 1.298671843063505094e+02 1.345304911612542043e+01 1.716016892084959267e+01 -6.449749444393997067e+01 -2.003158993298587234e+02 3.459083000662428020e+01 -9.373122471485885399e+01 2.639688100108777746e+01 -8.341473088552300297e+00 1.053738471678948407e+00 7.388239081509676964e+01 1.245444532221177809e+02 -7.200875076350047266e+01 3.882849971403545197e+01 -1.970716251285120393e+02 9.886032860490113094e+00 7.131317232284907881e+00 -1.252290775496283999e+02 -3.445816424080496887e+01 -4.529544852617880224e+01 4.873571658566007159e+00 -1.044817781650766335e+02 2.764499702692886629e+01 -9.978028976364581126e+01 5.732260335555960040e+01 6.933577147255270745e+01 3.769080237069327666e+01 -2.965027798318127594e+01 1.097998645203852845e+02 6.240664493224387854e+01 8.173527813329197045e+01 -6.844898549866370274e+01 2.072312581082482907e+01 1.306467090808542935e+02 -5.973732063677212523e+01 -7.063198146107198205e+00 3.267560821376294911e+01 -1.311548298616045827e+02 9.990228833220481874e+01 9.147864903398620129e+01 -1.032909468274649214e+02 -8.409198420001341390e+01 -5.669563448877557477e+01 -4.653867632343597194e+01 -1.636135694953640325e+02 -1.387549832721495306e+02 -1.352327757904867553e+02 1.078517217682282592e+02 6.101626164964909549e+01 1.628016155539793601e+02 7.346737946912210049e+00 -8.747608901060333153e+01 1.911942459956850016e+01 1.411093091835580182e+01 -6.480537900007907126e+01 7.553474053563459734e+01 1.204173562924118954e+02 1.018167227975349221e+01 1.462352784706266959e+02 2.294944493190835999e+01 1.131372210762095705e+02 1.538455708808718292e+01 -2.118347933597395922e+02 2.226204597494740085e+02 -4.988425410157761064e+01 -1.519827899863683456e+02 -6.848033553898973480e+01 -4.372434897636393458e+01 4.197042157818651731e+01 2.595566392730961525e+01 4.638391229603215038e+01 -7.511681621053887170e+01 1.240149857643098983e+02 -8.739483417649738328e+01 -7.101830241928852594e+00 1.442492688181828839e+02 1.109704450790155335e+02 5.870815691939601777e+01 -1.791070829165111036e+02 2.572459037331184462e+01 1.419769241543478415e+02 2.368825030713064805e+01 9.860854398008061139e+01 1.074998568029967316e+02 -2.134710053885527827e+02 7.764201544498236274e+01 -5.827653012452663006e+01 -2.268718310360664532e+02 8.921618592656238889e+01 2.475413272769176842e+01 -1.223840210001838358e+02 -5.865207927232098228e+01 1.388290878500707777e+02 1.473675218132221119e+02 -7.564791794465986641e+01 -1.273488474665613239e+02 -8.305434050522086409e+01 -1.649316574318815185e+02 1.943800713366629296e+01 3.765141725781986537e+01 -1.682087024429046807e+01 -1.226497990080638445e+01 -8.860155210030625028e+01 -8.737972629183782658e+01 -2.435841810914504180e+01 1.319356337131997634e+02 1.340807571012031190e+02 7.977786828917930961e+01 9.540119019621913310e+01 -7.713322251228051130e+01 -1.770976752041370332e+02 -1.295758767479253848e+01 -2.267301371024035817e+01 -6.950823237668222987e+01 1.462401629768890654e+00 7.150125404043360788e+01 -5.178730404335833981e+01 2.413138447085959726e+01 7.748345822790690818e+01 6.859507750838204743e+01 1.081583318905212252e+02 -1.459722732355993173e+02 3.878794634486737181e+01 8.152206566324410630e+01 9.272206491583165189e+01 5.779478946839204667e+01 -1.010187879395068222e+02 1.339892763988740114e+02 1.247268469581512988e+02 9.378014873733781087e+01 9.934992293599218272e+01 -8.241038993935362100e+01 -1.454917107085900163e+01 -1.265540479853074629e+01 7.539742067604352371e+01 6.357295364579628227e+01 5.477899470246486402e+01 9.548039190242616314e+01 1.139814715920268071e+02 1.212369303727810319e+02 -6.349114238460894910e+01 7.886799391480843724e+01 6.383998717357614794e+01 -1.151315421964597334e+02 1.287785246450009424e+02 -9.819607553291536561e+00 -2.732591812246413809e+01 1.950621060962109539e+02 8.661770029111053759e+01 1.215103628624410845e+02 -1.413436111149567864e+02 -1.545377975150878740e+02 -1.505845394854419510e+02 -1.196879355521147374e+02 -4.339327897421376434e+01 1.076120152470416542e+02 -1.653348502586222253e+02 3.188741187972081192e+01 1.415605848489107075e+02 -5.821125472000130685e+01 -8.961783943818277010e+01 -3.446122014804002731e+01 1.333516398333815118e+02 2.231199817732363044e+02 -6.544823285640597987e+01 1.945977356826304572e+01 -2.719611990252030864e+01 6.727566396168676022e+01 5.919189915781885958e+01 -2.095071618614026079e+02 -8.712925660602147104e+01 1.352161538164605759e+02 1.374125051050170043e+02 9.293380293971546280e+01 -4.897853227951703303e+01 -7.453499107532304890e+01 -4.464590701770403314e+01 -1.736301949926737223e+02 6.998391099941513005e+01 -2.524514092916190577e+01 1.636812422231579944e+02 -2.748109139736994422e+01 -3.095336349574520227e+02 1.425651809503471839e+02 4.947780227115970320e+01 -1.160982436587233906e+02 -2.180726932793341533e+01 3.475587873762351165e+01 -2.044395218841796407e+02 -1.125033777428690058e+02 -1.079174790525317462e+02 -5.555365183295194242e+01 6.183655234645718934e+01 -1.623117899864800506e+02 1.062763524251435427e+02 -5.349349702745028168e+01 2.871281211561721669e+00 -1.314062544419966514e+02 -1.020647485784074604e+02 1.732236221046980518e+02 8.537275901146283275e+01 -4.160831294775118039e+01 3.661769407156694456e+01 -2.764237627780431339e+01 4.262256828740580517e+01 -1.030953866764779150e+02 9.743515898349501470e+01 4.977530088289696408e+01 -1.171934011909002606e+02 1.150819428807503044e+02 -4.842881763594280642e+01 9.848839093738250483e+01 -4.870519596065140178e+01 8.713417272174486072e+01 -1.512497242810080991e+02 1.407124325474744353e+02 2.442323569228871705e+01 9.925510860836614313e+01 1.286189363247399342e+02 -1.446389358402833807e+02 -8.472628657065338587e+01 -1.041955755116650693e+02 6.596913258333106000e+01 -1.690391292143875432e+02 1.494725412754151819e+02 1.404793595099661445e+02 5.227562931930007295e+01 -8.377158930014138605e+01 5.630535581588295457e+01 -1.059007861254840606e+02 -1.080117084088312041e+01 3.452347799505339765e+01 -1.813500144621347943e+02 -8.052595081853030479e+01 -1.336006800339889722e+01 1.008899388382153148e+02 -4.956967363946947813e+01 1.073386488286184175e+02 -6.352076419779037053e+01 -2.081599311628502278e+02 -1.057595968444439904e+02 -3.363804528487306555e+01 -5.944396483674827891e+01 2.972525584077489924e+01 5.076829459552507728e+01 6.268085984533646737e+00 2.503157825045077800e+01 -1.159224361795427427e+02 5.321433062696445404e+01 3.224829342995680292e+01 -7.133271013295636465e+01 9.160949210870533932e+00 5.569398949671213472e+01 -9.432056380496716486e+01 -5.445927898554371183e+01 -2.388116759317479776e+01 9.649857460310002466e+01 -1.693977856530663573e+01 4.147876328818749236e+00 -2.255819813299779639e+02 -9.399840694945095265e+01 9.786257343147985921e+01 -8.824849745848280236e+01 3.100237316714140334e+01 3.073069215184238345e+01 3.752257351427794418e+01 6.538212451554964844e+01 -1.755824530402729806e+02 1.424599509791809169e+02 8.064711849547047962e+01 -7.445053828833217757e+00 -7.996437185041826012e+01 1.107395729987229629e+02 6.145377636723440418e+01 -1.990283146278897846e+02 -4.986354022021384935e+01 -8.085815134627686973e+01 -5.129884563677464371e+01 -6.129611884262968147e+01 -9.802985742609506303e+01 -5.975280299230527703e+01 1.895599716688175533e+02 -1.690419647860204577e+02 6.481629039487540922e+01 2.746359419590913475e+01 -7.442482716096127149e+01 1.028329106725871611e+01 -3.902768955794063999e+01 3.396972906632215849e+00 -9.517664907072547464e+01 -1.955905877634432954e+02 1.821104284864091838e+01 4.149078557657400523e+01 -1.267082797024906782e+01 -8.912483004716582613e+00 -3.938696279205061046e+01 -1.880488942351016988e+02 -3.034283561829999343e+01 -6.472141313024233966e+01 1.382098965933732693e+01 -1.545976538151319524e+01 8.968080351887387280e+01 -6.242191505604041168e+01 -1.026880074148811559e+02 -3.538181589042030595e+01 -8.915077741948286061e+00 4.504487295808922909e+01 -2.192072898625482225e+01 -7.305665796956930080e+01 -1.572401293068485728e+01 1.986661003097863798e+01 4.704909479054251875e+01 -1.129195809900064091e+02 -1.377117495600013228e+02 2.281711827887135939e+02 -2.162279782936205095e+02 -7.523180938412485830e+01 -4.590255859105293723e+01 1.385529126430026849e+02 6.269112591568899262e+01 2.267654793956331503e+02 2.424888776040965297e+02 -6.176849279544180149e+01 1.282691629122443544e+02 -5.546591720911364121e+01 -4.043927670810348474e+01 -9.971377815217900320e+01 -7.910932198187069275e+01 -6.892421779068155274e+01 -8.819012955271080045e+01 -2.415486950891470315e+02 -2.683874641320304022e+02 1.334615140997591141e+02 -2.629151020894268953e+01 5.278161181712693661e+01 1.296920053026794335e+02
