# 
#                 ----------------------------------------------------
#                 Data from a 3D direct N-body simulation. 
# 
#                 rows are i-particle; 
#                 coumns are :mass, tag, x ,y, z, vx, vy, vz, ax, ay, az
# 
#                 NTHU, Computational Physics Lab
# 
#                 ----------------------------------------------------
#                 Time = 7.69999999999988
1.000000000000000000e+00 2.000000000000000000e+00 3.000000000000000000e+00 4.000000000000000000e+00 5.000000000000000000e+00 6.000000000000000000e+00 7.000000000000000000e+00 8.000000000000000000e+00 9.000000000000000000e+00 1.000000000000000000e+01 1.100000000000000000e+01 1.200000000000000000e+01 1.300000000000000000e+01 1.400000000000000000e+01 1.500000000000000000e+01 1.600000000000000000e+01 1.700000000000000000e+01 1.800000000000000000e+01 1.900000000000000000e+01 2.000000000000000000e+01 2.100000000000000000e+01 2.200000000000000000e+01 2.300000000000000000e+01 2.400000000000000000e+01 2.500000000000000000e+01 2.600000000000000000e+01 2.700000000000000000e+01 2.800000000000000000e+01 2.900000000000000000e+01 3.000000000000000000e+01 3.100000000000000000e+01 3.200000000000000000e+01 3.300000000000000000e+01 3.400000000000000000e+01 3.500000000000000000e+01 3.600000000000000000e+01 3.700000000000000000e+01 3.800000000000000000e+01 3.900000000000000000e+01 4.000000000000000000e+01 4.100000000000000000e+01 4.200000000000000000e+01 4.300000000000000000e+01 4.400000000000000000e+01 4.500000000000000000e+01 4.600000000000000000e+01 4.700000000000000000e+01 4.800000000000000000e+01 4.900000000000000000e+01 5.000000000000000000e+01 5.100000000000000000e+01 5.200000000000000000e+01 5.300000000000000000e+01 5.400000000000000000e+01 5.500000000000000000e+01 5.600000000000000000e+01 5.700000000000000000e+01 5.800000000000000000e+01 5.900000000000000000e+01 6.000000000000000000e+01 6.100000000000000000e+01 6.200000000000000000e+01 6.300000000000000000e+01 6.400000000000000000e+01 6.500000000000000000e+01 6.600000000000000000e+01 6.700000000000000000e+01 6.800000000000000000e+01 6.900000000000000000e+01 7.000000000000000000e+01 7.100000000000000000e+01 7.200000000000000000e+01 7.300000000000000000e+01 7.400000000000000000e+01 7.500000000000000000e+01 7.600000000000000000e+01 7.700000000000000000e+01 7.800000000000000000e+01 7.900000000000000000e+01 8.000000000000000000e+01 8.100000000000000000e+01 8.200000000000000000e+01 8.300000000000000000e+01 8.400000000000000000e+01 8.500000000000000000e+01 8.600000000000000000e+01 8.700000000000000000e+01 8.800000000000000000e+01 8.900000000000000000e+01 9.000000000000000000e+01 9.100000000000000000e+01 9.200000000000000000e+01 9.300000000000000000e+01 9.400000000000000000e+01 9.500000000000000000e+01 9.600000000000000000e+01 9.700000000000000000e+01 9.800000000000000000e+01 9.900000000000000000e+01 1.000000000000000000e+02 1.010000000000000000e+02 1.020000000000000000e+02 1.030000000000000000e+02 1.040000000000000000e+02 1.050000000000000000e+02 1.060000000000000000e+02 1.070000000000000000e+02 1.080000000000000000e+02 1.090000000000000000e+02 1.100000000000000000e+02 1.110000000000000000e+02 1.120000000000000000e+02 1.130000000000000000e+02 1.140000000000000000e+02 1.150000000000000000e+02 1.160000000000000000e+02 1.170000000000000000e+02 1.180000000000000000e+02 1.190000000000000000e+02 1.200000000000000000e+02 1.210000000000000000e+02 1.220000000000000000e+02 1.230000000000000000e+02 1.240000000000000000e+02 1.250000000000000000e+02 1.260000000000000000e+02 1.270000000000000000e+02 1.280000000000000000e+02 1.290000000000000000e+02 1.300000000000000000e+02 1.310000000000000000e+02 1.320000000000000000e+02 1.330000000000000000e+02 1.340000000000000000e+02 1.350000000000000000e+02 1.360000000000000000e+02 1.370000000000000000e+02 1.380000000000000000e+02 1.390000000000000000e+02 1.400000000000000000e+02 1.410000000000000000e+02 1.420000000000000000e+02 1.430000000000000000e+02 1.440000000000000000e+02 1.450000000000000000e+02 1.460000000000000000e+02 1.470000000000000000e+02 1.480000000000000000e+02 1.490000000000000000e+02 1.500000000000000000e+02 1.510000000000000000e+02 1.520000000000000000e+02 1.530000000000000000e+02 1.540000000000000000e+02 1.550000000000000000e+02 1.560000000000000000e+02 1.570000000000000000e+02 1.580000000000000000e+02 1.590000000000000000e+02 1.600000000000000000e+02 1.610000000000000000e+02 1.620000000000000000e+02 1.630000000000000000e+02 1.640000000000000000e+02 1.650000000000000000e+02 1.660000000000000000e+02 1.670000000000000000e+02 1.680000000000000000e+02 1.690000000000000000e+02 1.700000000000000000e+02 1.710000000000000000e+02 1.720000000000000000e+02 1.730000000000000000e+02 1.740000000000000000e+02 1.750000000000000000e+02 1.760000000000000000e+02 1.770000000000000000e+02 1.780000000000000000e+02 1.790000000000000000e+02 1.800000000000000000e+02 1.810000000000000000e+02 1.820000000000000000e+02 1.830000000000000000e+02 1.840000000000000000e+02 1.850000000000000000e+02 1.860000000000000000e+02 1.870000000000000000e+02 1.880000000000000000e+02 1.890000000000000000e+02 1.900000000000000000e+02 1.910000000000000000e+02 1.920000000000000000e+02 1.930000000000000000e+02 1.940000000000000000e+02 1.950000000000000000e+02 1.960000000000000000e+02 1.970000000000000000e+02 1.980000000000000000e+02 1.990000000000000000e+02 2.000000000000000000e+02 2.010000000000000000e+02 2.020000000000000000e+02 2.030000000000000000e+02 2.040000000000000000e+02 2.050000000000000000e+02 2.060000000000000000e+02 2.070000000000000000e+02 2.080000000000000000e+02 2.090000000000000000e+02 2.100000000000000000e+02 2.110000000000000000e+02 2.120000000000000000e+02 2.130000000000000000e+02 2.140000000000000000e+02 2.150000000000000000e+02 2.160000000000000000e+02 2.170000000000000000e+02 2.180000000000000000e+02 2.190000000000000000e+02 2.200000000000000000e+02 2.210000000000000000e+02 2.220000000000000000e+02 2.230000000000000000e+02 2.240000000000000000e+02 2.250000000000000000e+02 2.260000000000000000e+02 2.270000000000000000e+02 2.280000000000000000e+02 2.290000000000000000e+02 2.300000000000000000e+02 2.310000000000000000e+02 2.320000000000000000e+02 2.330000000000000000e+02 2.340000000000000000e+02 2.350000000000000000e+02 2.360000000000000000e+02 2.370000000000000000e+02 2.380000000000000000e+02 2.390000000000000000e+02 2.400000000000000000e+02 2.410000000000000000e+02 2.420000000000000000e+02 2.430000000000000000e+02 2.440000000000000000e+02 2.450000000000000000e+02 2.460000000000000000e+02 2.470000000000000000e+02 2.480000000000000000e+02 2.490000000000000000e+02 2.500000000000000000e+02 2.510000000000000000e+02 2.520000000000000000e+02 2.530000000000000000e+02 2.540000000000000000e+02 2.550000000000000000e+02 2.560000000000000000e+02 2.570000000000000000e+02 2.580000000000000000e+02 2.590000000000000000e+02 2.600000000000000000e+02 2.610000000000000000e+02 2.620000000000000000e+02 2.630000000000000000e+02 2.640000000000000000e+02 2.650000000000000000e+02 2.660000000000000000e+02 2.670000000000000000e+02 2.680000000000000000e+02 2.690000000000000000e+02 2.700000000000000000e+02 2.710000000000000000e+02 2.720000000000000000e+02 2.730000000000000000e+02 2.740000000000000000e+02 2.750000000000000000e+02 2.760000000000000000e+02 2.770000000000000000e+02 2.780000000000000000e+02 2.790000000000000000e+02 2.800000000000000000e+02 2.810000000000000000e+02 2.820000000000000000e+02 2.830000000000000000e+02 2.840000000000000000e+02 2.850000000000000000e+02 2.860000000000000000e+02 2.870000000000000000e+02 2.880000000000000000e+02 2.890000000000000000e+02 2.900000000000000000e+02 2.910000000000000000e+02 2.920000000000000000e+02 2.930000000000000000e+02 2.940000000000000000e+02 2.950000000000000000e+02 2.960000000000000000e+02 2.970000000000000000e+02 2.980000000000000000e+02 2.990000000000000000e+02 3.000000000000000000e+02 3.010000000000000000e+02 3.020000000000000000e+02 3.030000000000000000e+02 3.040000000000000000e+02 3.050000000000000000e+02 3.060000000000000000e+02 3.070000000000000000e+02 3.080000000000000000e+02 3.090000000000000000e+02 3.100000000000000000e+02 3.110000000000000000e+02 3.120000000000000000e+02 3.130000000000000000e+02 3.140000000000000000e+02 3.150000000000000000e+02 3.160000000000000000e+02 3.170000000000000000e+02 3.180000000000000000e+02 3.190000000000000000e+02 3.200000000000000000e+02 3.210000000000000000e+02 3.220000000000000000e+02 3.230000000000000000e+02 3.240000000000000000e+02 3.250000000000000000e+02 3.260000000000000000e+02 3.270000000000000000e+02 3.280000000000000000e+02 3.290000000000000000e+02 3.300000000000000000e+02 3.310000000000000000e+02 3.320000000000000000e+02 3.330000000000000000e+02 3.340000000000000000e+02 3.350000000000000000e+02 3.360000000000000000e+02 3.370000000000000000e+02 3.380000000000000000e+02 3.390000000000000000e+02 3.400000000000000000e+02 3.410000000000000000e+02 3.420000000000000000e+02 3.430000000000000000e+02 3.440000000000000000e+02 3.450000000000000000e+02 3.460000000000000000e+02 3.470000000000000000e+02 3.480000000000000000e+02 3.490000000000000000e+02 3.500000000000000000e+02 3.510000000000000000e+02 3.520000000000000000e+02 3.530000000000000000e+02 3.540000000000000000e+02 3.550000000000000000e+02 3.560000000000000000e+02 3.570000000000000000e+02 3.580000000000000000e+02 3.590000000000000000e+02 3.600000000000000000e+02 3.610000000000000000e+02 3.620000000000000000e+02 3.630000000000000000e+02 3.640000000000000000e+02 3.650000000000000000e+02 3.660000000000000000e+02 3.670000000000000000e+02 3.680000000000000000e+02 3.690000000000000000e+02 3.700000000000000000e+02 3.710000000000000000e+02 3.720000000000000000e+02 3.730000000000000000e+02 3.740000000000000000e+02 3.750000000000000000e+02 3.760000000000000000e+02 3.770000000000000000e+02 3.780000000000000000e+02 3.790000000000000000e+02 3.800000000000000000e+02 3.810000000000000000e+02 3.820000000000000000e+02 3.830000000000000000e+02 3.840000000000000000e+02 3.850000000000000000e+02 3.860000000000000000e+02 3.870000000000000000e+02 3.880000000000000000e+02 3.890000000000000000e+02 3.900000000000000000e+02 3.910000000000000000e+02 3.920000000000000000e+02 3.930000000000000000e+02 3.940000000000000000e+02 3.950000000000000000e+02 3.960000000000000000e+02 3.970000000000000000e+02 3.980000000000000000e+02 3.990000000000000000e+02 4.000000000000000000e+02 4.010000000000000000e+02 4.020000000000000000e+02 4.030000000000000000e+02 4.040000000000000000e+02 4.050000000000000000e+02 4.060000000000000000e+02 4.070000000000000000e+02 4.080000000000000000e+02 4.090000000000000000e+02 4.100000000000000000e+02 4.110000000000000000e+02 4.120000000000000000e+02 4.130000000000000000e+02 4.140000000000000000e+02 4.150000000000000000e+02 4.160000000000000000e+02 4.170000000000000000e+02 4.180000000000000000e+02 4.190000000000000000e+02 4.200000000000000000e+02 4.210000000000000000e+02 4.220000000000000000e+02 4.230000000000000000e+02 4.240000000000000000e+02 4.250000000000000000e+02 4.260000000000000000e+02 4.270000000000000000e+02 4.280000000000000000e+02 4.290000000000000000e+02 4.300000000000000000e+02 4.310000000000000000e+02 4.320000000000000000e+02 4.330000000000000000e+02 4.340000000000000000e+02 4.350000000000000000e+02 4.360000000000000000e+02 4.370000000000000000e+02 4.380000000000000000e+02 4.390000000000000000e+02 4.400000000000000000e+02 4.410000000000000000e+02 4.420000000000000000e+02 4.430000000000000000e+02 4.440000000000000000e+02 4.450000000000000000e+02 4.460000000000000000e+02 4.470000000000000000e+02 4.480000000000000000e+02 4.490000000000000000e+02 4.500000000000000000e+02 4.510000000000000000e+02 4.520000000000000000e+02 4.530000000000000000e+02 4.540000000000000000e+02 4.550000000000000000e+02 4.560000000000000000e+02 4.570000000000000000e+02 4.580000000000000000e+02 4.590000000000000000e+02 4.600000000000000000e+02 4.610000000000000000e+02 4.620000000000000000e+02 4.630000000000000000e+02 4.640000000000000000e+02 4.650000000000000000e+02 4.660000000000000000e+02 4.670000000000000000e+02 4.680000000000000000e+02 4.690000000000000000e+02 4.700000000000000000e+02 4.710000000000000000e+02 4.720000000000000000e+02 4.730000000000000000e+02 4.740000000000000000e+02 4.750000000000000000e+02 4.760000000000000000e+02 4.770000000000000000e+02 4.780000000000000000e+02 4.790000000000000000e+02 4.800000000000000000e+02 4.810000000000000000e+02 4.820000000000000000e+02 4.830000000000000000e+02 4.840000000000000000e+02 4.850000000000000000e+02 4.860000000000000000e+02 4.870000000000000000e+02 4.880000000000000000e+02 4.890000000000000000e+02 4.900000000000000000e+02 4.910000000000000000e+02 4.920000000000000000e+02 4.930000000000000000e+02 4.940000000000000000e+02 4.950000000000000000e+02 4.960000000000000000e+02 4.970000000000000000e+02 4.980000000000000000e+02 4.990000000000000000e+02 5.000000000000000000e+02 5.010000000000000000e+02 5.020000000000000000e+02 5.030000000000000000e+02 5.040000000000000000e+02 5.050000000000000000e+02 5.060000000000000000e+02 5.070000000000000000e+02 5.080000000000000000e+02 5.090000000000000000e+02 5.100000000000000000e+02 5.110000000000000000e+02 5.120000000000000000e+02 5.130000000000000000e+02 5.140000000000000000e+02 5.150000000000000000e+02 5.160000000000000000e+02 5.170000000000000000e+02 5.180000000000000000e+02 5.190000000000000000e+02 5.200000000000000000e+02 5.210000000000000000e+02 5.220000000000000000e+02 5.230000000000000000e+02 5.240000000000000000e+02 5.250000000000000000e+02 5.260000000000000000e+02 5.270000000000000000e+02 5.280000000000000000e+02 5.290000000000000000e+02 5.300000000000000000e+02 5.310000000000000000e+02 5.320000000000000000e+02 5.330000000000000000e+02 5.340000000000000000e+02 5.350000000000000000e+02 5.360000000000000000e+02 5.370000000000000000e+02 5.380000000000000000e+02 5.390000000000000000e+02 5.400000000000000000e+02 5.410000000000000000e+02 5.420000000000000000e+02 5.430000000000000000e+02 5.440000000000000000e+02 5.450000000000000000e+02 5.460000000000000000e+02 5.470000000000000000e+02 5.480000000000000000e+02 5.490000000000000000e+02 5.500000000000000000e+02 5.510000000000000000e+02 5.520000000000000000e+02 5.530000000000000000e+02 5.540000000000000000e+02 5.550000000000000000e+02 5.560000000000000000e+02 5.570000000000000000e+02 5.580000000000000000e+02 5.590000000000000000e+02 5.600000000000000000e+02 5.610000000000000000e+02 5.620000000000000000e+02 5.630000000000000000e+02 5.640000000000000000e+02 5.650000000000000000e+02 5.660000000000000000e+02 5.670000000000000000e+02 5.680000000000000000e+02 5.690000000000000000e+02 5.700000000000000000e+02 5.710000000000000000e+02 5.720000000000000000e+02 5.730000000000000000e+02 5.740000000000000000e+02 5.750000000000000000e+02 5.760000000000000000e+02 5.770000000000000000e+02 5.780000000000000000e+02 5.790000000000000000e+02 5.800000000000000000e+02 5.810000000000000000e+02 5.820000000000000000e+02 5.830000000000000000e+02 5.840000000000000000e+02 5.850000000000000000e+02 5.860000000000000000e+02 5.870000000000000000e+02 5.880000000000000000e+02 5.890000000000000000e+02 5.900000000000000000e+02 5.910000000000000000e+02 5.920000000000000000e+02 5.930000000000000000e+02 5.940000000000000000e+02 5.950000000000000000e+02 5.960000000000000000e+02 5.970000000000000000e+02 5.980000000000000000e+02 5.990000000000000000e+02 6.000000000000000000e+02 6.010000000000000000e+02 6.020000000000000000e+02 6.030000000000000000e+02 6.040000000000000000e+02 6.050000000000000000e+02 6.060000000000000000e+02 6.070000000000000000e+02 6.080000000000000000e+02 6.090000000000000000e+02 6.100000000000000000e+02 6.110000000000000000e+02 6.120000000000000000e+02 6.130000000000000000e+02 6.140000000000000000e+02 6.150000000000000000e+02 6.160000000000000000e+02 6.170000000000000000e+02 6.180000000000000000e+02 6.190000000000000000e+02 6.200000000000000000e+02 6.210000000000000000e+02 6.220000000000000000e+02 6.230000000000000000e+02 6.240000000000000000e+02 6.250000000000000000e+02 6.260000000000000000e+02 6.270000000000000000e+02 6.280000000000000000e+02 6.290000000000000000e+02 6.300000000000000000e+02 6.310000000000000000e+02 6.320000000000000000e+02 6.330000000000000000e+02 6.340000000000000000e+02 6.350000000000000000e+02 6.360000000000000000e+02 6.370000000000000000e+02 6.380000000000000000e+02 6.390000000000000000e+02 6.400000000000000000e+02 6.410000000000000000e+02 6.420000000000000000e+02 6.430000000000000000e+02 6.440000000000000000e+02 6.450000000000000000e+02 6.460000000000000000e+02 6.470000000000000000e+02 6.480000000000000000e+02 6.490000000000000000e+02 6.500000000000000000e+02 6.510000000000000000e+02 6.520000000000000000e+02 6.530000000000000000e+02 6.540000000000000000e+02 6.550000000000000000e+02 6.560000000000000000e+02 6.570000000000000000e+02 6.580000000000000000e+02 6.590000000000000000e+02 6.600000000000000000e+02 6.610000000000000000e+02 6.620000000000000000e+02 6.630000000000000000e+02 6.640000000000000000e+02 6.650000000000000000e+02 6.660000000000000000e+02 6.670000000000000000e+02 6.680000000000000000e+02 6.690000000000000000e+02 6.700000000000000000e+02 6.710000000000000000e+02 6.720000000000000000e+02 6.730000000000000000e+02 6.740000000000000000e+02 6.750000000000000000e+02 6.760000000000000000e+02 6.770000000000000000e+02 6.780000000000000000e+02 6.790000000000000000e+02 6.800000000000000000e+02 6.810000000000000000e+02 6.820000000000000000e+02 6.830000000000000000e+02 6.840000000000000000e+02 6.850000000000000000e+02 6.860000000000000000e+02 6.870000000000000000e+02 6.880000000000000000e+02 6.890000000000000000e+02 6.900000000000000000e+02 6.910000000000000000e+02 6.920000000000000000e+02 6.930000000000000000e+02 6.940000000000000000e+02 6.950000000000000000e+02 6.960000000000000000e+02 6.970000000000000000e+02 6.980000000000000000e+02 6.990000000000000000e+02 7.000000000000000000e+02 7.010000000000000000e+02 7.020000000000000000e+02 7.030000000000000000e+02 7.040000000000000000e+02 7.050000000000000000e+02 7.060000000000000000e+02 7.070000000000000000e+02 7.080000000000000000e+02 7.090000000000000000e+02 7.100000000000000000e+02 7.110000000000000000e+02 7.120000000000000000e+02 7.130000000000000000e+02 7.140000000000000000e+02 7.150000000000000000e+02 7.160000000000000000e+02 7.170000000000000000e+02 7.180000000000000000e+02 7.190000000000000000e+02 7.200000000000000000e+02 7.210000000000000000e+02 7.220000000000000000e+02 7.230000000000000000e+02 7.240000000000000000e+02 7.250000000000000000e+02 7.260000000000000000e+02 7.270000000000000000e+02 7.280000000000000000e+02 7.290000000000000000e+02 7.300000000000000000e+02 7.310000000000000000e+02 7.320000000000000000e+02 7.330000000000000000e+02 7.340000000000000000e+02 7.350000000000000000e+02 7.360000000000000000e+02 7.370000000000000000e+02 7.380000000000000000e+02 7.390000000000000000e+02 7.400000000000000000e+02 7.410000000000000000e+02 7.420000000000000000e+02 7.430000000000000000e+02 7.440000000000000000e+02 7.450000000000000000e+02 7.460000000000000000e+02 7.470000000000000000e+02 7.480000000000000000e+02 7.490000000000000000e+02 7.500000000000000000e+02 7.510000000000000000e+02 7.520000000000000000e+02 7.530000000000000000e+02 7.540000000000000000e+02 7.550000000000000000e+02 7.560000000000000000e+02 7.570000000000000000e+02 7.580000000000000000e+02 7.590000000000000000e+02 7.600000000000000000e+02 7.610000000000000000e+02 7.620000000000000000e+02 7.630000000000000000e+02 7.640000000000000000e+02 7.650000000000000000e+02 7.660000000000000000e+02 7.670000000000000000e+02 7.680000000000000000e+02 7.690000000000000000e+02 7.700000000000000000e+02 7.710000000000000000e+02 7.720000000000000000e+02 7.730000000000000000e+02 7.740000000000000000e+02 7.750000000000000000e+02 7.760000000000000000e+02 7.770000000000000000e+02 7.780000000000000000e+02 7.790000000000000000e+02 7.800000000000000000e+02 7.810000000000000000e+02 7.820000000000000000e+02 7.830000000000000000e+02 7.840000000000000000e+02 7.850000000000000000e+02 7.860000000000000000e+02 7.870000000000000000e+02 7.880000000000000000e+02 7.890000000000000000e+02 7.900000000000000000e+02 7.910000000000000000e+02 7.920000000000000000e+02 7.930000000000000000e+02 7.940000000000000000e+02 7.950000000000000000e+02 7.960000000000000000e+02 7.970000000000000000e+02 7.980000000000000000e+02 7.990000000000000000e+02 8.000000000000000000e+02 8.010000000000000000e+02 8.020000000000000000e+02 8.030000000000000000e+02 8.040000000000000000e+02 8.050000000000000000e+02 8.060000000000000000e+02 8.070000000000000000e+02 8.080000000000000000e+02 8.090000000000000000e+02 8.100000000000000000e+02 8.110000000000000000e+02 8.120000000000000000e+02 8.130000000000000000e+02 8.140000000000000000e+02 8.150000000000000000e+02 8.160000000000000000e+02 8.170000000000000000e+02 8.180000000000000000e+02 8.190000000000000000e+02 8.200000000000000000e+02 8.210000000000000000e+02 8.220000000000000000e+02 8.230000000000000000e+02 8.240000000000000000e+02 8.250000000000000000e+02 8.260000000000000000e+02 8.270000000000000000e+02 8.280000000000000000e+02 8.290000000000000000e+02 8.300000000000000000e+02 8.310000000000000000e+02 8.320000000000000000e+02 8.330000000000000000e+02 8.340000000000000000e+02 8.350000000000000000e+02 8.360000000000000000e+02 8.370000000000000000e+02 8.380000000000000000e+02 8.390000000000000000e+02 8.400000000000000000e+02 8.410000000000000000e+02 8.420000000000000000e+02 8.430000000000000000e+02 8.440000000000000000e+02 8.450000000000000000e+02 8.460000000000000000e+02 8.470000000000000000e+02 8.480000000000000000e+02 8.490000000000000000e+02 8.500000000000000000e+02 8.510000000000000000e+02 8.520000000000000000e+02 8.530000000000000000e+02 8.540000000000000000e+02 8.550000000000000000e+02 8.560000000000000000e+02 8.570000000000000000e+02 8.580000000000000000e+02 8.590000000000000000e+02 8.600000000000000000e+02 8.610000000000000000e+02 8.620000000000000000e+02 8.630000000000000000e+02 8.640000000000000000e+02 8.650000000000000000e+02 8.660000000000000000e+02 8.670000000000000000e+02 8.680000000000000000e+02 8.690000000000000000e+02 8.700000000000000000e+02 8.710000000000000000e+02 8.720000000000000000e+02 8.730000000000000000e+02 8.740000000000000000e+02 8.750000000000000000e+02 8.760000000000000000e+02 8.770000000000000000e+02 8.780000000000000000e+02 8.790000000000000000e+02 8.800000000000000000e+02 8.810000000000000000e+02 8.820000000000000000e+02 8.830000000000000000e+02 8.840000000000000000e+02 8.850000000000000000e+02 8.860000000000000000e+02 8.870000000000000000e+02 8.880000000000000000e+02 8.890000000000000000e+02 8.900000000000000000e+02 8.910000000000000000e+02 8.920000000000000000e+02 8.930000000000000000e+02 8.940000000000000000e+02 8.950000000000000000e+02 8.960000000000000000e+02 8.970000000000000000e+02 8.980000000000000000e+02 8.990000000000000000e+02 9.000000000000000000e+02 9.010000000000000000e+02 9.020000000000000000e+02 9.030000000000000000e+02 9.040000000000000000e+02 9.050000000000000000e+02 9.060000000000000000e+02 9.070000000000000000e+02 9.080000000000000000e+02 9.090000000000000000e+02 9.100000000000000000e+02 9.110000000000000000e+02 9.120000000000000000e+02 9.130000000000000000e+02 9.140000000000000000e+02 9.150000000000000000e+02 9.160000000000000000e+02 9.170000000000000000e+02 9.180000000000000000e+02 9.190000000000000000e+02 9.200000000000000000e+02 9.210000000000000000e+02 9.220000000000000000e+02 9.230000000000000000e+02 9.240000000000000000e+02 9.250000000000000000e+02 9.260000000000000000e+02 9.270000000000000000e+02 9.280000000000000000e+02 9.290000000000000000e+02 9.300000000000000000e+02 9.310000000000000000e+02 9.320000000000000000e+02 9.330000000000000000e+02 9.340000000000000000e+02 9.350000000000000000e+02 9.360000000000000000e+02 9.370000000000000000e+02 9.380000000000000000e+02 9.390000000000000000e+02 9.400000000000000000e+02 9.410000000000000000e+02 9.420000000000000000e+02 9.430000000000000000e+02 9.440000000000000000e+02 9.450000000000000000e+02 9.460000000000000000e+02 9.470000000000000000e+02 9.480000000000000000e+02 9.490000000000000000e+02 9.500000000000000000e+02 9.510000000000000000e+02 9.520000000000000000e+02 9.530000000000000000e+02 9.540000000000000000e+02 9.550000000000000000e+02 9.560000000000000000e+02 9.570000000000000000e+02 9.580000000000000000e+02 9.590000000000000000e+02 9.600000000000000000e+02 9.610000000000000000e+02 9.620000000000000000e+02 9.630000000000000000e+02 9.640000000000000000e+02 9.650000000000000000e+02 9.660000000000000000e+02 9.670000000000000000e+02 9.680000000000000000e+02 9.690000000000000000e+02 9.700000000000000000e+02 9.710000000000000000e+02 9.720000000000000000e+02 9.730000000000000000e+02 9.740000000000000000e+02 9.750000000000000000e+02 9.760000000000000000e+02 9.770000000000000000e+02 9.780000000000000000e+02 9.790000000000000000e+02 9.800000000000000000e+02 9.810000000000000000e+02 9.820000000000000000e+02 9.830000000000000000e+02 9.840000000000000000e+02 9.850000000000000000e+02 9.860000000000000000e+02 9.870000000000000000e+02 9.880000000000000000e+02 9.890000000000000000e+02 9.900000000000000000e+02 9.910000000000000000e+02 9.920000000000000000e+02 9.930000000000000000e+02 9.940000000000000000e+02 9.950000000000000000e+02 9.960000000000000000e+02 9.970000000000000000e+02 9.980000000000000000e+02 9.990000000000000000e+02 1.000000000000000000e+03
1.000000000000000021e-02 1.000000000000000021e-02 1.000000000000000021e-02 1.000000000000000021e-02 1.000000000000000021e-02 1.000000000000000021e-02 1.000000000000000021e-02 1.000000000000000021e-02 1.000000000000000021e-02 1.000000000000000021e-02 1.000000000000000021e-02 1.000000000000000021e-02 1.000000000000000021e-02 1.000000000000000021e-02 1.000000000000000021e-02 1.000000000000000021e-02 1.000000000000000021e-02 1.000000000000000021e-02 1.000000000000000021e-02 1.000000000000000021e-02 1.000000000000000021e-02 1.000000000000000021e-02 1.000000000000000021e-02 1.000000000000000021e-02 1.000000000000000021e-02 1.000000000000000021e-02 1.000000000000000021e-02 1.000000000000000021e-02 1.000000000000000021e-02 1.000000000000000021e-02 1.000000000000000021e-02 1.000000000000000021e-02 1.000000000000000021e-02 1.000000000000000021e-02 1.000000000000000021e-02 1.000000000000000021e-02 1.000000000000000021e-02 1.000000000000000021e-02 1.000000000000000021e-02 1.000000000000000021e-02 1.000000000000000021e-02 1.000000000000000021e-02 1.000000000000000021e-02 1.000000000000000021e-02 1.000000000000000021e-02 1.000000000000000021e-02 1.000000000000000021e-02 1.000000000000000021e-02 1.000000000000000021e-02 1.000000000000000021e-02 1.000000000000000021e-02 1.000000000000000021e-02 1.000000000000000021e-02 1.000000000000000021e-02 1.000000000000000021e-02 1.000000000000000021e-02 1.000000000000000021e-02 1.000000000000000021e-02 1.000000000000000021e-02 1.000000000000000021e-02 1.000000000000000021e-02 1.000000000000000021e-02 1.000000000000000021e-02 1.000000000000000021e-02 1.000000000000000021e-02 1.000000000000000021e-02 1.000000000000000021e-02 1.000000000000000021e-02 1.000000000000000021e-02 1.000000000000000021e-02 1.000000000000000021e-02 1.000000000000000021e-02 1.000000000000000021e-02 1.000000000000000021e-02 1.000000000000000021e-02 1.000000000000000021e-02 1.000000000000000021e-02 1.000000000000000021e-02 1.000000000000000021e-02 1.000000000000000021e-02 1.000000000000000021e-02 1.000000000000000021e-02 1.000000000000000021e-02 1.000000000000000021e-02 1.000000000000000021e-02 1.000000000000000021e-02 1.000000000000000021e-02 1.000000000000000021e-02 1.000000000000000021e-02 1.000000000000000021e-02 1.000000000000000021e-02 1.000000000000000021e-02 1.000000000000000021e-02 1.000000000000000021e-02 1.000000000000000021e-02 1.000000000000000021e-02 1.000000000000000021e-02 1.000000000000000021e-02 1.000000000000000021e-02 1.000000000000000021e-02 1.000000000000000021e-02 1.000000000000000021e-02 1.000000000000000021e-02 1.000000000000000021e-02 1.000000000000000021e-02 1.000000000000000021e-02 1.000000000000000021e-02 1.000000000000000021e-02 1.000000000000000021e-02 1.000000000000000021e-02 1.000000000000000021e-02 1.000000000000000021e-02 1.000000000000000021e-02 1.000000000000000021e-02 1.000000000000000021e-02 1.000000000000000021e-02 1.000000000000000021e-02 1.000000000000000021e-02 1.000000000000000021e-02 1.000000000000000021e-02 1.000000000000000021e-02 1.000000000000000021e-02 1.000000000000000021e-02 1.000000000000000021e-02 1.000000000000000021e-02 1.000000000000000021e-02 1.000000000000000021e-02 1.000000000000000021e-02 1.000000000000000021e-02 1.000000000000000021e-02 1.000000000000000021e-02 1.000000000000000021e-02 1.000000000000000021e-02 1.000000000000000021e-02 1.000000000000000021e-02 1.000000000000000021e-02 1.000000000000000021e-02 1.000000000000000021e-02 1.000000000000000021e-02 1.000000000000000021e-02 1.000000000000000021e-02 1.000000000000000021e-02 1.000000000000000021e-02 1.000000000000000021e-02 1.000000000000000021e-02 1.000000000000000021e-02 1.000000000000000021e-02 1.000000000000000021e-02 1.000000000000000021e-02 1.000000000000000021e-02 1.000000000000000021e-02 1.000000000000000021e-02 1.000000000000000021e-02 1.000000000000000021e-02 1.000000000000000021e-02 1.000000000000000021e-02 1.000000000000000021e-02 1.000000000000000021e-02 1.000000000000000021e-02 1.000000000000000021e-02 1.000000000000000021e-02 1.000000000000000021e-02 1.000000000000000021e-02 1.000000000000000021e-02 1.000000000000000021e-02 1.000000000000000021e-02 1.000000000000000021e-02 1.000000000000000021e-02 1.000000000000000021e-02 1.000000000000000021e-02 1.000000000000000021e-02 1.000000000000000021e-02 1.000000000000000021e-02 1.000000000000000021e-02 1.000000000000000021e-02 1.000000000000000021e-02 1.000000000000000021e-02 1.000000000000000021e-02 1.000000000000000021e-02 1.000000000000000021e-02 1.000000000000000021e-02 1.000000000000000021e-02 1.000000000000000021e-02 1.000000000000000021e-02 1.000000000000000021e-02 1.000000000000000021e-02 1.000000000000000021e-02 1.000000000000000021e-02 1.000000000000000021e-02 1.000000000000000021e-02 1.000000000000000021e-02 1.000000000000000021e-02 1.000000000000000021e-02 1.000000000000000021e-02 1.000000000000000021e-02 1.000000000000000021e-02 1.000000000000000021e-02 1.000000000000000021e-02 1.000000000000000021e-02 1.000000000000000021e-02 1.000000000000000021e-02 1.000000000000000021e-02 1.000000000000000021e-02 1.000000000000000021e-02 1.000000000000000021e-02 1.000000000000000021e-02 1.000000000000000021e-02 1.000000000000000021e-02 1.000000000000000021e-02 1.000000000000000021e-02 1.000000000000000021e-02 1.000000000000000021e-02 1.000000000000000021e-02 1.000000000000000021e-02 1.000000000000000021e-02 1.000000000000000021e-02 1.000000000000000021e-02 1.000000000000000021e-02 1.000000000000000021e-02 1.000000000000000021e-02 1.000000000000000021e-02 1.000000000000000021e-02 1.000000000000000021e-02 1.000000000000000021e-02 1.000000000000000021e-02 1.000000000000000021e-02 1.000000000000000021e-02 1.000000000000000021e-02 1.000000000000000021e-02 1.000000000000000021e-02 1.000000000000000021e-02 1.000000000000000021e-02 1.000000000000000021e-02 1.000000000000000021e-02 1.000000000000000021e-02 1.000000000000000021e-02 1.000000000000000021e-02 1.000000000000000021e-02 1.000000000000000021e-02 1.000000000000000021e-02 1.000000000000000021e-02 1.000000000000000021e-02 1.000000000000000021e-02 1.000000000000000021e-02 1.000000000000000021e-02 1.000000000000000021e-02 1.000000000000000021e-02 1.000000000000000021e-02 1.000000000000000021e-02 1.000000000000000021e-02 1.000000000000000021e-02 1.000000000000000021e-02 1.000000000000000021e-02 1.000000000000000021e-02 1.000000000000000021e-02 1.000000000000000021e-02 1.000000000000000021e-02 1.000000000000000021e-02 1.000000000000000021e-02 1.000000000000000021e-02 1.000000000000000021e-02 1.000000000000000021e-02 1.000000000000000021e-02 1.000000000000000021e-02 1.000000000000000021e-02 1.000000000000000021e-02 1.000000000000000021e-02 1.000000000000000021e-02 1.000000000000000021e-02 1.000000000000000021e-02 1.000000000000000021e-02 1.000000000000000021e-02 1.000000000000000021e-02 1.000000000000000021e-02 1.000000000000000021e-02 1.000000000000000021e-02 1.000000000000000021e-02 1.000000000000000021e-02 1.000000000000000021e-02 1.000000000000000021e-02 1.000000000000000021e-02 1.000000000000000021e-02 1.000000000000000021e-02 1.000000000000000021e-02 1.000000000000000021e-02 1.000000000000000021e-02 1.000000000000000021e-02 1.000000000000000021e-02 1.000000000000000021e-02 1.000000000000000021e-02 1.000000000000000021e-02 1.000000000000000021e-02 1.000000000000000021e-02 1.000000000000000021e-02 1.000000000000000021e-02 1.000000000000000021e-02 1.000000000000000021e-02 1.000000000000000021e-02 1.000000000000000021e-02 1.000000000000000021e-02 1.000000000000000021e-02 1.000000000000000021e-02 1.000000000000000021e-02 1.000000000000000021e-02 1.000000000000000021e-02 1.000000000000000021e-02 1.000000000000000021e-02 1.000000000000000021e-02 1.000000000000000021e-02 1.000000000000000021e-02 1.000000000000000021e-02 1.000000000000000021e-02 1.000000000000000021e-02 1.000000000000000021e-02 1.000000000000000021e-02 1.000000000000000021e-02 1.000000000000000021e-02 1.000000000000000021e-02 1.000000000000000021e-02 1.000000000000000021e-02 1.000000000000000021e-02 1.000000000000000021e-02 1.000000000000000021e-02 1.000000000000000021e-02 1.000000000000000021e-02 1.000000000000000021e-02 1.000000000000000021e-02 1.000000000000000021e-02 1.000000000000000021e-02 1.000000000000000021e-02 1.000000000000000021e-02 1.000000000000000021e-02 1.000000000000000021e-02 1.000000000000000021e-02 1.000000000000000021e-02 1.000000000000000021e-02 1.000000000000000021e-02 1.000000000000000021e-02 1.000000000000000021e-02 1.000000000000000021e-02 1.000000000000000021e-02 1.000000000000000021e-02 1.000000000000000021e-02 1.000000000000000021e-02 1.000000000000000021e-02 1.000000000000000021e-02 1.000000000000000021e-02 1.000000000000000021e-02 1.000000000000000021e-02 1.000000000000000021e-02 1.000000000000000021e-02 1.000000000000000021e-02 1.000000000000000021e-02 1.000000000000000021e-02 1.000000000000000021e-02 1.000000000000000021e-02 1.000000000000000021e-02 1.000000000000000021e-02 1.000000000000000021e-02 1.000000000000000021e-02 1.000000000000000021e-02 1.000000000000000021e-02 1.000000000000000021e-02 1.000000000000000021e-02 1.000000000000000021e-02 1.000000000000000021e-02 1.000000000000000021e-02 1.000000000000000021e-02 1.000000000000000021e-02 1.000000000000000021e-02 1.000000000000000021e-02 1.000000000000000021e-02 1.000000000000000021e-02 1.000000000000000021e-02 1.000000000000000021e-02 1.000000000000000021e-02 1.000000000000000021e-02 1.000000000000000021e-02 1.000000000000000021e-02 1.000000000000000021e-02 1.000000000000000021e-02 1.000000000000000021e-02 1.000000000000000021e-02 1.000000000000000021e-02 1.000000000000000021e-02 1.000000000000000021e-02 1.000000000000000021e-02 1.000000000000000021e-02 1.000000000000000021e-02 1.000000000000000021e-02 1.000000000000000021e-02 1.000000000000000021e-02 1.000000000000000021e-02 1.000000000000000021e-02 1.000000000000000021e-02 1.000000000000000021e-02 1.000000000000000021e-02 1.000000000000000021e-02 1.000000000000000021e-02 1.000000000000000021e-02 1.000000000000000021e-02 1.000000000000000021e-02 1.000000000000000021e-02 1.000000000000000021e-02 1.000000000000000021e-02 1.000000000000000021e-02 1.000000000000000021e-02 1.000000000000000021e-02 1.000000000000000021e-02 1.000000000000000021e-02 1.000000000000000021e-02 1.000000000000000021e-02 1.000000000000000021e-02 1.000000000000000021e-02 1.000000000000000021e-02 1.000000000000000021e-02 1.000000000000000021e-02 1.000000000000000021e-02 1.000000000000000021e-02 1.000000000000000021e-02 1.000000000000000021e-02 1.000000000000000021e-02 1.000000000000000021e-02 1.000000000000000021e-02 1.000000000000000021e-02 1.000000000000000021e-02 1.000000000000000021e-02 1.000000000000000021e-02 1.000000000000000021e-02 1.000000000000000021e-02 1.000000000000000021e-02 1.000000000000000021e-02 1.000000000000000021e-02 1.000000000000000021e-02 1.000000000000000021e-02 1.000000000000000021e-02 1.000000000000000021e-02 1.000000000000000021e-02 1.000000000000000021e-02 1.000000000000000021e-02 1.000000000000000021e-02 1.000000000000000021e-02 1.000000000000000021e-02 1.000000000000000021e-02 1.000000000000000021e-02 1.000000000000000021e-02 1.000000000000000021e-02 1.000000000000000021e-02 1.000000000000000021e-02 1.000000000000000021e-02 1.000000000000000021e-02 1.000000000000000021e-02 1.000000000000000021e-02 1.000000000000000021e-02 1.000000000000000021e-02 1.000000000000000021e-02 1.000000000000000021e-02 1.000000000000000021e-02 1.000000000000000021e-02 1.000000000000000021e-02 1.000000000000000021e-02 1.000000000000000021e-02 1.000000000000000021e-02 1.000000000000000021e-02 1.000000000000000021e-02 1.000000000000000021e-02 1.000000000000000021e-02 1.000000000000000021e-02 1.000000000000000021e-02 1.000000000000000021e-02 1.000000000000000021e-02 1.000000000000000021e-02 1.000000000000000021e-02 1.000000000000000021e-02 1.000000000000000021e-02 1.000000000000000021e-02 1.000000000000000021e-02 1.000000000000000021e-02 1.000000000000000021e-02 1.000000000000000021e-02 1.000000000000000021e-02 1.000000000000000021e-02 1.000000000000000021e-02 1.000000000000000021e-02 1.000000000000000021e-02 1.000000000000000021e-02 1.000000000000000021e-02 1.000000000000000021e-02 1.000000000000000021e-02 1.000000000000000021e-02 1.000000000000000021e-02 1.000000000000000021e-02 1.000000000000000021e-02 1.000000000000000021e-02 1.000000000000000021e-02 1.000000000000000021e-02 1.000000000000000021e-02 1.000000000000000021e-02 1.000000000000000021e-02 1.000000000000000021e-02 1.000000000000000021e-02 1.000000000000000021e-02 1.000000000000000021e-02 1.000000000000000021e-02 1.000000000000000021e-02 1.000000000000000021e-02 1.000000000000000021e-02 1.000000000000000021e-02 1.000000000000000021e-02 1.000000000000000021e-02 1.000000000000000021e-02 1.000000000000000021e-02 1.000000000000000021e-02 1.000000000000000021e-02 1.000000000000000021e-02 1.000000000000000021e-02 1.000000000000000021e-02 1.000000000000000021e-02 1.000000000000000021e-02 1.000000000000000021e-02 1.000000000000000021e-02 1.000000000000000021e-02 1.000000000000000021e-02 1.000000000000000021e-02 1.000000000000000021e-02 1.000000000000000021e-02 1.000000000000000021e-02 1.000000000000000021e-02 1.000000000000000021e-02 1.000000000000000021e-02 1.000000000000000021e-02 1.000000000000000021e-02 1.000000000000000021e-02 1.000000000000000021e-02 1.000000000000000021e-02 1.000000000000000021e-02 1.000000000000000021e-02 1.000000000000000021e-02 1.000000000000000021e-02 1.000000000000000021e-02 1.000000000000000021e-02 1.000000000000000021e-02 1.000000000000000021e-02 1.000000000000000021e-02 1.000000000000000021e-02 1.000000000000000021e-02 1.000000000000000021e-02 1.000000000000000021e-02 1.000000000000000021e-02 1.000000000000000021e-02 1.000000000000000021e-02 1.000000000000000021e-02 1.000000000000000021e-02 1.000000000000000021e-02 1.000000000000000021e-02 1.000000000000000021e-02 1.000000000000000021e-02 1.000000000000000021e-02 1.000000000000000021e-02 1.000000000000000021e-02 1.000000000000000021e-02 1.000000000000000021e-02 1.000000000000000021e-02 1.000000000000000021e-02 1.000000000000000021e-02 1.000000000000000021e-02 1.000000000000000021e-02 1.000000000000000021e-02 1.000000000000000021e-02 1.000000000000000021e-02 1.000000000000000021e-02 1.000000000000000021e-02 1.000000000000000021e-02 1.000000000000000021e-02 1.000000000000000021e-02 1.000000000000000021e-02 1.000000000000000021e-02 1.000000000000000021e-02 1.000000000000000021e-02 1.000000000000000021e-02 1.000000000000000021e-02 1.000000000000000021e-02 1.000000000000000021e-02 1.000000000000000021e-02 1.000000000000000021e-02 1.000000000000000021e-02 1.000000000000000021e-02 1.000000000000000021e-02 1.000000000000000021e-02 1.000000000000000021e-02 1.000000000000000021e-02 1.000000000000000021e-02 1.000000000000000021e-02 1.000000000000000021e-02 1.000000000000000021e-02 1.000000000000000021e-02 1.000000000000000021e-02 1.000000000000000021e-02 1.000000000000000021e-02 1.000000000000000021e-02 1.000000000000000021e-02 1.000000000000000021e-02 1.000000000000000021e-02 1.000000000000000021e-02 1.000000000000000021e-02 1.000000000000000021e-02 1.000000000000000021e-02 1.000000000000000021e-02 1.000000000000000021e-02 1.000000000000000021e-02 1.000000000000000021e-02 1.000000000000000021e-02 1.000000000000000021e-02 1.000000000000000021e-02 1.000000000000000021e-02 1.000000000000000021e-02 1.000000000000000021e-02 1.000000000000000021e-02 1.000000000000000021e-02 1.000000000000000021e-02 1.000000000000000021e-02 1.000000000000000021e-02 1.000000000000000021e-02 1.000000000000000021e-02 1.000000000000000021e-02 1.000000000000000021e-02 1.000000000000000021e-02 1.000000000000000021e-02 1.000000000000000021e-02 1.000000000000000021e-02 1.000000000000000021e-02 1.000000000000000021e-02 1.000000000000000021e-02 1.000000000000000021e-02 1.000000000000000021e-02 1.000000000000000021e-02 1.000000000000000021e-02 1.000000000000000021e-02 1.000000000000000021e-02 1.000000000000000021e-02 1.000000000000000021e-02 1.000000000000000021e-02 1.000000000000000021e-02 1.000000000000000021e-02 1.000000000000000021e-02 1.000000000000000021e-02 1.000000000000000021e-02 1.000000000000000021e-02 1.000000000000000021e-02 1.000000000000000021e-02 1.000000000000000021e-02 1.000000000000000021e-02 1.000000000000000021e-02 1.000000000000000021e-02 1.000000000000000021e-02 1.000000000000000021e-02 1.000000000000000021e-02 1.000000000000000021e-02 1.000000000000000021e-02 1.000000000000000021e-02 1.000000000000000021e-02 1.000000000000000021e-02 1.000000000000000021e-02 1.000000000000000021e-02 1.000000000000000021e-02 1.000000000000000021e-02 1.000000000000000021e-02 1.000000000000000021e-02 1.000000000000000021e-02 1.000000000000000021e-02 1.000000000000000021e-02 1.000000000000000021e-02 1.000000000000000021e-02 1.000000000000000021e-02 1.000000000000000021e-02 1.000000000000000021e-02 1.000000000000000021e-02 1.000000000000000021e-02 1.000000000000000021e-02 1.000000000000000021e-02 1.000000000000000021e-02 1.000000000000000021e-02 1.000000000000000021e-02 1.000000000000000021e-02 1.000000000000000021e-02 1.000000000000000021e-02 1.000000000000000021e-02 1.000000000000000021e-02 1.000000000000000021e-02 1.000000000000000021e-02 1.000000000000000021e-02 1.000000000000000021e-02 1.000000000000000021e-02 1.000000000000000021e-02 1.000000000000000021e-02 1.000000000000000021e-02 1.000000000000000021e-02 1.000000000000000021e-02 1.000000000000000021e-02 1.000000000000000021e-02 1.000000000000000021e-02 1.000000000000000021e-02 1.000000000000000021e-02 1.000000000000000021e-02 1.000000000000000021e-02 1.000000000000000021e-02 1.000000000000000021e-02 1.000000000000000021e-02 1.000000000000000021e-02 1.000000000000000021e-02 1.000000000000000021e-02 1.000000000000000021e-02 1.000000000000000021e-02 1.000000000000000021e-02 1.000000000000000021e-02 1.000000000000000021e-02 1.000000000000000021e-02 1.000000000000000021e-02 1.000000000000000021e-02 1.000000000000000021e-02 1.000000000000000021e-02 1.000000000000000021e-02 1.000000000000000021e-02 1.000000000000000021e-02 1.000000000000000021e-02 1.000000000000000021e-02 1.000000000000000021e-02 1.000000000000000021e-02 1.000000000000000021e-02 1.000000000000000021e-02 1.000000000000000021e-02 1.000000000000000021e-02 1.000000000000000021e-02 1.000000000000000021e-02 1.000000000000000021e-02 1.000000000000000021e-02 1.000000000000000021e-02 1.000000000000000021e-02 1.000000000000000021e-02 1.000000000000000021e-02 1.000000000000000021e-02 1.000000000000000021e-02 1.000000000000000021e-02 1.000000000000000021e-02 1.000000000000000021e-02 1.000000000000000021e-02 1.000000000000000021e-02 1.000000000000000021e-02 1.000000000000000021e-02 1.000000000000000021e-02 1.000000000000000021e-02 1.000000000000000021e-02 1.000000000000000021e-02 1.000000000000000021e-02 1.000000000000000021e-02 1.000000000000000021e-02 1.000000000000000021e-02 1.000000000000000021e-02 1.000000000000000021e-02 1.000000000000000021e-02 1.000000000000000021e-02 1.000000000000000021e-02 1.000000000000000021e-02 1.000000000000000021e-02 1.000000000000000021e-02 1.000000000000000021e-02 1.000000000000000021e-02 1.000000000000000021e-02 1.000000000000000021e-02 1.000000000000000021e-02 1.000000000000000021e-02 1.000000000000000021e-02 1.000000000000000021e-02 1.000000000000000021e-02 1.000000000000000021e-02 1.000000000000000021e-02 1.000000000000000021e-02 1.000000000000000021e-02 1.000000000000000021e-02 1.000000000000000021e-02 1.000000000000000021e-02 1.000000000000000021e-02 1.000000000000000021e-02 1.000000000000000021e-02 1.000000000000000021e-02 1.000000000000000021e-02 1.000000000000000021e-02 1.000000000000000021e-02 1.000000000000000021e-02 1.000000000000000021e-02 1.000000000000000021e-02 1.000000000000000021e-02 1.000000000000000021e-02 1.000000000000000021e-02 1.000000000000000021e-02 1.000000000000000021e-02 1.000000000000000021e-02 1.000000000000000021e-02 1.000000000000000021e-02 1.000000000000000021e-02 1.000000000000000021e-02 1.000000000000000021e-02 1.000000000000000021e-02 1.000000000000000021e-02 1.000000000000000021e-02 1.000000000000000021e-02 1.000000000000000021e-02 1.000000000000000021e-02 1.000000000000000021e-02 1.000000000000000021e-02 1.000000000000000021e-02 1.000000000000000021e-02 1.000000000000000021e-02 1.000000000000000021e-02 1.000000000000000021e-02 1.000000000000000021e-02 1.000000000000000021e-02 1.000000000000000021e-02 1.000000000000000021e-02 1.000000000000000021e-02 1.000000000000000021e-02 1.000000000000000021e-02 1.000000000000000021e-02 1.000000000000000021e-02 1.000000000000000021e-02 1.000000000000000021e-02 1.000000000000000021e-02 1.000000000000000021e-02 1.000000000000000021e-02 1.000000000000000021e-02 1.000000000000000021e-02 1.000000000000000021e-02 1.000000000000000021e-02 1.000000000000000021e-02 1.000000000000000021e-02 1.000000000000000021e-02 1.000000000000000021e-02 1.000000000000000021e-02 1.000000000000000021e-02 1.000000000000000021e-02 1.000000000000000021e-02 1.000000000000000021e-02 1.000000000000000021e-02 1.000000000000000021e-02 1.000000000000000021e-02 1.000000000000000021e-02 1.000000000000000021e-02 1.000000000000000021e-02 1.000000000000000021e-02 1.000000000000000021e-02 1.000000000000000021e-02 1.000000000000000021e-02 1.000000000000000021e-02 1.000000000000000021e-02 1.000000000000000021e-02 1.000000000000000021e-02 1.000000000000000021e-02 1.000000000000000021e-02 1.000000000000000021e-02 1.000000000000000021e-02 1.000000000000000021e-02 1.000000000000000021e-02 1.000000000000000021e-02 1.000000000000000021e-02 1.000000000000000021e-02 1.000000000000000021e-02 1.000000000000000021e-02 1.000000000000000021e-02 1.000000000000000021e-02 1.000000000000000021e-02 1.000000000000000021e-02 1.000000000000000021e-02 1.000000000000000021e-02 1.000000000000000021e-02 1.000000000000000021e-02 1.000000000000000021e-02 1.000000000000000021e-02 1.000000000000000021e-02 1.000000000000000021e-02 1.000000000000000021e-02 1.000000000000000021e-02 1.000000000000000021e-02 1.000000000000000021e-02 1.000000000000000021e-02 1.000000000000000021e-02 1.000000000000000021e-02 1.000000000000000021e-02 1.000000000000000021e-02 1.000000000000000021e-02 1.000000000000000021e-02 1.000000000000000021e-02 1.000000000000000021e-02 1.000000000000000021e-02 1.000000000000000021e-02 1.000000000000000021e-02 1.000000000000000021e-02 1.000000000000000021e-02 1.000000000000000021e-02 1.000000000000000021e-02 1.000000000000000021e-02 1.000000000000000021e-02 1.000000000000000021e-02 1.000000000000000021e-02 1.000000000000000021e-02 1.000000000000000021e-02 1.000000000000000021e-02 1.000000000000000021e-02 1.000000000000000021e-02 1.000000000000000021e-02 1.000000000000000021e-02 1.000000000000000021e-02 1.000000000000000021e-02 1.000000000000000021e-02 1.000000000000000021e-02 1.000000000000000021e-02 1.000000000000000021e-02 1.000000000000000021e-02 1.000000000000000021e-02 1.000000000000000021e-02 1.000000000000000021e-02 1.000000000000000021e-02 1.000000000000000021e-02 1.000000000000000021e-02 1.000000000000000021e-02 1.000000000000000021e-02 1.000000000000000021e-02 1.000000000000000021e-02 1.000000000000000021e-02 1.000000000000000021e-02 1.000000000000000021e-02 1.000000000000000021e-02 1.000000000000000021e-02 1.000000000000000021e-02 1.000000000000000021e-02 1.000000000000000021e-02 1.000000000000000021e-02 1.000000000000000021e-02 1.000000000000000021e-02 1.000000000000000021e-02 1.000000000000000021e-02 1.000000000000000021e-02 1.000000000000000021e-02 1.000000000000000021e-02 1.000000000000000021e-02 1.000000000000000021e-02 1.000000000000000021e-02 1.000000000000000021e-02 1.000000000000000021e-02 1.000000000000000021e-02 1.000000000000000021e-02 1.000000000000000021e-02 1.000000000000000021e-02 1.000000000000000021e-02 1.000000000000000021e-02 1.000000000000000021e-02 1.000000000000000021e-02 1.000000000000000021e-02 1.000000000000000021e-02 1.000000000000000021e-02 1.000000000000000021e-02 1.000000000000000021e-02 1.000000000000000021e-02 1.000000000000000021e-02 1.000000000000000021e-02 1.000000000000000021e-02 1.000000000000000021e-02 1.000000000000000021e-02 1.000000000000000021e-02 1.000000000000000021e-02 1.000000000000000021e-02 1.000000000000000021e-02 1.000000000000000021e-02 1.000000000000000021e-02 1.000000000000000021e-02 1.000000000000000021e-02 1.000000000000000021e-02 1.000000000000000021e-02 1.000000000000000021e-02 1.000000000000000021e-02 1.000000000000000021e-02 1.000000000000000021e-02 1.000000000000000021e-02 1.000000000000000021e-02 1.000000000000000021e-02 1.000000000000000021e-02 1.000000000000000021e-02 1.000000000000000021e-02 1.000000000000000021e-02 1.000000000000000021e-02 1.000000000000000021e-02 1.000000000000000021e-02 1.000000000000000021e-02 1.000000000000000021e-02 1.000000000000000021e-02 1.000000000000000021e-02 1.000000000000000021e-02 1.000000000000000021e-02 1.000000000000000021e-02 1.000000000000000021e-02 1.000000000000000021e-02
-1.139388475095333462e+02 1.731152655060290613e+02 4.018733011114675691e+01 -9.036549272603910055e+00 -8.972934728311983577e+01 -1.367431636424619157e+01 -2.122456243664529723e+02 6.901468480006780482e-01 -8.652243161813508721e+01 -1.427322998998005943e+01 -2.023886522681232947e+01 6.637171363383274958e+00 -1.817964511812600437e+00 1.713200134672321155e+02 8.639415076761912360e+01 -3.957292838706170102e+01 -5.387381792695446592e+01 8.088452397897333412e+01 3.350714676536459535e+01 -2.589536686469757143e+01 -8.051986321143550640e+01 -7.537708221285527088e+01 -1.410534060265795908e+01 2.954243910577323362e+01 -1.990322478123628400e+02 -1.008268462861866084e+02 -2.663401531376420905e+01 2.058943816410825889e+02 7.225450271659802581e+01 7.831509960202423315e+01 8.197940386615589148e+01 1.212636717063414027e+00 -8.084931711513267771e+01 2.117651032871258110e+02 -2.499635280787733507e+02 6.003396165199159640e+01 -1.227134633080229094e+02 -3.540550630848969860e+01 4.115725710610060872e+00 1.293810863274067628e+02 -1.255052383161335428e+02 -1.395427650002472575e+01 7.900862621165872213e+01 1.772491339733961979e+02 7.287942727015324351e+01 -6.989003733250589789e+01 4.212649399580135423e+01 -2.897011527198748126e+01 -6.745974746038383785e+01 1.599036381522701618e+02 -7.210386821799042423e+01 -5.322979512378395839e+01 -1.422294654174831692e+02 5.832967271512530694e+00 -5.161923189233316833e+01 3.947541433574787106e+01 -9.060151269937674101e+01 -5.112847836464020190e+01 -1.035545866426890314e+02 -1.587289804221848328e+02 1.989220372232404443e+01 4.628903671350010995e+01 -1.257279518520551846e+02 1.313569020275032351e+01 -8.099839057869347414e+01 5.015816344994831866e+01 1.701277462608166218e+02 -1.473141729271439146e+02 -4.424240865746827467e+01 7.332081787370595904e+00 2.984899231153662402e+00 4.327519376328608303e+01 8.576873622649934248e+01 9.449041544299698892e-01 -8.966215730990997557e+00 -7.153006584678063007e+01 7.993760751556841626e+01 -3.349508782093264614e+01 2.684475053603069483e+01 1.062211216082814502e+02 9.012287571981096335e+01 -4.365519299569201905e+01 5.906410410215401185e+01 1.505832204198743511e+02 1.186785418681742357e+02 -4.126468613487259240e+00 1.779388613777891521e+02 -1.138865311885150504e+02 4.309237427527214059e+00 -4.283229086421681586e+01 2.112625077514466909e+02 -2.167585795707979912e+01 2.931625528776141021e+00 -7.842120814121042827e+01 -7.279924800392508111e+00 -6.522651330584352536e+01 6.920759375995579887e+01 -9.656208546742718113e+01 6.999972759921962506e+01 -4.875361577849797357e+01 -5.083516275966002951e+01 -9.361214688726369104e+01 5.424462934863081642e+01 -5.590711515107116014e+01 -1.525277080152592930e+02 -8.118013105166868115e+01 -1.068577289832772976e+02 -1.605935771985260203e+02 1.388591948872367823e+02 -2.811339549922934111e+01 3.270735216298295001e+01 9.158661351849632126e+01 -1.063188992053163560e+02 5.820146559459645630e+01 -4.425153319230027904e+01 -7.077472918936202007e+01 -9.198545047935432706e+01 2.076609883763083815e+02 -5.796077891240155822e+01 -5.053537615727582732e+01 -4.824927868237390527e+01 8.212811498007802413e+01 -4.228667268858048089e+01 1.409595608281435375e+02 -5.091223260163295095e+01 5.625049106046368053e+01 4.639048464519745174e+00 -8.290750298193118795e+01 7.031182890912596406e+01 2.833214233027011346e+02 -9.397381013426762308e+01 4.852445189028382089e+01 -7.785226900316061460e+01 4.620510806677265947e+01 1.340065975621184293e+02 -5.246272545843327606e+01 1.489081865328234500e+01 -2.749430594446974396e+01 -1.041283188106910558e+02 -1.764197671211085350e+01 4.353028006832500019e+00 -7.995387758629418862e+00 -1.528471831167467343e+01 1.208221920724720349e+02 1.331618758802607374e+02 1.904985585487804940e+02 -3.109252340159940786e+02 3.905128333226226545e+01 -1.608562013077571606e+01 -6.372439729581343215e+01 1.842968445543523899e+02 7.791576149310672861e+01 -2.620826805924747038e+00 -1.185413253085709897e+02 -1.115679423137011916e+01 1.023129695774405548e+02 -1.374115137795961914e+02 -1.724119374098611104e+02 1.097572193318838529e+01 4.339578689944552536e+01 -6.238491063244493517e+01 4.298360060096256774e+01 -1.095137192590324560e+02 -1.547753267329880771e+02 2.160603996969549456e+01 4.969395541163645191e+01 4.905417138617070627e+00 -8.543419173329846217e+01 -9.576382783321304260e+01 -8.630531285184662238e+01 -8.959107539317484736e+01 1.291262366192253808e+01 5.818691076099482018e+01 1.192620802410386744e+02 8.133755534658720876e+01 9.164813297950063031e+01 1.100257183575857596e+02 -7.661451176740757774e+01 -8.453516959289224530e+01 7.225211691646647694e+01 7.012362368827015757e+01 6.070449000679702323e+01 -9.631333931902165801e+00 -9.337355299553689747e+01 5.534927725477905369e+01 -1.835144482498903926e+02 6.887712401330898615e+01 -4.571172284421744791e+01 -9.896801263186031861e+01 7.615481208137393310e+01 -1.757526917872087324e+01 -7.920464996287564929e+01 -5.902588848981167047e+01 -9.386276542990712457e+00 2.492774104654946825e+02 7.891111368113215008e+01 5.634866405979477122e+01 -1.068110200730283168e+02 1.524212356320264803e+02 1.063795294066163466e+00 -9.297329459822653064e+01 1.602591612713040092e+02 -1.586037092954965999e+02 1.623207355039825828e+01 -3.351265887619388195e+01 -2.286829688294467076e+02 -1.388587144024717475e+02 -9.079786110156597090e+01 -3.045137959043206521e+01 -1.241143227710870178e+02 6.001924140585298773e+01 6.762750324648007449e+01 -2.868232281524931793e+01 -1.037675647152736644e+02 1.177078823185583758e+02 1.230554708321573543e+02 4.810570460595155140e+01 1.816457751722017733e+01 2.720732909481685624e+02 4.547597645355265428e+01 -1.243204969853396307e+02 -4.690084935160312796e+01 -1.758683640287959236e+02 3.319261074641056553e+01 1.597146470986043312e+02 -1.546005149648802046e+02 1.372387780780375124e+02 -9.477263137153062189e+01 -1.968330269709587554e+01 -7.659578148781877038e-01 5.507523627171065783e+01 -1.210084974076580089e+01 -2.374098195298729408e+01 -1.973477943100902010e+01 -1.320218576661440864e+02 4.839821559929106343e+01 -3.165644229683686817e+01 -1.354982531944403945e+01 -1.116605257968813802e+01 2.355713197663129392e+02 1.816008966472986117e+02 2.425393483825084218e+02 1.374205480400828776e+02 -9.026714357900094399e+01 7.841844309964845650e+01 2.200765389929817317e+01 4.965016367630000360e+01 -4.144929950875692271e+01 2.663755646628539466e+02 -2.429041944112695717e+01 -1.425987019020674040e+02 -1.560446441751138558e+01 -4.779100038227261393e+01 -8.074544651840953691e+01 4.502209254802993144e+01 -1.221878558369500922e+01 1.897674454024997317e+02 9.642518406817873711e+01 4.265830488897902484e+01 1.022921060410309622e+02 9.855534723877447334e+01 -2.398624323301118011e+01 1.456971871699979886e+02 2.762546656197834238e+01 9.345478003670810097e+01 4.971281592957299011e+01 7.240459548050095506e+00 -1.208130962477955990e+02 -1.208636590897495040e+02 -9.392976305935685843e+01 -1.625569958716977226e+01 9.045744684127447499e+01 -3.200776934037644850e+01 1.032046444545310209e+02 4.571245229036905755e+01 -7.589707751970560423e+01 -3.128203629376148953e+01 -6.115713778387517152e+01 1.832736198475986100e+01 -4.836641743603348687e+01 -1.169347400025304893e+02 1.268482579534520482e+02 1.266266784477302281e+02 -8.238306775534215376e+01 5.705487852420402461e+00 -4.728213710241139012e+01 -3.405120203778771781e+01 -1.183755624292030895e+01 -3.257510221530640848e+01 4.637417692813905745e+01 -1.466337735728297673e+02 -5.512590476303429909e+01 -1.584914815613003043e+02 1.816687602187984965e+02 -2.112540625219218526e+01 6.150298180191394692e+01 1.245118690545766249e+01 1.506123772876564715e+02 4.657615474309066883e+01 3.727817450366965346e+01 1.609306838272834739e+02 -5.136449098797924506e+01 -1.017290207778430329e+02 2.830187030237066637e+01 -1.646975824132884156e+02 -5.564979039921598059e+01 1.065967094331833351e+02 -1.331223266451773668e+02 -3.789516929605161266e+01 9.512809975129255236e+01 -9.846445358975208251e+01 -9.326274895172208801e+01 -8.611205880058260220e+01 -6.651206079844847352e+01 2.594022956176534649e+02 2.064296794894632399e+02 1.072932357217651429e+02 -1.064379264224176751e+02 7.796520193370665197e+01 -6.884367372138612495e+01 -3.248339262919908776e+01 1.727969748918825488e+01 -3.348873869241658241e+01 -9.758066479356328671e+01 -2.813797701147023655e+00 1.540736468850854557e+01 1.131456198349417974e+02 -1.336334753220669143e+02 4.353798304991823187e+01 6.628661962410455999e+01 3.592990844639349746e+01 -9.418140017339582926e+01 -1.543218436516916654e+02 2.007861872046532596e+02 -1.851413350258990320e+01 2.617085017705251104e+01 1.625687774846082618e+02 2.770009404707503364e+01 2.881586400429307915e+01 -4.623360929496403315e+01 9.197093132383452030e+01 -1.415433390393658897e+02 -3.198227872415074202e+01 -6.366338569950309889e+00 -5.544228044486887086e+01 6.398013355867470331e+00 2.211937133893484031e+01 -3.713285952404958579e+01 1.417891465965489495e+01 2.217040647251180587e+02 -2.840673430068396144e+01 -2.900012063906518023e+01 -1.054390933702205047e+02 -1.719462073734624230e+00 -8.375548433902977763e+01 6.650131838258135808e+00 1.162075653644121616e+02 -5.395490452277759630e+01 6.275342310670074752e+00 -5.633128604969147091e+01 3.460506812109580999e+00 9.042439590625490098e+01 -1.201168327731367640e+02 -1.003555474149082585e+02 -1.063110073386578165e+02 7.402166211906678939e+01 8.973385963581141311e+01 -9.569761645158217789e+01 6.488438617488723992e+01 2.675161926143828239e+01 4.010144859722988997e+01 -1.840905412799292762e+01 9.466622222964154787e+01 8.265121041405332392e+01 -8.010554847292694092e+01 1.230130498264299099e+01 8.385454759280563053e+01 7.552331983858664444e+01 -2.059732785494845686e+01 2.590038027331371850e+01 -1.374093654367920010e+02 5.027072306166110849e+01 -3.395512616792785110e+01 -3.382427483072270036e+01 1.794771955898594626e+02 4.916971503437852675e+01 1.245884459942904385e+02 1.978695877355962125e+02 -1.426983270118960547e+02 1.544642170645601027e+02 -6.566941503756331144e+01 -1.400269819871065238e+02 8.530910754842368249e+01 -1.389520114277617608e+02 -2.974129819683718168e+01 5.847263567677593699e+01 8.390595094496994477e+00 -1.741802010766614899e+02 8.726379683622982952e+01 2.612186769863312108e+01 7.160517122475285134e+01 3.757909486970499557e+01 9.821909748776722182e+00 -6.955080895104936189e+01 1.199420201521437832e+02 5.645688861058105346e+01 -6.437871799958062979e+01 -1.049041019247156186e+02 4.037311397044289407e+01 2.657909672269502011e+01 8.535922869540206648e+01 1.903613470703506039e+02 -2.553646390629084806e+01 -1.141233744909781933e+02 -8.782347004285858816e+01 -5.317864960117560713e+01 -4.600483953360060951e+01 -1.520445061622166918e+02 -2.330396631364258653e+01 1.341533326868827203e+02 7.724376580609863652e+01 -1.267916588830588296e+02 -1.552147627408752726e+02 -7.057562176400318776e+01 -7.914518009671873244e+01 1.520151799104225461e+02 -1.765956538297949407e+02 8.963638695012541291e+01 -4.774546727223201614e+00 -4.456471859990960382e+01 1.379244631007912680e+01 9.447337101282768401e+01 5.140031163445465978e+01 1.431797230842198019e+02 -1.648497157782109070e+02 -8.388361374267640258e+01 2.623314961711387383e+01 4.344685088595216627e+01 2.135704716762025726e+02 1.506666329881326760e+02 6.786444205203400770e+01 7.469468529890380637e+01 -3.548990800561237791e+01 1.572947067497821081e+02 -1.857383084195040794e+02 -6.565799372467317596e+01 -5.561489089431131561e+01 -5.365208515903307074e+01 -1.070048396223229048e+02 -1.551474828241618376e+01 -7.110883666620136978e+01 7.374351413490329321e+01 -9.498851206834455496e+00 -6.020410614016724082e+01 -6.456675483941251059e+01 1.866450300553732973e+02 6.108252684960686452e+01 -1.417842026865747762e+01 2.163399312441613063e+02 -1.121841757109709476e+02 -3.660470841418156596e+01 6.934443644431814846e+01 -1.310820957715372326e-01 1.545632747919649397e+01 -1.294917547693073061e+02 1.824552546775373685e+02 -5.075629129283993990e+01 -2.792336085632823028e+01 -1.135987017538994905e+02 1.302976051034208069e+02 9.929308755088490557e+01 -8.026143174040329598e+01 -3.886015058048513282e+01 4.029391797155997068e+01 -1.567079544576797900e+02 -1.317222931802851382e-01 -7.730672228929493883e+01 7.982480779923831982e+00 -1.118908777384760782e+02 -1.640318291277716298e+02 -7.311734930830985491e+01 1.532705881956798066e+02 5.855182238874856893e+01 -9.268034706361160602e+01 9.225083772674429383e+01 3.542605491206938950e+01 9.128956887523106900e+01 -4.354444839277922341e+01 -8.695839486015185571e+01 1.767922308826443327e+02 4.307936726166051500e+01 2.993336586545976630e+01 -7.546896214236437572e+01 -4.372340711429133364e+01 9.893726520646193734e+00 -7.391273695080063710e+00 -1.785572745152481673e+02 -3.574164730135954215e+01 6.655261300006108627e+01 1.153076109157416909e+02 1.608037980330749406e+02 -1.369461398911876238e+01 9.253819343282063414e+01 1.628208438412323744e+02 6.548255107544034104e+01 1.525825566046146093e+02 1.657688197601162727e+01 1.354875789415879126e+02 -8.660636873861089668e+01 5.506558073558058197e+01 3.027924289927920398e+01 7.824486289013842111e+01 -1.094995352264655111e+02 2.041071727676545322e+02 -1.327717813982906989e+02 9.097394240341289162e+01 -1.107187775904564262e+02 4.751853260268828905e+01 1.420796636199797369e+01 9.342530662124498519e+01 -7.587397826219027763e+01 -7.774188483483557377e+01 -1.150649959940336586e+01 9.169516839484649040e+01 -3.044256550792923832e+01 -1.678821407675295063e+01 -2.019813071829235795e+01 4.873654635246407629e+00 1.009261859716918934e+02 -6.433821866282094959e+01 -2.795178109093865437e+00 -1.990136268971476454e+02 1.250671152363799905e+02 -1.280311155135946422e+02 -7.575892781265787335e+01 -2.414802858865355262e+01 -1.106453011870996761e+02 -5.450935831684542876e+01 -6.003656796875576163e+01 -2.015466823016680209e+01 1.397113661378454026e+02 5.541961672882716528e+01 1.029673780978633317e+02 -1.395155702955617869e+02 -1.420694530982422350e+02 -2.936913899740324041e+02 1.046979418438177021e+02 1.069127327766021978e+02 4.332385491084331619e+01 -4.346763148669443666e+01 -3.817205026556024450e+01 -1.882453711207559479e+02 1.498359565668243931e+02 -1.101343646181591964e+02 1.096580186639253611e+02 -1.632589992707125077e+02 -1.466535878201541721e+01 -5.677544176202445669e+01 -1.222619494501046233e+02 -4.726016304264049950e+01 -1.278772657130297574e+01 -9.499782568458655874e+01 -1.061406838763722220e+02 -1.266541525096512721e+01 7.301978903925579800e+01 -1.278145536616163014e+02 -1.607579299115429450e+01 -7.564221188772118865e+01 -1.347756650512997680e+02 6.868873792872312478e+00 9.764622903332423220e+01 1.697476205275443988e+02 -1.956960429910967036e+01 -4.724801025272994082e+01 -1.273353137617107222e+02 -1.677871192714652580e+02 1.064447171877473579e+02 -7.463922264361418968e+01 8.108752972459635089e+01 9.651830982497706657e+00 3.002921298251345306e+01 7.578882875112375928e+01 -8.693796383583600118e+01 8.482993080542928510e+01 1.183019156685761430e+02 1.615452227472300706e+02 -1.196853950125643706e+02 1.066803719889065860e+02 -4.901639046190295090e+01 -9.319335578055134306e+01 2.202222463496244700e+02 5.057517864343322600e+01 8.567579406043132906e+01 2.187682906382480752e+01 -6.482611005037068708e+01 -3.586389099534538616e+01 -2.159398256744768787e+02 1.084239582262647588e+02 8.367655897113075980e+01 -7.770876810279452229e+01 -7.510955268603910895e+01 1.490502024150017064e+02 1.037466734095241492e+02 5.246662008034849123e+01 7.811105815785826678e+01 -8.125419913227869273e+00 1.059397926607581724e+02 -1.062663511952795972e+02 1.913781278911859260e+02 -4.053124385458474421e+01 -1.252224651757658336e+02 -3.864997368445248327e+01 7.365451272959518292e+01 1.512658740856585382e+02 1.329240415402737696e+01 1.784461452385369569e+02 5.360380205141857601e+01 3.450162030176084471e+01 -1.142893667146002201e+02 4.601921961047370502e+01 -1.283873951404304137e+02 4.895298813652023284e+01 3.969409872812452278e+01 -1.266124807969396358e+02 -8.729931683093550987e+01 4.088686322844362309e+01 8.959046250869477035e+00 -2.386613749944369900e+01 4.295765124566214155e+01 -2.196759164378166673e+01 -6.477585850447162841e+01 -2.681115196283336388e+01 -2.306996151817927299e+01 -4.089568385809725726e+01 1.928627098395872252e+01 -8.262452039707794427e+01 1.221286068386012005e+02 -7.633095901180607257e+01 -4.429657279775948808e+00 6.723230409231675253e+01 4.012131298114697486e+00 1.636117331129035790e+01 1.637730814352847730e+01 -1.202698633758742943e+02 -4.541250643266569575e+00 6.679045591695707174e+01 -2.376118132370021385e+02 -8.709829795288388254e+01 -1.157416927390976440e+02 4.495193862844390509e+01 9.879024464871507405e+01 -9.418312974272429017e+01 -1.723589672582465369e+02 -1.900480595597533124e+02 2.051110000959678104e+01 -1.487894522934686279e+02 -6.481849505288138857e+00 1.514489518709300739e+02 -7.308209903140631347e+00 3.810676936990721941e+01 -1.014308115411620008e+02 8.180417027978455735e+01 -1.214159392458095539e+02 -1.576379599059068504e+01 -3.103720694653880940e+01 5.889548387588101264e+01 -9.100616798544360009e+00 1.080723632945033188e+02 -1.247582943568257718e+02 -5.118004611953912075e+01 8.838342543469123314e+01 6.756324334551821664e+01 -8.411204774822323316e+01 -5.552583160712087818e+01 -5.036338246429163945e+01 -2.952419093694685444e+02 1.974152610814841466e+02 7.764323578662741454e+01 -2.407896778172721142e+01 -3.023832850987783516e+01 4.233098462659676642e+01 -8.578961990639768942e+01 1.014347914061682161e+02 6.156618561807395196e+01 8.356758141166631049e+01 -8.563665528346702160e+01 -2.707800766528976766e+01 3.396514671086626436e+01 1.769348901853910760e+01 -4.356214229748068334e+01 1.606619074785254497e+02 -1.760202811734010808e+01 3.598938781416092070e+01 -2.337569122274346967e+02 -8.615339743929682470e+01 -7.442233133376983290e+01 2.340416690725244209e+01 1.110355570063036339e+02 -2.355380442955113551e+02 -1.901671159596486973e+02 2.253985046011886766e+02 -1.074845992101285219e+01 9.769077956762868098e+01 6.379528777375326598e+01 -5.630598205637414111e+01 -1.331908778623077581e+02 -9.675060807051011125e+01 -5.110731701893062251e+01 -3.807342060450167054e+01 -3.980618188674217350e+01 1.645677818878743182e+01 3.773931111296918317e+01 1.695739222109602338e+02 1.252291941955184882e+02 7.024129045555731921e+00 -4.449900149430017215e+00 -1.614584523291576943e+02 1.216393707272766420e+02 1.619840845383689611e+02 -1.051182177627001408e+02 7.496239010997845753e+01 1.825845094609606978e+00 5.578845155711380244e+01 1.275470725919782069e+02 7.212285683849559348e+01 -1.362473800437444424e+02 1.642815951340782021e+01 -2.987568853126209589e+01 1.132396141753734575e+01 -2.358124543951302243e+01 4.612871800636715847e+01 -2.649243088439653775e+02 1.843245458906576175e+02 7.457435313245262876e+00 1.622107874862655592e+02 -1.076123805646217946e+01 1.080828915379738930e+02 7.291583956928012356e+01 -4.277963784763728228e+01 3.042299314821022094e+01 -7.411025329920381921e+01 -9.059899122285084161e+01 -7.343189709311630509e+01 -3.264592829682411690e+01 4.604254358967341432e+01 1.122785511808107799e+02 2.905528262604048351e+01 6.326903591591901943e+01 -1.068436255414414688e+02 -1.398109621554810360e+02 -1.374866299871036901e+01 4.732675174915961946e+01 -4.644177044142531230e+01 9.639500017068854731e+01 5.661270926288031546e+01 -2.820993315599006479e+01 3.055643090531804162e+01 6.259524036651832546e+01 -7.358288541626750145e+01 -1.364379675843107123e+02 1.449953243131297711e+02 7.977210746995340607e+00 5.118355352664119096e+01 -1.523919087369375234e+02 -5.452465771772774872e+01 -4.835706586176103938e-01 -6.708968969614882383e+01 4.368267882536642333e+00 5.748705974501801563e+01 1.904703248902637540e+02 3.997561769192435577e+01 -1.120673728475557418e+01 7.377313828978003585e+01 -4.650165903353274643e+01 -1.114151096543884023e+02 -1.413157682887508599e+02 9.590892591004857692e+00 2.568597075461561374e+01 2.432610012640435571e+01 -5.818989994408253352e+01 1.236451789683564897e+02 -8.273653030955871657e+01 1.313520895629353902e+02 8.937141099002160161e+01 -6.659518955645569349e+01 -8.669342821812423949e+01 8.621470510430835077e+01 2.099697330278542040e+01 -5.375262481245697188e+01 -5.516979300854632129e+01 1.400088129545582092e+02 5.870538193234892077e+01 8.184880513330055862e+01 2.679767657742548437e+01 -4.315035143919248384e+01 1.101944831749225528e+02 -5.594454883124529943e+01 5.372938613701808697e-01 7.854474295790146243e+01 1.021391814399145659e+02 2.620474604429040255e+02 -1.796791554579319836e+02 1.651599225895659231e+02 -6.939417620585963675e+01 -1.562363291243248220e+01 -2.569630184134797446e+01 -2.128889511990026051e+01 -5.668357407405189008e+01 9.543442279378808735e+01 1.891367742471520046e+02 -1.221036511593693064e+02 3.179590018740762147e+01 -1.304872201671094842e+02 7.219089186980858130e+01 -4.579173548971001395e+01 -8.332288508265295945e+01 -5.545411674814630487e+01 4.238761651337632230e+01 1.998042574400893301e+01 -8.428060708915958799e+01 -1.453824365286351963e+02 2.141724847839840606e+01 1.625244917540241545e+02 1.473374462946120289e+01 1.882622751554352760e+02 7.707353980724899856e+00 1.389405125095031224e+02 -3.572462314925506632e+01 9.365719875681374162e+01 -7.379689176267227424e+01 -1.166520855519010524e+02 5.108542349467646915e+01 -5.997802656378421204e+01 -8.117237811271242265e+01 7.541333084321917113e+01 6.652234567774002905e+00 -9.757703676960716166e+01 -1.557831479026830550e+02 1.530842991411857952e+02 -9.233132342265346892e+01 -2.413263345819286698e+00 1.243778476673379032e+02 6.014224851088513901e+01 -1.017569717052225116e+02 1.099480202230319215e+01 2.923991697847677074e+02 5.530876498788531137e+01 -1.636218977255270772e+02 -4.949335335967325733e+01 -6.386274351444730968e+01 1.000480560388773910e+01 1.116504083101433338e+02 -1.074122256855277158e+02 2.237868084829591808e+01 1.355372292814475372e+02 1.950735892248005143e+01 -2.194553837011995086e+02 5.025274356005334653e+01 7.842371081840710190e+01 -1.409744101754839107e+01 3.409415374168969493e+01 1.261981659615376561e-01 2.335485293143018382e+01 2.882488158447998217e+01 1.203527644832289525e+02 1.018507323148307080e+02 1.612125907289781779e+01 1.548884206216995665e+02 -6.653931151772266617e+01 2.563509442808708059e+02 6.757995845284240488e+01 1.472577597808978283e+02 -2.284633684479212334e+01 9.361274650162435762e+01 -5.101905874509362349e+01 -1.521688783142847683e+02 2.724358511108305692e+01 9.888957444993117463e+01 -9.111313755238148815e+01 -1.089003084670982417e+02 -6.918350705273431345e+01 3.803574406583979339e+01 -1.188062736335098748e+02 7.772263552909907958e+01 2.920958694670065725e+01 -1.015090882623602653e+02 1.975448508949922939e+02 -1.223489005958299103e+01 -1.058009074946633916e+02 -1.389929848436846882e+01 -2.125190327804732959e+01 -1.458514165465566066e+02 -4.164815310431749396e+01 6.395974673718719572e+01 1.370387639671966156e+02 3.016823467276492110e+01 2.785108131514206775e+01 4.658606075353112885e+01 -3.721052320090294785e+01 -1.514158745464837637e+02 1.646898826423776896e+01 3.225723022371956716e+01 1.384224357082623840e+02 -1.036158561758770524e+01 -7.920923117629605770e+01 7.615540115397735121e+01 1.047974104061680567e+00 3.327051222383024509e+01 1.449195900545400377e+02 -1.847190049041188331e+02 -9.658365394517493030e+01 1.297481070053099188e+02 -2.180793085473938220e+02 -1.859039794237949081e+02 9.195571968924794248e+01 1.556638429804676775e+02 6.405030314029147576e+01 -4.483958325882656304e+00 1.574858909559386291e+02 -2.218411231039104337e+02 1.083175990206605661e+02 4.284198569214942154e+01 1.284569952557647525e+02 -1.906357259811505855e+02 1.077606613029636407e+02 -2.861405566176317095e+01 -1.351528339985503919e+02 -5.386218066187981712e+00 -9.341671902630672264e+01 -1.652927492698040268e+01 -4.302962738255726727e+00 -1.245248422605738767e+02 -1.246539255602851739e+02 -6.325929078817290474e+01 -1.303340771874509016e+02 2.031841896145824364e+02 -1.627287051747605062e+02 -5.070475781163197837e+01 1.744029044883122026e+02 3.428962779804930960e+01 -2.991831068455001628e+02 -1.284350432093517043e+02 3.591886436385782133e+01 5.522946616768602013e+01 8.723134380264077947e+00 -1.563222135056621198e+02 3.607489260900282346e+01 7.530769998771305929e+00 -7.513088539106331609e+01 2.048896171890647224e+02 2.048033502213455677e+02 4.369705941167557839e+00 -2.107725878491801836e+02 1.273601209245298094e+02 3.111498471163227109e+01 3.768081998992465209e+00 7.747920878332564598e+01 -2.096981971907256934e+02 -1.395393371920497998e+02 1.425822869799062005e+02 1.108204166442806127e+02 5.351863415269610158e+01 1.447992483873390483e+02 -1.801874519188710337e+02 -2.063968800458225417e+01 -1.318567597474236948e+02 4.402392799426144876e+01 -1.049799304395636739e+02 8.797274714411840080e+01 -3.422209682690635191e+01 1.251436554074741991e+01 1.793335871750499280e+02 2.877671807835816864e+01 -2.664068882845071471e+02 -1.277027923241653866e+02 -8.425812853511821743e+01 1.598052789092045884e+02 1.266719113007833641e+01 -5.436116782011651338e+01 3.073736165735006409e+01 6.320713812717254854e+01 -4.002474872491589508e+01 1.086723819876872597e+02 -1.018145670869316746e+02 4.974187128573564110e+01 1.131279520933042448e+02 -3.579189250617427120e+01 -9.917738526200312776e+01 -1.146133049840601359e+02 1.210441186454987417e+02 -5.018148905572866880e+01 1.986635668848324485e+02 5.781894191692843066e+01 1.121543157972096054e+02 1.863501836835930305e+02 8.656077459187718759e+00 -1.255950486669204054e+02 -1.675658345597029495e+02 -1.154294267947224029e+02 4.291253264542937274e+01
-1.346214706837465869e+01 -4.739493727297528380e+00 1.022591922525036381e+02 -2.260965141683879267e+02 1.534377239938570199e+02 6.272962852296521419e+01 1.501954390159209538e+02 -1.275044397017598783e+02 -2.755777455443132684e+00 -2.377617970180503804e+01 -2.166766420397594004e+02 3.233324094602199494e+01 -1.809529751194866876e+01 1.207280851169871312e+02 -1.234418362242679024e+02 6.091905070385335108e+01 1.237165747331721093e+02 -4.535069983558296514e+01 -4.905655789826973745e+01 -2.673139325010469847e+01 6.090174139423875488e+01 6.232789711230340401e+01 3.199249258198503654e+01 -2.295656942541810679e+02 -5.098844537871639915e+01 9.030160565755646473e+01 9.772352992327466126e+00 -1.020831114921908700e+01 -6.568868295673264868e+01 -1.524348590921645297e+01 7.239836603601480647e+01 -1.435438676355994971e+02 -6.109356943879147650e+01 8.888120795341851732e+00 2.048195248835490077e+02 2.093090738286622354e+02 -3.163339260349013315e+01 5.516923884155151114e+01 -2.783030128937201697e-01 -1.378758170348059764e+02 9.475609783270206776e+01 1.058722621319720361e+02 1.071282230448071573e+02 1.154915512132595623e+01 6.110857484133694584e+01 4.750932194438029654e+01 3.838956495328400820e+01 2.893489364829455823e+01 1.088733217023628725e+02 8.857407075837856780e+01 6.477023473442517343e+01 1.608719757996596798e+02 2.444375680111185147e+02 1.930459007972332586e+02 -5.836326495121803504e+01 4.863051580794883222e+01 -6.347563545139826857e+01 5.570272975145451255e+01 -1.896541441962814929e+02 5.577413164550134894e+01 -2.021496735778634672e+02 -1.665338641442386916e+02 1.277235194459450618e+01 -9.109927091970289936e+00 1.673653291067610382e+02 -2.052391335164439852e+02 7.432067557002244484e+01 2.268396428337295276e+02 -7.215638388704715744e+00 -1.921826065392473026e+02 3.514889462638228679e+01 1.947060430969131346e+02 -6.031528463476891488e+01 -2.630486516247278246e+02 -1.012547639052670263e+02 8.701696490327591960e+00 -2.271673279940247880e+02 3.159499863032391431e+01 -1.771996852552731809e+02 -1.832795123766238419e+02 -5.637294011681606776e+01 1.506159102352827972e+02 6.867339422681230587e+01 1.047081890134309567e+01 -8.753566553329250155e+01 -4.209626662216061987e+01 6.299934884102119526e+01 -2.293160971180484751e+02 5.347164709001561533e+01 -7.415775561994007603e+01 -7.718147942538382722e+01 -1.747510021949084660e+02 6.435524096924960702e+01 9.171126188722907102e+01 -1.604868148559422991e+02 1.707948616460499522e+02 -3.945893024029481921e+01 -1.672498934569163254e+01 8.656057135504534017e+01 1.545561299170826999e+02 2.142724304687713754e+01 1.497625569165005288e+02 -1.825015840522085853e+01 -8.971095044050461809e+01 -1.940814328187511961e+01 9.998754404355634051e+01 4.572782714805917692e+01 9.947171683199127301e+01 9.599705547785664805e+01 -8.443734575969827461e+01 -1.727796591209547614e+02 1.251394204864092927e+02 5.517814208481885174e+01 1.641573353509974709e+01 3.110174215197915970e+01 -6.908192926124876010e+01 9.768059735724386883e+01 9.136443182447290212e+01 -1.389098967042766652e+01 -7.246045667955129943e+01 3.131871691705172012e+01 6.378705181104693089e+00 -6.261828355920157918e+01 1.724828821666458794e+02 -3.359555702343965322e+01 1.237451160093934277e+02 -7.135848324091317352e+01 3.906535002783221699e+01 -3.677203588551795832e+01 9.105152658192261583e+01 2.391271179456489193e+01 1.176559653233071714e+02 -1.180820763403629599e+02 7.569465158778216107e+01 1.257544905598833225e+02 -4.554623861691988651e+01 7.706563600778716605e+00 -1.287006981609624212e+01 1.189280353114832423e+02 3.579596713409862740e+00 1.718602658272048416e+02 -1.440776438148741079e+02 1.189061409603044694e+02 -9.310489212934750469e+01 9.757428708285333130e+01 -1.396905628257748901e+02 3.009699671078351457e+01 2.521660317761721615e+01 1.865423596621567093e+00 3.702453277731940062e+01 4.678088312095221113e+01 -1.269113811150659110e+01 1.098875691206296246e+01 1.102383980498544815e+02 1.298160136672758824e+02 -8.839902764536032009e+01 -5.533023531086451641e+01 4.833875339806184002e+01 1.580568250481585890e+00 -1.397319749065366352e+02 -5.619849234659837833e+01 -3.620590768880280308e+01 4.993948672975087533e+01 -6.693579581930129052e+01 2.341680908459555965e+01 1.637304719715490933e+02 -8.115846637218628246e+01 8.249129459304215573e+01 8.590314768769226816e+01 1.145278904588588098e+01 1.261062306616917397e+02 6.425970713392008804e+01 1.717458497408594837e+02 -3.529332813471889807e+01 1.149873914623108391e+02 5.678491249863395041e+01 -1.644734162884633477e+01 2.087782777518610828e+02 -1.420075615491239773e+02 5.000571279909443945e+01 -1.919432278484500500e+02 -8.616585434657329756e+01 4.198588885443071206e+01 -7.392161679789221296e+01 -1.595918546242737364e+02 2.041234999763423730e+02 -8.786185212600724981e+01 -4.864610448475660576e+01 -4.741549862667339710e+01 1.247333534277356790e+02 1.995833383037926012e+02 6.635756675367704815e+01 1.498732622476239555e+02 2.248923676625736050e+02 -1.676963779351506867e+00 1.669831986165456215e+02 7.266114311549567617e+01 1.951499216174380535e+02 -1.289078517400338058e+02 -1.218100833747055844e+01 6.487499959593474586e+00 1.947163014098276506e+02 -9.319312134639022815e+01 -6.195951289641851645e+01 -5.428454826787949372e+01 -1.372853573042431208e+02 4.776782065215381401e+00 -1.034727157119261989e+02 1.579382034187037505e+02 2.417126592330803092e+01 1.232017201458183564e+01 7.412315566161829850e+01 -5.071611926838043516e+00 1.198606022824664308e+02 -1.628135974709454104e+02 4.653253929674978195e+01 -1.751596649033908193e+02 1.203691535138261912e+02 9.840056679870600931e+01 -6.901723421357729649e+01 4.792129101574091266e+01 2.441060301232906227e+02 -3.120990264652638757e+01 4.270879168354796462e+01 -3.348799133561187347e+01 5.938575497493903299e+01 6.591025755401321362e+01 -6.422900757513843928e+00 1.044923633362374602e+02 1.040790352858208934e+02 -1.987247571184663855e+02 -1.570737020694759281e+02 -1.227905555683815066e+02 -9.700318719671152223e+00 -1.535423164080843605e+02 1.184235446530587126e+02 1.131149547198124452e+02 6.042533484582254033e+01 1.143632837813147418e+01 1.616114074788840753e+02 8.604708975647783120e+01 6.916090803924238628e+01 -1.041768776307781508e+02 1.560796045081354464e+02 -3.653073747373325464e+00 1.120126568649983767e+02 9.030349669121770617e+00 3.765185258502137344e+01 -7.758043466984926795e+01 -9.298961880147189163e+01 7.333239031980413358e+01 -3.914175402335678733e+00 1.498431962999326856e+02 -1.288864286383205382e+01 -2.932067943792514342e+00 4.696292099428595890e+01 2.319631013352050886e+01 1.448128655525109991e+02 1.496034209628784772e+01 3.668915132261960821e+01 -1.583958854377539467e+02 6.742124913865085034e+01 1.368166334641935293e+02 -1.811894298151467453e+01 -2.333135774944241803e+02 8.635279170015564887e+01 1.391580434272157731e+02 2.073207751982955216e+01 1.929663996214096073e+02 -4.201192218071806650e+00 4.378392591678909440e+01 -4.444316463820088359e+01 -1.413962533772724726e+02 5.705504340754442438e+01 -4.836322823950858663e+01 -8.260052975066933811e+01 4.196897244829981588e+01 -1.881748963841507702e+02 7.304369595316994435e+01 1.672812686662385886e+02 -1.030141497760928218e+02 1.759545593628130575e+02 -9.937008540712885463e+01 -6.095934495679000698e+00 -1.068592234363556948e+01 7.787069774157403401e+01 -4.732903676557922523e+01 -1.095869183574301786e+02 -8.994768229984242680e+01 1.480829162452129992e+02 6.002822518750743797e+01 -1.337442955666816715e+02 4.517949241563352203e+00 4.410850429419832608e+01 8.381239803825518209e+01 -4.093670076989123885e+01 6.088921991916938481e+01 -6.998147335167600147e+01 -1.647472889245400438e+02 -3.514032513957337756e+01 1.430129599333924659e+02 -1.149680102632303687e+02 -6.523264936026185623e+00 -1.652408836369883716e+02 -4.819066363621585580e+00 -1.479052536997321567e+02 3.333445734734762311e+01 6.094821205252189600e+01 -5.101922984004345807e+01 -8.352089129333872108e+01 5.702460462184075318e+00 7.537892222651142049e+01 -6.866595652669826677e+01 1.364806371036004293e+02 1.068550698779962858e+02 -1.292845640386461810e+02 -1.067878172540209079e+02 1.367824362022610103e+02 7.224308027476729421e+01 1.520352283313413864e+02 1.014938698337828669e+02 8.216055981274145381e+01 -6.097266618623178402e+01 -8.274607554901814410e+01 -7.797247470130925251e+01 2.068338630343922091e+02 3.085257590144315287e+01 -2.516716509817807079e+01 -6.930140331548571453e+01 -5.058175080478301311e+01 -1.325767439265205780e+02 -1.668350809048443750e+01 -1.766333146696508720e+02 1.258913083528746029e+02 4.634534814945423875e+01 -1.160314059574224075e+02 -4.870398738557550899e+01 1.205578097098566843e+02 -9.764884590981588985e+01 1.035046525308488157e+02 -1.192293874697247986e+02 -1.183913309410114501e+01 -9.612994748337614226e+01 9.028408048746294412e+01 -4.276166996245909502e+01 1.041741077698744711e+01 2.950629675513319938e+01 -1.274702917216652907e+02 1.258309872616297831e+01 4.862280516524267426e+01 -2.256592703159953217e+01 -6.917404403642220245e+01 2.037291018640566733e+02 8.697140213571508127e+01 4.743139949170671343e+01 -3.161363705967723448e+01 8.073290304941730255e+01 1.685966621756024892e+02 -9.285400825214684062e+01 2.106855080666493905e+02 -1.338840733584019063e+02 -1.850242263824111717e+02 1.527685196791699127e+02 -2.353155174956103508e+02 -1.015378489370391435e+00 -2.463454933069398010e+02 -1.538267420805771621e+02 7.216647406943552312e+01 -1.464982782301066209e+02 5.872751257421836613e+01 1.105061470942983561e+02 -1.613233925524905032e+02 -3.032683051401733110e+01 7.583145331159572322e+01 1.347087230305511127e+02 -1.871445135918906146e+02 8.795171391605909150e+01 -9.851093905187282473e+01 -9.940982882322733971e+00 -1.397880586802006952e+01 -8.004725944461780784e+01 -9.084317634749432102e+01 1.824057794728233262e+02 -2.178810529455735434e+01 1.333184975485889323e+00 1.309803150177835107e+02 -8.717723255818047789e+01 -3.463155453753326185e+01 -1.083045817783659714e+02 -4.915645637805248924e+01 5.226115768865811972e+00 5.979287151619875829e+01 -1.360613723467611180e+02 2.390159156175665487e+02 -5.435583626567447624e+01 1.237498781003616983e+02 -4.926420370312560237e+01 1.209079246325691770e+02 1.403673494065952809e+02 4.848310665335942815e+01 1.233074895794435122e+02 -4.365081661393287504e+01 1.413612441270476268e+02 -1.580027117672741781e+02 -6.605530254967588633e+01 -6.361869771135074103e+01 2.577880179929915982e+01 -1.639954612453219056e+02 7.331520133668468020e+01 -3.115783116360589133e+01 -8.351089111182822933e+01 9.056277831872125716e+01 -1.526946282348821171e+02 -9.216998030013697019e+01 -5.314238843441103910e+01 3.343800968710548460e+01 1.312085239942965984e+02 1.181292714801468406e+02 6.988030117259896201e+01 -1.642392994979442467e+00 1.766955693277421915e+02 1.238250379395120291e+02 -9.541718156819135288e+01 -7.900204061387087506e+01 5.608237108121928571e+01 1.010579971399844723e+01 9.901011784795284143e+01 1.683925909523986206e+02 7.131648841563384167e+01 2.462319209101368500e+01 -1.032423171426705153e+02 1.736012094297543342e+02 -1.148579759299140619e+02 -1.669741001997001320e+02 6.638095205841868562e+01 1.125964481495276743e+02 1.981723627413052213e+01 -1.402204234365747197e+02 3.003899442003315912e+01 4.285162881107312671e+01 -3.030780803372336019e-01 1.321707235496195381e+02 9.846372988256506176e+01 1.726491182960197079e+01 7.907973871520154319e+01 -1.080463075245335176e+02 -6.347438241397802550e+00 9.922301070540355283e+01 2.994993741211261451e+01 -6.562652266913651999e+01 1.997920753607756978e+02 2.331521723692694081e+02 -1.266527277238461693e+02 -2.783727863888703169e+01 -2.120567048183569909e+02 -7.280418988764840549e+01 1.579794265677688827e+02 3.451519038111355187e+00 -7.158426676956683821e+01 1.651895228581116442e+02 -6.304976260046191783e+01 -1.619236661096681473e+02 1.376695165196450148e+02 -6.778323456501348687e+01 3.471391740902880230e+01 8.706482152650471562e+01 1.388349381392660398e+01 -2.401010738466844430e+02 4.260768123719010703e+01 -6.163189685440274346e+00 9.076908332789595590e+01 -2.374245950086283230e+01 1.019674083156282194e+02 1.708572647229338060e+01 -8.543952077217062424e+01 -2.062841742813971635e+01 -1.765520623134918310e+02 1.158764232016543474e+02 2.545720503296760029e+01 -4.195188089291322342e+01 -5.221181957057890344e+01 -6.333042729676756011e+01 4.140196190230015816e+01 1.618996049394615113e+02 1.337096836203017176e+02 4.340693956853217372e+01 -1.993508488952507491e+02 -3.908453277510563595e+01 4.413656200847434974e+01 1.182388942809656811e+02 8.790387031435810172e+01 1.557960398145797143e+01 -1.874552517493933124e+02 1.327336127583329812e+02 -2.254585362252676646e+02 -2.073692628958939963e+02 -1.870434173806274192e+00 -7.433950389038197670e+01 -2.424595506575957060e+01 8.779725793090702268e+01 5.634841219741002050e+01 -1.120662985574404473e+02 -1.525858909307077624e+02 1.471184401573625244e+01 1.246328346257969457e+02 2.087810934453373690e+01 -5.714165573651512631e+01 -5.198995523276982311e+01 -1.189448802205984457e+01 1.626002826612640888e+02 2.255124273322073236e+01 -1.780960094881026237e+02 1.315507763177897687e+02 -6.849585218015874943e+01 -4.284810271621236843e+00 1.579545285392912888e+02 -5.366701251762459179e+01 -2.007955721917588932e+01 -1.126759893535107722e+02 -6.168185976155696082e+00 -2.447893047706088510e+01 1.351209834977156277e+02 1.232016678815027291e+02 6.932163859726364308e+01 6.708206946751522537e+01 -1.919807379306435635e+01 1.387295006852197048e+02 -1.156411484932553435e+02 -4.377815112921394913e+00 -9.339954819010814902e+01 1.612169494802433860e+02 7.483109362772135853e+01 5.304280327272235240e+01 8.505112793248779113e+00 -5.463858616426146853e+01 3.527043184327596492e+01 6.938326367422404495e+00 3.665928989183906417e+00 2.474734776069161768e+01 6.131366072229038622e+01 1.746240122887692507e+02 -3.980659895650504865e+01 -5.333258423687648531e+01 6.849285515237923505e+01 1.186437910067583061e+02 -1.313341689691633363e+01 9.426063974160867076e+01 1.066590122301298464e+02 2.161167755591856974e+02 -8.876277097890789491e+01 -1.258361028329410942e+02 -2.936168694770430321e+01 6.370823178068789616e+01 -1.040379093635385388e+01 1.101475206445102515e+02 3.816889099614333958e+01 -1.667470872733102851e+02 4.620286806798192458e+01 -9.171563541062810998e+01 -1.387056000330686629e+02 1.378723391949433221e+02 -7.790845815963591292e+01 6.059901749404194504e+01 1.139913897569760906e+02 -1.015090411514779021e+02 2.403841196966826033e+01 -7.392921867876623310e+01 4.123415334555225087e+01 -1.173557316773267587e+02 6.305135826091637341e+01 5.598076388640587453e+01 4.042385970855578492e+00 8.611360306066183057e+01 -1.566311033939429649e+02 7.821346512332893042e+01 -2.991746973664418618e+01 -1.717378188274679758e+02 9.602156736407509641e+01 2.491124341488322003e+01 -1.994360390343691165e+02 2.391171420195821327e+02 -5.357430215001908191e-01 1.069190356284764363e+02 -1.226005764137688203e+02 -1.974198934762807767e+02 -9.485922198452458076e+01 2.503974299038851825e+00 1.452859948593446688e+02 4.096804691318176594e+00 -9.714439754767694524e+01 5.126983329778726528e+01 1.393160692670950880e+02 6.607497773320034185e+01 -5.261660538536258258e+01 -6.011482009594389098e+01 8.591000612363978917e+01 3.127932622612124902e+01 -1.987626527558702207e+02 -2.107879405741279299e+01 1.718436786178081945e+02 1.004908776269483894e+02 -5.825927245993875658e+01 -1.136559353797071026e+02 -4.339362063422159110e+01 -4.887615410368287172e+01 -1.163493381623683689e+02 -1.881537243745853161e+01 -4.642239577241613802e+01 -1.154939802712449790e+02 -1.340413337975778063e+02 -2.735676087619918562e+01 -1.277313611991607729e+02 -1.359666553061261425e+02 -3.896579727292874651e+01 -5.628298677340118417e+01 -1.128177343517495217e+02 1.960865546166344018e+02 1.109781793356415136e+01 -2.964116157810547847e+01 -1.792416792043796647e+01 8.286585745221859156e+01 1.646628536852861302e+01 2.638563756094520940e+01 -2.245195958923505586e+01 -4.866869534688351706e+01 2.204316084633465778e+01 -1.531123887247615869e+02 -1.677067772134035692e+02 -9.529329649613868014e+01 -2.010353185759043413e+02 -9.441981725000540848e+01 9.041344514310040381e+01 6.465561077721166328e+01 -2.746292850794477403e+01 6.401724451135794425e+01 -1.648969190407466101e+02 -4.296399679925027471e+01 -1.223181102700401226e+02 -7.032262332099996627e+01 2.221690534685212697e+02 -2.162507359847392649e+02 2.162338045518834804e+02 2.635214310317213915e+01 -5.951005983259870646e+01 9.720667147964623211e+01 1.307156348665180872e+02 -5.466570168560051002e+01 -2.145866030656116266e+02 -1.570664933498259472e+02 1.077205276356370405e+02 8.823951953682174576e+01 -1.428423496739746952e+02 3.368159648937835726e+01 -4.176785484360433287e+01 -8.153429232128337389e+01 -2.994066993925883935e+01 -5.776871185716807133e+01 -9.107400555867958758e+01 -3.583838145675846931e+01 4.688103718891420080e+00 -3.448547792418637670e+01 -4.336874384807561378e-01 -1.515359491489541988e+01 9.692040547978542975e+01 1.338512081248748302e+02 1.387901737764036803e+01 1.767726190847388779e+01 -6.645643827334347975e+01 -2.064681723564002027e+02 3.566665542639746889e+01 -9.665061845893997372e+01 2.720013554481982965e+01 -8.655108129128768368e+00 1.046407083360597401e+00 7.607065397288160113e+01 1.283821371447301090e+02 -7.421031123737645885e+01 4.002881443364698555e+01 -2.031015847754755157e+02 1.017418206914962653e+01 7.413600701404599924e+00 -1.290846999284522099e+02 -3.553998178304517808e+01 -4.669431089863301310e+01 5.032779507243936301e+00 -1.077218926164663202e+02 2.850494477291276496e+01 -1.028745715606910665e+02 5.915460611168250438e+01 7.145328935861105890e+01 3.883805543402414884e+01 -3.056995284131865986e+01 1.131640199780196383e+02 6.430567831138937152e+01 8.424723908809193063e+01 -7.054345025132509761e+01 2.140473959592869946e+01 1.346892710538432425e+02 -6.155670848962955688e+01 -7.275589427687261690e+00 3.368925019558535894e+01 -1.351715727260790914e+02 1.029962057003705524e+02 9.429537444259537438e+01 -1.064297320661174382e+02 -8.668660243281894395e+01 -5.842434828731848029e+01 -4.790108885755943646e+01 -1.686944658778139967e+02 -1.430477190873660049e+02 -1.393753677546056053e+02 1.111656145071951016e+02 6.285833023461358238e+01 1.677841141745707887e+02 7.561987402501762823e+00 -9.021501789556424455e+01 1.968137673695374801e+01 1.454947305389197432e+01 -6.674518569250824385e+01 7.785265960780067473e+01 1.241180733168001495e+02 1.052515692718829143e+01 1.507777425560474853e+02 2.367486274001202418e+01 1.166271908067962784e+02 1.588276304134799055e+01 -2.183377977254702955e+02 2.294586102380681609e+02 -5.141824409372006954e+01 -1.567048175057919650e+02 -7.058609089837869988e+01 -4.512810307175916336e+01 4.321006522748385947e+01 2.673874328022449731e+01 4.777395866632542720e+01 -7.744225340872867491e+01 1.277962814627254460e+02 -9.006123261862762774e+01 -7.316363641679973107e+00 1.487052672283608956e+02 1.144084640601489866e+02 6.047570658486461781e+01 -1.845965191480164833e+02 2.651523984914672738e+01 1.463633363593394563e+02 2.442632548444882801e+01 1.016399746174324434e+02 1.108181826227584708e+02 -2.199692045753336629e+02 8.003125724645975936e+01 -6.007209995864033658e+01 -2.338300910065209450e+02 9.195817977105340901e+01 2.552856865283268917e+01 -1.261639810397700501e+02 -6.046858839250851503e+01 1.431534754126756468e+02 1.518878681834347617e+02 -7.794010653896120289e+01 -1.312638592210686568e+02 -8.562432067371338462e+01 -1.700314222011910772e+02 2.002647958771342118e+01 3.878365547252261791e+01 -1.729236679545464739e+01 -1.263426582784825669e+01 -9.128881044358421093e+01 -9.011329946711288130e+01 -2.509158035456204416e+01 1.359874802441956376e+02 1.382598445890003802e+02 8.225544890916886231e+01 9.832407636073429558e+01 -7.957469052849101843e+01 -1.825166398907778103e+02 -1.339073697756251313e+01 -2.341791278562109468e+01 -7.162830160213212594e+01 1.519389650066097941e+00 7.373122190162651179e+01 -5.340298028109779693e+01 2.482452158988720825e+01 7.987354352928278445e+01 7.071009584929285552e+01 1.114833532578544464e+02 -1.505096944287559495e+02 3.999545327270245565e+01 8.404492175855581593e+01 9.559368187668503936e+01 5.960484479296368221e+01 -1.041505618951296412e+02 1.381502933370204289e+02 1.285675273207617124e+02 9.667029830869404350e+01 1.024202075500603399e+02 -8.497587013763934749e+01 -1.501135807826981505e+01 -1.302761384533680555e+01 7.775152883239582025e+01 6.553586362386280939e+01 5.643260892326289735e+01 9.845663666457318186e+01 1.174831506412833733e+02 1.249261627339852367e+02 -6.551519434568929512e+01 8.129526948087777782e+01 6.583145038202981425e+01 -1.186913722941760625e+02 1.327605870229243976e+02 -1.013655655605417039e+01 -2.816143837616834844e+01 2.010539163366942148e+02 8.925824263176450302e+01 1.252303516526642682e+02 -1.456754392026971061e+02 -1.592764777765834765e+02 -1.552749437632567151e+02 -1.233887223694572697e+02 -4.472760481366528040e+01 1.109654987088269138e+02 -1.703999089339418163e+02 3.289007791026161698e+01 1.459185658682577866e+02 -5.998805556431613439e+01 -9.238214336953019767e+01 -3.550108393885203384e+01 1.374766639967601520e+02 2.299954682703021547e+02 -6.741105344537831456e+01 2.004897685084754144e+01 -2.804890212523778459e+01 6.933441001768683520e+01 6.103016648581797199e+01 -2.159305732091619632e+02 -8.979430310288226735e+01 1.393477100824781019e+02 1.416323985141995081e+02 9.578576163482568973e+01 -5.045082111976237371e+01 -7.683882210266222046e+01 -4.604367808970359732e+01 -1.789114939847853236e+02 7.215325327684529100e+01 -2.603919267621632017e+01 1.687112573636223374e+02 -2.830882079200012313e+01 -3.189769145105971120e+02 1.469502570373855406e+02 5.106086343928468096e+01 -1.196814150362150713e+02 -2.244495082623388171e+01 3.583469211985433134e+01 -2.107000323190126778e+02 -1.159782404406747247e+02 -1.111888373657489524e+02 -5.729839554615003294e+01 6.375823880191731519e+01 -1.672709379667346070e+02 1.095778811506534538e+02 -5.513206814491256580e+01 2.944331039358866420e+00 -1.354447817434313208e+02 -1.051409600277405474e+02 1.785599837295785335e+02 8.799379187039910732e+01 -4.289063826376253274e+01 3.777014465840355939e+01 -2.850464458895345388e+01 4.387195099638810802e+01 -1.062634022761318562e+02 1.003643972064570704e+02 5.132551685579790757e+01 -1.208113935070724665e+02 1.186326951799649265e+02 -4.994729848425257757e+01 1.015332924513064086e+02 -5.021838391416904557e+01 8.983867643220956722e+01 -1.559290722479775582e+02 1.450275318111707179e+02 2.518600243593518329e+01 1.022960777935056740e+02 1.325732749449582286e+02 -1.490886659263073568e+02 -8.733157761974071320e+01 -1.074023235271390320e+02 6.801468932562811176e+01 -1.742462864100002946e+02 1.540265547508954000e+02 1.448498846876728123e+02 5.389889077134884587e+01 -8.635459898845951443e+01 5.803220038228645450e+01 -1.091343428371818192e+02 -1.115900276532007851e+01 3.560575630740215303e+01 -1.869492114961868197e+02 -8.303689366327326127e+01 -1.377355237933383236e+01 1.040289221364690349e+02 -5.109050554941392619e+01 1.106140058974016114e+02 -6.550024064063693174e+01 -2.146177089782612484e+02 -1.090332158057533150e+02 -3.471863386028035592e+01 -6.129416680557594788e+01 3.065850737050037722e+01 5.229647043235868153e+01 6.475311352003935816e+00 2.573442127496302234e+01 -1.194505865393395823e+02 5.481269631127784692e+01 3.323506636696971128e+01 -7.356271283099026448e+01 9.422839655663157288e+00 5.735392670220689126e+01 -9.723615748076059617e+01 -5.611555428719048422e+01 -2.458819688971485462e+01 9.949170899955690572e+01 -1.745831709177314650e+01 4.273146237419019222e+00 -2.324559608692350707e+02 -9.690679893835553571e+01 1.008577514938091042e+02 -9.102003169867843724e+01 3.196033822390480239e+01 3.168350814373025770e+01 3.870888579983223821e+01 6.739710759147949659e+01 -1.809819363487343367e+02 1.468240901293631850e+02 8.306147631068087378e+01 -7.652155508992075639e+00 -8.242530518775102166e+01 1.141907339191551358e+02 6.333923843727918523e+01 -2.051110332764542932e+02 -5.140799071646252116e+01 -8.332008807977186393e+01 -5.290955657270757939e+01 -6.321108575395565765e+01 -1.010877082574893819e+02 -6.160177875402037984e+01 1.953503398891190557e+02 -1.742754166185826534e+02 6.682513347383094526e+01 2.830365207158371987e+01 -7.669909306434767871e+01 1.058534066599822232e+01 -4.020749521568974671e+01 3.490923623780544105e+00 -9.808154368415294755e+01 -2.015771766225365127e+02 1.876823390639655997e+01 4.278249587588195624e+01 -1.306368436163069013e+01 -9.239178754369241631e+00 -4.059908396860098634e+01 -1.938532936193480225e+02 -3.129211218341975353e+01 -6.672067252122155878e+01 1.427432238898444261e+01 -1.592860050601829336e+01 9.239660186916074736e+01 -6.433567893669163595e+01 -1.058575096451059210e+02 -3.651232657340839438e+01 -9.221133355589072877e+00 4.648917509882949162e+01 -2.261653758030809058e+01 -7.522890555176311977e+01 -1.619915209875947681e+01 2.049861688790598890e+01 4.849619308144964691e+01 -1.164171293450781945e+02 -1.419565747310640234e+02 2.351741491139295874e+02 -2.228584433439479824e+02 -7.756933062599573248e+01 -4.733638867955964002e+01 1.428255788283267975e+02 6.462460420199627720e+01 2.336763090564439551e+02 2.499269747967404669e+02 -6.364155313787514245e+01 1.322380561514630699e+02 -5.709991410951504776e+01 -4.167093098685690933e+01 -1.028077666353577655e+02 -8.154540002495176054e+01 -7.107062890788122900e+01 -9.087353359370843009e+01 -2.489615014859715245e+02 -2.766662593213528112e+02 1.375818511267021620e+02 -2.708712057246838256e+01 5.439840871002187583e+01 1.336337386635764233e+02
