# 
#                 ----------------------------------------------------
#                 Data from a 3D direct N-body simulation. 
# 
#                 rows are i-particle; 
#                 coumns are :mass, tag, x ,y, z, vx, vy, vz, ax, ay, az
# 
#                 NTHU, Computational Physics Lab
# 
#                 ----------------------------------------------------
#                 Time = 8.499999999999863
1.000000000000000000e+00 2.000000000000000000e+00 3.000000000000000000e+00 4.000000000000000000e+00 5.000000000000000000e+00 6.000000000000000000e+00 7.000000000000000000e+00 8.000000000000000000e+00 9.000000000000000000e+00 1.000000000000000000e+01 1.100000000000000000e+01 1.200000000000000000e+01 1.300000000000000000e+01 1.400000000000000000e+01 1.500000000000000000e+01 1.600000000000000000e+01 1.700000000000000000e+01 1.800000000000000000e+01 1.900000000000000000e+01 2.000000000000000000e+01 2.100000000000000000e+01 2.200000000000000000e+01 2.300000000000000000e+01 2.400000000000000000e+01 2.500000000000000000e+01 2.600000000000000000e+01 2.700000000000000000e+01 2.800000000000000000e+01 2.900000000000000000e+01 3.000000000000000000e+01 3.100000000000000000e+01 3.200000000000000000e+01 3.300000000000000000e+01 3.400000000000000000e+01 3.500000000000000000e+01 3.600000000000000000e+01 3.700000000000000000e+01 3.800000000000000000e+01 3.900000000000000000e+01 4.000000000000000000e+01 4.100000000000000000e+01 4.200000000000000000e+01 4.300000000000000000e+01 4.400000000000000000e+01 4.500000000000000000e+01 4.600000000000000000e+01 4.700000000000000000e+01 4.800000000000000000e+01 4.900000000000000000e+01 5.000000000000000000e+01 5.100000000000000000e+01 5.200000000000000000e+01 5.300000000000000000e+01 5.400000000000000000e+01 5.500000000000000000e+01 5.600000000000000000e+01 5.700000000000000000e+01 5.800000000000000000e+01 5.900000000000000000e+01 6.000000000000000000e+01 6.100000000000000000e+01 6.200000000000000000e+01 6.300000000000000000e+01 6.400000000000000000e+01 6.500000000000000000e+01 6.600000000000000000e+01 6.700000000000000000e+01 6.800000000000000000e+01 6.900000000000000000e+01 7.000000000000000000e+01 7.100000000000000000e+01 7.200000000000000000e+01 7.300000000000000000e+01 7.400000000000000000e+01 7.500000000000000000e+01 7.600000000000000000e+01 7.700000000000000000e+01 7.800000000000000000e+01 7.900000000000000000e+01 8.000000000000000000e+01 8.100000000000000000e+01 8.200000000000000000e+01 8.300000000000000000e+01 8.400000000000000000e+01 8.500000000000000000e+01 8.600000000000000000e+01 8.700000000000000000e+01 8.800000000000000000e+01 8.900000000000000000e+01 9.000000000000000000e+01 9.100000000000000000e+01 9.200000000000000000e+01 9.300000000000000000e+01 9.400000000000000000e+01 9.500000000000000000e+01 9.600000000000000000e+01 9.700000000000000000e+01 9.800000000000000000e+01 9.900000000000000000e+01 1.000000000000000000e+02 1.010000000000000000e+02 1.020000000000000000e+02 1.030000000000000000e+02 1.040000000000000000e+02 1.050000000000000000e+02 1.060000000000000000e+02 1.070000000000000000e+02 1.080000000000000000e+02 1.090000000000000000e+02 1.100000000000000000e+02 1.110000000000000000e+02 1.120000000000000000e+02 1.130000000000000000e+02 1.140000000000000000e+02 1.150000000000000000e+02 1.160000000000000000e+02 1.170000000000000000e+02 1.180000000000000000e+02 1.190000000000000000e+02 1.200000000000000000e+02 1.210000000000000000e+02 1.220000000000000000e+02 1.230000000000000000e+02 1.240000000000000000e+02 1.250000000000000000e+02 1.260000000000000000e+02 1.270000000000000000e+02 1.280000000000000000e+02 1.290000000000000000e+02 1.300000000000000000e+02 1.310000000000000000e+02 1.320000000000000000e+02 1.330000000000000000e+02 1.340000000000000000e+02 1.350000000000000000e+02 1.360000000000000000e+02 1.370000000000000000e+02 1.380000000000000000e+02 1.390000000000000000e+02 1.400000000000000000e+02 1.410000000000000000e+02 1.420000000000000000e+02 1.430000000000000000e+02 1.440000000000000000e+02 1.450000000000000000e+02 1.460000000000000000e+02 1.470000000000000000e+02 1.480000000000000000e+02 1.490000000000000000e+02 1.500000000000000000e+02 1.510000000000000000e+02 1.520000000000000000e+02 1.530000000000000000e+02 1.540000000000000000e+02 1.550000000000000000e+02 1.560000000000000000e+02 1.570000000000000000e+02 1.580000000000000000e+02 1.590000000000000000e+02 1.600000000000000000e+02 1.610000000000000000e+02 1.620000000000000000e+02 1.630000000000000000e+02 1.640000000000000000e+02 1.650000000000000000e+02 1.660000000000000000e+02 1.670000000000000000e+02 1.680000000000000000e+02 1.690000000000000000e+02 1.700000000000000000e+02 1.710000000000000000e+02 1.720000000000000000e+02 1.730000000000000000e+02 1.740000000000000000e+02 1.750000000000000000e+02 1.760000000000000000e+02 1.770000000000000000e+02 1.780000000000000000e+02 1.790000000000000000e+02 1.800000000000000000e+02 1.810000000000000000e+02 1.820000000000000000e+02 1.830000000000000000e+02 1.840000000000000000e+02 1.850000000000000000e+02 1.860000000000000000e+02 1.870000000000000000e+02 1.880000000000000000e+02 1.890000000000000000e+02 1.900000000000000000e+02 1.910000000000000000e+02 1.920000000000000000e+02 1.930000000000000000e+02 1.940000000000000000e+02 1.950000000000000000e+02 1.960000000000000000e+02 1.970000000000000000e+02 1.980000000000000000e+02 1.990000000000000000e+02 2.000000000000000000e+02 2.010000000000000000e+02 2.020000000000000000e+02 2.030000000000000000e+02 2.040000000000000000e+02 2.050000000000000000e+02 2.060000000000000000e+02 2.070000000000000000e+02 2.080000000000000000e+02 2.090000000000000000e+02 2.100000000000000000e+02 2.110000000000000000e+02 2.120000000000000000e+02 2.130000000000000000e+02 2.140000000000000000e+02 2.150000000000000000e+02 2.160000000000000000e+02 2.170000000000000000e+02 2.180000000000000000e+02 2.190000000000000000e+02 2.200000000000000000e+02 2.210000000000000000e+02 2.220000000000000000e+02 2.230000000000000000e+02 2.240000000000000000e+02 2.250000000000000000e+02 2.260000000000000000e+02 2.270000000000000000e+02 2.280000000000000000e+02 2.290000000000000000e+02 2.300000000000000000e+02 2.310000000000000000e+02 2.320000000000000000e+02 2.330000000000000000e+02 2.340000000000000000e+02 2.350000000000000000e+02 2.360000000000000000e+02 2.370000000000000000e+02 2.380000000000000000e+02 2.390000000000000000e+02 2.400000000000000000e+02 2.410000000000000000e+02 2.420000000000000000e+02 2.430000000000000000e+02 2.440000000000000000e+02 2.450000000000000000e+02 2.460000000000000000e+02 2.470000000000000000e+02 2.480000000000000000e+02 2.490000000000000000e+02 2.500000000000000000e+02 2.510000000000000000e+02 2.520000000000000000e+02 2.530000000000000000e+02 2.540000000000000000e+02 2.550000000000000000e+02 2.560000000000000000e+02 2.570000000000000000e+02 2.580000000000000000e+02 2.590000000000000000e+02 2.600000000000000000e+02 2.610000000000000000e+02 2.620000000000000000e+02 2.630000000000000000e+02 2.640000000000000000e+02 2.650000000000000000e+02 2.660000000000000000e+02 2.670000000000000000e+02 2.680000000000000000e+02 2.690000000000000000e+02 2.700000000000000000e+02 2.710000000000000000e+02 2.720000000000000000e+02 2.730000000000000000e+02 2.740000000000000000e+02 2.750000000000000000e+02 2.760000000000000000e+02 2.770000000000000000e+02 2.780000000000000000e+02 2.790000000000000000e+02 2.800000000000000000e+02 2.810000000000000000e+02 2.820000000000000000e+02 2.830000000000000000e+02 2.840000000000000000e+02 2.850000000000000000e+02 2.860000000000000000e+02 2.870000000000000000e+02 2.880000000000000000e+02 2.890000000000000000e+02 2.900000000000000000e+02 2.910000000000000000e+02 2.920000000000000000e+02 2.930000000000000000e+02 2.940000000000000000e+02 2.950000000000000000e+02 2.960000000000000000e+02 2.970000000000000000e+02 2.980000000000000000e+02 2.990000000000000000e+02 3.000000000000000000e+02 3.010000000000000000e+02 3.020000000000000000e+02 3.030000000000000000e+02 3.040000000000000000e+02 3.050000000000000000e+02 3.060000000000000000e+02 3.070000000000000000e+02 3.080000000000000000e+02 3.090000000000000000e+02 3.100000000000000000e+02 3.110000000000000000e+02 3.120000000000000000e+02 3.130000000000000000e+02 3.140000000000000000e+02 3.150000000000000000e+02 3.160000000000000000e+02 3.170000000000000000e+02 3.180000000000000000e+02 3.190000000000000000e+02 3.200000000000000000e+02 3.210000000000000000e+02 3.220000000000000000e+02 3.230000000000000000e+02 3.240000000000000000e+02 3.250000000000000000e+02 3.260000000000000000e+02 3.270000000000000000e+02 3.280000000000000000e+02 3.290000000000000000e+02 3.300000000000000000e+02 3.310000000000000000e+02 3.320000000000000000e+02 3.330000000000000000e+02 3.340000000000000000e+02 3.350000000000000000e+02 3.360000000000000000e+02 3.370000000000000000e+02 3.380000000000000000e+02 3.390000000000000000e+02 3.400000000000000000e+02 3.410000000000000000e+02 3.420000000000000000e+02 3.430000000000000000e+02 3.440000000000000000e+02 3.450000000000000000e+02 3.460000000000000000e+02 3.470000000000000000e+02 3.480000000000000000e+02 3.490000000000000000e+02 3.500000000000000000e+02 3.510000000000000000e+02 3.520000000000000000e+02 3.530000000000000000e+02 3.540000000000000000e+02 3.550000000000000000e+02 3.560000000000000000e+02 3.570000000000000000e+02 3.580000000000000000e+02 3.590000000000000000e+02 3.600000000000000000e+02 3.610000000000000000e+02 3.620000000000000000e+02 3.630000000000000000e+02 3.640000000000000000e+02 3.650000000000000000e+02 3.660000000000000000e+02 3.670000000000000000e+02 3.680000000000000000e+02 3.690000000000000000e+02 3.700000000000000000e+02 3.710000000000000000e+02 3.720000000000000000e+02 3.730000000000000000e+02 3.740000000000000000e+02 3.750000000000000000e+02 3.760000000000000000e+02 3.770000000000000000e+02 3.780000000000000000e+02 3.790000000000000000e+02 3.800000000000000000e+02 3.810000000000000000e+02 3.820000000000000000e+02 3.830000000000000000e+02 3.840000000000000000e+02 3.850000000000000000e+02 3.860000000000000000e+02 3.870000000000000000e+02 3.880000000000000000e+02 3.890000000000000000e+02 3.900000000000000000e+02 3.910000000000000000e+02 3.920000000000000000e+02 3.930000000000000000e+02 3.940000000000000000e+02 3.950000000000000000e+02 3.960000000000000000e+02 3.970000000000000000e+02 3.980000000000000000e+02 3.990000000000000000e+02 4.000000000000000000e+02 4.010000000000000000e+02 4.020000000000000000e+02 4.030000000000000000e+02 4.040000000000000000e+02 4.050000000000000000e+02 4.060000000000000000e+02 4.070000000000000000e+02 4.080000000000000000e+02 4.090000000000000000e+02 4.100000000000000000e+02 4.110000000000000000e+02 4.120000000000000000e+02 4.130000000000000000e+02 4.140000000000000000e+02 4.150000000000000000e+02 4.160000000000000000e+02 4.170000000000000000e+02 4.180000000000000000e+02 4.190000000000000000e+02 4.200000000000000000e+02 4.210000000000000000e+02 4.220000000000000000e+02 4.230000000000000000e+02 4.240000000000000000e+02 4.250000000000000000e+02 4.260000000000000000e+02 4.270000000000000000e+02 4.280000000000000000e+02 4.290000000000000000e+02 4.300000000000000000e+02 4.310000000000000000e+02 4.320000000000000000e+02 4.330000000000000000e+02 4.340000000000000000e+02 4.350000000000000000e+02 4.360000000000000000e+02 4.370000000000000000e+02 4.380000000000000000e+02 4.390000000000000000e+02 4.400000000000000000e+02 4.410000000000000000e+02 4.420000000000000000e+02 4.430000000000000000e+02 4.440000000000000000e+02 4.450000000000000000e+02 4.460000000000000000e+02 4.470000000000000000e+02 4.480000000000000000e+02 4.490000000000000000e+02 4.500000000000000000e+02 4.510000000000000000e+02 4.520000000000000000e+02 4.530000000000000000e+02 4.540000000000000000e+02 4.550000000000000000e+02 4.560000000000000000e+02 4.570000000000000000e+02 4.580000000000000000e+02 4.590000000000000000e+02 4.600000000000000000e+02 4.610000000000000000e+02 4.620000000000000000e+02 4.630000000000000000e+02 4.640000000000000000e+02 4.650000000000000000e+02 4.660000000000000000e+02 4.670000000000000000e+02 4.680000000000000000e+02 4.690000000000000000e+02 4.700000000000000000e+02 4.710000000000000000e+02 4.720000000000000000e+02 4.730000000000000000e+02 4.740000000000000000e+02 4.750000000000000000e+02 4.760000000000000000e+02 4.770000000000000000e+02 4.780000000000000000e+02 4.790000000000000000e+02 4.800000000000000000e+02 4.810000000000000000e+02 4.820000000000000000e+02 4.830000000000000000e+02 4.840000000000000000e+02 4.850000000000000000e+02 4.860000000000000000e+02 4.870000000000000000e+02 4.880000000000000000e+02 4.890000000000000000e+02 4.900000000000000000e+02 4.910000000000000000e+02 4.920000000000000000e+02 4.930000000000000000e+02 4.940000000000000000e+02 4.950000000000000000e+02 4.960000000000000000e+02 4.970000000000000000e+02 4.980000000000000000e+02 4.990000000000000000e+02 5.000000000000000000e+02 5.010000000000000000e+02 5.020000000000000000e+02 5.030000000000000000e+02 5.040000000000000000e+02 5.050000000000000000e+02 5.060000000000000000e+02 5.070000000000000000e+02 5.080000000000000000e+02 5.090000000000000000e+02 5.100000000000000000e+02 5.110000000000000000e+02 5.120000000000000000e+02 5.130000000000000000e+02 5.140000000000000000e+02 5.150000000000000000e+02 5.160000000000000000e+02 5.170000000000000000e+02 5.180000000000000000e+02 5.190000000000000000e+02 5.200000000000000000e+02 5.210000000000000000e+02 5.220000000000000000e+02 5.230000000000000000e+02 5.240000000000000000e+02 5.250000000000000000e+02 5.260000000000000000e+02 5.270000000000000000e+02 5.280000000000000000e+02 5.290000000000000000e+02 5.300000000000000000e+02 5.310000000000000000e+02 5.320000000000000000e+02 5.330000000000000000e+02 5.340000000000000000e+02 5.350000000000000000e+02 5.360000000000000000e+02 5.370000000000000000e+02 5.380000000000000000e+02 5.390000000000000000e+02 5.400000000000000000e+02 5.410000000000000000e+02 5.420000000000000000e+02 5.430000000000000000e+02 5.440000000000000000e+02 5.450000000000000000e+02 5.460000000000000000e+02 5.470000000000000000e+02 5.480000000000000000e+02 5.490000000000000000e+02 5.500000000000000000e+02 5.510000000000000000e+02 5.520000000000000000e+02 5.530000000000000000e+02 5.540000000000000000e+02 5.550000000000000000e+02 5.560000000000000000e+02 5.570000000000000000e+02 5.580000000000000000e+02 5.590000000000000000e+02 5.600000000000000000e+02 5.610000000000000000e+02 5.620000000000000000e+02 5.630000000000000000e+02 5.640000000000000000e+02 5.650000000000000000e+02 5.660000000000000000e+02 5.670000000000000000e+02 5.680000000000000000e+02 5.690000000000000000e+02 5.700000000000000000e+02 5.710000000000000000e+02 5.720000000000000000e+02 5.730000000000000000e+02 5.740000000000000000e+02 5.750000000000000000e+02 5.760000000000000000e+02 5.770000000000000000e+02 5.780000000000000000e+02 5.790000000000000000e+02 5.800000000000000000e+02 5.810000000000000000e+02 5.820000000000000000e+02 5.830000000000000000e+02 5.840000000000000000e+02 5.850000000000000000e+02 5.860000000000000000e+02 5.870000000000000000e+02 5.880000000000000000e+02 5.890000000000000000e+02 5.900000000000000000e+02 5.910000000000000000e+02 5.920000000000000000e+02 5.930000000000000000e+02 5.940000000000000000e+02 5.950000000000000000e+02 5.960000000000000000e+02 5.970000000000000000e+02 5.980000000000000000e+02 5.990000000000000000e+02 6.000000000000000000e+02 6.010000000000000000e+02 6.020000000000000000e+02 6.030000000000000000e+02 6.040000000000000000e+02 6.050000000000000000e+02 6.060000000000000000e+02 6.070000000000000000e+02 6.080000000000000000e+02 6.090000000000000000e+02 6.100000000000000000e+02 6.110000000000000000e+02 6.120000000000000000e+02 6.130000000000000000e+02 6.140000000000000000e+02 6.150000000000000000e+02 6.160000000000000000e+02 6.170000000000000000e+02 6.180000000000000000e+02 6.190000000000000000e+02 6.200000000000000000e+02 6.210000000000000000e+02 6.220000000000000000e+02 6.230000000000000000e+02 6.240000000000000000e+02 6.250000000000000000e+02 6.260000000000000000e+02 6.270000000000000000e+02 6.280000000000000000e+02 6.290000000000000000e+02 6.300000000000000000e+02 6.310000000000000000e+02 6.320000000000000000e+02 6.330000000000000000e+02 6.340000000000000000e+02 6.350000000000000000e+02 6.360000000000000000e+02 6.370000000000000000e+02 6.380000000000000000e+02 6.390000000000000000e+02 6.400000000000000000e+02 6.410000000000000000e+02 6.420000000000000000e+02 6.430000000000000000e+02 6.440000000000000000e+02 6.450000000000000000e+02 6.460000000000000000e+02 6.470000000000000000e+02 6.480000000000000000e+02 6.490000000000000000e+02 6.500000000000000000e+02 6.510000000000000000e+02 6.520000000000000000e+02 6.530000000000000000e+02 6.540000000000000000e+02 6.550000000000000000e+02 6.560000000000000000e+02 6.570000000000000000e+02 6.580000000000000000e+02 6.590000000000000000e+02 6.600000000000000000e+02 6.610000000000000000e+02 6.620000000000000000e+02 6.630000000000000000e+02 6.640000000000000000e+02 6.650000000000000000e+02 6.660000000000000000e+02 6.670000000000000000e+02 6.680000000000000000e+02 6.690000000000000000e+02 6.700000000000000000e+02 6.710000000000000000e+02 6.720000000000000000e+02 6.730000000000000000e+02 6.740000000000000000e+02 6.750000000000000000e+02 6.760000000000000000e+02 6.770000000000000000e+02 6.780000000000000000e+02 6.790000000000000000e+02 6.800000000000000000e+02 6.810000000000000000e+02 6.820000000000000000e+02 6.830000000000000000e+02 6.840000000000000000e+02 6.850000000000000000e+02 6.860000000000000000e+02 6.870000000000000000e+02 6.880000000000000000e+02 6.890000000000000000e+02 6.900000000000000000e+02 6.910000000000000000e+02 6.920000000000000000e+02 6.930000000000000000e+02 6.940000000000000000e+02 6.950000000000000000e+02 6.960000000000000000e+02 6.970000000000000000e+02 6.980000000000000000e+02 6.990000000000000000e+02 7.000000000000000000e+02 7.010000000000000000e+02 7.020000000000000000e+02 7.030000000000000000e+02 7.040000000000000000e+02 7.050000000000000000e+02 7.060000000000000000e+02 7.070000000000000000e+02 7.080000000000000000e+02 7.090000000000000000e+02 7.100000000000000000e+02 7.110000000000000000e+02 7.120000000000000000e+02 7.130000000000000000e+02 7.140000000000000000e+02 7.150000000000000000e+02 7.160000000000000000e+02 7.170000000000000000e+02 7.180000000000000000e+02 7.190000000000000000e+02 7.200000000000000000e+02 7.210000000000000000e+02 7.220000000000000000e+02 7.230000000000000000e+02 7.240000000000000000e+02 7.250000000000000000e+02 7.260000000000000000e+02 7.270000000000000000e+02 7.280000000000000000e+02 7.290000000000000000e+02 7.300000000000000000e+02 7.310000000000000000e+02 7.320000000000000000e+02 7.330000000000000000e+02 7.340000000000000000e+02 7.350000000000000000e+02 7.360000000000000000e+02 7.370000000000000000e+02 7.380000000000000000e+02 7.390000000000000000e+02 7.400000000000000000e+02 7.410000000000000000e+02 7.420000000000000000e+02 7.430000000000000000e+02 7.440000000000000000e+02 7.450000000000000000e+02 7.460000000000000000e+02 7.470000000000000000e+02 7.480000000000000000e+02 7.490000000000000000e+02 7.500000000000000000e+02 7.510000000000000000e+02 7.520000000000000000e+02 7.530000000000000000e+02 7.540000000000000000e+02 7.550000000000000000e+02 7.560000000000000000e+02 7.570000000000000000e+02 7.580000000000000000e+02 7.590000000000000000e+02 7.600000000000000000e+02 7.610000000000000000e+02 7.620000000000000000e+02 7.630000000000000000e+02 7.640000000000000000e+02 7.650000000000000000e+02 7.660000000000000000e+02 7.670000000000000000e+02 7.680000000000000000e+02 7.690000000000000000e+02 7.700000000000000000e+02 7.710000000000000000e+02 7.720000000000000000e+02 7.730000000000000000e+02 7.740000000000000000e+02 7.750000000000000000e+02 7.760000000000000000e+02 7.770000000000000000e+02 7.780000000000000000e+02 7.790000000000000000e+02 7.800000000000000000e+02 7.810000000000000000e+02 7.820000000000000000e+02 7.830000000000000000e+02 7.840000000000000000e+02 7.850000000000000000e+02 7.860000000000000000e+02 7.870000000000000000e+02 7.880000000000000000e+02 7.890000000000000000e+02 7.900000000000000000e+02 7.910000000000000000e+02 7.920000000000000000e+02 7.930000000000000000e+02 7.940000000000000000e+02 7.950000000000000000e+02 7.960000000000000000e+02 7.970000000000000000e+02 7.980000000000000000e+02 7.990000000000000000e+02 8.000000000000000000e+02 8.010000000000000000e+02 8.020000000000000000e+02 8.030000000000000000e+02 8.040000000000000000e+02 8.050000000000000000e+02 8.060000000000000000e+02 8.070000000000000000e+02 8.080000000000000000e+02 8.090000000000000000e+02 8.100000000000000000e+02 8.110000000000000000e+02 8.120000000000000000e+02 8.130000000000000000e+02 8.140000000000000000e+02 8.150000000000000000e+02 8.160000000000000000e+02 8.170000000000000000e+02 8.180000000000000000e+02 8.190000000000000000e+02 8.200000000000000000e+02 8.210000000000000000e+02 8.220000000000000000e+02 8.230000000000000000e+02 8.240000000000000000e+02 8.250000000000000000e+02 8.260000000000000000e+02 8.270000000000000000e+02 8.280000000000000000e+02 8.290000000000000000e+02 8.300000000000000000e+02 8.310000000000000000e+02 8.320000000000000000e+02 8.330000000000000000e+02 8.340000000000000000e+02 8.350000000000000000e+02 8.360000000000000000e+02 8.370000000000000000e+02 8.380000000000000000e+02 8.390000000000000000e+02 8.400000000000000000e+02 8.410000000000000000e+02 8.420000000000000000e+02 8.430000000000000000e+02 8.440000000000000000e+02 8.450000000000000000e+02 8.460000000000000000e+02 8.470000000000000000e+02 8.480000000000000000e+02 8.490000000000000000e+02 8.500000000000000000e+02 8.510000000000000000e+02 8.520000000000000000e+02 8.530000000000000000e+02 8.540000000000000000e+02 8.550000000000000000e+02 8.560000000000000000e+02 8.570000000000000000e+02 8.580000000000000000e+02 8.590000000000000000e+02 8.600000000000000000e+02 8.610000000000000000e+02 8.620000000000000000e+02 8.630000000000000000e+02 8.640000000000000000e+02 8.650000000000000000e+02 8.660000000000000000e+02 8.670000000000000000e+02 8.680000000000000000e+02 8.690000000000000000e+02 8.700000000000000000e+02 8.710000000000000000e+02 8.720000000000000000e+02 8.730000000000000000e+02 8.740000000000000000e+02 8.750000000000000000e+02 8.760000000000000000e+02 8.770000000000000000e+02 8.780000000000000000e+02 8.790000000000000000e+02 8.800000000000000000e+02 8.810000000000000000e+02 8.820000000000000000e+02 8.830000000000000000e+02 8.840000000000000000e+02 8.850000000000000000e+02 8.860000000000000000e+02 8.870000000000000000e+02 8.880000000000000000e+02 8.890000000000000000e+02 8.900000000000000000e+02 8.910000000000000000e+02 8.920000000000000000e+02 8.930000000000000000e+02 8.940000000000000000e+02 8.950000000000000000e+02 8.960000000000000000e+02 8.970000000000000000e+02 8.980000000000000000e+02 8.990000000000000000e+02 9.000000000000000000e+02 9.010000000000000000e+02 9.020000000000000000e+02 9.030000000000000000e+02 9.040000000000000000e+02 9.050000000000000000e+02 9.060000000000000000e+02 9.070000000000000000e+02 9.080000000000000000e+02 9.090000000000000000e+02 9.100000000000000000e+02 9.110000000000000000e+02 9.120000000000000000e+02 9.130000000000000000e+02 9.140000000000000000e+02 9.150000000000000000e+02 9.160000000000000000e+02 9.170000000000000000e+02 9.180000000000000000e+02 9.190000000000000000e+02 9.200000000000000000e+02 9.210000000000000000e+02 9.220000000000000000e+02 9.230000000000000000e+02 9.240000000000000000e+02 9.250000000000000000e+02 9.260000000000000000e+02 9.270000000000000000e+02 9.280000000000000000e+02 9.290000000000000000e+02 9.300000000000000000e+02 9.310000000000000000e+02 9.320000000000000000e+02 9.330000000000000000e+02 9.340000000000000000e+02 9.350000000000000000e+02 9.360000000000000000e+02 9.370000000000000000e+02 9.380000000000000000e+02 9.390000000000000000e+02 9.400000000000000000e+02 9.410000000000000000e+02 9.420000000000000000e+02 9.430000000000000000e+02 9.440000000000000000e+02 9.450000000000000000e+02 9.460000000000000000e+02 9.470000000000000000e+02 9.480000000000000000e+02 9.490000000000000000e+02 9.500000000000000000e+02 9.510000000000000000e+02 9.520000000000000000e+02 9.530000000000000000e+02 9.540000000000000000e+02 9.550000000000000000e+02 9.560000000000000000e+02 9.570000000000000000e+02 9.580000000000000000e+02 9.590000000000000000e+02 9.600000000000000000e+02 9.610000000000000000e+02 9.620000000000000000e+02 9.630000000000000000e+02 9.640000000000000000e+02 9.650000000000000000e+02 9.660000000000000000e+02 9.670000000000000000e+02 9.680000000000000000e+02 9.690000000000000000e+02 9.700000000000000000e+02 9.710000000000000000e+02 9.720000000000000000e+02 9.730000000000000000e+02 9.740000000000000000e+02 9.750000000000000000e+02 9.760000000000000000e+02 9.770000000000000000e+02 9.780000000000000000e+02 9.790000000000000000e+02 9.800000000000000000e+02 9.810000000000000000e+02 9.820000000000000000e+02 9.830000000000000000e+02 9.840000000000000000e+02 9.850000000000000000e+02 9.860000000000000000e+02 9.870000000000000000e+02 9.880000000000000000e+02 9.890000000000000000e+02 9.900000000000000000e+02 9.910000000000000000e+02 9.920000000000000000e+02 9.930000000000000000e+02 9.940000000000000000e+02 9.950000000000000000e+02 9.960000000000000000e+02 9.970000000000000000e+02 9.980000000000000000e+02 9.990000000000000000e+02 1.000000000000000000e+03
1.000000000000000021e-02 1.000000000000000021e-02 1.000000000000000021e-02 1.000000000000000021e-02 1.000000000000000021e-02 1.000000000000000021e-02 1.000000000000000021e-02 1.000000000000000021e-02 1.000000000000000021e-02 1.000000000000000021e-02 1.000000000000000021e-02 1.000000000000000021e-02 1.000000000000000021e-02 1.000000000000000021e-02 1.000000000000000021e-02 1.000000000000000021e-02 1.000000000000000021e-02 1.000000000000000021e-02 1.000000000000000021e-02 1.000000000000000021e-02 1.000000000000000021e-02 1.000000000000000021e-02 1.000000000000000021e-02 1.000000000000000021e-02 1.000000000000000021e-02 1.000000000000000021e-02 1.000000000000000021e-02 1.000000000000000021e-02 1.000000000000000021e-02 1.000000000000000021e-02 1.000000000000000021e-02 1.000000000000000021e-02 1.000000000000000021e-02 1.000000000000000021e-02 1.000000000000000021e-02 1.000000000000000021e-02 1.000000000000000021e-02 1.000000000000000021e-02 1.000000000000000021e-02 1.000000000000000021e-02 1.000000000000000021e-02 1.000000000000000021e-02 1.000000000000000021e-02 1.000000000000000021e-02 1.000000000000000021e-02 1.000000000000000021e-02 1.000000000000000021e-02 1.000000000000000021e-02 1.000000000000000021e-02 1.000000000000000021e-02 1.000000000000000021e-02 1.000000000000000021e-02 1.000000000000000021e-02 1.000000000000000021e-02 1.000000000000000021e-02 1.000000000000000021e-02 1.000000000000000021e-02 1.000000000000000021e-02 1.000000000000000021e-02 1.000000000000000021e-02 1.000000000000000021e-02 1.000000000000000021e-02 1.000000000000000021e-02 1.000000000000000021e-02 1.000000000000000021e-02 1.000000000000000021e-02 1.000000000000000021e-02 1.000000000000000021e-02 1.000000000000000021e-02 1.000000000000000021e-02 1.000000000000000021e-02 1.000000000000000021e-02 1.000000000000000021e-02 1.000000000000000021e-02 1.000000000000000021e-02 1.000000000000000021e-02 1.000000000000000021e-02 1.000000000000000021e-02 1.000000000000000021e-02 1.000000000000000021e-02 1.000000000000000021e-02 1.000000000000000021e-02 1.000000000000000021e-02 1.000000000000000021e-02 1.000000000000000021e-02 1.000000000000000021e-02 1.000000000000000021e-02 1.000000000000000021e-02 1.000000000000000021e-02 1.000000000000000021e-02 1.000000000000000021e-02 1.000000000000000021e-02 1.000000000000000021e-02 1.000000000000000021e-02 1.000000000000000021e-02 1.000000000000000021e-02 1.000000000000000021e-02 1.000000000000000021e-02 1.000000000000000021e-02 1.000000000000000021e-02 1.000000000000000021e-02 1.000000000000000021e-02 1.000000000000000021e-02 1.000000000000000021e-02 1.000000000000000021e-02 1.000000000000000021e-02 1.000000000000000021e-02 1.000000000000000021e-02 1.000000000000000021e-02 1.000000000000000021e-02 1.000000000000000021e-02 1.000000000000000021e-02 1.000000000000000021e-02 1.000000000000000021e-02 1.000000000000000021e-02 1.000000000000000021e-02 1.000000000000000021e-02 1.000000000000000021e-02 1.000000000000000021e-02 1.000000000000000021e-02 1.000000000000000021e-02 1.000000000000000021e-02 1.000000000000000021e-02 1.000000000000000021e-02 1.000000000000000021e-02 1.000000000000000021e-02 1.000000000000000021e-02 1.000000000000000021e-02 1.000000000000000021e-02 1.000000000000000021e-02 1.000000000000000021e-02 1.000000000000000021e-02 1.000000000000000021e-02 1.000000000000000021e-02 1.000000000000000021e-02 1.000000000000000021e-02 1.000000000000000021e-02 1.000000000000000021e-02 1.000000000000000021e-02 1.000000000000000021e-02 1.000000000000000021e-02 1.000000000000000021e-02 1.000000000000000021e-02 1.000000000000000021e-02 1.000000000000000021e-02 1.000000000000000021e-02 1.000000000000000021e-02 1.000000000000000021e-02 1.000000000000000021e-02 1.000000000000000021e-02 1.000000000000000021e-02 1.000000000000000021e-02 1.000000000000000021e-02 1.000000000000000021e-02 1.000000000000000021e-02 1.000000000000000021e-02 1.000000000000000021e-02 1.000000000000000021e-02 1.000000000000000021e-02 1.000000000000000021e-02 1.000000000000000021e-02 1.000000000000000021e-02 1.000000000000000021e-02 1.000000000000000021e-02 1.000000000000000021e-02 1.000000000000000021e-02 1.000000000000000021e-02 1.000000000000000021e-02 1.000000000000000021e-02 1.000000000000000021e-02 1.000000000000000021e-02 1.000000000000000021e-02 1.000000000000000021e-02 1.000000000000000021e-02 1.000000000000000021e-02 1.000000000000000021e-02 1.000000000000000021e-02 1.000000000000000021e-02 1.000000000000000021e-02 1.000000000000000021e-02 1.000000000000000021e-02 1.000000000000000021e-02 1.000000000000000021e-02 1.000000000000000021e-02 1.000000000000000021e-02 1.000000000000000021e-02 1.000000000000000021e-02 1.000000000000000021e-02 1.000000000000000021e-02 1.000000000000000021e-02 1.000000000000000021e-02 1.000000000000000021e-02 1.000000000000000021e-02 1.000000000000000021e-02 1.000000000000000021e-02 1.000000000000000021e-02 1.000000000000000021e-02 1.000000000000000021e-02 1.000000000000000021e-02 1.000000000000000021e-02 1.000000000000000021e-02 1.000000000000000021e-02 1.000000000000000021e-02 1.000000000000000021e-02 1.000000000000000021e-02 1.000000000000000021e-02 1.000000000000000021e-02 1.000000000000000021e-02 1.000000000000000021e-02 1.000000000000000021e-02 1.000000000000000021e-02 1.000000000000000021e-02 1.000000000000000021e-02 1.000000000000000021e-02 1.000000000000000021e-02 1.000000000000000021e-02 1.000000000000000021e-02 1.000000000000000021e-02 1.000000000000000021e-02 1.000000000000000021e-02 1.000000000000000021e-02 1.000000000000000021e-02 1.000000000000000021e-02 1.000000000000000021e-02 1.000000000000000021e-02 1.000000000000000021e-02 1.000000000000000021e-02 1.000000000000000021e-02 1.000000000000000021e-02 1.000000000000000021e-02 1.000000000000000021e-02 1.000000000000000021e-02 1.000000000000000021e-02 1.000000000000000021e-02 1.000000000000000021e-02 1.000000000000000021e-02 1.000000000000000021e-02 1.000000000000000021e-02 1.000000000000000021e-02 1.000000000000000021e-02 1.000000000000000021e-02 1.000000000000000021e-02 1.000000000000000021e-02 1.000000000000000021e-02 1.000000000000000021e-02 1.000000000000000021e-02 1.000000000000000021e-02 1.000000000000000021e-02 1.000000000000000021e-02 1.000000000000000021e-02 1.000000000000000021e-02 1.000000000000000021e-02 1.000000000000000021e-02 1.000000000000000021e-02 1.000000000000000021e-02 1.000000000000000021e-02 1.000000000000000021e-02 1.000000000000000021e-02 1.000000000000000021e-02 1.000000000000000021e-02 1.000000000000000021e-02 1.000000000000000021e-02 1.000000000000000021e-02 1.000000000000000021e-02 1.000000000000000021e-02 1.000000000000000021e-02 1.000000000000000021e-02 1.000000000000000021e-02 1.000000000000000021e-02 1.000000000000000021e-02 1.000000000000000021e-02 1.000000000000000021e-02 1.000000000000000021e-02 1.000000000000000021e-02 1.000000000000000021e-02 1.000000000000000021e-02 1.000000000000000021e-02 1.000000000000000021e-02 1.000000000000000021e-02 1.000000000000000021e-02 1.000000000000000021e-02 1.000000000000000021e-02 1.000000000000000021e-02 1.000000000000000021e-02 1.000000000000000021e-02 1.000000000000000021e-02 1.000000000000000021e-02 1.000000000000000021e-02 1.000000000000000021e-02 1.000000000000000021e-02 1.000000000000000021e-02 1.000000000000000021e-02 1.000000000000000021e-02 1.000000000000000021e-02 1.000000000000000021e-02 1.000000000000000021e-02 1.000000000000000021e-02 1.000000000000000021e-02 1.000000000000000021e-02 1.000000000000000021e-02 1.000000000000000021e-02 1.000000000000000021e-02 1.000000000000000021e-02 1.000000000000000021e-02 1.000000000000000021e-02 1.000000000000000021e-02 1.000000000000000021e-02 1.000000000000000021e-02 1.000000000000000021e-02 1.000000000000000021e-02 1.000000000000000021e-02 1.000000000000000021e-02 1.000000000000000021e-02 1.000000000000000021e-02 1.000000000000000021e-02 1.000000000000000021e-02 1.000000000000000021e-02 1.000000000000000021e-02 1.000000000000000021e-02 1.000000000000000021e-02 1.000000000000000021e-02 1.000000000000000021e-02 1.000000000000000021e-02 1.000000000000000021e-02 1.000000000000000021e-02 1.000000000000000021e-02 1.000000000000000021e-02 1.000000000000000021e-02 1.000000000000000021e-02 1.000000000000000021e-02 1.000000000000000021e-02 1.000000000000000021e-02 1.000000000000000021e-02 1.000000000000000021e-02 1.000000000000000021e-02 1.000000000000000021e-02 1.000000000000000021e-02 1.000000000000000021e-02 1.000000000000000021e-02 1.000000000000000021e-02 1.000000000000000021e-02 1.000000000000000021e-02 1.000000000000000021e-02 1.000000000000000021e-02 1.000000000000000021e-02 1.000000000000000021e-02 1.000000000000000021e-02 1.000000000000000021e-02 1.000000000000000021e-02 1.000000000000000021e-02 1.000000000000000021e-02 1.000000000000000021e-02 1.000000000000000021e-02 1.000000000000000021e-02 1.000000000000000021e-02 1.000000000000000021e-02 1.000000000000000021e-02 1.000000000000000021e-02 1.000000000000000021e-02 1.000000000000000021e-02 1.000000000000000021e-02 1.000000000000000021e-02 1.000000000000000021e-02 1.000000000000000021e-02 1.000000000000000021e-02 1.000000000000000021e-02 1.000000000000000021e-02 1.000000000000000021e-02 1.000000000000000021e-02 1.000000000000000021e-02 1.000000000000000021e-02 1.000000000000000021e-02 1.000000000000000021e-02 1.000000000000000021e-02 1.000000000000000021e-02 1.000000000000000021e-02 1.000000000000000021e-02 1.000000000000000021e-02 1.000000000000000021e-02 1.000000000000000021e-02 1.000000000000000021e-02 1.000000000000000021e-02 1.000000000000000021e-02 1.000000000000000021e-02 1.000000000000000021e-02 1.000000000000000021e-02 1.000000000000000021e-02 1.000000000000000021e-02 1.000000000000000021e-02 1.000000000000000021e-02 1.000000000000000021e-02 1.000000000000000021e-02 1.000000000000000021e-02 1.000000000000000021e-02 1.000000000000000021e-02 1.000000000000000021e-02 1.000000000000000021e-02 1.000000000000000021e-02 1.000000000000000021e-02 1.000000000000000021e-02 1.000000000000000021e-02 1.000000000000000021e-02 1.000000000000000021e-02 1.000000000000000021e-02 1.000000000000000021e-02 1.000000000000000021e-02 1.000000000000000021e-02 1.000000000000000021e-02 1.000000000000000021e-02 1.000000000000000021e-02 1.000000000000000021e-02 1.000000000000000021e-02 1.000000000000000021e-02 1.000000000000000021e-02 1.000000000000000021e-02 1.000000000000000021e-02 1.000000000000000021e-02 1.000000000000000021e-02 1.000000000000000021e-02 1.000000000000000021e-02 1.000000000000000021e-02 1.000000000000000021e-02 1.000000000000000021e-02 1.000000000000000021e-02 1.000000000000000021e-02 1.000000000000000021e-02 1.000000000000000021e-02 1.000000000000000021e-02 1.000000000000000021e-02 1.000000000000000021e-02 1.000000000000000021e-02 1.000000000000000021e-02 1.000000000000000021e-02 1.000000000000000021e-02 1.000000000000000021e-02 1.000000000000000021e-02 1.000000000000000021e-02 1.000000000000000021e-02 1.000000000000000021e-02 1.000000000000000021e-02 1.000000000000000021e-02 1.000000000000000021e-02 1.000000000000000021e-02 1.000000000000000021e-02 1.000000000000000021e-02 1.000000000000000021e-02 1.000000000000000021e-02 1.000000000000000021e-02 1.000000000000000021e-02 1.000000000000000021e-02 1.000000000000000021e-02 1.000000000000000021e-02 1.000000000000000021e-02 1.000000000000000021e-02 1.000000000000000021e-02 1.000000000000000021e-02 1.000000000000000021e-02 1.000000000000000021e-02 1.000000000000000021e-02 1.000000000000000021e-02 1.000000000000000021e-02 1.000000000000000021e-02 1.000000000000000021e-02 1.000000000000000021e-02 1.000000000000000021e-02 1.000000000000000021e-02 1.000000000000000021e-02 1.000000000000000021e-02 1.000000000000000021e-02 1.000000000000000021e-02 1.000000000000000021e-02 1.000000000000000021e-02 1.000000000000000021e-02 1.000000000000000021e-02 1.000000000000000021e-02 1.000000000000000021e-02 1.000000000000000021e-02 1.000000000000000021e-02 1.000000000000000021e-02 1.000000000000000021e-02 1.000000000000000021e-02 1.000000000000000021e-02 1.000000000000000021e-02 1.000000000000000021e-02 1.000000000000000021e-02 1.000000000000000021e-02 1.000000000000000021e-02 1.000000000000000021e-02 1.000000000000000021e-02 1.000000000000000021e-02 1.000000000000000021e-02 1.000000000000000021e-02 1.000000000000000021e-02 1.000000000000000021e-02 1.000000000000000021e-02 1.000000000000000021e-02 1.000000000000000021e-02 1.000000000000000021e-02 1.000000000000000021e-02 1.000000000000000021e-02 1.000000000000000021e-02 1.000000000000000021e-02 1.000000000000000021e-02 1.000000000000000021e-02 1.000000000000000021e-02 1.000000000000000021e-02 1.000000000000000021e-02 1.000000000000000021e-02 1.000000000000000021e-02 1.000000000000000021e-02 1.000000000000000021e-02 1.000000000000000021e-02 1.000000000000000021e-02 1.000000000000000021e-02 1.000000000000000021e-02 1.000000000000000021e-02 1.000000000000000021e-02 1.000000000000000021e-02 1.000000000000000021e-02 1.000000000000000021e-02 1.000000000000000021e-02 1.000000000000000021e-02 1.000000000000000021e-02 1.000000000000000021e-02 1.000000000000000021e-02 1.000000000000000021e-02 1.000000000000000021e-02 1.000000000000000021e-02 1.000000000000000021e-02 1.000000000000000021e-02 1.000000000000000021e-02 1.000000000000000021e-02 1.000000000000000021e-02 1.000000000000000021e-02 1.000000000000000021e-02 1.000000000000000021e-02 1.000000000000000021e-02 1.000000000000000021e-02 1.000000000000000021e-02 1.000000000000000021e-02 1.000000000000000021e-02 1.000000000000000021e-02 1.000000000000000021e-02 1.000000000000000021e-02 1.000000000000000021e-02 1.000000000000000021e-02 1.000000000000000021e-02 1.000000000000000021e-02 1.000000000000000021e-02 1.000000000000000021e-02 1.000000000000000021e-02 1.000000000000000021e-02 1.000000000000000021e-02 1.000000000000000021e-02 1.000000000000000021e-02 1.000000000000000021e-02 1.000000000000000021e-02 1.000000000000000021e-02 1.000000000000000021e-02 1.000000000000000021e-02 1.000000000000000021e-02 1.000000000000000021e-02 1.000000000000000021e-02 1.000000000000000021e-02 1.000000000000000021e-02 1.000000000000000021e-02 1.000000000000000021e-02 1.000000000000000021e-02 1.000000000000000021e-02 1.000000000000000021e-02 1.000000000000000021e-02 1.000000000000000021e-02 1.000000000000000021e-02 1.000000000000000021e-02 1.000000000000000021e-02 1.000000000000000021e-02 1.000000000000000021e-02 1.000000000000000021e-02 1.000000000000000021e-02 1.000000000000000021e-02 1.000000000000000021e-02 1.000000000000000021e-02 1.000000000000000021e-02 1.000000000000000021e-02 1.000000000000000021e-02 1.000000000000000021e-02 1.000000000000000021e-02 1.000000000000000021e-02 1.000000000000000021e-02 1.000000000000000021e-02 1.000000000000000021e-02 1.000000000000000021e-02 1.000000000000000021e-02 1.000000000000000021e-02 1.000000000000000021e-02 1.000000000000000021e-02 1.000000000000000021e-02 1.000000000000000021e-02 1.000000000000000021e-02 1.000000000000000021e-02 1.000000000000000021e-02 1.000000000000000021e-02 1.000000000000000021e-02 1.000000000000000021e-02 1.000000000000000021e-02 1.000000000000000021e-02 1.000000000000000021e-02 1.000000000000000021e-02 1.000000000000000021e-02 1.000000000000000021e-02 1.000000000000000021e-02 1.000000000000000021e-02 1.000000000000000021e-02 1.000000000000000021e-02 1.000000000000000021e-02 1.000000000000000021e-02 1.000000000000000021e-02 1.000000000000000021e-02 1.000000000000000021e-02 1.000000000000000021e-02 1.000000000000000021e-02 1.000000000000000021e-02 1.000000000000000021e-02 1.000000000000000021e-02 1.000000000000000021e-02 1.000000000000000021e-02 1.000000000000000021e-02 1.000000000000000021e-02 1.000000000000000021e-02 1.000000000000000021e-02 1.000000000000000021e-02 1.000000000000000021e-02 1.000000000000000021e-02 1.000000000000000021e-02 1.000000000000000021e-02 1.000000000000000021e-02 1.000000000000000021e-02 1.000000000000000021e-02 1.000000000000000021e-02 1.000000000000000021e-02 1.000000000000000021e-02 1.000000000000000021e-02 1.000000000000000021e-02 1.000000000000000021e-02 1.000000000000000021e-02 1.000000000000000021e-02 1.000000000000000021e-02 1.000000000000000021e-02 1.000000000000000021e-02 1.000000000000000021e-02 1.000000000000000021e-02 1.000000000000000021e-02 1.000000000000000021e-02 1.000000000000000021e-02 1.000000000000000021e-02 1.000000000000000021e-02 1.000000000000000021e-02 1.000000000000000021e-02 1.000000000000000021e-02 1.000000000000000021e-02 1.000000000000000021e-02 1.000000000000000021e-02 1.000000000000000021e-02 1.000000000000000021e-02 1.000000000000000021e-02 1.000000000000000021e-02 1.000000000000000021e-02 1.000000000000000021e-02 1.000000000000000021e-02 1.000000000000000021e-02 1.000000000000000021e-02 1.000000000000000021e-02 1.000000000000000021e-02 1.000000000000000021e-02 1.000000000000000021e-02 1.000000000000000021e-02 1.000000000000000021e-02 1.000000000000000021e-02 1.000000000000000021e-02 1.000000000000000021e-02 1.000000000000000021e-02 1.000000000000000021e-02 1.000000000000000021e-02 1.000000000000000021e-02 1.000000000000000021e-02 1.000000000000000021e-02 1.000000000000000021e-02 1.000000000000000021e-02 1.000000000000000021e-02 1.000000000000000021e-02 1.000000000000000021e-02 1.000000000000000021e-02 1.000000000000000021e-02 1.000000000000000021e-02 1.000000000000000021e-02 1.000000000000000021e-02 1.000000000000000021e-02 1.000000000000000021e-02 1.000000000000000021e-02 1.000000000000000021e-02 1.000000000000000021e-02 1.000000000000000021e-02 1.000000000000000021e-02 1.000000000000000021e-02 1.000000000000000021e-02 1.000000000000000021e-02 1.000000000000000021e-02 1.000000000000000021e-02 1.000000000000000021e-02 1.000000000000000021e-02 1.000000000000000021e-02 1.000000000000000021e-02 1.000000000000000021e-02 1.000000000000000021e-02 1.000000000000000021e-02 1.000000000000000021e-02 1.000000000000000021e-02 1.000000000000000021e-02 1.000000000000000021e-02 1.000000000000000021e-02 1.000000000000000021e-02 1.000000000000000021e-02 1.000000000000000021e-02 1.000000000000000021e-02 1.000000000000000021e-02 1.000000000000000021e-02 1.000000000000000021e-02 1.000000000000000021e-02 1.000000000000000021e-02 1.000000000000000021e-02 1.000000000000000021e-02 1.000000000000000021e-02 1.000000000000000021e-02 1.000000000000000021e-02 1.000000000000000021e-02 1.000000000000000021e-02 1.000000000000000021e-02 1.000000000000000021e-02 1.000000000000000021e-02 1.000000000000000021e-02 1.000000000000000021e-02 1.000000000000000021e-02 1.000000000000000021e-02 1.000000000000000021e-02 1.000000000000000021e-02 1.000000000000000021e-02 1.000000000000000021e-02 1.000000000000000021e-02 1.000000000000000021e-02 1.000000000000000021e-02 1.000000000000000021e-02 1.000000000000000021e-02 1.000000000000000021e-02 1.000000000000000021e-02 1.000000000000000021e-02 1.000000000000000021e-02 1.000000000000000021e-02 1.000000000000000021e-02 1.000000000000000021e-02 1.000000000000000021e-02 1.000000000000000021e-02 1.000000000000000021e-02 1.000000000000000021e-02 1.000000000000000021e-02 1.000000000000000021e-02 1.000000000000000021e-02 1.000000000000000021e-02 1.000000000000000021e-02 1.000000000000000021e-02 1.000000000000000021e-02 1.000000000000000021e-02 1.000000000000000021e-02 1.000000000000000021e-02 1.000000000000000021e-02 1.000000000000000021e-02 1.000000000000000021e-02 1.000000000000000021e-02 1.000000000000000021e-02 1.000000000000000021e-02 1.000000000000000021e-02 1.000000000000000021e-02 1.000000000000000021e-02 1.000000000000000021e-02 1.000000000000000021e-02 1.000000000000000021e-02 1.000000000000000021e-02 1.000000000000000021e-02 1.000000000000000021e-02 1.000000000000000021e-02 1.000000000000000021e-02 1.000000000000000021e-02 1.000000000000000021e-02 1.000000000000000021e-02 1.000000000000000021e-02 1.000000000000000021e-02 1.000000000000000021e-02 1.000000000000000021e-02 1.000000000000000021e-02 1.000000000000000021e-02 1.000000000000000021e-02 1.000000000000000021e-02 1.000000000000000021e-02 1.000000000000000021e-02 1.000000000000000021e-02 1.000000000000000021e-02 1.000000000000000021e-02 1.000000000000000021e-02 1.000000000000000021e-02 1.000000000000000021e-02 1.000000000000000021e-02 1.000000000000000021e-02 1.000000000000000021e-02 1.000000000000000021e-02 1.000000000000000021e-02 1.000000000000000021e-02 1.000000000000000021e-02 1.000000000000000021e-02 1.000000000000000021e-02 1.000000000000000021e-02 1.000000000000000021e-02 1.000000000000000021e-02 1.000000000000000021e-02 1.000000000000000021e-02 1.000000000000000021e-02 1.000000000000000021e-02 1.000000000000000021e-02 1.000000000000000021e-02 1.000000000000000021e-02 1.000000000000000021e-02 1.000000000000000021e-02 1.000000000000000021e-02 1.000000000000000021e-02 1.000000000000000021e-02 1.000000000000000021e-02 1.000000000000000021e-02 1.000000000000000021e-02 1.000000000000000021e-02 1.000000000000000021e-02 1.000000000000000021e-02 1.000000000000000021e-02 1.000000000000000021e-02 1.000000000000000021e-02 1.000000000000000021e-02 1.000000000000000021e-02 1.000000000000000021e-02 1.000000000000000021e-02 1.000000000000000021e-02 1.000000000000000021e-02 1.000000000000000021e-02 1.000000000000000021e-02 1.000000000000000021e-02 1.000000000000000021e-02 1.000000000000000021e-02 1.000000000000000021e-02 1.000000000000000021e-02 1.000000000000000021e-02 1.000000000000000021e-02 1.000000000000000021e-02 1.000000000000000021e-02 1.000000000000000021e-02 1.000000000000000021e-02 1.000000000000000021e-02 1.000000000000000021e-02 1.000000000000000021e-02 1.000000000000000021e-02 1.000000000000000021e-02 1.000000000000000021e-02 1.000000000000000021e-02 1.000000000000000021e-02 1.000000000000000021e-02 1.000000000000000021e-02 1.000000000000000021e-02 1.000000000000000021e-02 1.000000000000000021e-02 1.000000000000000021e-02 1.000000000000000021e-02 1.000000000000000021e-02 1.000000000000000021e-02 1.000000000000000021e-02 1.000000000000000021e-02 1.000000000000000021e-02 1.000000000000000021e-02 1.000000000000000021e-02 1.000000000000000021e-02 1.000000000000000021e-02 1.000000000000000021e-02 1.000000000000000021e-02 1.000000000000000021e-02 1.000000000000000021e-02 1.000000000000000021e-02 1.000000000000000021e-02 1.000000000000000021e-02 1.000000000000000021e-02 1.000000000000000021e-02 1.000000000000000021e-02 1.000000000000000021e-02 1.000000000000000021e-02 1.000000000000000021e-02 1.000000000000000021e-02 1.000000000000000021e-02 1.000000000000000021e-02 1.000000000000000021e-02 1.000000000000000021e-02 1.000000000000000021e-02 1.000000000000000021e-02 1.000000000000000021e-02 1.000000000000000021e-02 1.000000000000000021e-02 1.000000000000000021e-02 1.000000000000000021e-02 1.000000000000000021e-02 1.000000000000000021e-02 1.000000000000000021e-02 1.000000000000000021e-02 1.000000000000000021e-02 1.000000000000000021e-02 1.000000000000000021e-02 1.000000000000000021e-02 1.000000000000000021e-02 1.000000000000000021e-02 1.000000000000000021e-02 1.000000000000000021e-02 1.000000000000000021e-02 1.000000000000000021e-02 1.000000000000000021e-02 1.000000000000000021e-02 1.000000000000000021e-02 1.000000000000000021e-02 1.000000000000000021e-02 1.000000000000000021e-02 1.000000000000000021e-02 1.000000000000000021e-02 1.000000000000000021e-02 1.000000000000000021e-02 1.000000000000000021e-02 1.000000000000000021e-02 1.000000000000000021e-02 1.000000000000000021e-02 1.000000000000000021e-02 1.000000000000000021e-02 1.000000000000000021e-02 1.000000000000000021e-02 1.000000000000000021e-02 1.000000000000000021e-02 1.000000000000000021e-02 1.000000000000000021e-02 1.000000000000000021e-02 1.000000000000000021e-02 1.000000000000000021e-02 1.000000000000000021e-02 1.000000000000000021e-02 1.000000000000000021e-02 1.000000000000000021e-02 1.000000000000000021e-02 1.000000000000000021e-02 1.000000000000000021e-02 1.000000000000000021e-02 1.000000000000000021e-02 1.000000000000000021e-02 1.000000000000000021e-02 1.000000000000000021e-02 1.000000000000000021e-02 1.000000000000000021e-02 1.000000000000000021e-02 1.000000000000000021e-02 1.000000000000000021e-02 1.000000000000000021e-02 1.000000000000000021e-02 1.000000000000000021e-02 1.000000000000000021e-02 1.000000000000000021e-02 1.000000000000000021e-02 1.000000000000000021e-02 1.000000000000000021e-02 1.000000000000000021e-02 1.000000000000000021e-02 1.000000000000000021e-02 1.000000000000000021e-02 1.000000000000000021e-02 1.000000000000000021e-02 1.000000000000000021e-02 1.000000000000000021e-02 1.000000000000000021e-02 1.000000000000000021e-02 1.000000000000000021e-02 1.000000000000000021e-02 1.000000000000000021e-02 1.000000000000000021e-02 1.000000000000000021e-02 1.000000000000000021e-02 1.000000000000000021e-02 1.000000000000000021e-02 1.000000000000000021e-02 1.000000000000000021e-02 1.000000000000000021e-02 1.000000000000000021e-02 1.000000000000000021e-02 1.000000000000000021e-02 1.000000000000000021e-02 1.000000000000000021e-02
-1.149963835665507332e+02 1.746893899554301299e+02 4.056798551964287469e+01 -9.123988505413707983e+00 -9.055721119373325223e+01 -1.380102915060586710e+01 -2.141854677837748682e+02 6.910130441695921943e-01 -8.732627955160025124e+01 -1.437493397014082319e+01 -2.042016038193870031e+01 6.689743479136499360e+00 -1.834261064347884718e+00 1.728957476570434437e+02 8.718598732391276940e+01 -3.992597711092749080e+01 -5.435526580213517178e+01 8.162818142339118310e+01 3.381247815700691461e+01 -2.612940835672783990e+01 -8.126472538513566235e+01 -7.607653345332980166e+01 -1.423897808506958640e+01 2.981394298713190949e+01 -2.008647243471164074e+02 -1.017598932867408479e+02 -2.687704270186067745e+01 2.077928954287775980e+02 7.291885315217180619e+01 7.902431481167894844e+01 8.273018608564751730e+01 1.225089050334269070e+00 -8.156753054915320433e+01 2.136916275967944614e+02 -2.522428745541870398e+02 6.056992139079609672e+01 -1.238557861330316001e+02 -3.572755565097222075e+01 4.152155269234809154e+00 1.305680406116189545e+02 -1.266628241500801408e+02 -1.409014202356417123e+01 7.974208897395986639e+01 1.788717407897534883e+02 7.355658738728693891e+01 -7.054456044585248264e+01 4.252809545929893886e+01 -2.923124988346166120e+01 -6.807953766476870783e+01 1.613746315328895946e+02 -7.278683442186635943e+01 -5.372536707868037098e+01 -1.435180260828201995e+02 5.867775945440852681e+00 -5.209923729815568549e+01 3.983410981753527125e+01 -9.143203851797444770e+01 -5.160166965465975863e+01 -1.045051156905054910e+02 -1.601824785062914884e+02 2.008563734766296704e+01 4.670068373022885311e+01 -1.268795871617026307e+02 1.325867642962629489e+01 -8.175191084958125032e+01 5.061707084926968747e+01 1.716742050023789830e+02 -1.486614868643848126e+02 -4.465395681130100769e+01 7.392095953958505383e+00 3.009295820490018425e+00 4.366928666600524167e+01 8.655633573485509658e+01 9.752496220508996005e-01 -9.038612644392813422e+00 -7.219241134391647563e+01 8.067619271126704916e+01 -3.381627962835625567e+01 2.708693037037600604e+01 1.071926940125143801e+02 9.095888511763999418e+01 -4.405116007753183993e+01 5.961961410905972514e+01 1.519683103982077341e+02 1.197652658679041195e+02 -4.172337928510742699e+00 1.795800422102923619e+02 -1.149285048540961043e+02 4.357925139638950895e+00 -4.322543350785434058e+01 2.132087447784379322e+02 -2.187481941881944181e+01 2.953215524420862437e+00 -7.914121579843855159e+01 -7.342682979962376066e+00 -6.583421834759404589e+01 6.983859855229876246e+01 -9.744587825838800654e+01 7.062517778796407697e+01 -4.919482198072420687e+01 -5.130701277456364551e+01 -9.446957443763048445e+01 5.475190952858368121e+01 -5.643098414769057314e+01 -1.539306829409406703e+02 -8.193159308029456156e+01 -1.078429444897895877e+02 -1.620704208690549422e+02 1.401403299301179572e+02 -2.838567003985894033e+01 3.300384899704317121e+01 9.242887934501391101e+01 -1.073059524837869105e+02 5.874299034101726136e+01 -4.465993465387812478e+01 -7.140469073163096425e+01 -9.281705128025447493e+01 2.095888942290936825e+02 -5.849531471513201097e+01 -5.099175332128322680e+01 -4.870565847575024065e+01 8.288550851509248218e+01 -4.267135409118109379e+01 1.422638109790579506e+02 -5.136510593017300863e+01 5.675591512714228060e+01 4.681420640236138908e+00 -8.368554874858416781e+01 7.096864293271764268e+01 2.859214841248573862e+02 -9.482546433730918523e+01 4.897691400678279905e+01 -7.855647311848655079e+01 4.662742334255174370e+01 1.352336656392867269e+02 -5.293124120347955852e+01 1.501988678758728391e+01 -2.774041756085827259e+01 -1.050778857033174774e+02 -1.778781541810062805e+01 4.384281321575737245e+00 -8.071860976007235067e+00 -1.542882451449145975e+01 1.219413251324931622e+02 1.343705489147648962e+02 1.922369849655999587e+02 -3.137587613655300629e+02 3.941180150921649528e+01 -1.622684346560733459e+01 -6.431117407719727908e+01 1.859803796239236533e+02 7.864590712527997596e+01 -2.634855986060718358e+00 -1.196337982637145956e+02 -1.126589043989195815e+01 1.032484390053859755e+02 -1.386798238257168805e+02 -1.739974560841268385e+02 1.107583153770654860e+01 4.379838263204858606e+01 -6.295164627419857339e+01 4.337634456888611112e+01 -1.105199146389384879e+02 -1.562009460392876576e+02 2.181117378865989664e+01 5.015098269573919509e+01 4.944998702852341665e+00 -8.623208390324420236e+01 -9.664597283992669929e+01 -8.711059240463330866e+01 -9.041295953232358329e+01 1.302244864656053203e+01 5.872690312085263997e+01 1.203550068791162602e+02 8.208994343488903667e+01 9.248689843046516046e+01 1.110264978616259697e+02 -7.732223814539989348e+01 -8.531583132341825149e+01 7.291614064831085784e+01 7.074613183773712421e+01 6.126312812888333781e+01 -9.722575167825315390e+00 -9.423293484133625952e+01 5.585486018695847577e+01 -1.851731390201857437e+02 6.950320220190482701e+01 -4.613983704192504121e+01 -9.988171905919655558e+01 7.685260205875680128e+01 -1.772864027441802293e+01 -7.994052753287469670e+01 -5.957604290784682632e+01 -9.466095790573314517e+00 2.515556437086716244e+02 7.961103020492264193e+01 5.686272829912127236e+01 -1.077997482869771630e+02 1.538141638649177878e+02 1.066886070161681355e+00 -9.383181854170105396e+01 1.617195819375912151e+02 -1.600596542471568000e+02 1.637980103631934270e+01 -3.382791733936531386e+01 -2.307726989884326372e+02 -1.401488779199514170e+02 -9.163647121627874981e+01 -3.070759439136520896e+01 -1.252641416217313690e+02 6.057680119081131664e+01 6.824516168785444847e+01 -2.893749199674968153e+01 -1.047066773492441598e+02 1.187903140965304942e+02 1.241984474327718004e+02 4.854935574684235178e+01 1.832101603293836334e+01 2.745584416886088661e+02 4.589866428945843069e+01 -1.254406446155115589e+02 -4.732304168226091434e+01 -1.774917571718418401e+02 3.349670253555632371e+01 1.611909817127696556e+02 -1.560435142727860978e+02 1.384993385511252200e+02 -9.564299864726133649e+01 -1.985584075906389856e+01 -7.594277125999855382e-01 5.557562194340007267e+01 -1.221910623624060221e+01 -2.395050762746796025e+01 -1.993774947056308733e+01 -1.332130956652050031e+02 4.884898374486571981e+01 -3.195272918902459125e+01 -1.368809842374585628e+01 -1.126615273896908853e+01 2.377282622954264184e+02 1.832509810604862537e+02 2.447611417661027815e+02 1.386797158166773727e+02 -9.109383114308073459e+01 7.914667474207197984e+01 2.220145420970854744e+01 5.012194037328224994e+01 -4.184411485048540413e+01 2.688218958883626897e+02 -2.450788312437731875e+01 -1.439046631789773016e+02 -1.575144580455443055e+01 -4.822508648618413929e+01 -8.149262749237168180e+01 4.543675275901143351e+01 -1.233120693331513706e+01 1.915096901217315519e+02 9.732803547879765915e+01 4.305281477900005171e+01 1.032433645458737033e+02 9.943116931463895014e+01 -2.420729520926033373e+01 1.470367615492870357e+02 2.786878454764686808e+01 9.430417977205617319e+01 5.016058761445252401e+01 7.309690793343748716e+00 -1.219267694402281847e+02 -1.219638444139172293e+02 -9.478533586602218008e+01 -1.640741737635241293e+01 9.128375513242235684e+01 -3.230981792540551112e+01 1.041528357650546042e+02 4.612735266525402267e+01 -7.659352717008627565e+01 -3.157477261681448155e+01 -6.172094883502965246e+01 1.849400544659927803e+01 -4.881955211022278718e+01 -1.180077007810369594e+02 1.280185621256361230e+02 1.277850892039953408e+02 -8.313134900019592521e+01 5.770588823073421025e+00 -4.771126763772022628e+01 -3.437564267301632270e+01 -1.194637877436623796e+01 -3.286813764497257750e+01 4.678802297923432008e+01 -1.479657069224732027e+02 -5.562509800005732785e+01 -1.599525522853494124e+02 1.833365567432952048e+02 -2.133169456584030854e+01 6.207731314358771613e+01 1.257115879549412618e+01 1.519985259021317461e+02 4.701437404239087670e+01 3.762984825302211078e+01 1.624016000769176173e+02 -5.183714376066188834e+01 -1.026539350007378602e+02 2.854915322255111931e+01 -1.662100574888781068e+02 -5.615834078597868739e+01 1.075669643603854553e+02 -1.343799141256847918e+02 -3.824538634793805869e+01 9.600536523368016617e+01 -9.938243068571949834e+01 -9.413226808614059848e+01 -8.690972739363670030e+01 -6.713665564084625714e+01 2.617778047611638499e+02 2.083279786417633090e+02 1.082896500518121172e+02 -1.074195301966530280e+02 7.868964655564576560e+01 -6.946017153899734353e+01 -3.274248191372746675e+01 1.743519131678290890e+01 -3.377855074850793926e+01 -9.848375914630129557e+01 -2.820736972518067986e+00 1.555947924367215940e+01 1.141771561549270189e+02 -1.348579227349397343e+02 4.391809877411437668e+01 6.689121742830889161e+01 3.626901080402868871e+01 -9.504307973343718174e+01 -1.557274598109542865e+02 2.026407133011247197e+02 -1.868706328538486261e+01 2.641162726699965191e+01 1.640441814384622035e+02 2.795596058728898470e+01 2.908368514213053757e+01 -4.665345640406575001e+01 9.280961320646655111e+01 -1.428450759190530448e+02 -3.227869729055569081e+01 -6.423958457083087659e+00 -5.595716820094123989e+01 6.431373545021684457e+00 2.233443861832314781e+01 -3.747382576512539742e+01 1.430923180488003688e+01 2.237379730589599944e+02 -2.866421031075459780e+01 -2.925746691630870799e+01 -1.064074483714057351e+02 -1.739388660011962795e+00 -8.452934199511047098e+01 6.718368909038909820e+00 1.172710199894311103e+02 -5.445339437321970166e+01 6.335056011540139309e+00 -5.685380898245627890e+01 3.496847715802171574e+00 9.126065686481103967e+01 -1.212241050826705049e+02 -1.012715880910981667e+02 -1.072824517195442837e+02 7.471317636470645596e+01 9.056082051104873187e+01 -9.659477209755969795e+01 6.547204093894465871e+01 2.699217882733279694e+01 4.047044437193023469e+01 -1.858186183017585691e+01 9.553262789896238871e+01 8.342068588136432084e+01 -8.085007758703000036e+01 1.242812539440356723e+01 8.463331289877729091e+01 7.622451812677125815e+01 -2.078032988818837268e+01 2.614426946291250786e+01 -1.386735379584750092e+02 5.072775006406937592e+01 -3.426473718160013249e+01 -3.412713722124514248e+01 1.811310797665890391e+02 4.962818455249882987e+01 1.257411407861045518e+02 1.996858816818589730e+02 -1.440177902348451937e+02 1.558795590447520851e+02 -6.625937676276214461e+01 -1.413129177479238763e+02 8.609668383747205667e+01 -1.402394058276780413e+02 -3.001250682164217309e+01 5.901661758005019465e+01 8.477195641910475032e+00 -1.757677985210445115e+02 8.805672691452120660e+01 2.635682260060208648e+01 7.226733564945517685e+01 3.791741597502195305e+01 9.914673096383948447e+00 -7.019237836102931283e+01 1.210548809199807749e+02 5.697505427763540808e+01 -6.497404477807808121e+01 -1.058693226554759406e+02 4.075474234103950977e+01 2.680948159652767515e+01 8.614023185257815385e+01 1.920984313437784294e+02 -2.577693017058775027e+01 -1.151702844073148952e+02 -8.864678051184544927e+01 -5.366959432412793518e+01 -4.644201870627744455e+01 -1.534489184741710233e+02 -2.351211279883843375e+01 1.353794052853852179e+02 7.795950795577027748e+01 -1.279604150192493250e+02 -1.566220542712046040e+02 -7.123236134548321274e+01 -7.988817248632402368e+01 1.533972287467565252e+02 -1.782180600640450621e+02 9.045194987950132770e+01 -4.818826601398001230e+00 -4.497062233604283676e+01 1.392418445247638381e+01 9.535189729069473685e+01 5.188476225658109087e+01 1.444980299639508416e+02 -1.663643293267371632e+02 -8.465609572011530304e+01 2.646494649408513311e+01 4.384894385800077288e+01 2.155452758576242900e+02 1.520488451726644996e+02 6.848198522600284832e+01 7.538248763767131777e+01 -3.585276183766218594e+01 1.587512028500201779e+02 -1.874348323901703566e+02 -6.625449398395424794e+01 -5.612837959168374624e+01 -5.414628314282225574e+01 -1.079981858497601763e+02 -1.565401625542236985e+01 -7.176667997366386942e+01 7.442809685602134095e+01 -9.591361830226334817e+00 -6.077042203933871889e+01 -6.518095432106561304e+01 1.883647860374177583e+02 6.163215479433120692e+01 -1.430009709727592515e+01 2.183279175719572720e+02 -1.132090046596742781e+02 -3.694457255608455171e+01 6.998055437501588472e+01 -1.303682350192186812e-01 1.558896332405212348e+01 -1.306668817547351011e+02 1.841315699029072164e+02 -5.123483519114905960e+01 -2.819208008260523357e+01 -1.146466920405656538e+02 1.314972753496707014e+02 1.002193026503536259e+02 -8.100501208279847276e+01 -3.920252955615573143e+01 4.065833436001969403e+01 -1.581559250113716075e+02 -1.210544105251158131e-01 -7.801820787845622363e+01 8.061325984668817668e+00 -1.129282316120622056e+02 -1.655426301707938990e+02 -7.378757219803941325e+01 1.546766385367594978e+02 5.910112875498543161e+01 -9.352683123233209983e+01 9.310660561948336067e+01 3.576037972089550010e+01 9.211692852769928663e+01 -4.394390833361931925e+01 -8.776479518651960632e+01 1.784134058600907053e+02 4.348306994368780209e+01 3.021122316224096949e+01 -7.616920222626441728e+01 -4.412459963013299102e+01 9.995095048561005058e+00 -7.455579179245956034e+00 -1.801949199854450399e+02 -3.606575434871030694e+01 6.716777672680370870e+01 1.163763238446173460e+02 1.622735472787201161e+02 -1.381581795370568067e+01 9.338709658009115344e+01 1.643085214354263996e+02 6.608787169299449715e+01 1.540072817141485757e+02 1.672825816249391906e+01 1.367288880149040722e+02 -8.740081799636669757e+01 5.557895259060889970e+01 3.056651434417221225e+01 7.896736731457171743e+01 -1.105038259129906066e+02 2.059709765608363625e+02 -1.340136922307634109e+02 9.180275355393655445e+01 -1.117519494169284116e+02 4.794852699626130033e+01 1.433617643919595430e+01 9.429038278129908690e+01 -7.657975201217458050e+01 -7.845864443700084223e+01 -1.161997368891914206e+01 9.254063330510408036e+01 -3.072170427672809367e+01 -1.694648190213483829e+01 -2.038493622918153747e+01 4.919102305286018328e+00 1.018620556203806160e+02 -6.494031185547163432e+01 -2.823687696268017522e+00 -2.008465615328724709e+02 1.262011933103152757e+02 -1.292075507581820943e+02 -7.646069394536301900e+01 -2.437562902205635851e+01 -1.116588958608654565e+02 -5.501496634556401233e+01 -6.058456945062476962e+01 -2.033437994958052997e+01 1.410077131332418503e+02 5.593024575591556413e+01 1.039216610387608455e+02 -1.408016041129928340e+02 -1.433827217519410056e+02 -2.963680387982533944e+02 1.056533271093120447e+02 1.079100233339910631e+02 4.371287575917697410e+01 -4.385624685513570853e+01 -3.853585873273284790e+01 -1.899733149972490764e+02 1.512306340388620356e+02 -1.111544586933029564e+02 1.106703313581982968e+02 -1.647755693594237130e+02 -1.479794705784913056e+01 -5.729963889426274193e+01 -1.233882435095010237e+02 -4.769456947552767190e+01 -1.289344210757517395e+01 -9.587027838792997159e+01 -1.071299169493772041e+02 -1.278072077582371691e+01 7.369887429913754318e+01 -1.290013378309042480e+02 -1.622921968546073401e+01 -7.634354585727706421e+01 -1.360234202384388311e+02 6.949835287999076350e+00 9.856803043722914026e+01 1.713096234872970456e+02 -1.975435964725372173e+01 -4.768709639625924268e+01 -1.285036567481100178e+02 -1.693222394571846792e+02 1.074180617049430282e+02 -7.532988378583368672e+01 8.184268270943134382e+01 9.742340638917111661e+00 3.031490131949604816e+01 7.648978485156993656e+01 -8.773033571041780476e+01 8.560618579090457558e+01 1.193881340301918073e+02 1.630126330074243697e+02 -1.208013520265662351e+02 1.076569006925200966e+02 -4.946114963900214434e+01 -9.404795547755205121e+01 2.222348952584549409e+02 5.105002371910598669e+01 8.646179141170668458e+01 2.209488545159515027e+01 -6.540000203846329896e+01 -3.619386214874334229e+01 -2.179183764228328926e+02 1.094166206270416097e+02 8.445044241123731865e+01 -7.842321750386463464e+01 -7.580912638535319559e+01 1.504210885517369434e+02 1.046997536567806861e+02 5.294685305863858105e+01 7.883339095645607131e+01 -8.211471749751463989e+00 1.069150592019773285e+02 -1.072314186575477493e+02 1.931500113632127693e+02 -4.090361449447976128e+01 -1.263686339779812045e+02 -3.899495984041220709e+01 7.433269577756951207e+01 1.526595710117494775e+02 1.343117160889534034e+01 1.800867426027564306e+02 5.410182066300561843e+01 3.481390682075736009e+01 -1.153441642426923721e+02 4.645034881107023494e+01 -1.295803288624223626e+02 4.939737765514635015e+01 4.007415498635671725e+01 -1.277683610413869530e+02 -8.810146322143692998e+01 4.125731133266439343e+01 9.041729787885502745e+00 -2.409230683884118562e+01 4.334555095462532393e+01 -2.216881161277080992e+01 -6.537281216159013297e+01 -2.703721307825878029e+01 -2.329117670616719948e+01 -4.127463742659017498e+01 1.946755464263443258e+01 -8.337600405240340251e+01 1.232556282832546088e+02 -7.704626108162015896e+01 -4.488936932323666085e+00 6.782807633254240898e+01 4.054759108624372388e+00 1.650681040436601776e+01 1.652483101333063686e+01 -1.213833016414785817e+02 -4.585887434214069636e+00 6.740764671616744863e+01 -2.398037374540676012e+02 -8.789190958096341433e+01 -1.168161222733636464e+02 4.536368350564405461e+01 9.970339319350568985e+01 -9.504681514719555935e+01 -1.739489976936010578e+02 -1.917886154253794757e+02 2.070454580875093242e+01 -1.501667175125190852e+02 -6.539408994990857593e+00 1.528446558466722536e+02 -7.384376018923306084e+00 3.846377035399090261e+01 -1.023797866741845439e+02 8.255791218244500840e+01 -1.225406701313668378e+02 -1.590315327768734655e+01 -3.133170178870002687e+01 5.943383194592346541e+01 -9.194588264325254556e+00 1.090719471697210992e+02 -1.259007083064882977e+02 -5.165066057881173123e+01 8.917116180039933226e+01 6.818452050172709278e+01 -8.489521150763444268e+01 -5.603175150306352492e+01 -5.081959731886291820e+01 -2.979461146890166106e+02 1.992271252520556288e+02 7.836730478554861179e+01 -2.430804985674445007e+01 -3.051443398021012854e+01 4.272006758995191689e+01 -8.659328409215275713e+01 1.023779842809505283e+02 6.212493516498601309e+01 8.435985406036286349e+01 -8.642694810781122783e+01 -2.734438010170293154e+01 3.428691371681274092e+01 1.785695696368319219e+01 -4.395549793214990331e+01 1.621270644786987702e+02 -1.776738002751412893e+01 3.631394184151900362e+01 -2.358938974054664470e+02 -8.695341493236433905e+01 -7.511282749669261705e+01 2.361692501986082959e+01 1.120584822269459693e+02 -2.376820118312571140e+02 -1.919114852735253862e+02 2.274788160564300199e+02 -1.084843099438448810e+01 9.859592021298377063e+01 6.439960127890655883e+01 -5.683067239723930442e+01 -1.344163747366144150e+02 -9.764061556231239081e+01 -5.158076491690346899e+01 -3.842998800946890015e+01 -4.017076112895033191e+01 1.661726401916131124e+01 3.807120313971949344e+01 1.711205861348753956e+02 1.263674729734885460e+02 7.074536238371158525e+00 -4.485338722116206434e+00 -1.629543239190449526e+02 1.227564697664963660e+02 1.634787013914643126e+02 -1.060731109382820989e+02 7.565363681348874536e+01 1.859385222671701143e+00 5.629028701597875539e+01 1.287329481919102818e+02 7.278531246755859740e+01 -1.374925449104067070e+02 1.658616002867207939e+01 -3.014948075486064027e+01 1.142628363865749996e+01 -2.381330679097746028e+01 4.655734798675357666e+01 -2.673326461259496227e+02 1.860275271288725207e+02 7.537400461615646918e+00 1.637068362771978229e+02 -1.086955839254655132e+01 1.090854760051472709e+02 7.358826923561414901e+01 -4.318249483870478400e+01 3.069154756422040009e+01 -7.478292012837310665e+01 -9.142485945613503873e+01 -7.411541993441952059e+01 -3.294395782108646387e+01 4.647019936391457406e+01 1.133169495120154977e+02 2.933037114338657148e+01 6.383527892155613159e+01 -1.078237808790175620e+02 -1.410982952679962352e+02 -1.387548811631676493e+01 4.776839534286365563e+01 -4.688652884517026820e+01 9.726930997117553090e+01 5.712673220421257270e+01 -2.847265256709622250e+01 3.083989481789963349e+01 6.316537356635434719e+01 -7.426579113118246767e+01 -1.376951210508901511e+02 1.463376450155404314e+02 8.051501990364764438e+00 5.165667675155903282e+01 -1.537894465017774053e+02 -5.502547230554521462e+01 -4.945511365274081195e-01 -6.768737654165802553e+01 4.411280738894447495e+00 5.801131482079935608e+01 1.922170505448733024e+02 4.034116169097105598e+01 -1.131111617911547818e+01 7.443796225265737121e+01 -4.693288545564600867e+01 -1.124389752688864377e+02 -1.426184041466671317e+02 9.681729167701865535e+00 2.592224587309900485e+01 2.454033299819994696e+01 -5.872324140054479358e+01 1.247846390242488610e+02 -8.350003751726518431e+01 1.325600956056500195e+02 9.019469792813465858e+01 -6.720817846606961155e+01 -8.747288353998176547e+01 8.700138457410965032e+01 2.120331279518327960e+01 -5.423758756951070126e+01 -5.567874880102352364e+01 1.412750733482048986e+02 5.923575729375884436e+01 8.258889600798899266e+01 2.704283868185628137e+01 -4.355382486459703983e+01 1.112156792737469289e+02 -5.645533999376439738e+01 5.345746208814341482e-01 7.927205494476689296e+01 1.030707900188844519e+02 2.644299918089492962e+02 -1.813098003957497326e+02 1.666761977020965730e+02 -7.004095491795273176e+01 -1.576456021285765985e+01 -2.591557567608855805e+01 -2.148442057240634639e+01 -5.721645006587246485e+01 9.629359500601870536e+01 1.908792197613515498e+02 -1.232300126915047684e+02 3.208733986990745990e+01 -1.316845478453498117e+02 7.285249736963029932e+01 -4.621928892698609559e+01 -8.407661389893274873e+01 -5.595575036549822556e+01 4.277063029422991036e+01 2.016920929532715334e+01 -8.506191496523112505e+01 -1.467223277439675257e+02 2.161635534987660634e+01 1.640184451645683055e+02 1.486869610135373776e+01 1.899930119914372142e+02 7.780452163073454663e+00 1.402144328349639579e+02 -3.605567458781825962e+01 9.450797959823643168e+01 -7.447687902497622758e+01 -1.177253240866909749e+02 5.155497240377172830e+01 -6.053397551455007886e+01 -8.191455742671310247e+01 7.611830271143166726e+01 6.706284879507849794e+00 -9.848179537830753816e+01 -1.572076664081816944e+02 1.544852697497136944e+02 -9.318039884341820311e+01 -2.428662099715528822e+00 1.255166159156636070e+02 6.070139373587778664e+01 -1.026876705732561845e+02 1.108808542477540549e+01 2.950841002296718329e+02 5.582356968199170666e+01 -1.651314894050534576e+02 -4.994469605758320796e+01 -6.445870235448289520e+01 1.010090353379540851e+01 1.126757563885646221e+02 -1.083924822933809935e+02 2.257758583970913335e+01 1.367878595097097048e+02 1.968799784023289945e+01 -2.214678026660718331e+02 5.072723407186904865e+01 7.914240396414902534e+01 -1.422231214248196984e+01 3.441121487997753547e+01 1.188235367671379855e-01 2.355509962444145700e+01 2.908961139955687614e+01 1.214508343632577692e+02 1.027762437042039352e+02 1.624975321717016641e+01 1.563098408429863753e+02 -6.714920342220545990e+01 2.586980110537253381e+02 6.819506412865126777e+01 1.485951387545117086e+02 -2.305806411130258127e+01 9.446578432582489881e+01 -5.150980449535509109e+01 -1.535612699028844759e+02 2.750024421541817787e+01 9.981641038407892097e+01 -9.195867843516585083e+01 -1.098968005820172351e+02 -6.981672604344541355e+01 3.837777477235193402e+01 -1.199060013742260651e+02 7.844224799462774911e+01 2.948550415330794294e+01 -1.024398855759420712e+02 1.993636021644321943e+02 -1.234774633647560904e+01 -1.067644430331153274e+02 -1.401865094557609126e+01 -2.144660060870655727e+01 -1.471926932897695508e+02 -4.203454717495759496e+01 6.454376469440957464e+01 1.382899276244253031e+02 3.043868211431868787e+01 2.811250166589080024e+01 4.701398443075479605e+01 -3.756196713524675346e+01 -1.527982368840496576e+02 1.661050239158574726e+01 3.256290817690612727e+01 1.396856880070167506e+02 -1.046859527354724761e+01 -7.994029747407766706e+01 7.685662894706901227e+01 1.062864226688001956e+00 3.360374405200480652e+01 1.462667022189132240e+02 -1.864305354602343527e+02 -9.746785647127047980e+01 1.309375535152892098e+02 -2.200824224961778555e+02 -1.876114436518969910e+02 9.279045426461654245e+01 1.570930055842372042e+02 6.462903485753454902e+01 -4.518534525909092103e+00 1.589434620876826614e+02 -2.238665105866411125e+02 1.093122421228598995e+02 4.323625838968708734e+01 1.296374866692871990e+02 -1.923861777323956801e+02 1.087680923800441946e+02 -2.888947588902489727e+01 -1.363960249074160060e+02 -5.436767842256283068e+00 -9.427871782448913507e+01 -1.670189143057274350e+01 -4.327975644514025610e+00 -1.256674214095688029e+02 -1.257982729242747411e+02 -6.384272406868082328e+01 -1.315359229852511476e+02 2.050541643405060768e+02 -1.642014294071814504e+02 -5.116704847531322997e+01 1.760027169355207093e+02 3.460286178300074056e+01 -3.019267646361527113e+02 -1.296021886406107342e+02 3.625399760093061730e+01 5.573237141270875128e+01 8.817470956694645423e+00 -1.577663239361831131e+02 3.640656325626631684e+01 7.590928055954768716e+00 -7.582000680161488049e+01 2.067636628172708413e+02 2.066899883476428101e+02 4.405718402369754649e+00 -2.127017381752237952e+02 1.285322909937735005e+02 3.140588610864335095e+01 3.789105767425402505e+00 7.820109923385410866e+01 -2.116173300758433129e+02 -1.408249422639392492e+02 1.438978943136366127e+02 1.118345092241113008e+02 5.401703486703739543e+01 1.461402097383055434e+02 -1.818410142665181866e+02 -2.082165151194361741e+01 -1.330747592852144408e+02 4.440998913096299106e+01 -1.059408882541315364e+02 8.877388094615250225e+01 -3.452570868131510906e+01 1.262847941904857407e+01 1.809757485810673074e+02 2.902802895376832737e+01 -2.688504239018519684e+02 -1.288664005796395884e+02 -8.503423081513852821e+01 1.612703858665202006e+02 1.278212146814162509e+01 -5.484267133001601735e+01 3.103357410172354136e+01 6.379495782434600670e+01 -4.040030480062591778e+01 1.096700536501688532e+02 -1.027460275660552327e+02 5.019801646401202788e+01 1.141642293285090801e+02 -3.610241894832875431e+01 -1.000865433657446744e+02 -1.156537183057563141e+02 1.221535001031956682e+02 -5.063588738803110090e+01 2.004857437442683192e+02 5.834907815106963369e+01 1.131859341597266422e+02 1.880368301819222836e+02 8.736816016486809389e+00 -1.267384226647245953e+02 -1.691123609203750107e+02 -1.164942695242020108e+02 4.329744780663479276e+01
-1.359284004779027377e+01 -4.775704978813580581e+00 1.032031972826563475e+02 -2.281656228582997699e+02 1.548446047895185984e+02 6.331326589400772065e+01 1.515710725116949789e+02 -1.286711892773064392e+02 -2.785235749926763926e+00 -2.399815065784884283e+01 -2.186614679558442447e+02 3.263712153692347329e+01 -1.826323002908137738e+01 1.218319235086681260e+02 -1.245627654182915478e+02 6.147681697908894449e+01 1.248587701253082258e+02 -4.576378590244782885e+01 -4.952405348095548021e+01 -2.699255050679715850e+01 6.145385784722940059e+01 6.291163367792453442e+01 3.228124551718838120e+01 -2.316796935453651258e+02 -5.147139149136436487e+01 9.111733444772019652e+01 9.859632492490085554e+00 -1.029553954244353342e+01 -6.629548630533062692e+01 -1.537357454943890467e+01 7.306354773568595817e+01 -1.448637881564091572e+02 -6.164350529718520022e+01 8.975464661949363432e+00 2.066848567976225297e+02 2.112275009573023397e+02 -3.190766435712844640e+01 5.567673461952529834e+01 -2.846111652983039364e-01 -1.391479159786292428e+02 9.563092571066042069e+01 1.068512552862100335e+02 1.081155703306935436e+02 1.165947169334190292e+01 6.167489941238792994e+01 4.794816319910953695e+01 3.874498471002437583e+01 2.919245931685133044e+01 1.098773514395816449e+02 8.939305122807243720e+01 6.537277879543439951e+01 1.623474041177617266e+02 2.466548683489202176e+02 1.948176529439865305e+02 -5.889761531182169563e+01 4.907742441849809012e+01 -6.406651799239165257e+01 5.622249734121874809e+01 -1.913866679763314949e+02 5.628780272998017153e+01 -2.040168346642471704e+02 -1.680636617473089416e+02 1.288745867966492220e+01 -9.187488628808013758e+00 1.689100929437126979e+02 -2.071155657069597567e+02 7.500712007298011486e+01 2.289156588388799491e+02 -7.268086860920461412e+00 -1.939286283653700877e+02 3.548488932067232327e+01 1.965050898737931391e+02 -6.086727983758206761e+01 -2.654469679419439672e+02 -1.021849047555923562e+02 8.765638699012098911e+00 -2.292548751896203498e+02 3.187001712464618208e+01 -1.788286095348496474e+02 -1.849714280623173863e+02 -5.687467876451975712e+01 1.520121467318393798e+02 6.931761564635402806e+01 1.056396351797400079e+01 -8.832914040173304215e+01 -4.248497768578034339e+01 6.358351406252513272e+01 -2.314107840129410647e+02 5.396489842464612963e+01 -7.485626834027429766e+01 -7.788205332491314437e+01 -1.763580137762252491e+02 6.495991358125466775e+01 9.256788625394676728e+01 -1.619682052722298522e+02 1.723594950789110953e+02 -3.982771078952798405e+01 -1.687792752230064863e+01 8.733894366955166788e+01 1.559702670445026342e+02 2.161100614201258452e+01 1.511362255453799719e+02 -1.840872555286079049e+01 -9.053639198300102464e+01 -1.958956284850330221e+01 1.009117161025616696e+02 4.614625758783312648e+01 1.003815601131755386e+02 9.688011568626305348e+01 -8.520011902587248187e+01 -1.743605787411195536e+02 1.262867744640050205e+02 5.568634437323749609e+01 1.654973873630664372e+01 3.138839878396679595e+01 -6.971461796217681695e+01 9.857751719175182359e+01 9.219451329111531379e+01 -1.400584606329625181e+01 -7.312011927504940445e+01 3.162059427345845464e+01 6.434464312642883321e+00 -6.320353854731396126e+01 1.740540474061622831e+02 -3.393909341716324946e+01 1.248808995490194036e+02 -7.201787197231674043e+01 3.942302889137309307e+01 -3.711993147505877744e+01 9.188098661107184739e+01 2.413568245867467965e+01 1.187341337976478712e+02 -1.191576879261557735e+02 7.638885778007686156e+01 1.269153835847285876e+02 -4.597080523132666485e+01 7.763026321774344929e+00 -1.296393120701499413e+01 1.200107791607577497e+02 3.588586468671327356e+00 1.734548063584308579e+02 -1.454022740750136222e+02 1.200085837910211239e+02 -9.397713423824529855e+01 9.846079598014200940e+01 -1.409749599494486745e+02 3.037701003827731938e+01 2.544517407346285509e+01 1.891461674558048367e+00 3.736519665305808502e+01 4.719020187586019688e+01 -1.281920131573816768e+01 1.106910309804930037e+01 1.112525699016973704e+02 1.310176663049104775e+02 -8.920433865405551899e+01 -5.585164498559586832e+01 4.879377712446014215e+01 1.600830570892413318e+00 -1.410117898848556592e+02 -5.670433023586569021e+01 -3.655122809121795058e+01 5.040630890919223361e+01 -6.756253227347352208e+01 2.363758305511084146e+01 1.652371019244014292e+02 -8.191172961262930130e+01 8.324022248212389741e+01 8.670215296086968237e+01 1.154680790520210998e+01 1.272649837948226974e+02 6.485204371229295361e+01 1.733284265711911587e+02 -3.560298458584649950e+01 1.160524267413662756e+02 5.730283352526955554e+01 -1.660248125486927506e+01 2.106959606306382966e+02 -1.433188651419518465e+02 5.046127478473653838e+01 -1.937023182120640570e+02 -8.695948632392438071e+01 4.236549236400289686e+01 -7.459657474653616305e+01 -1.610631157290330577e+02 2.059897646287436430e+02 -8.866687999193001701e+01 -4.909051426880615310e+01 -4.785103989897011445e+01 1.258746963660441622e+02 2.014141684309657592e+02 6.696716385650668713e+01 1.512468639148302998e+02 2.269470081073135646e+02 -1.699112218384934536e+00 1.685217276090265841e+02 7.332843275560433938e+01 1.969380694031864891e+02 -1.300814662887772215e+02 -1.230126874206123055e+01 6.541946180043767711e+00 1.965058314269076334e+02 -9.405861647250510771e+01 -6.251355696250938365e+01 -5.478657595150851733e+01 -1.385268799242214186e+02 4.818411828413545983e+00 -1.044243439497593897e+02 1.593686859388105859e+02 2.439909266812933097e+01 1.243836153087648455e+01 7.480364944992903986e+01 -5.124517913633543920e+00 1.209461018640667902e+02 -1.642971374386096670e+02 4.695301132778065067e+01 -1.767798574218594467e+02 1.214723583586202125e+02 9.928328217081859464e+01 -6.965780437740643549e+01 4.835109569662981244e+01 2.463413768564839756e+02 -3.149076451888231887e+01 4.310262603671862536e+01 -3.379269846829899393e+01 5.992787354949767575e+01 6.652086574346695613e+01 -6.478240063766805612e+00 1.054585646046291316e+02 1.050484230227573192e+02 -2.005486808276014870e+02 -1.585157299638961206e+02 -1.239085875394660974e+02 -9.795852071483240664e+00 -1.549583764619429758e+02 1.195084360459144079e+02 1.141594951280470980e+02 6.097113136808189893e+01 1.154007382206173560e+01 1.630974673447966268e+02 8.683699997852539809e+01 6.979082187673715509e+01 -1.051437208637943428e+02 1.574906332063181651e+02 -3.679528967132825734e+00 1.130317501972799761e+02 9.111494982686092925e+00 3.799801570506860315e+01 -7.829876704344209770e+01 -9.384785156879048884e+01 7.400394474342333240e+01 -3.942194577253657073e+00 1.512338215014941909e+02 -1.301170869035094846e+01 -2.962379696366199688e+00 4.739395440394522296e+01 2.341376150537692169e+01 1.461424407919949147e+02 1.508308569761515905e+01 3.702220580304414455e+01 -1.598572725820527012e+02 6.804859996151752455e+01 1.380783642905264230e+02 -1.830563408750871446e+01 -2.354613682622739645e+02 8.714880459704313864e+01 1.404311974263113143e+02 2.090772758574102497e+01 1.947259718869218261e+02 -4.213503741722862905e+00 4.419190669874459587e+01 -4.484140770099691053e+01 -1.427047668600717145e+02 5.756989576066378334e+01 -4.880366206140136143e+01 -8.337459787008012313e+01 4.235102642593526667e+01 -1.899091941536122761e+02 7.373206919935742576e+01 1.688008941734823338e+02 -1.039619360950856617e+02 1.775576957740625517e+02 -1.002972683996987513e+02 -6.157325038322774446e+00 -1.077740572751492287e+01 7.857514207122113703e+01 -4.775219047801429184e+01 -1.106014006526465181e+02 -9.076014905603406646e+01 1.494365271777003557e+02 6.057674885555249489e+01 -1.349493928246364192e+02 4.564861337458040680e+00 4.452017667042390059e+01 8.458457536734927373e+01 -4.131375425837070026e+01 6.145772093211550668e+01 -7.062366424570370782e+01 -1.662721983499231158e+02 -3.546563261121161759e+01 1.443318439901212571e+02 -1.160140305434067898e+02 -6.591108005145985160e+00 -1.667749124543936432e+02 -4.847289770991415558e+00 -1.492631586696306556e+02 3.362964462531569865e+01 6.149059640566720475e+01 -5.148974434557735691e+01 -8.429578212736407750e+01 5.752257983616437365e+00 7.606955047386462354e+01 -6.929763647019520079e+01 1.377435331550819058e+02 1.078244665621348020e+02 -1.304749092944628615e+02 -1.077676192424919321e+02 1.380423464685863735e+02 7.291689712334625995e+01 1.534317445460854969e+02 1.024741512030740722e+02 8.292652154764711270e+01 -6.153133909060350248e+01 -8.351720574327097779e+01 -7.869770802573675894e+01 2.087450854805107952e+02 3.112114389460814223e+01 -2.539487198824087244e+01 -6.995281995939845388e+01 -5.106908646215430991e+01 -1.337939567884642713e+02 -1.684601710416795584e+01 -1.782547433021141217e+02 1.270533923309029092e+02 4.678213589152406371e+01 -1.171075053157806138e+02 -4.914795837337318574e+01 1.216720141099542332e+02 -9.856339142319467328e+01 1.044552165018756256e+02 -1.203217216358399071e+02 -1.194520245014564352e+01 -9.701508723576367288e+01 9.110716773831103410e+01 -4.315791165261865814e+01 1.052859509995717779e+01 2.977162915776072083e+01 -1.286485230189609013e+02 1.270004296680107636e+01 4.906089089398314940e+01 -2.278756467258977736e+01 -6.981186717864100899e+01 2.055853153040102939e+02 8.776893306053082711e+01 4.787593045518674018e+01 -3.190721924041892166e+01 8.148427939296342970e+01 1.701458002302283035e+02 -9.372185281506165211e+01 2.126177966850662528e+02 -1.351144854396670780e+02 -1.867335502697563925e+02 1.541911723211385095e+02 -2.374762068006247944e+02 -1.035945074166051416e+00 -2.486094947067319083e+02 -1.552521266874897208e+02 7.282612004442172804e+01 -1.478560781657338055e+02 5.927179314215020867e+01 1.115068431795733090e+02 -1.628197993425682455e+02 -3.061681091020054168e+01 7.652496969084435818e+01 1.359525727600051255e+02 -1.888562480148844713e+02 8.875145397531119329e+01 -9.941286743298357464e+01 -1.003868129260494690e+01 -1.411566630747361728e+01 -8.078831926700043198e+01 -9.168558148410188835e+01 1.840817106326004193e+02 -2.197955246860540868e+01 1.340710704102755280e+00 1.321792388829730669e+02 -8.796404325008253977e+01 -3.494841253203265552e+01 -1.092887696740564962e+02 -4.961194036087143644e+01 5.282261022375864812e+00 6.034932119336939138e+01 -1.373116289384577442e+02 2.412094680299207994e+02 -5.486086032973867077e+01 1.249020641331691905e+02 -4.971887231134714114e+01 1.220297418923750001e+02 1.416421148454192576e+02 4.894453024849041611e+01 1.244535095560993199e+02 -4.405278379991660387e+01 1.426632298335416351e+02 -1.594449986447950778e+02 -6.666187781054502182e+01 -6.420460563024184353e+01 2.600477253594016247e+01 -1.655081164787919192e+02 7.399346310558291862e+01 -3.144304150003820197e+01 -8.427970772765233676e+01 9.140321533370239138e+01 -1.540979639103914849e+02 -9.301297045562014887e+01 -5.361866948069085481e+01 3.374842002525577556e+01 1.324203848785042510e+02 1.192270090875631752e+02 7.053333815259041728e+01 -1.669781238191283546e+00 1.783075376805464884e+02 1.249636432879549233e+02 -9.628181392782636294e+01 -7.974051068913418305e+01 5.666159574831553414e+01 1.020892746181591271e+01 9.991999828517396054e+01 1.699201010803393217e+02 7.196734066773431948e+01 2.483489070159453860e+01 -1.041816405384788311e+02 1.752035099374122638e+02 -1.159159840435951168e+02 -1.685084500390732103e+02 6.698674052668971513e+01 1.136232454032572008e+02 1.999307783122474902e+01 -1.415047444618839450e+02 3.032121539678147926e+01 4.325029584379061731e+01 -2.940466274234103117e-01 1.333777104972697316e+02 9.932286806986634531e+01 1.742133071296190749e+01 7.980501432325588951e+01 -1.090567596920517275e+02 -6.391198684575019051e+00 1.001276498951513076e+02 3.022156919344960713e+01 -6.623005684803609938e+01 2.016142485859392082e+02 2.352852317561047641e+02 -1.278286195403508998e+02 -2.808554559987058141e+01 -2.140145733613135519e+02 -7.347244368718278906e+01 1.594444476927039034e+02 3.494035018248981217e+00 -7.224061482618193963e+01 1.667165708669083699e+02 -6.363732915271864954e+01 -1.634074359726917294e+02 1.389316085582205176e+02 -6.841559230287928983e+01 3.501720728455488540e+01 8.787266184095707899e+01 1.400741110902032993e+01 -2.422999846763473784e+02 4.298971020420494682e+01 -6.208437630119920669e+00 9.159287057882158933e+01 -2.395910028864176056e+01 1.029199277153363994e+02 1.723437405218378515e+01 -8.624342485972020711e+01 -2.081496185614036065e+01 -1.781669227541401312e+02 1.169444853839949445e+02 2.568740738567769100e+01 -4.234104914735732450e+01 -5.269480443125691949e+01 -6.389927858341516043e+01 4.177470409713264132e+01 1.633832300140717280e+02 1.349398627791765648e+02 4.381305030201381356e+01 -2.011793953677048989e+02 -3.944271554670006452e+01 4.453841126804334749e+01 1.193311633516520658e+02 8.872264416733791847e+01 1.572790921317200663e+01 -1.891842053096235077e+02 1.339669526735628153e+02 -2.275356263101199943e+02 -2.092762359195369299e+02 -1.893238957173806414e+00 -7.502579390806639026e+01 -2.445730952665124391e+01 8.860859164610789662e+01 5.686803061172533802e+01 -1.131045053746013735e+02 -1.539832574692845526e+02 1.485118372646966556e+01 1.257809104802567788e+02 2.108037654805889716e+01 -5.766799973351658792e+01 -5.245720630150508867e+01 -1.202281930155724865e+01 1.640965811891699957e+02 2.276219644934876740e+01 -1.797157731047454376e+02 1.327412442140255848e+02 -6.911377449235294534e+01 -4.324964337619295662e+00 1.594054927779958462e+02 -5.416839357041748571e+01 -2.026040186896790019e+01 -1.137107005074947352e+02 -6.227497202348527772e+00 -2.470747297071424953e+01 1.363734552961102509e+02 1.243428618169384805e+02 6.995873462614451910e+01 6.768839390270878198e+01 -1.937642063234859791e+01 1.400204544071348778e+02 -1.166975367511598876e+02 -4.420806098042641352e+00 -9.425878147792271022e+01 1.627156616910767752e+02 7.552338543795148951e+01 5.353928700779660943e+01 8.591259420736736985e+00 -5.513394044790994286e+01 3.559581902098752693e+01 7.009865630936015002e+00 3.683532369859098932e+00 2.498048953228714097e+01 6.187837782779563867e+01 1.762292898031068376e+02 -4.016263606553600596e+01 -5.382832479276208915e+01 6.912050676030550278e+01 1.197381821842296006e+02 -1.325217726422534703e+01 9.511809490120047883e+01 1.076203363967527480e+02 2.180912189733708999e+02 -8.958141793415460086e+01 -1.269996839744860324e+02 -2.962872712082747384e+01 6.428579537572626634e+01 -1.049885227609019900e+01 1.111614316838750938e+02 3.851468550595055262e+01 -1.682807130755751359e+02 4.662948596555232683e+01 -9.255874769125999535e+01 -1.399819623792395191e+02 1.391378129724438963e+02 -7.861554988479147710e+01 6.114456792807067131e+01 1.150507356692042578e+02 -1.024537675030817638e+02 2.425060152660086743e+01 -7.461090957109172450e+01 4.160495998167826315e+01 -1.184161561756462220e+02 6.362073259222874810e+01 5.648863267724593840e+01 4.093892714732014326e+00 8.691504372129675460e+01 -1.580833279190356109e+02 7.893468014622537510e+01 -3.017404176372376767e+01 -1.733131721880679379e+02 9.689227541513930930e+01 2.513124685763075661e+01 -2.012797873336320436e+02 2.412992001690242319e+02 -5.384211308787419936e-01 1.079035671329024098e+02 -1.237277731078534089e+02 -1.992336526845204219e+02 -9.572912979845824566e+01 2.519813127823885335e+00 1.466291285948128689e+02 4.146568241492540885e+00 -9.803323939654987385e+01 5.175571917568269242e+01 1.405959469001849129e+02 6.668811039673678920e+01 -5.310692699057646138e+01 -6.066454513122793202e+01 8.670024507957290894e+01 3.157621052074603440e+01 -2.005758960728205409e+02 -2.127331182679375132e+01 1.734255290677580490e+02 1.014247847538166099e+02 -5.878861213812940889e+01 -1.146997573155148729e+02 -4.379510187696840262e+01 -4.932465878989010122e+01 -1.174188866167267378e+02 -1.900142044482113945e+01 -4.685018795382863743e+01 -1.165531744742715858e+02 -1.352592814700102792e+02 -2.759918038930061712e+01 -1.288988185337375683e+02 -1.371989331686533546e+02 -3.932342351240023248e+01 -5.680705498390217656e+01 -1.138440336261684962e+02 1.978947553689300491e+02 1.120277348533942785e+01 -2.991685759323196692e+01 -1.809288056448565030e+01 8.362973000469131080e+01 1.661508890931034088e+01 2.662929038496145395e+01 -2.267281495070632502e+01 -4.910178552951597197e+01 2.224962730305651704e+01 -1.545191505446535984e+02 -1.692585770181079852e+02 -9.618821701075106034e+01 -2.028905229499239056e+02 -9.529607421808775314e+01 9.126045395173305508e+01 6.525017561339522842e+01 -2.772051779645143910e+01 6.460918585858574659e+01 -1.664101705128047684e+02 -4.334263716197861527e+01 -1.234417850762025921e+02 -7.097386097350297973e+01 2.242032789305865492e+02 -2.182471518887873572e+02 2.182315809932690627e+02 2.660522048291088382e+01 -6.006823405505070212e+01 9.811796639782593843e+01 1.319241312372211894e+02 -5.517186690526615678e+01 -2.165563681004346961e+02 -1.585179761507360752e+02 1.087103298667679354e+02 8.905562304122381079e+01 -1.441674312474699775e+02 3.399991462003830378e+01 -4.214619575648413985e+01 -8.228664571313024112e+01 -3.021616609881871085e+01 -5.830682068071117641e+01 -9.192137736014426252e+01 -3.616160708311313954e+01 4.718086635626818293e+00 -3.481774722177566161e+01 -4.453566270836369356e-01 -1.530582261339607975e+01 9.782733042602062312e+01 1.350771304482253470e+02 1.401008967066843169e+01 1.783637550296578311e+01 -6.705922444032179897e+01 -2.083612264054021921e+02 3.599770285612692078e+01 -9.754895176701381843e+01 2.744730429898667978e+01 -8.751621552716978059e+00 1.044130457091224429e+00 7.674398752982345684e+01 1.295629742442749830e+02 -7.488773477155649516e+01 4.039816632735487190e+01 -2.049569907248567517e+02 1.026285328328709134e+01 7.500298162341396235e+00 -1.302710770618464551e+02 -3.587284286161645497e+01 -4.712476396234569620e+01 5.081760281684637448e+00 -1.087189081251486442e+02 2.876950762664053585e+01 -1.038267334284652463e+02 5.971832900398705846e+01 7.210486522522961650e+01 3.919113458661228577e+01 -3.085295524232800091e+01 1.141991940455195760e+02 6.489000456723668719e+01 8.502018913789025589e+01 -7.118792077116223993e+01 2.161447269053124032e+01 1.359331660470285215e+02 -6.211651993676519368e+01 -7.340948334748691018e+00 3.400115465441407281e+01 -1.364075302719047613e+02 1.039482178210679137e+02 9.516214246287354683e+01 -1.073955181586440943e+02 -8.748496537706969889e+01 -5.895630743883202030e+01 -4.832031565552621544e+01 -1.702578744079147270e+02 -1.443686592646913027e+02 -1.406500773259870130e+02 1.121852864328434976e+02 6.342513464278788149e+01 1.693172256348020426e+02 7.628257608259207068e+00 -9.105782967171722930e+01 1.985430823557299007e+01 1.468441884251363128e+01 -6.734208053495061108e+01 7.856590630265314701e+01 1.252568013735775310e+02 1.063082801021654333e+01 1.521754952953523343e+02 2.389807215185957290e+01 1.177010589988846050e+02 1.603606172248408868e+01 -2.203387830659598876e+02 2.315627163015437020e+02 -5.189028443335076446e+01 -1.581578264265394580e+02 -7.123405441654458059e+01 -4.556003649002999367e+01 4.359150321211401291e+01 2.697972285434716966e+01 4.820162303834470663e+01 -7.815779416264554413e+01 1.289598190862270712e+02 -9.088172222451967741e+01 -7.382378644094841569e+00 1.500764088001550363e+02 1.154663566863396795e+02 6.101959715049879662e+01 -1.862856236334839650e+02 2.675858637749722035e+01 1.477130793497843797e+02 2.465344268022735363e+01 1.025727834187716923e+02 1.118392419745092070e+02 -2.219687040125120632e+02 8.076642581598864012e+01 -6.062462215603687810e+01 -2.359711519791962644e+02 9.280191314665869129e+01 2.576687124412805119e+01 -1.273271257736688113e+02 -6.102753797433143745e+01 1.444841343481591593e+02 1.532787769518842538e+02 -7.864544465190513733e+01 -1.324685188822095654e+02 -8.641510784677481638e+01 -1.716006538748217736e+02 2.020755742245583519e+01 3.913204947563421854e+01 -1.743745935676411207e+01 -1.274790518264514816e+01 -9.211568882724264995e+01 -9.095445367316627028e+01 -2.531715566132069384e+01 1.372342301856352265e+02 1.395457482171754009e+02 8.301781812944351202e+01 9.922347254285638485e+01 -8.032594361938765815e+01 -1.841840529203828112e+02 -1.352401103858472453e+01 -2.364711897427391563e+01 -7.228068929362936501e+01 1.536901006634285194e+00 7.441740654774724817e+01 -5.390014445362984929e+01 2.503778959412727900e+01 8.060897222751515301e+01 7.136089587172132553e+01 1.125065136253074201e+02 -1.519059177250004495e+02 4.036700699718937813e+01 8.482117037847515917e+01 9.647731254781257348e+01 6.016179920824890104e+01 -1.051142225143957489e+02 1.394306632607956260e+02 1.297493507210188284e+02 9.755960771886125826e+01 1.033649533486215120e+02 -8.576528704728289654e+01 -1.515356435022979298e+01 -1.314213855354084437e+01 7.847590710276872983e+01 6.613986218923059823e+01 5.694142440676983341e+01 9.937242099839471621e+01 1.185606296600102496e+02 1.260613572637907822e+02 -6.613802232124201907e+01 8.204216229931031990e+01 6.644419552143408225e+01 -1.197867921734025174e+02 1.339858978308500639e+02 -1.023408758765599558e+01 -2.841853049943864562e+01 2.028975966404292137e+02 9.007077843903795156e+01 1.263749867870828325e+02 -1.470083691897080485e+02 -1.607345827167286529e+02 -1.567182016942032021e+02 -1.245274725828812024e+02 -4.513813292398076271e+01 1.119973824595295895e+02 -1.719584261459840775e+02 3.319860228789902123e+01 1.472595227610704285e+02 -6.053480233891970386e+01 -9.323271911405487344e+01 -3.582103877751481491e+01 1.387459502951443824e+02 2.321110458250566069e+02 -6.801500977586091778e+01 2.023028405202773072e+01 -2.831131207445821474e+01 6.996789472587617809e+01 6.159579871427849440e+01 -2.179070517521865042e+02 -9.061434125793974204e+01 1.406190170864268509e+02 1.429308747570125604e+02 9.666332067948606266e+01 -5.090385103967743419e+01 -7.754771552258972633e+01 -4.647378374191518446e+01 -1.805365439772548370e+02 7.282076096322349201e+01 -2.628352558801768168e+01 1.702589992475905660e+02 -2.856350831944497770e+01 -3.218825719074238805e+02 1.482995431996821196e+02 5.154798948606968878e+01 -1.207839669613086357e+02 -2.264122337287447806e+01 3.616666101012952339e+01 -2.126263919824992286e+02 -1.170474649414265969e+02 -1.121954433484032450e+02 -5.783527930437788456e+01 6.434955058212364065e+01 -1.687968687404838590e+02 1.105937932789964151e+02 -5.563626655041845481e+01 2.966797085827067804e+00 -1.366874486214996693e+02 -1.060875543565338717e+02 1.802020131882285909e+02 8.880029047674705112e+01 -4.328523662112724679e+01 3.812474240990172802e+01 -2.876996469337294826e+01 4.425639301876675802e+01 -1.072381892065111089e+02 1.012656634701736920e+02 5.180274238241294427e+01 -1.219246459897904487e+02 1.197252585042078294e+02 -5.041453751313295584e+01 1.024702363888921326e+02 -5.068407145354363763e+01 9.067085033996984578e+01 -1.573689098557200339e+02 1.463553089377964795e+02 2.542071105218874649e+01 1.032317934316789092e+02 1.337900716171223792e+02 -1.504578615238734756e+02 -8.813323073090863602e+01 -1.083890433126316992e+02 6.864411622187105877e+01 -1.758485454789105802e+02 1.554277983960712959e+02 1.461947274174897586e+02 5.439842447907988543e+01 -8.714940226908436216e+01 5.856357004100831176e+01 -1.101293425031337136e+02 -1.126910501728308134e+01 3.593877056816908322e+01 -1.886720755127346649e+02 -8.380954272194858845e+01 -1.390079778011470779e+01 1.049948028936375550e+02 -5.155846559907917026e+01 1.116218512088731529e+02 -6.610932776497683960e+01 -2.166047626664819745e+02 -1.100405066106305298e+02 -3.505113482983739459e+01 -6.186347157696878440e+01 3.094571153705536659e+01 5.276645311051324683e+01 6.539073535440691920e+00 2.595068250200887050e+01 -1.205362239491407621e+02 5.530450512321778689e+01 3.353869355236900418e+01 -7.424891532988004883e+01 9.503433385403548428e+00 5.786471236367069082e+01 -9.813327032914126846e+01 -5.662519053173038941e+01 -2.480575809332347603e+01 1.004127049697707434e+02 -1.761787063791668473e+01 4.311691930944735240e+00 -2.345710586541264888e+02 -9.780173501550642357e+01 1.017794007668720866e+02 -9.187282253589091852e+01 3.225511636095409784e+01 3.197670148878418317e+01 3.907391660132439171e+01 6.801712892317718229e+01 -1.826433501820966114e+02 1.481669595847837968e+02 8.380439662441685300e+01 -7.715879981327544712e+00 -8.318252935576892071e+01 1.152526497636666960e+02 6.391940741781134960e+01 -2.069826731750536908e+02 -5.188322335637909788e+01 -8.407761798965135824e+01 -5.340519980660562993e+01 -6.380033229681735918e+01 -1.020286210512366551e+02 -6.217069530249238341e+01 1.971320240701911644e+02 -1.758857536640000774e+02 6.744326216594807022e+01 2.856213405747385181e+01 -7.739889034015257607e+01 1.067827867190464808e+01 -4.057051886212828862e+01 3.519834885097318455e+00 -9.897539530146678999e+01 -2.034192655964345704e+02 1.893966067366492112e+01 4.317995227703943328e+01 -1.318455703207165364e+01 -9.339701388271928195e+00 -4.097204711216220119e+01 -1.956393083128863850e+02 -3.158421264669752304e+01 -6.733585328998255193e+01 1.441381129498232738e+01 -1.607285269564399499e+01 9.323227016980199267e+01 -6.492453165951877736e+01 -1.068327644672649370e+02 -3.686019014306442898e+01 -9.315308196034530752e+00 4.693360385800308876e+01 -2.283064453842179731e+01 -7.589729629212835960e+01 -1.634534940682078386e+01 2.069308632782893298e+01 4.894147050297173251e+01 -1.174933252999818905e+02 -1.432627225472357964e+02 2.373289448410004070e+02 -2.248986406513332383e+02 -7.828858900135912791e+01 -4.777758610679212126e+01 1.441402926121163546e+02 6.521953983945314803e+01 2.358027592320226518e+02 2.522156568425368448e+02 -6.421789143748699757e+01 1.334592910059624842e+02 -5.760270515875672714e+01 -4.204991844919560151e+01 -1.037598027123928119e+02 -8.229498017721977021e+01 -7.173108399826050174e+01 -9.169920252377409042e+01 -2.512423835088036697e+02 -2.792136243570070064e+02 1.388496374988835953e+02 -2.733193152306657581e+01 5.489590347410160831e+01 1.348466275366578486e+02
