# 
#                 ----------------------------------------------------
#                 Data from a 3D direct N-body simulation. 
# 
#                 rows are i-particle; 
#                 coumns are :mass, tag, x ,y, z, vx, vy, vz, ax, ay, az
# 
#                 NTHU, Computational Physics Lab
# 
#                 ----------------------------------------------------
#                 Time = 0.5000000000000002
1.000000000000000000e+00 2.000000000000000000e+00 3.000000000000000000e+00 4.000000000000000000e+00 5.000000000000000000e+00 6.000000000000000000e+00 7.000000000000000000e+00 8.000000000000000000e+00 9.000000000000000000e+00 1.000000000000000000e+01 1.100000000000000000e+01 1.200000000000000000e+01 1.300000000000000000e+01 1.400000000000000000e+01 1.500000000000000000e+01 1.600000000000000000e+01 1.700000000000000000e+01 1.800000000000000000e+01 1.900000000000000000e+01 2.000000000000000000e+01 2.100000000000000000e+01 2.200000000000000000e+01 2.300000000000000000e+01 2.400000000000000000e+01 2.500000000000000000e+01 2.600000000000000000e+01 2.700000000000000000e+01 2.800000000000000000e+01 2.900000000000000000e+01 3.000000000000000000e+01 3.100000000000000000e+01 3.200000000000000000e+01 3.300000000000000000e+01 3.400000000000000000e+01 3.500000000000000000e+01 3.600000000000000000e+01 3.700000000000000000e+01 3.800000000000000000e+01 3.900000000000000000e+01 4.000000000000000000e+01 4.100000000000000000e+01 4.200000000000000000e+01 4.300000000000000000e+01 4.400000000000000000e+01 4.500000000000000000e+01 4.600000000000000000e+01 4.700000000000000000e+01 4.800000000000000000e+01 4.900000000000000000e+01 5.000000000000000000e+01 5.100000000000000000e+01 5.200000000000000000e+01 5.300000000000000000e+01 5.400000000000000000e+01 5.500000000000000000e+01 5.600000000000000000e+01 5.700000000000000000e+01 5.800000000000000000e+01 5.900000000000000000e+01 6.000000000000000000e+01 6.100000000000000000e+01 6.200000000000000000e+01 6.300000000000000000e+01 6.400000000000000000e+01 6.500000000000000000e+01 6.600000000000000000e+01 6.700000000000000000e+01 6.800000000000000000e+01 6.900000000000000000e+01 7.000000000000000000e+01 7.100000000000000000e+01 7.200000000000000000e+01 7.300000000000000000e+01 7.400000000000000000e+01 7.500000000000000000e+01 7.600000000000000000e+01 7.700000000000000000e+01 7.800000000000000000e+01 7.900000000000000000e+01 8.000000000000000000e+01 8.100000000000000000e+01 8.200000000000000000e+01 8.300000000000000000e+01 8.400000000000000000e+01 8.500000000000000000e+01 8.600000000000000000e+01 8.700000000000000000e+01 8.800000000000000000e+01 8.900000000000000000e+01 9.000000000000000000e+01 9.100000000000000000e+01 9.200000000000000000e+01 9.300000000000000000e+01 9.400000000000000000e+01 9.500000000000000000e+01 9.600000000000000000e+01 9.700000000000000000e+01 9.800000000000000000e+01 9.900000000000000000e+01 1.000000000000000000e+02 1.010000000000000000e+02 1.020000000000000000e+02 1.030000000000000000e+02 1.040000000000000000e+02 1.050000000000000000e+02 1.060000000000000000e+02 1.070000000000000000e+02 1.080000000000000000e+02 1.090000000000000000e+02 1.100000000000000000e+02 1.110000000000000000e+02 1.120000000000000000e+02 1.130000000000000000e+02 1.140000000000000000e+02 1.150000000000000000e+02 1.160000000000000000e+02 1.170000000000000000e+02 1.180000000000000000e+02 1.190000000000000000e+02 1.200000000000000000e+02 1.210000000000000000e+02 1.220000000000000000e+02 1.230000000000000000e+02 1.240000000000000000e+02 1.250000000000000000e+02 1.260000000000000000e+02 1.270000000000000000e+02 1.280000000000000000e+02 1.290000000000000000e+02 1.300000000000000000e+02 1.310000000000000000e+02 1.320000000000000000e+02 1.330000000000000000e+02 1.340000000000000000e+02 1.350000000000000000e+02 1.360000000000000000e+02 1.370000000000000000e+02 1.380000000000000000e+02 1.390000000000000000e+02 1.400000000000000000e+02 1.410000000000000000e+02 1.420000000000000000e+02 1.430000000000000000e+02 1.440000000000000000e+02 1.450000000000000000e+02 1.460000000000000000e+02 1.470000000000000000e+02 1.480000000000000000e+02 1.490000000000000000e+02 1.500000000000000000e+02 1.510000000000000000e+02 1.520000000000000000e+02 1.530000000000000000e+02 1.540000000000000000e+02 1.550000000000000000e+02 1.560000000000000000e+02 1.570000000000000000e+02 1.580000000000000000e+02 1.590000000000000000e+02 1.600000000000000000e+02 1.610000000000000000e+02 1.620000000000000000e+02 1.630000000000000000e+02 1.640000000000000000e+02 1.650000000000000000e+02 1.660000000000000000e+02 1.670000000000000000e+02 1.680000000000000000e+02 1.690000000000000000e+02 1.700000000000000000e+02 1.710000000000000000e+02 1.720000000000000000e+02 1.730000000000000000e+02 1.740000000000000000e+02 1.750000000000000000e+02 1.760000000000000000e+02 1.770000000000000000e+02 1.780000000000000000e+02 1.790000000000000000e+02 1.800000000000000000e+02 1.810000000000000000e+02 1.820000000000000000e+02 1.830000000000000000e+02 1.840000000000000000e+02 1.850000000000000000e+02 1.860000000000000000e+02 1.870000000000000000e+02 1.880000000000000000e+02 1.890000000000000000e+02 1.900000000000000000e+02 1.910000000000000000e+02 1.920000000000000000e+02 1.930000000000000000e+02 1.940000000000000000e+02 1.950000000000000000e+02 1.960000000000000000e+02 1.970000000000000000e+02 1.980000000000000000e+02 1.990000000000000000e+02 2.000000000000000000e+02 2.010000000000000000e+02 2.020000000000000000e+02 2.030000000000000000e+02 2.040000000000000000e+02 2.050000000000000000e+02 2.060000000000000000e+02 2.070000000000000000e+02 2.080000000000000000e+02 2.090000000000000000e+02 2.100000000000000000e+02 2.110000000000000000e+02 2.120000000000000000e+02 2.130000000000000000e+02 2.140000000000000000e+02 2.150000000000000000e+02 2.160000000000000000e+02 2.170000000000000000e+02 2.180000000000000000e+02 2.190000000000000000e+02 2.200000000000000000e+02 2.210000000000000000e+02 2.220000000000000000e+02 2.230000000000000000e+02 2.240000000000000000e+02 2.250000000000000000e+02 2.260000000000000000e+02 2.270000000000000000e+02 2.280000000000000000e+02 2.290000000000000000e+02 2.300000000000000000e+02 2.310000000000000000e+02 2.320000000000000000e+02 2.330000000000000000e+02 2.340000000000000000e+02 2.350000000000000000e+02 2.360000000000000000e+02 2.370000000000000000e+02 2.380000000000000000e+02 2.390000000000000000e+02 2.400000000000000000e+02 2.410000000000000000e+02 2.420000000000000000e+02 2.430000000000000000e+02 2.440000000000000000e+02 2.450000000000000000e+02 2.460000000000000000e+02 2.470000000000000000e+02 2.480000000000000000e+02 2.490000000000000000e+02 2.500000000000000000e+02 2.510000000000000000e+02 2.520000000000000000e+02 2.530000000000000000e+02 2.540000000000000000e+02 2.550000000000000000e+02 2.560000000000000000e+02 2.570000000000000000e+02 2.580000000000000000e+02 2.590000000000000000e+02 2.600000000000000000e+02 2.610000000000000000e+02 2.620000000000000000e+02 2.630000000000000000e+02 2.640000000000000000e+02 2.650000000000000000e+02 2.660000000000000000e+02 2.670000000000000000e+02 2.680000000000000000e+02 2.690000000000000000e+02 2.700000000000000000e+02 2.710000000000000000e+02 2.720000000000000000e+02 2.730000000000000000e+02 2.740000000000000000e+02 2.750000000000000000e+02 2.760000000000000000e+02 2.770000000000000000e+02 2.780000000000000000e+02 2.790000000000000000e+02 2.800000000000000000e+02 2.810000000000000000e+02 2.820000000000000000e+02 2.830000000000000000e+02 2.840000000000000000e+02 2.850000000000000000e+02 2.860000000000000000e+02 2.870000000000000000e+02 2.880000000000000000e+02 2.890000000000000000e+02 2.900000000000000000e+02 2.910000000000000000e+02 2.920000000000000000e+02 2.930000000000000000e+02 2.940000000000000000e+02 2.950000000000000000e+02 2.960000000000000000e+02 2.970000000000000000e+02 2.980000000000000000e+02 2.990000000000000000e+02 3.000000000000000000e+02 3.010000000000000000e+02 3.020000000000000000e+02 3.030000000000000000e+02 3.040000000000000000e+02 3.050000000000000000e+02 3.060000000000000000e+02 3.070000000000000000e+02 3.080000000000000000e+02 3.090000000000000000e+02 3.100000000000000000e+02 3.110000000000000000e+02 3.120000000000000000e+02 3.130000000000000000e+02 3.140000000000000000e+02 3.150000000000000000e+02 3.160000000000000000e+02 3.170000000000000000e+02 3.180000000000000000e+02 3.190000000000000000e+02 3.200000000000000000e+02 3.210000000000000000e+02 3.220000000000000000e+02 3.230000000000000000e+02 3.240000000000000000e+02 3.250000000000000000e+02 3.260000000000000000e+02 3.270000000000000000e+02 3.280000000000000000e+02 3.290000000000000000e+02 3.300000000000000000e+02 3.310000000000000000e+02 3.320000000000000000e+02 3.330000000000000000e+02 3.340000000000000000e+02 3.350000000000000000e+02 3.360000000000000000e+02 3.370000000000000000e+02 3.380000000000000000e+02 3.390000000000000000e+02 3.400000000000000000e+02 3.410000000000000000e+02 3.420000000000000000e+02 3.430000000000000000e+02 3.440000000000000000e+02 3.450000000000000000e+02 3.460000000000000000e+02 3.470000000000000000e+02 3.480000000000000000e+02 3.490000000000000000e+02 3.500000000000000000e+02 3.510000000000000000e+02 3.520000000000000000e+02 3.530000000000000000e+02 3.540000000000000000e+02 3.550000000000000000e+02 3.560000000000000000e+02 3.570000000000000000e+02 3.580000000000000000e+02 3.590000000000000000e+02 3.600000000000000000e+02 3.610000000000000000e+02 3.620000000000000000e+02 3.630000000000000000e+02 3.640000000000000000e+02 3.650000000000000000e+02 3.660000000000000000e+02 3.670000000000000000e+02 3.680000000000000000e+02 3.690000000000000000e+02 3.700000000000000000e+02 3.710000000000000000e+02 3.720000000000000000e+02 3.730000000000000000e+02 3.740000000000000000e+02 3.750000000000000000e+02 3.760000000000000000e+02 3.770000000000000000e+02 3.780000000000000000e+02 3.790000000000000000e+02 3.800000000000000000e+02 3.810000000000000000e+02 3.820000000000000000e+02 3.830000000000000000e+02 3.840000000000000000e+02 3.850000000000000000e+02 3.860000000000000000e+02 3.870000000000000000e+02 3.880000000000000000e+02 3.890000000000000000e+02 3.900000000000000000e+02 3.910000000000000000e+02 3.920000000000000000e+02 3.930000000000000000e+02 3.940000000000000000e+02 3.950000000000000000e+02 3.960000000000000000e+02 3.970000000000000000e+02 3.980000000000000000e+02 3.990000000000000000e+02 4.000000000000000000e+02 4.010000000000000000e+02 4.020000000000000000e+02 4.030000000000000000e+02 4.040000000000000000e+02 4.050000000000000000e+02 4.060000000000000000e+02 4.070000000000000000e+02 4.080000000000000000e+02 4.090000000000000000e+02 4.100000000000000000e+02 4.110000000000000000e+02 4.120000000000000000e+02 4.130000000000000000e+02 4.140000000000000000e+02 4.150000000000000000e+02 4.160000000000000000e+02 4.170000000000000000e+02 4.180000000000000000e+02 4.190000000000000000e+02 4.200000000000000000e+02 4.210000000000000000e+02 4.220000000000000000e+02 4.230000000000000000e+02 4.240000000000000000e+02 4.250000000000000000e+02 4.260000000000000000e+02 4.270000000000000000e+02 4.280000000000000000e+02 4.290000000000000000e+02 4.300000000000000000e+02 4.310000000000000000e+02 4.320000000000000000e+02 4.330000000000000000e+02 4.340000000000000000e+02 4.350000000000000000e+02 4.360000000000000000e+02 4.370000000000000000e+02 4.380000000000000000e+02 4.390000000000000000e+02 4.400000000000000000e+02 4.410000000000000000e+02 4.420000000000000000e+02 4.430000000000000000e+02 4.440000000000000000e+02 4.450000000000000000e+02 4.460000000000000000e+02 4.470000000000000000e+02 4.480000000000000000e+02 4.490000000000000000e+02 4.500000000000000000e+02 4.510000000000000000e+02 4.520000000000000000e+02 4.530000000000000000e+02 4.540000000000000000e+02 4.550000000000000000e+02 4.560000000000000000e+02 4.570000000000000000e+02 4.580000000000000000e+02 4.590000000000000000e+02 4.600000000000000000e+02 4.610000000000000000e+02 4.620000000000000000e+02 4.630000000000000000e+02 4.640000000000000000e+02 4.650000000000000000e+02 4.660000000000000000e+02 4.670000000000000000e+02 4.680000000000000000e+02 4.690000000000000000e+02 4.700000000000000000e+02 4.710000000000000000e+02 4.720000000000000000e+02 4.730000000000000000e+02 4.740000000000000000e+02 4.750000000000000000e+02 4.760000000000000000e+02 4.770000000000000000e+02 4.780000000000000000e+02 4.790000000000000000e+02 4.800000000000000000e+02 4.810000000000000000e+02 4.820000000000000000e+02 4.830000000000000000e+02 4.840000000000000000e+02 4.850000000000000000e+02 4.860000000000000000e+02 4.870000000000000000e+02 4.880000000000000000e+02 4.890000000000000000e+02 4.900000000000000000e+02 4.910000000000000000e+02 4.920000000000000000e+02 4.930000000000000000e+02 4.940000000000000000e+02 4.950000000000000000e+02 4.960000000000000000e+02 4.970000000000000000e+02 4.980000000000000000e+02 4.990000000000000000e+02 5.000000000000000000e+02 5.010000000000000000e+02 5.020000000000000000e+02 5.030000000000000000e+02 5.040000000000000000e+02 5.050000000000000000e+02 5.060000000000000000e+02 5.070000000000000000e+02 5.080000000000000000e+02 5.090000000000000000e+02 5.100000000000000000e+02 5.110000000000000000e+02 5.120000000000000000e+02 5.130000000000000000e+02 5.140000000000000000e+02 5.150000000000000000e+02 5.160000000000000000e+02 5.170000000000000000e+02 5.180000000000000000e+02 5.190000000000000000e+02 5.200000000000000000e+02 5.210000000000000000e+02 5.220000000000000000e+02 5.230000000000000000e+02 5.240000000000000000e+02 5.250000000000000000e+02 5.260000000000000000e+02 5.270000000000000000e+02 5.280000000000000000e+02 5.290000000000000000e+02 5.300000000000000000e+02 5.310000000000000000e+02 5.320000000000000000e+02 5.330000000000000000e+02 5.340000000000000000e+02 5.350000000000000000e+02 5.360000000000000000e+02 5.370000000000000000e+02 5.380000000000000000e+02 5.390000000000000000e+02 5.400000000000000000e+02 5.410000000000000000e+02 5.420000000000000000e+02 5.430000000000000000e+02 5.440000000000000000e+02 5.450000000000000000e+02 5.460000000000000000e+02 5.470000000000000000e+02 5.480000000000000000e+02 5.490000000000000000e+02 5.500000000000000000e+02 5.510000000000000000e+02 5.520000000000000000e+02 5.530000000000000000e+02 5.540000000000000000e+02 5.550000000000000000e+02 5.560000000000000000e+02 5.570000000000000000e+02 5.580000000000000000e+02 5.590000000000000000e+02 5.600000000000000000e+02 5.610000000000000000e+02 5.620000000000000000e+02 5.630000000000000000e+02 5.640000000000000000e+02 5.650000000000000000e+02 5.660000000000000000e+02 5.670000000000000000e+02 5.680000000000000000e+02 5.690000000000000000e+02 5.700000000000000000e+02 5.710000000000000000e+02 5.720000000000000000e+02 5.730000000000000000e+02 5.740000000000000000e+02 5.750000000000000000e+02 5.760000000000000000e+02 5.770000000000000000e+02 5.780000000000000000e+02 5.790000000000000000e+02 5.800000000000000000e+02 5.810000000000000000e+02 5.820000000000000000e+02 5.830000000000000000e+02 5.840000000000000000e+02 5.850000000000000000e+02 5.860000000000000000e+02 5.870000000000000000e+02 5.880000000000000000e+02 5.890000000000000000e+02 5.900000000000000000e+02 5.910000000000000000e+02 5.920000000000000000e+02 5.930000000000000000e+02 5.940000000000000000e+02 5.950000000000000000e+02 5.960000000000000000e+02 5.970000000000000000e+02 5.980000000000000000e+02 5.990000000000000000e+02 6.000000000000000000e+02 6.010000000000000000e+02 6.020000000000000000e+02 6.030000000000000000e+02 6.040000000000000000e+02 6.050000000000000000e+02 6.060000000000000000e+02 6.070000000000000000e+02 6.080000000000000000e+02 6.090000000000000000e+02 6.100000000000000000e+02 6.110000000000000000e+02 6.120000000000000000e+02 6.130000000000000000e+02 6.140000000000000000e+02 6.150000000000000000e+02 6.160000000000000000e+02 6.170000000000000000e+02 6.180000000000000000e+02 6.190000000000000000e+02 6.200000000000000000e+02 6.210000000000000000e+02 6.220000000000000000e+02 6.230000000000000000e+02 6.240000000000000000e+02 6.250000000000000000e+02 6.260000000000000000e+02 6.270000000000000000e+02 6.280000000000000000e+02 6.290000000000000000e+02 6.300000000000000000e+02 6.310000000000000000e+02 6.320000000000000000e+02 6.330000000000000000e+02 6.340000000000000000e+02 6.350000000000000000e+02 6.360000000000000000e+02 6.370000000000000000e+02 6.380000000000000000e+02 6.390000000000000000e+02 6.400000000000000000e+02 6.410000000000000000e+02 6.420000000000000000e+02 6.430000000000000000e+02 6.440000000000000000e+02 6.450000000000000000e+02 6.460000000000000000e+02 6.470000000000000000e+02 6.480000000000000000e+02 6.490000000000000000e+02 6.500000000000000000e+02 6.510000000000000000e+02 6.520000000000000000e+02 6.530000000000000000e+02 6.540000000000000000e+02 6.550000000000000000e+02 6.560000000000000000e+02 6.570000000000000000e+02 6.580000000000000000e+02 6.590000000000000000e+02 6.600000000000000000e+02 6.610000000000000000e+02 6.620000000000000000e+02 6.630000000000000000e+02 6.640000000000000000e+02 6.650000000000000000e+02 6.660000000000000000e+02 6.670000000000000000e+02 6.680000000000000000e+02 6.690000000000000000e+02 6.700000000000000000e+02 6.710000000000000000e+02 6.720000000000000000e+02 6.730000000000000000e+02 6.740000000000000000e+02 6.750000000000000000e+02 6.760000000000000000e+02 6.770000000000000000e+02 6.780000000000000000e+02 6.790000000000000000e+02 6.800000000000000000e+02 6.810000000000000000e+02 6.820000000000000000e+02 6.830000000000000000e+02 6.840000000000000000e+02 6.850000000000000000e+02 6.860000000000000000e+02 6.870000000000000000e+02 6.880000000000000000e+02 6.890000000000000000e+02 6.900000000000000000e+02 6.910000000000000000e+02 6.920000000000000000e+02 6.930000000000000000e+02 6.940000000000000000e+02 6.950000000000000000e+02 6.960000000000000000e+02 6.970000000000000000e+02 6.980000000000000000e+02 6.990000000000000000e+02 7.000000000000000000e+02 7.010000000000000000e+02 7.020000000000000000e+02 7.030000000000000000e+02 7.040000000000000000e+02 7.050000000000000000e+02 7.060000000000000000e+02 7.070000000000000000e+02 7.080000000000000000e+02 7.090000000000000000e+02 7.100000000000000000e+02 7.110000000000000000e+02 7.120000000000000000e+02 7.130000000000000000e+02 7.140000000000000000e+02 7.150000000000000000e+02 7.160000000000000000e+02 7.170000000000000000e+02 7.180000000000000000e+02 7.190000000000000000e+02 7.200000000000000000e+02 7.210000000000000000e+02 7.220000000000000000e+02 7.230000000000000000e+02 7.240000000000000000e+02 7.250000000000000000e+02 7.260000000000000000e+02 7.270000000000000000e+02 7.280000000000000000e+02 7.290000000000000000e+02 7.300000000000000000e+02 7.310000000000000000e+02 7.320000000000000000e+02 7.330000000000000000e+02 7.340000000000000000e+02 7.350000000000000000e+02 7.360000000000000000e+02 7.370000000000000000e+02 7.380000000000000000e+02 7.390000000000000000e+02 7.400000000000000000e+02 7.410000000000000000e+02 7.420000000000000000e+02 7.430000000000000000e+02 7.440000000000000000e+02 7.450000000000000000e+02 7.460000000000000000e+02 7.470000000000000000e+02 7.480000000000000000e+02 7.490000000000000000e+02 7.500000000000000000e+02 7.510000000000000000e+02 7.520000000000000000e+02 7.530000000000000000e+02 7.540000000000000000e+02 7.550000000000000000e+02 7.560000000000000000e+02 7.570000000000000000e+02 7.580000000000000000e+02 7.590000000000000000e+02 7.600000000000000000e+02 7.610000000000000000e+02 7.620000000000000000e+02 7.630000000000000000e+02 7.640000000000000000e+02 7.650000000000000000e+02 7.660000000000000000e+02 7.670000000000000000e+02 7.680000000000000000e+02 7.690000000000000000e+02 7.700000000000000000e+02 7.710000000000000000e+02 7.720000000000000000e+02 7.730000000000000000e+02 7.740000000000000000e+02 7.750000000000000000e+02 7.760000000000000000e+02 7.770000000000000000e+02 7.780000000000000000e+02 7.790000000000000000e+02 7.800000000000000000e+02 7.810000000000000000e+02 7.820000000000000000e+02 7.830000000000000000e+02 7.840000000000000000e+02 7.850000000000000000e+02 7.860000000000000000e+02 7.870000000000000000e+02 7.880000000000000000e+02 7.890000000000000000e+02 7.900000000000000000e+02 7.910000000000000000e+02 7.920000000000000000e+02 7.930000000000000000e+02 7.940000000000000000e+02 7.950000000000000000e+02 7.960000000000000000e+02 7.970000000000000000e+02 7.980000000000000000e+02 7.990000000000000000e+02 8.000000000000000000e+02 8.010000000000000000e+02 8.020000000000000000e+02 8.030000000000000000e+02 8.040000000000000000e+02 8.050000000000000000e+02 8.060000000000000000e+02 8.070000000000000000e+02 8.080000000000000000e+02 8.090000000000000000e+02 8.100000000000000000e+02 8.110000000000000000e+02 8.120000000000000000e+02 8.130000000000000000e+02 8.140000000000000000e+02 8.150000000000000000e+02 8.160000000000000000e+02 8.170000000000000000e+02 8.180000000000000000e+02 8.190000000000000000e+02 8.200000000000000000e+02 8.210000000000000000e+02 8.220000000000000000e+02 8.230000000000000000e+02 8.240000000000000000e+02 8.250000000000000000e+02 8.260000000000000000e+02 8.270000000000000000e+02 8.280000000000000000e+02 8.290000000000000000e+02 8.300000000000000000e+02 8.310000000000000000e+02 8.320000000000000000e+02 8.330000000000000000e+02 8.340000000000000000e+02 8.350000000000000000e+02 8.360000000000000000e+02 8.370000000000000000e+02 8.380000000000000000e+02 8.390000000000000000e+02 8.400000000000000000e+02 8.410000000000000000e+02 8.420000000000000000e+02 8.430000000000000000e+02 8.440000000000000000e+02 8.450000000000000000e+02 8.460000000000000000e+02 8.470000000000000000e+02 8.480000000000000000e+02 8.490000000000000000e+02 8.500000000000000000e+02 8.510000000000000000e+02 8.520000000000000000e+02 8.530000000000000000e+02 8.540000000000000000e+02 8.550000000000000000e+02 8.560000000000000000e+02 8.570000000000000000e+02 8.580000000000000000e+02 8.590000000000000000e+02 8.600000000000000000e+02 8.610000000000000000e+02 8.620000000000000000e+02 8.630000000000000000e+02 8.640000000000000000e+02 8.650000000000000000e+02 8.660000000000000000e+02 8.670000000000000000e+02 8.680000000000000000e+02 8.690000000000000000e+02 8.700000000000000000e+02 8.710000000000000000e+02 8.720000000000000000e+02 8.730000000000000000e+02 8.740000000000000000e+02 8.750000000000000000e+02 8.760000000000000000e+02 8.770000000000000000e+02 8.780000000000000000e+02 8.790000000000000000e+02 8.800000000000000000e+02 8.810000000000000000e+02 8.820000000000000000e+02 8.830000000000000000e+02 8.840000000000000000e+02 8.850000000000000000e+02 8.860000000000000000e+02 8.870000000000000000e+02 8.880000000000000000e+02 8.890000000000000000e+02 8.900000000000000000e+02 8.910000000000000000e+02 8.920000000000000000e+02 8.930000000000000000e+02 8.940000000000000000e+02 8.950000000000000000e+02 8.960000000000000000e+02 8.970000000000000000e+02 8.980000000000000000e+02 8.990000000000000000e+02 9.000000000000000000e+02 9.010000000000000000e+02 9.020000000000000000e+02 9.030000000000000000e+02 9.040000000000000000e+02 9.050000000000000000e+02 9.060000000000000000e+02 9.070000000000000000e+02 9.080000000000000000e+02 9.090000000000000000e+02 9.100000000000000000e+02 9.110000000000000000e+02 9.120000000000000000e+02 9.130000000000000000e+02 9.140000000000000000e+02 9.150000000000000000e+02 9.160000000000000000e+02 9.170000000000000000e+02 9.180000000000000000e+02 9.190000000000000000e+02 9.200000000000000000e+02 9.210000000000000000e+02 9.220000000000000000e+02 9.230000000000000000e+02 9.240000000000000000e+02 9.250000000000000000e+02 9.260000000000000000e+02 9.270000000000000000e+02 9.280000000000000000e+02 9.290000000000000000e+02 9.300000000000000000e+02 9.310000000000000000e+02 9.320000000000000000e+02 9.330000000000000000e+02 9.340000000000000000e+02 9.350000000000000000e+02 9.360000000000000000e+02 9.370000000000000000e+02 9.380000000000000000e+02 9.390000000000000000e+02 9.400000000000000000e+02 9.410000000000000000e+02 9.420000000000000000e+02 9.430000000000000000e+02 9.440000000000000000e+02 9.450000000000000000e+02 9.460000000000000000e+02 9.470000000000000000e+02 9.480000000000000000e+02 9.490000000000000000e+02 9.500000000000000000e+02 9.510000000000000000e+02 9.520000000000000000e+02 9.530000000000000000e+02 9.540000000000000000e+02 9.550000000000000000e+02 9.560000000000000000e+02 9.570000000000000000e+02 9.580000000000000000e+02 9.590000000000000000e+02 9.600000000000000000e+02 9.610000000000000000e+02 9.620000000000000000e+02 9.630000000000000000e+02 9.640000000000000000e+02 9.650000000000000000e+02 9.660000000000000000e+02 9.670000000000000000e+02 9.680000000000000000e+02 9.690000000000000000e+02 9.700000000000000000e+02 9.710000000000000000e+02 9.720000000000000000e+02 9.730000000000000000e+02 9.740000000000000000e+02 9.750000000000000000e+02 9.760000000000000000e+02 9.770000000000000000e+02 9.780000000000000000e+02 9.790000000000000000e+02 9.800000000000000000e+02 9.810000000000000000e+02 9.820000000000000000e+02 9.830000000000000000e+02 9.840000000000000000e+02 9.850000000000000000e+02 9.860000000000000000e+02 9.870000000000000000e+02 9.880000000000000000e+02 9.890000000000000000e+02 9.900000000000000000e+02 9.910000000000000000e+02 9.920000000000000000e+02 9.930000000000000000e+02 9.940000000000000000e+02 9.950000000000000000e+02 9.960000000000000000e+02 9.970000000000000000e+02 9.980000000000000000e+02 9.990000000000000000e+02 1.000000000000000000e+03
1.000000000000000021e-02 1.000000000000000021e-02 1.000000000000000021e-02 1.000000000000000021e-02 1.000000000000000021e-02 1.000000000000000021e-02 1.000000000000000021e-02 1.000000000000000021e-02 1.000000000000000021e-02 1.000000000000000021e-02 1.000000000000000021e-02 1.000000000000000021e-02 1.000000000000000021e-02 1.000000000000000021e-02 1.000000000000000021e-02 1.000000000000000021e-02 1.000000000000000021e-02 1.000000000000000021e-02 1.000000000000000021e-02 1.000000000000000021e-02 1.000000000000000021e-02 1.000000000000000021e-02 1.000000000000000021e-02 1.000000000000000021e-02 1.000000000000000021e-02 1.000000000000000021e-02 1.000000000000000021e-02 1.000000000000000021e-02 1.000000000000000021e-02 1.000000000000000021e-02 1.000000000000000021e-02 1.000000000000000021e-02 1.000000000000000021e-02 1.000000000000000021e-02 1.000000000000000021e-02 1.000000000000000021e-02 1.000000000000000021e-02 1.000000000000000021e-02 1.000000000000000021e-02 1.000000000000000021e-02 1.000000000000000021e-02 1.000000000000000021e-02 1.000000000000000021e-02 1.000000000000000021e-02 1.000000000000000021e-02 1.000000000000000021e-02 1.000000000000000021e-02 1.000000000000000021e-02 1.000000000000000021e-02 1.000000000000000021e-02 1.000000000000000021e-02 1.000000000000000021e-02 1.000000000000000021e-02 1.000000000000000021e-02 1.000000000000000021e-02 1.000000000000000021e-02 1.000000000000000021e-02 1.000000000000000021e-02 1.000000000000000021e-02 1.000000000000000021e-02 1.000000000000000021e-02 1.000000000000000021e-02 1.000000000000000021e-02 1.000000000000000021e-02 1.000000000000000021e-02 1.000000000000000021e-02 1.000000000000000021e-02 1.000000000000000021e-02 1.000000000000000021e-02 1.000000000000000021e-02 1.000000000000000021e-02 1.000000000000000021e-02 1.000000000000000021e-02 1.000000000000000021e-02 1.000000000000000021e-02 1.000000000000000021e-02 1.000000000000000021e-02 1.000000000000000021e-02 1.000000000000000021e-02 1.000000000000000021e-02 1.000000000000000021e-02 1.000000000000000021e-02 1.000000000000000021e-02 1.000000000000000021e-02 1.000000000000000021e-02 1.000000000000000021e-02 1.000000000000000021e-02 1.000000000000000021e-02 1.000000000000000021e-02 1.000000000000000021e-02 1.000000000000000021e-02 1.000000000000000021e-02 1.000000000000000021e-02 1.000000000000000021e-02 1.000000000000000021e-02 1.000000000000000021e-02 1.000000000000000021e-02 1.000000000000000021e-02 1.000000000000000021e-02 1.000000000000000021e-02 1.000000000000000021e-02 1.000000000000000021e-02 1.000000000000000021e-02 1.000000000000000021e-02 1.000000000000000021e-02 1.000000000000000021e-02 1.000000000000000021e-02 1.000000000000000021e-02 1.000000000000000021e-02 1.000000000000000021e-02 1.000000000000000021e-02 1.000000000000000021e-02 1.000000000000000021e-02 1.000000000000000021e-02 1.000000000000000021e-02 1.000000000000000021e-02 1.000000000000000021e-02 1.000000000000000021e-02 1.000000000000000021e-02 1.000000000000000021e-02 1.000000000000000021e-02 1.000000000000000021e-02 1.000000000000000021e-02 1.000000000000000021e-02 1.000000000000000021e-02 1.000000000000000021e-02 1.000000000000000021e-02 1.000000000000000021e-02 1.000000000000000021e-02 1.000000000000000021e-02 1.000000000000000021e-02 1.000000000000000021e-02 1.000000000000000021e-02 1.000000000000000021e-02 1.000000000000000021e-02 1.000000000000000021e-02 1.000000000000000021e-02 1.000000000000000021e-02 1.000000000000000021e-02 1.000000000000000021e-02 1.000000000000000021e-02 1.000000000000000021e-02 1.000000000000000021e-02 1.000000000000000021e-02 1.000000000000000021e-02 1.000000000000000021e-02 1.000000000000000021e-02 1.000000000000000021e-02 1.000000000000000021e-02 1.000000000000000021e-02 1.000000000000000021e-02 1.000000000000000021e-02 1.000000000000000021e-02 1.000000000000000021e-02 1.000000000000000021e-02 1.000000000000000021e-02 1.000000000000000021e-02 1.000000000000000021e-02 1.000000000000000021e-02 1.000000000000000021e-02 1.000000000000000021e-02 1.000000000000000021e-02 1.000000000000000021e-02 1.000000000000000021e-02 1.000000000000000021e-02 1.000000000000000021e-02 1.000000000000000021e-02 1.000000000000000021e-02 1.000000000000000021e-02 1.000000000000000021e-02 1.000000000000000021e-02 1.000000000000000021e-02 1.000000000000000021e-02 1.000000000000000021e-02 1.000000000000000021e-02 1.000000000000000021e-02 1.000000000000000021e-02 1.000000000000000021e-02 1.000000000000000021e-02 1.000000000000000021e-02 1.000000000000000021e-02 1.000000000000000021e-02 1.000000000000000021e-02 1.000000000000000021e-02 1.000000000000000021e-02 1.000000000000000021e-02 1.000000000000000021e-02 1.000000000000000021e-02 1.000000000000000021e-02 1.000000000000000021e-02 1.000000000000000021e-02 1.000000000000000021e-02 1.000000000000000021e-02 1.000000000000000021e-02 1.000000000000000021e-02 1.000000000000000021e-02 1.000000000000000021e-02 1.000000000000000021e-02 1.000000000000000021e-02 1.000000000000000021e-02 1.000000000000000021e-02 1.000000000000000021e-02 1.000000000000000021e-02 1.000000000000000021e-02 1.000000000000000021e-02 1.000000000000000021e-02 1.000000000000000021e-02 1.000000000000000021e-02 1.000000000000000021e-02 1.000000000000000021e-02 1.000000000000000021e-02 1.000000000000000021e-02 1.000000000000000021e-02 1.000000000000000021e-02 1.000000000000000021e-02 1.000000000000000021e-02 1.000000000000000021e-02 1.000000000000000021e-02 1.000000000000000021e-02 1.000000000000000021e-02 1.000000000000000021e-02 1.000000000000000021e-02 1.000000000000000021e-02 1.000000000000000021e-02 1.000000000000000021e-02 1.000000000000000021e-02 1.000000000000000021e-02 1.000000000000000021e-02 1.000000000000000021e-02 1.000000000000000021e-02 1.000000000000000021e-02 1.000000000000000021e-02 1.000000000000000021e-02 1.000000000000000021e-02 1.000000000000000021e-02 1.000000000000000021e-02 1.000000000000000021e-02 1.000000000000000021e-02 1.000000000000000021e-02 1.000000000000000021e-02 1.000000000000000021e-02 1.000000000000000021e-02 1.000000000000000021e-02 1.000000000000000021e-02 1.000000000000000021e-02 1.000000000000000021e-02 1.000000000000000021e-02 1.000000000000000021e-02 1.000000000000000021e-02 1.000000000000000021e-02 1.000000000000000021e-02 1.000000000000000021e-02 1.000000000000000021e-02 1.000000000000000021e-02 1.000000000000000021e-02 1.000000000000000021e-02 1.000000000000000021e-02 1.000000000000000021e-02 1.000000000000000021e-02 1.000000000000000021e-02 1.000000000000000021e-02 1.000000000000000021e-02 1.000000000000000021e-02 1.000000000000000021e-02 1.000000000000000021e-02 1.000000000000000021e-02 1.000000000000000021e-02 1.000000000000000021e-02 1.000000000000000021e-02 1.000000000000000021e-02 1.000000000000000021e-02 1.000000000000000021e-02 1.000000000000000021e-02 1.000000000000000021e-02 1.000000000000000021e-02 1.000000000000000021e-02 1.000000000000000021e-02 1.000000000000000021e-02 1.000000000000000021e-02 1.000000000000000021e-02 1.000000000000000021e-02 1.000000000000000021e-02 1.000000000000000021e-02 1.000000000000000021e-02 1.000000000000000021e-02 1.000000000000000021e-02 1.000000000000000021e-02 1.000000000000000021e-02 1.000000000000000021e-02 1.000000000000000021e-02 1.000000000000000021e-02 1.000000000000000021e-02 1.000000000000000021e-02 1.000000000000000021e-02 1.000000000000000021e-02 1.000000000000000021e-02 1.000000000000000021e-02 1.000000000000000021e-02 1.000000000000000021e-02 1.000000000000000021e-02 1.000000000000000021e-02 1.000000000000000021e-02 1.000000000000000021e-02 1.000000000000000021e-02 1.000000000000000021e-02 1.000000000000000021e-02 1.000000000000000021e-02 1.000000000000000021e-02 1.000000000000000021e-02 1.000000000000000021e-02 1.000000000000000021e-02 1.000000000000000021e-02 1.000000000000000021e-02 1.000000000000000021e-02 1.000000000000000021e-02 1.000000000000000021e-02 1.000000000000000021e-02 1.000000000000000021e-02 1.000000000000000021e-02 1.000000000000000021e-02 1.000000000000000021e-02 1.000000000000000021e-02 1.000000000000000021e-02 1.000000000000000021e-02 1.000000000000000021e-02 1.000000000000000021e-02 1.000000000000000021e-02 1.000000000000000021e-02 1.000000000000000021e-02 1.000000000000000021e-02 1.000000000000000021e-02 1.000000000000000021e-02 1.000000000000000021e-02 1.000000000000000021e-02 1.000000000000000021e-02 1.000000000000000021e-02 1.000000000000000021e-02 1.000000000000000021e-02 1.000000000000000021e-02 1.000000000000000021e-02 1.000000000000000021e-02 1.000000000000000021e-02 1.000000000000000021e-02 1.000000000000000021e-02 1.000000000000000021e-02 1.000000000000000021e-02 1.000000000000000021e-02 1.000000000000000021e-02 1.000000000000000021e-02 1.000000000000000021e-02 1.000000000000000021e-02 1.000000000000000021e-02 1.000000000000000021e-02 1.000000000000000021e-02 1.000000000000000021e-02 1.000000000000000021e-02 1.000000000000000021e-02 1.000000000000000021e-02 1.000000000000000021e-02 1.000000000000000021e-02 1.000000000000000021e-02 1.000000000000000021e-02 1.000000000000000021e-02 1.000000000000000021e-02 1.000000000000000021e-02 1.000000000000000021e-02 1.000000000000000021e-02 1.000000000000000021e-02 1.000000000000000021e-02 1.000000000000000021e-02 1.000000000000000021e-02 1.000000000000000021e-02 1.000000000000000021e-02 1.000000000000000021e-02 1.000000000000000021e-02 1.000000000000000021e-02 1.000000000000000021e-02 1.000000000000000021e-02 1.000000000000000021e-02 1.000000000000000021e-02 1.000000000000000021e-02 1.000000000000000021e-02 1.000000000000000021e-02 1.000000000000000021e-02 1.000000000000000021e-02 1.000000000000000021e-02 1.000000000000000021e-02 1.000000000000000021e-02 1.000000000000000021e-02 1.000000000000000021e-02 1.000000000000000021e-02 1.000000000000000021e-02 1.000000000000000021e-02 1.000000000000000021e-02 1.000000000000000021e-02 1.000000000000000021e-02 1.000000000000000021e-02 1.000000000000000021e-02 1.000000000000000021e-02 1.000000000000000021e-02 1.000000000000000021e-02 1.000000000000000021e-02 1.000000000000000021e-02 1.000000000000000021e-02 1.000000000000000021e-02 1.000000000000000021e-02 1.000000000000000021e-02 1.000000000000000021e-02 1.000000000000000021e-02 1.000000000000000021e-02 1.000000000000000021e-02 1.000000000000000021e-02 1.000000000000000021e-02 1.000000000000000021e-02 1.000000000000000021e-02 1.000000000000000021e-02 1.000000000000000021e-02 1.000000000000000021e-02 1.000000000000000021e-02 1.000000000000000021e-02 1.000000000000000021e-02 1.000000000000000021e-02 1.000000000000000021e-02 1.000000000000000021e-02 1.000000000000000021e-02 1.000000000000000021e-02 1.000000000000000021e-02 1.000000000000000021e-02 1.000000000000000021e-02 1.000000000000000021e-02 1.000000000000000021e-02 1.000000000000000021e-02 1.000000000000000021e-02 1.000000000000000021e-02 1.000000000000000021e-02 1.000000000000000021e-02 1.000000000000000021e-02 1.000000000000000021e-02 1.000000000000000021e-02 1.000000000000000021e-02 1.000000000000000021e-02 1.000000000000000021e-02 1.000000000000000021e-02 1.000000000000000021e-02 1.000000000000000021e-02 1.000000000000000021e-02 1.000000000000000021e-02 1.000000000000000021e-02 1.000000000000000021e-02 1.000000000000000021e-02 1.000000000000000021e-02 1.000000000000000021e-02 1.000000000000000021e-02 1.000000000000000021e-02 1.000000000000000021e-02 1.000000000000000021e-02 1.000000000000000021e-02 1.000000000000000021e-02 1.000000000000000021e-02 1.000000000000000021e-02 1.000000000000000021e-02 1.000000000000000021e-02 1.000000000000000021e-02 1.000000000000000021e-02 1.000000000000000021e-02 1.000000000000000021e-02 1.000000000000000021e-02 1.000000000000000021e-02 1.000000000000000021e-02 1.000000000000000021e-02 1.000000000000000021e-02 1.000000000000000021e-02 1.000000000000000021e-02 1.000000000000000021e-02 1.000000000000000021e-02 1.000000000000000021e-02 1.000000000000000021e-02 1.000000000000000021e-02 1.000000000000000021e-02 1.000000000000000021e-02 1.000000000000000021e-02 1.000000000000000021e-02 1.000000000000000021e-02 1.000000000000000021e-02 1.000000000000000021e-02 1.000000000000000021e-02 1.000000000000000021e-02 1.000000000000000021e-02 1.000000000000000021e-02 1.000000000000000021e-02 1.000000000000000021e-02 1.000000000000000021e-02 1.000000000000000021e-02 1.000000000000000021e-02 1.000000000000000021e-02 1.000000000000000021e-02 1.000000000000000021e-02 1.000000000000000021e-02 1.000000000000000021e-02 1.000000000000000021e-02 1.000000000000000021e-02 1.000000000000000021e-02 1.000000000000000021e-02 1.000000000000000021e-02 1.000000000000000021e-02 1.000000000000000021e-02 1.000000000000000021e-02 1.000000000000000021e-02 1.000000000000000021e-02 1.000000000000000021e-02 1.000000000000000021e-02 1.000000000000000021e-02 1.000000000000000021e-02 1.000000000000000021e-02 1.000000000000000021e-02 1.000000000000000021e-02 1.000000000000000021e-02 1.000000000000000021e-02 1.000000000000000021e-02 1.000000000000000021e-02 1.000000000000000021e-02 1.000000000000000021e-02 1.000000000000000021e-02 1.000000000000000021e-02 1.000000000000000021e-02 1.000000000000000021e-02 1.000000000000000021e-02 1.000000000000000021e-02 1.000000000000000021e-02 1.000000000000000021e-02 1.000000000000000021e-02 1.000000000000000021e-02 1.000000000000000021e-02 1.000000000000000021e-02 1.000000000000000021e-02 1.000000000000000021e-02 1.000000000000000021e-02 1.000000000000000021e-02 1.000000000000000021e-02 1.000000000000000021e-02 1.000000000000000021e-02 1.000000000000000021e-02 1.000000000000000021e-02 1.000000000000000021e-02 1.000000000000000021e-02 1.000000000000000021e-02 1.000000000000000021e-02 1.000000000000000021e-02 1.000000000000000021e-02 1.000000000000000021e-02 1.000000000000000021e-02 1.000000000000000021e-02 1.000000000000000021e-02 1.000000000000000021e-02 1.000000000000000021e-02 1.000000000000000021e-02 1.000000000000000021e-02 1.000000000000000021e-02 1.000000000000000021e-02 1.000000000000000021e-02 1.000000000000000021e-02 1.000000000000000021e-02 1.000000000000000021e-02 1.000000000000000021e-02 1.000000000000000021e-02 1.000000000000000021e-02 1.000000000000000021e-02 1.000000000000000021e-02 1.000000000000000021e-02 1.000000000000000021e-02 1.000000000000000021e-02 1.000000000000000021e-02 1.000000000000000021e-02 1.000000000000000021e-02 1.000000000000000021e-02 1.000000000000000021e-02 1.000000000000000021e-02 1.000000000000000021e-02 1.000000000000000021e-02 1.000000000000000021e-02 1.000000000000000021e-02 1.000000000000000021e-02 1.000000000000000021e-02 1.000000000000000021e-02 1.000000000000000021e-02 1.000000000000000021e-02 1.000000000000000021e-02 1.000000000000000021e-02 1.000000000000000021e-02 1.000000000000000021e-02 1.000000000000000021e-02 1.000000000000000021e-02 1.000000000000000021e-02 1.000000000000000021e-02 1.000000000000000021e-02 1.000000000000000021e-02 1.000000000000000021e-02 1.000000000000000021e-02 1.000000000000000021e-02 1.000000000000000021e-02 1.000000000000000021e-02 1.000000000000000021e-02 1.000000000000000021e-02 1.000000000000000021e-02 1.000000000000000021e-02 1.000000000000000021e-02 1.000000000000000021e-02 1.000000000000000021e-02 1.000000000000000021e-02 1.000000000000000021e-02 1.000000000000000021e-02 1.000000000000000021e-02 1.000000000000000021e-02 1.000000000000000021e-02 1.000000000000000021e-02 1.000000000000000021e-02 1.000000000000000021e-02 1.000000000000000021e-02 1.000000000000000021e-02 1.000000000000000021e-02 1.000000000000000021e-02 1.000000000000000021e-02 1.000000000000000021e-02 1.000000000000000021e-02 1.000000000000000021e-02 1.000000000000000021e-02 1.000000000000000021e-02 1.000000000000000021e-02 1.000000000000000021e-02 1.000000000000000021e-02 1.000000000000000021e-02 1.000000000000000021e-02 1.000000000000000021e-02 1.000000000000000021e-02 1.000000000000000021e-02 1.000000000000000021e-02 1.000000000000000021e-02 1.000000000000000021e-02 1.000000000000000021e-02 1.000000000000000021e-02 1.000000000000000021e-02 1.000000000000000021e-02 1.000000000000000021e-02 1.000000000000000021e-02 1.000000000000000021e-02 1.000000000000000021e-02 1.000000000000000021e-02 1.000000000000000021e-02 1.000000000000000021e-02 1.000000000000000021e-02 1.000000000000000021e-02 1.000000000000000021e-02 1.000000000000000021e-02 1.000000000000000021e-02 1.000000000000000021e-02 1.000000000000000021e-02 1.000000000000000021e-02 1.000000000000000021e-02 1.000000000000000021e-02 1.000000000000000021e-02 1.000000000000000021e-02 1.000000000000000021e-02 1.000000000000000021e-02 1.000000000000000021e-02 1.000000000000000021e-02 1.000000000000000021e-02 1.000000000000000021e-02 1.000000000000000021e-02 1.000000000000000021e-02 1.000000000000000021e-02 1.000000000000000021e-02 1.000000000000000021e-02 1.000000000000000021e-02 1.000000000000000021e-02 1.000000000000000021e-02 1.000000000000000021e-02 1.000000000000000021e-02 1.000000000000000021e-02 1.000000000000000021e-02 1.000000000000000021e-02 1.000000000000000021e-02 1.000000000000000021e-02 1.000000000000000021e-02 1.000000000000000021e-02 1.000000000000000021e-02 1.000000000000000021e-02 1.000000000000000021e-02 1.000000000000000021e-02 1.000000000000000021e-02 1.000000000000000021e-02 1.000000000000000021e-02 1.000000000000000021e-02 1.000000000000000021e-02 1.000000000000000021e-02 1.000000000000000021e-02 1.000000000000000021e-02 1.000000000000000021e-02 1.000000000000000021e-02 1.000000000000000021e-02 1.000000000000000021e-02 1.000000000000000021e-02 1.000000000000000021e-02 1.000000000000000021e-02 1.000000000000000021e-02 1.000000000000000021e-02 1.000000000000000021e-02 1.000000000000000021e-02 1.000000000000000021e-02 1.000000000000000021e-02 1.000000000000000021e-02 1.000000000000000021e-02 1.000000000000000021e-02 1.000000000000000021e-02 1.000000000000000021e-02 1.000000000000000021e-02 1.000000000000000021e-02 1.000000000000000021e-02 1.000000000000000021e-02 1.000000000000000021e-02 1.000000000000000021e-02 1.000000000000000021e-02 1.000000000000000021e-02 1.000000000000000021e-02 1.000000000000000021e-02 1.000000000000000021e-02 1.000000000000000021e-02 1.000000000000000021e-02 1.000000000000000021e-02 1.000000000000000021e-02 1.000000000000000021e-02 1.000000000000000021e-02 1.000000000000000021e-02 1.000000000000000021e-02 1.000000000000000021e-02 1.000000000000000021e-02 1.000000000000000021e-02 1.000000000000000021e-02 1.000000000000000021e-02 1.000000000000000021e-02 1.000000000000000021e-02 1.000000000000000021e-02 1.000000000000000021e-02 1.000000000000000021e-02 1.000000000000000021e-02 1.000000000000000021e-02 1.000000000000000021e-02 1.000000000000000021e-02 1.000000000000000021e-02 1.000000000000000021e-02 1.000000000000000021e-02 1.000000000000000021e-02 1.000000000000000021e-02 1.000000000000000021e-02 1.000000000000000021e-02 1.000000000000000021e-02 1.000000000000000021e-02 1.000000000000000021e-02 1.000000000000000021e-02 1.000000000000000021e-02 1.000000000000000021e-02 1.000000000000000021e-02 1.000000000000000021e-02 1.000000000000000021e-02 1.000000000000000021e-02 1.000000000000000021e-02 1.000000000000000021e-02 1.000000000000000021e-02 1.000000000000000021e-02 1.000000000000000021e-02 1.000000000000000021e-02 1.000000000000000021e-02 1.000000000000000021e-02 1.000000000000000021e-02 1.000000000000000021e-02 1.000000000000000021e-02 1.000000000000000021e-02 1.000000000000000021e-02 1.000000000000000021e-02 1.000000000000000021e-02 1.000000000000000021e-02 1.000000000000000021e-02 1.000000000000000021e-02 1.000000000000000021e-02 1.000000000000000021e-02 1.000000000000000021e-02 1.000000000000000021e-02 1.000000000000000021e-02 1.000000000000000021e-02 1.000000000000000021e-02 1.000000000000000021e-02 1.000000000000000021e-02 1.000000000000000021e-02 1.000000000000000021e-02 1.000000000000000021e-02 1.000000000000000021e-02 1.000000000000000021e-02 1.000000000000000021e-02 1.000000000000000021e-02 1.000000000000000021e-02 1.000000000000000021e-02 1.000000000000000021e-02 1.000000000000000021e-02 1.000000000000000021e-02 1.000000000000000021e-02 1.000000000000000021e-02 1.000000000000000021e-02 1.000000000000000021e-02 1.000000000000000021e-02 1.000000000000000021e-02 1.000000000000000021e-02 1.000000000000000021e-02 1.000000000000000021e-02 1.000000000000000021e-02 1.000000000000000021e-02 1.000000000000000021e-02 1.000000000000000021e-02 1.000000000000000021e-02 1.000000000000000021e-02 1.000000000000000021e-02 1.000000000000000021e-02 1.000000000000000021e-02 1.000000000000000021e-02 1.000000000000000021e-02 1.000000000000000021e-02 1.000000000000000021e-02 1.000000000000000021e-02 1.000000000000000021e-02 1.000000000000000021e-02 1.000000000000000021e-02 1.000000000000000021e-02 1.000000000000000021e-02 1.000000000000000021e-02 1.000000000000000021e-02 1.000000000000000021e-02 1.000000000000000021e-02 1.000000000000000021e-02 1.000000000000000021e-02 1.000000000000000021e-02 1.000000000000000021e-02 1.000000000000000021e-02 1.000000000000000021e-02 1.000000000000000021e-02 1.000000000000000021e-02 1.000000000000000021e-02 1.000000000000000021e-02 1.000000000000000021e-02 1.000000000000000021e-02 1.000000000000000021e-02 1.000000000000000021e-02 1.000000000000000021e-02 1.000000000000000021e-02 1.000000000000000021e-02 1.000000000000000021e-02 1.000000000000000021e-02 1.000000000000000021e-02 1.000000000000000021e-02 1.000000000000000021e-02 1.000000000000000021e-02 1.000000000000000021e-02 1.000000000000000021e-02 1.000000000000000021e-02 1.000000000000000021e-02 1.000000000000000021e-02 1.000000000000000021e-02 1.000000000000000021e-02 1.000000000000000021e-02 1.000000000000000021e-02 1.000000000000000021e-02 1.000000000000000021e-02 1.000000000000000021e-02 1.000000000000000021e-02 1.000000000000000021e-02 1.000000000000000021e-02 1.000000000000000021e-02 1.000000000000000021e-02 1.000000000000000021e-02 1.000000000000000021e-02 1.000000000000000021e-02 1.000000000000000021e-02 1.000000000000000021e-02 1.000000000000000021e-02 1.000000000000000021e-02 1.000000000000000021e-02 1.000000000000000021e-02 1.000000000000000021e-02 1.000000000000000021e-02 1.000000000000000021e-02 1.000000000000000021e-02 1.000000000000000021e-02 1.000000000000000021e-02 1.000000000000000021e-02 1.000000000000000021e-02 1.000000000000000021e-02 1.000000000000000021e-02 1.000000000000000021e-02 1.000000000000000021e-02 1.000000000000000021e-02 1.000000000000000021e-02 1.000000000000000021e-02 1.000000000000000021e-02 1.000000000000000021e-02 1.000000000000000021e-02 1.000000000000000021e-02 1.000000000000000021e-02 1.000000000000000021e-02 1.000000000000000021e-02 1.000000000000000021e-02 1.000000000000000021e-02 1.000000000000000021e-02 1.000000000000000021e-02 1.000000000000000021e-02 1.000000000000000021e-02 1.000000000000000021e-02 1.000000000000000021e-02 1.000000000000000021e-02 1.000000000000000021e-02 1.000000000000000021e-02 1.000000000000000021e-02 1.000000000000000021e-02 1.000000000000000021e-02 1.000000000000000021e-02 1.000000000000000021e-02 1.000000000000000021e-02 1.000000000000000021e-02 1.000000000000000021e-02 1.000000000000000021e-02 1.000000000000000021e-02 1.000000000000000021e-02 1.000000000000000021e-02 1.000000000000000021e-02 1.000000000000000021e-02 1.000000000000000021e-02 1.000000000000000021e-02 1.000000000000000021e-02 1.000000000000000021e-02 1.000000000000000021e-02 1.000000000000000021e-02 1.000000000000000021e-02 1.000000000000000021e-02 1.000000000000000021e-02 1.000000000000000021e-02 1.000000000000000021e-02 1.000000000000000021e-02 1.000000000000000021e-02 1.000000000000000021e-02 1.000000000000000021e-02 1.000000000000000021e-02 1.000000000000000021e-02 1.000000000000000021e-02 1.000000000000000021e-02 1.000000000000000021e-02 1.000000000000000021e-02 1.000000000000000021e-02 1.000000000000000021e-02 1.000000000000000021e-02 1.000000000000000021e-02 1.000000000000000021e-02 1.000000000000000021e-02 1.000000000000000021e-02 1.000000000000000021e-02 1.000000000000000021e-02 1.000000000000000021e-02 1.000000000000000021e-02 1.000000000000000021e-02 1.000000000000000021e-02 1.000000000000000021e-02 1.000000000000000021e-02 1.000000000000000021e-02 1.000000000000000021e-02 1.000000000000000021e-02 1.000000000000000021e-02 1.000000000000000021e-02 1.000000000000000021e-02 1.000000000000000021e-02 1.000000000000000021e-02 1.000000000000000021e-02 1.000000000000000021e-02 1.000000000000000021e-02 1.000000000000000021e-02 1.000000000000000021e-02 1.000000000000000021e-02 1.000000000000000021e-02 1.000000000000000021e-02 1.000000000000000021e-02 1.000000000000000021e-02 1.000000000000000021e-02 1.000000000000000021e-02 1.000000000000000021e-02 1.000000000000000021e-02 1.000000000000000021e-02 1.000000000000000021e-02 1.000000000000000021e-02 1.000000000000000021e-02 1.000000000000000021e-02 1.000000000000000021e-02 1.000000000000000021e-02 1.000000000000000021e-02 1.000000000000000021e-02 1.000000000000000021e-02 1.000000000000000021e-02
-1.044220216624138544e+02 1.589491203965590103e+02 3.676184371740944101e+01 -8.249687965878173657e+00 -8.227930096458530329e+01 -1.253401144191663974e+01 -1.947877942880012085e+02 6.824730267144122342e-01 -7.928839117111181167e+01 -1.335798613251274247e+01 -1.860731902923325265e+01 6.164041335148620959e+00 -1.671025943929330237e+00 1.571393129239035886e+02 7.926827953184913156e+01 -3.639608232570544999e+01 -4.954106233697441297e+01 7.419246861441264684e+01 3.075964035249474549e+01 -2.378908017551023946e+01 -7.381679316681461955e+01 -6.908248855435300584e+01 -1.290242182385435399e+01 2.709897058250322388e+01 -1.825409837152893999e+02 -9.243065966783400711e+01 -2.444710518067752858e+01 1.888087170765870439e+02 6.627592185740897435e+01 7.193244493820303376e+01 7.522344175340241179e+01 1.100634066419390544e+00 -7.438648210210516254e+01 1.944272430534927878e+02 -2.294499281960741257e+02 5.521053276773614016e+01 -1.124336057252950809e+02 -3.250716765134644959e+01 3.787973213332872735e+00 1.186992200566609768e+02 -1.150877788801873152e+02 -1.273143694144646787e+01 7.240832166511734158e+01 1.626464985277729625e+02 6.678546690585814360e+01 -6.399948339521190377e+01 3.851320400199600869e+01 -2.662038764413370373e+01 -6.188220779314263353e+01 1.466653569525255421e+02 -6.595747922732937241e+01 -4.876933748924440692e+01 -1.306326851891001013e+02 5.519759436372146055e+00 -4.729993417617119889e+01 3.624740137952804275e+01 -8.312735696886413450e+01 -4.686973235282717809e+01 -9.500043646118302831e+01 -1.456491986567165782e+02 1.815120641706596061e+01 4.258461784518895854e+01 -1.153644220661138888e+02 1.202892747993885258e+01 -7.421724823141050820e+01 4.602833941951129049e+01 1.562105041052752767e+02 -1.351889235022197795e+02 -4.053976586642217228e+01 6.792370253228779298e+00 2.765667726149677819e+00 3.972863425847672403e+01 7.868091786808005850e+01 6.717642096569766963e-01 -8.314662392883599651e+00 -6.556903825795120611e+01 7.329061587092083130e+01 -3.060571968342316040e+01 2.466510008283144728e+01 9.747751233407541349e+01 8.259910872916006497e+01 -4.009193514462706531e+01 5.406476137120095871e+01 1.381183831275141358e+02 1.088984885131434481e+02 -3.713539747538804559e+00 1.631693237866803656e+02 -1.045092243367853087e+02 3.871359692477502890e+00 -3.929478208441985743e+01 1.937473792783777355e+02 -1.988531434730647263e+01 2.737369522234102792e+00 -7.194126137035664215e+01 -6.715132789698730065e+00 -5.975799383065595549e+01 6.352937849579489438e+01 -8.860891444307017650e+01 6.437089506375841097e+01 -4.478295592261505220e+01 -4.658913734404269036e+01 -8.589609545035709459e+01 4.967976473612363009e+01 -5.119305267033782059e+01 -1.399019994616842553e+02 -7.441731485913713584e+01 -9.799194477249508850e+01 -1.473027433533236774e+02 1.273296117612771496e+02 -2.566361134022949386e+01 3.003878714197044530e+01 8.400749324057919409e+01 -9.743696131381821601e+01 5.332841454171694551e+01 -4.057615378403388462e+01 -6.510558482424221438e+01 -8.450161803244014891e+01 1.903109171115764866e+02 -5.315048199297169162e+01 -4.642772470763422632e+01 -4.414222361192386046e+01 7.531216887672296423e+01 -3.882486082781464631e+01 1.292219431694543061e+02 -4.683718876308240198e+01 5.170216506396033651e+01 4.257702097268162511e+00 -7.590593210914707356e+01 6.440042808276461983e+01 2.599216532560028554e+02 -8.630988905427832947e+01 4.445322426056393539e+01 -7.151524614639525623e+01 4.240477573867149630e+01 1.229637269163761886e+02 -4.824665861766818153e+01 1.372956133156832514e+01 -2.527915576325843361e+01 -9.558272099024488000e+01 -1.632622076058501293e+01 4.071879146217328049e+00 -7.307150605508225816e+00 -1.398792682055164072e+01 1.107510384986476453e+02 1.222847384828782111e+02 1.748536076914284365e+02 -2.854242578858654156e+02 3.580663455864730338e+01 -1.481730264111731721e+01 -5.844440592724638606e+01 1.691436953465286308e+02 7.134545210016074179e+01 -2.495270613570180984e+00 -1.087100790450666921e+02 -1.017476127886635062e+01 9.389453392863745762e+01 -1.259978925293427352e+02 -1.581430323610899222e+02 1.007505247725923070e+01 3.977365004542469507e+01 -5.728478917397184489e+01 3.944930293973069979e+01 -1.004585396557473871e+02 -1.419460810921174243e+02 1.976020812775338342e+01 4.558133465411894747e+01 4.549463467378446424e+00 -7.825381108311047740e+01 -8.782565231852792920e+01 -7.905946009900871729e+01 -8.219486608380196913e+01 1.192433654333874493e+01 5.332730423945422871e+01 1.094266224033573565e+02 7.456673499703018138e+01 8.410039389697917045e+01 1.010198595526437089e+02 -7.024532873273241762e+01 -7.750988992281830292e+01 6.627696896978363839e+01 6.452139714812486204e+01 5.567761179440325492e+01 -8.809416695864712210e+00 -8.563990405236543779e+01 5.079949791409766391e+01 -1.685868248551200566e+02 6.324291540194985117e+01 -4.185867660705412163e+01 -9.074577320994954732e+01 6.987494442816297635e+01 -1.619522172026287521e+01 -7.258282955947726123e+01 -5.407507379763868016e+01 -8.668037306567473621e+00 2.287743910033571808e+02 7.261222037693190146e+01 5.172299671141065858e+01 -9.791329968309943865e+01 1.398857770957450555e+02 1.036309135725907105e+00 -8.524684339681186884e+01 1.471162462231875452e+02 -1.455015844572127151e+02 1.490243349077908874e+01 -3.067606298809118215e+01 -2.098762184464077620e+02 -1.272489938221320642e+02 -8.325151991106616833e+01 -2.814558237654253148e+01 -1.137667917386305163e+02 5.500299598998543615e+01 6.206928144536556857e+01 -2.638413830577991348e+01 -9.531604020694595647e+01 1.079668419695585300e+02 1.127696559696406240e+02 4.411317774627762844e+01 1.675608114811047145e+01 2.497073504009257476e+02 4.167273639177248867e+01 -1.142402674830804443e+02 -4.310122028001623562e+01 -1.612593859834688885e+02 3.045646173141035717e+01 1.464291269010273311e+02 -1.416148931764573433e+02 1.258949726991334614e+02 -8.694057690859887089e+01 -1.813072502318719614e+01 -8.241414253388511524e-01 5.057217284819749636e+01 -1.103713995332215170e+01 -2.185524863518039140e+01 -1.790892109501518092e+01 -1.213014969727480263e+02 4.434215953568850921e+01 -2.899002716001205471e+01 -1.230559117093596377e+01 -1.026388302625268878e+01 2.161596827891816588e+02 1.667506790499422777e+02 2.225443205850237973e+02 1.260893519840657291e+02 -8.282773055624373626e+01 7.186560042631249701e+01 2.026342076370977452e+01 4.540454120752576728e+01 -3.789654578087279901e+01 2.443595382531714506e+02 -2.233333043926259975e+01 -1.308466954684313635e+02 -1.428169809471750895e+01 -4.388436537164588458e+01 -7.402254223360581875e+01 4.129098003573356124e+01 -1.120674652062301924e+01 1.740889392946805572e+02 8.830045037888237403e+01 3.910896236319598529e+01 9.373171585598416300e+01 9.067356420201438993e+01 -2.199688793188009583e+01 1.336425144956509428e+02 2.543620667672817959e+01 8.581057409707221950e+01 4.568361616236064293e+01 6.618090962844256353e+00 -1.107920816679951628e+02 -1.109628454807661910e+02 -8.622985854147654550e+01 -1.489123196922195014e+01 8.302166746317091395e+01 -2.928987314798815689e+01 9.467225607216981587e+01 4.197880492173700162e+01 -6.963030982408817238e+01 -2.864780594024814064e+01 -5.608300498691067304e+01 1.682863311415648866e+01 -4.428861382259590584e+01 -1.072790646839422948e+02 1.163164881910926738e+02 1.162020624421283657e+02 -7.564946515404317040e+01 5.119902525443618124e+00 -4.342103807835587759e+01 -3.113147849558303548e+01 -1.085851072731103883e+01 -2.993763543718405984e+01 4.265001118006842518e+01 -1.346484472457827053e+02 -5.063330611644283152e+01 -1.453432846176329178e+02 1.666625104681645837e+02 -1.926910842997954987e+01 5.633595982768045474e+01 1.137185368460967716e+01 1.381383687252482559e+02 4.263315480934534918e+01 3.411421812864090697e+01 1.476929671883209210e+02 -4.711080675966781683e+01 -9.340684912332878298e+01 2.607624110316473320e+01 -1.510860757689940783e+02 -5.107323441483514159e+01 9.786580429566960504e+01 -1.218058111850299809e+02 -3.474387065612232561e+01 8.723355513661472571e+01 -9.020402664668138470e+01 -8.543824954183477871e+01 -7.893447667304459969e+01 -6.089174677011431669e+01 2.380237776058085046e+02 1.893460108918243350e+02 9.832632271410199110e+01 -9.760405883120623116e+01 7.144648835955896971e+01 -6.329551318371273538e+01 -3.015031441780913468e+01 1.588095770930288886e+01 -3.088080979255322589e+01 -8.945354042916463300e+01 -2.751000930554186041e+00 1.403860778590368952e+01 1.038630927122593874e+02 -1.226141721915662117e+02 4.011697540028080766e+01 6.084641994506664986e+01 3.287780224664983564e+01 -8.642716614955782006e+01 -1.416719154231075777e+02 1.840966594694940284e+02 -1.695758889523613533e+01 2.400438925285237346e+01 1.492908919277053599e+02 2.539856800639299195e+01 2.640579231236015900e+01 -4.245588216390726188e+01 8.442398230109884594e+01 -1.298295436281857747e+02 -2.931455697006649430e+01 -5.847765103756227489e+00 -5.080937465828037602e+01 6.097625515771407656e+00 2.018411149647377556e+01 -3.406414919474096337e+01 1.300629930749203744e+01 2.033998698818554942e+02 -2.608955002590039385e+01 -2.668401285411025015e+01 -9.672424733348456982e+01 -1.539912187563812429e+00 -7.679138876534079827e+01 6.036772894098260345e+00 1.066379571247189659e+02 -4.946862568889955014e+01 5.738240294392789487e+00 -5.162877464281184103e+01 3.133726137872401285e+00 8.289890350618790649e+01 -1.101528892241696980e+02 -9.211176248527037558e+01 -9.756845170432949033e+01 6.779834205623244259e+01 8.229211002359420490e+01 -8.762468257416225015e+01 5.959582620983002244e+01 2.458722709885578084e+01 3.678028193509668142e+01 -1.685388404122445749e+01 8.687010804755584559e+01 7.572708755468714514e+01 -7.340597331204354248e+01 1.115995408900270114e+01 7.684643886410023583e+01 6.921388509506675746e+01 -1.895001163733562066e+01 2.370453114540293882e+01 -1.260332819780033589e+02 4.615806532996077749e+01 -3.116898794692244223e+01 -3.109899798324192943e+01 1.645935668215818737e+02 4.504444022541475334e+01 1.142160704868849592e+02 1.815242428207497198e+02 -1.308243947957808189e+02 1.417285708005263416e+02 -6.036104102859426490e+01 -1.284547141667319465e+02 7.822189670296775432e+01 -1.273659918740899144e+02 -2.729982872496870172e+01 5.357685406756594659e+01 7.611632971765660116e+00 -1.598929676201477719e+02 8.012894827717842361e+01 2.400757056587851324e+01 6.564650620808171766e+01 3.453485081186559569e+01 8.986781592967947319e+00 -6.377772652554358501e+01 1.099276559694420854e+02 5.179468338971138763e+01 -5.902166523249231034e+01 -9.621823605651707112e+01 3.693916614875158189e+01 2.450593030750606616e+01 7.833143854485264512e+01 1.747287759135939211e+02 -2.337188495124665977e+01 -1.047025982015702255e+02 -8.041498702355472972e+01 -4.876091675987602514e+01 -4.207096193218330882e+01 -1.394064289872656275e+02 -2.143063693993104835e+01 1.231184523665724697e+02 7.080314790542175274e+01 -1.162741544627732111e+02 -1.425509288924826592e+02 -6.466615770293115872e+01 -7.245895659846424053e+01 1.395779445328396093e+02 -1.619950971344885886e+02 8.229695394022567712e+01 -4.376313605969849085e+00 -4.091228162458440920e+01 1.260748340329122996e+01 8.656745960823781161e+01 4.704097790380845368e+01 1.313160597420578029e+02 -1.512202026819663274e+02 -7.693213893074556609e+01 2.414748844320659771e+01 3.982843927666256434e+01 1.957988838786239114e+02 1.382278592228601042e+02 6.230779375222356009e+01 6.850537092124464777e+01 -3.222792476480979218e+01 1.441876979685226274e+02 -1.704712362310808658e+02 -6.029092251309045025e+01 -5.099454796267308865e+01 -4.920442722803610280e+01 -9.806742158965137435e+01 -1.426097568737970711e+01 -6.518889644178983644e+01 6.758266734522185004e+01 -8.666584257020808479e+00 -5.510862752809475751e+01 -5.903931028225098032e+01 1.711685997952845355e+02 5.613525309656291995e+01 -1.308287405842359696e+01 1.984501108793700723e+02 -1.029616702636997445e+02 -3.354662015180276313e+01 6.362007438298381601e+01 -1.379173555222893421e-01 1.426266132082240468e+01 -1.189176164876292887e+02 1.673703665273883416e+02 -4.645028272411602899e+01 -2.550506678953193429e+01 -1.041681150528660851e+02 1.195040195097653708e+02 9.095868132129773187e+01 -7.356993874468172123e+01 -3.577935552146274745e+01 3.701412940018965259e+01 -1.436779839515569677e+02 -2.269166806613747978e-01 -7.090404541928198512e+01 7.272905039508930969e+00 -1.025550932213405275e+02 -1.504364822769749992e+02 -6.708315772869821103e+01 1.406175307146594093e+02 5.360976222358619481e+01 -8.506321826753882931e+01 8.454950460347650676e+01 3.241818370923405013e+01 8.384409159479766060e+01 -3.995034811944917408e+01 -7.970228709721891391e+01 1.622029765994502952e+02 3.944632337619879081e+01 2.743299779319958631e+01 -6.916750556238049796e+01 -4.011308934992099040e+01 8.981650587549950160e+00 -6.812778797199474212e+00 -1.638203276045605605e+02 -3.282556593002052381e+01 6.101722092384532203e+01 1.056905518808362956e+02 1.475776408682485510e+02 -1.260395273846970809e+01 8.489911224252362842e+01 1.494340540308673440e+02 6.003539563749777841e+01 1.397613287634851815e+02 1.521461072220051136e+01 1.243170549190764262e+02 -7.945747745889757141e+01 5.044684764155233125e+01 2.769394771254569321e+01 7.174242008973988050e+01 -1.004617312978284787e+02 1.873339488978909344e+02 -1.215965942065542151e+02 8.351543505876311713e+01 -1.014216982832783032e+02 4.365000484425026173e+01 1.305424961457593191e+01 8.564070333721504369e+01 -6.952338255548468737e+01 -7.129144343987725563e+01 -1.048554701453309157e+01 8.408707734195319006e+01 -2.793081117371078648e+01 -1.536395805527805614e+01 -1.851680879306580607e+01 4.464168654485838772e+00 9.250483289014638899e+01 -5.892027955131309369e+01 -2.538741433652547119e+00 -1.825190777497799388e+02 1.148619255633591933e+02 -1.174442779324554209e+02 -6.944877569424147623e+01 -2.210019370169988662e+01 -1.015241620001289533e+02 -4.995975480123854595e+01 -5.510560732562600350e+01 -1.853762768158463814e+01 1.280458326601412580e+02 5.082470338252796438e+01 9.437992824981814977e+01 -1.279430547736538415e+02 -1.302516801337943377e+02 -2.696021764821118154e+02 9.610006218525957422e+01 9.793658189354354704e+01 3.982291570877006137e+01 -3.997085563120226226e+01 -3.489830930463065073e+01 -1.726949557049858583e+02 1.372853298631743542e+02 -1.009550480187936756e+02 1.005506177696185830e+02 -1.496121479635901039e+02 -1.347217274237572404e+01 -5.205837819129056498e+01 -1.121260640627098155e+02 -4.335101872542914236e+01 -1.183670733910070894e+01 -8.714716558127879864e+01 -9.723854550787228845e+01 -1.162770300965964587e+01 6.690899955425439316e+01 -1.171351975528010314e+02 -1.469522027177793433e+01 -6.933165704681070451e+01 -1.235471827472564854e+02 6.140638737655540247e+00 8.935071728829527160e+01 1.556914636333511339e+02 -1.790696517842960489e+01 -4.329672856033852213e+01 -1.168215788547460079e+02 -1.539726242171226147e+02 9.768552285931092172e+01 -6.842436333378232405e+01 7.429234382360466782e+01 8.837634962184953480e+00 2.745804100982033091e+01 6.948179758481649060e+01 -7.980750898427781692e+01 7.784476711352675693e+01 1.085269042264829267e+02 1.483400501422012780e+02 -1.096442846098060642e+02 9.789270381144389432e+01 -4.501430815792035389e+01 -8.550328771598893240e+01 2.021090475045686503e+02 4.630163741145299383e+01 7.860325698427234897e+01 1.991478937160864504e+01 -5.966157863569309683e+01 -3.289446471048539422e+01 -1.981341569488531889e+02 9.949049932263714879e+01 7.671296293963688129e+01 -7.127948412045306270e+01 -6.881471454594935722e+01 1.367130949665001651e+02 9.517020977929661285e+01 4.814564214006581722e+01 7.161118250878841707e+01 -7.351182688230202267e+00 9.716444791350733112e+01 -9.758233022114663413e+01 1.754325111129490722e+02 -3.718058016266146382e+01 -1.149075976651572972e+02 -3.554534262560702018e+01 6.755170879120592531e+01 1.387239133638958037e+02 1.204329078674425269e+01 1.636818143228046267e+02 4.912212620385188444e+01 3.169143195270195790e+01 -1.047973528776427088e+02 4.214001170018821796e+01 -1.176520530167607888e+02 4.495401192441455862e+01 3.627497960440864233e+01 -1.162106270777504449e+02 -8.007993935733351520e+01 3.755478523129333723e+01 8.215070545628625709e+00 -2.183084522593264865e+01 3.946752968163480091e+01 -2.015740082517188014e+01 -5.940392731624570644e+01 -2.477582090412259319e+01 -2.107945837319391558e+01 -3.748608617899293449e+01 1.765534441940112487e+01 -7.586201377114954880e+01 1.119870523114149279e+02 -6.989420285757616114e+01 -3.896148115432394476e+00 6.187075840644061486e+01 3.628358226621692051e+00 1.505039934000134849e+01 1.504945673736397538e+01 -1.102502452990390083e+02 -4.139615754642507639e+00 6.123572018468146894e+01 -2.178857485909467755e+02 -7.995656114966261896e+01 -1.060729015407862335e+02 4.124526165767230168e+01 9.057394139748110717e+01 -8.641135338466618521e+01 -1.580496078565113578e+02 -1.743845286659279736e+02 1.877049647838422786e+01 -1.363956740195257566e+02 -5.963675732687031328e+00 1.388888822821167537e+02 -6.622949429061363524e+00 3.489802287656305424e+01 -9.289209002018174033e+01 7.502162358895860450e+01 -1.112940368416729484e+02 -1.450970109885294690e+01 -2.838716587060307361e+01 5.405135259257606606e+01 -8.254995403295747991e+00 9.907739785473638960e+01 -1.144773524276930914e+02 -4.694503476628470651e+01 8.129459771829735359e+01 6.197271703268531695e+01 -7.706475572462765911e+01 -5.097305761905346344e+01 -4.625832687346392902e+01 -2.709047558028477170e+02 1.811098028818811656e+02 7.112920706740052879e+01 -2.201696320956652286e+01 -2.775350847534753740e+01 3.882622506368615234e+01 -7.855742292962770534e+01 9.294678801880175456e+01 5.653792740505200243e+01 7.643793673738693428e+01 -7.852526753650521130e+01 -2.468424667444451970e+01 3.106956847858064563e+01 1.622232490957441087e+01 -4.002255110064554344e+01 1.474771797584577087e+02 -1.611450456759433791e+01 3.306886634421927340e+01 -2.145253104475704049e+02 -7.895472668660845272e+01 -6.820909728979684417e+01 2.148932188118852693e+01 1.018302901203454667e+02 -2.162435441083831904e+02 -1.744686398800089364e+02 2.066768193054928702e+02 -9.849066051512064490e+00 8.954569033492319363e+01 5.835786961127313077e+01 -5.158507248274941048e+01 -1.221633480497861086e+02 -8.874203010875584141e+01 -4.684723521909358368e+01 -3.486450902882338454e+01 -3.652515466357355223e+01 1.501270843537853494e+01 3.475340662192069630e+01 1.556552586224950403e+02 1.149852580353957876e+02 6.568839773904174173e+00 -4.131315050393360444e+00 -1.479976140913168763e+02 1.115869349382299731e+02 1.485345123601570094e+02 -9.652493479040936109e+01 6.874162198448918559e+01 1.525055463153978774e+00 5.127261281716040031e+01 1.168757222932971729e+02 6.616084377107560499e+01 -1.250426979940973524e+02 1.500619655446895528e+01 -2.741164826616196493e+01 1.039984244355293974e+01 -2.149353309780122245e+01 4.227195539244465294e+01 -2.432499037611001427e+02 1.689993264015607224e+02 6.737121937990717235e+00 1.487479515547489655e+02 -9.786680791919497580e+00 9.906083154502394450e+01 6.686472575917002814e+01 -3.915489251342251009e+01 2.800642670809745027e+01 -6.805511489802847791e+01 -8.316743690080251383e+01 -6.728083969306855749e+01 -2.996111394398824501e+01 4.219320795112836464e+01 1.029330883624631809e+02 2.658020779356228047e+01 5.817332295166668388e+01 -9.802265112252862878e+01 -1.282258305671445839e+02 -1.260792987347456062e+01 4.335226998322435321e+01 -4.243929554789195890e+01 8.852683333091199813e+01 5.198715798081344275e+01 -2.584572505227508898e+01 2.800552696947066877e+01 5.746417720859426481e+01 -6.743742299016034281e+01 -1.251246700557071279e+02 1.329148669137104832e+02 7.308680576508257865e+00 4.692654582521259243e+01 -1.398154380847774689e+02 -5.001813847084939368e+01 -3.850630438280666090e-01 -6.171058307301009194e+01 3.981506531131936200e+00 5.276898945132793273e+01 1.747507153847370489e+02 3.668635709671852396e+01 -1.026744357581836553e+01 6.779017537385638548e+01 -4.262106780624249325e+01 -1.022008828700066090e+02 -1.295934653973835111e+02 8.773140240210372198e+00 2.355957050464166613e+01 2.239787963168567941e+01 -5.339048229142653668e+01 1.133912048685602088e+02 -7.586609504423771000e+01 1.204813368861266980e+02 8.196276349774079506e+01 -6.108080259679472590e+01 -7.967883954892280940e+01 7.913399121576253492e+01 1.913980998745231688e+01 -4.938819089729780387e+01 -5.058961964083084695e+01 1.286136400133762550e+02 5.393361327793726900e+01 7.518826912786805394e+01 2.459130597429116705e+01 -3.951996120151193281e+01 1.010049413199405706e+02 -5.134811676409152881e+01 5.613140694763284477e-01 7.199991674144733622e+01 9.375578921740851968e+01 2.406057754176974868e+02 -1.650042819347240766e+02 1.515146928427656121e+02 -6.357404035558693778e+01 -1.435579755304197747e+01 -2.372303777439540440e+01 -1.952975632091187563e+01 -5.188822752002544547e+01 8.770227229916918077e+01 1.734558386618676877e+02 -1.119673644307561915e+02 2.917301813851002734e+01 -1.197120011805377828e+02 6.623772167120671384e+01 -4.194459407277017249e+01 -7.653991532610287152e+01 -5.093920643699187423e+01 3.894099528484946404e+01 1.828116848747737322e+01 -7.724976411067630977e+01 -1.333244484113513977e+02 1.962595754706043749e+01 1.490797251946705160e+02 1.351856771428512083e+01 1.726864760618995831e+02 7.049835414818986123e+00 1.274763446392610433e+02 -3.274538585480881636e+01 8.600149908079364991e+01 -6.767764311548415890e+01 -1.069937153925108930e+02 4.686005820821853263e+01 -5.497466488376264238e+01 -7.449326079307104465e+01 6.906953977967418723e+01 6.165845809847313674e+00 -8.943469294607845654e+01 -1.429638021798070042e+02 1.404767441300251392e+02 -8.469057807526975523e+01 -2.275047623040502121e+00 1.141298640733406131e+02 5.511042620236456457e+01 -9.338173399841730316e+01 1.015550713549528439e+01 2.682356265825667947e+02 5.067565265091939608e+01 -1.500363219827443118e+02 -4.543218914184284785e+01 -5.849960852562365687e+01 9.140558681452930045e+00 1.024233667540825365e+02 -9.859042337129120881e+01 2.058889388763371997e+01 1.242825293883772133e+02 1.788252530904313176e+01 -2.013447558761894527e+02 4.598253440402175585e+01 7.195616979051263229e+01 -1.297345621319710318e+01 3.124113718667854656e+01 1.927919539065040266e-01 2.155213919244227228e+01 2.644242654275568682e+01 1.104714165278380875e+02 9.352225071511308840e+01 1.496507129630538557e+01 1.420970175498356696e+02 -6.105053642629175670e+01 2.352279436271617215e+02 6.204394968514675668e+01 1.352105227257038109e+02 -2.094093589724597848e+01 8.593647881645740938e+01 -4.660286612263186612e+01 -1.396381335210054999e+02 2.493409182817998726e+01 9.054878148616900546e+01 -8.350388190937287902e+01 -9.993211111089291876e+01 -6.348530330835369995e+01 3.495748275504990943e+01 -1.089106155667766416e+02 7.124679382813877737e+01 2.672708914180622131e+01 -9.313265845041186708e+01 1.811771853164581785e+02 -1.121918618235304166e+01 -9.712952311848580678e+01 -1.282545197431063144e+01 -1.950021706724297843e+01 -1.337803299071898664e+02 -3.817077592189913560e+01 5.870397559633320839e+01 1.257793810330607442e+02 2.773478241593815952e+01 2.549844791780199316e+01 4.273494179120836378e+01 -3.404838567105554858e+01 -1.389761508943555270e+02 1.519846726264050218e+01 2.950613319915700572e+01 1.270539453156438157e+02 -9.398487305786638046e+00 -7.263004189319178749e+01 6.984566572326899347e+01 9.140803666400667549e-01 3.027153774008487019e+01 1.328081584322877973e+02 -1.693164805972396323e+02 -8.862689301575949230e+01 1.190439276436922285e+02 -2.000523109668420716e+02 -1.705375910936883486e+02 8.444362894256816787e+01 1.428023359422527392e+02 5.884199634484214414e+01 -4.172946994560602363e+00 1.443690039553317206e+02 -2.036139924126549090e+02 9.936686882528464082e+01 3.929396972150137657e+01 1.178338657586047447e+02 -1.748822217801106547e+02 9.869466265700103236e+01 -2.613559950342703786e+01 -1.239658353449111274e+02 -4.932022679218386330e+00 -8.565991211656186977e+01 -1.497590157980123671e+01 -4.077946156793445631e+00 -1.142423192807582240e+02 -1.143556652374194726e+02 -5.800905063138223028e+01 -1.195182530296959840e+02 1.863550916594286093e+02 -1.494748546667284756e+02 -4.654476508630528286e+01 1.600052502499223976e+02 3.147078529938860925e+01 -2.744908721674122489e+02 -1.179316345859764823e+02 3.290343230192518575e+01 5.070384925063449089e+01 7.874634499316681691e+00 -1.433258157084912625e+02 3.309010438181966407e+01 6.989435320924447304e+00 -6.892952316251941625e+01 1.880242552074514322e+02 1.878247113820212064e+02 4.045536039144534968e+00 -1.934116429944876643e+02 1.168113060048735719e+02 2.849726327058940001e+01 3.578921568205756021e+00 7.098281339963614300e+01 -1.924267440377996365e+02 -1.279698800075999401e+02 1.307429404859175577e+02 1.016939785953707656e+02 4.903365529571628656e+01 1.327313691396359729e+02 -1.653064709668562386e+02 -1.900232938319565434e+01 -1.208957234844451278e+02 4.054877215281611313e+01 -9.633196058744121615e+01 8.076325348522016156e+01 -3.148950800318600329e+01 1.148760416510851101e+01 1.645552399326712987e+02 2.651504757608018181e+01 -2.444153110013212427e+02 -1.172311062225524694e+02 -7.727392984054850444e+01 1.466202950084515351e+02 1.163290918703463639e+01 -5.002784731384536343e+01 2.807165229806993523e+01 5.791717223117473878e+01 -3.664525169986166020e+01 9.969413381216509151e+01 -9.343236474174857165e+01 4.563673591153251152e+01 1.038018527044665262e+02 -3.299674532380817737e+01 -9.099559834782377266e+01 -1.052505142726647449e+02 1.110602876834035442e+02 -4.609231159046537130e+01 1.822650790620825205e+02 5.304843438386053833e+01 1.028706308556949125e+02 1.711707282302319300e+02 7.929448736886620885e+00 -1.153046420815727515e+02 -1.536480475405170978e+02 -1.058466612960921935e+02 3.944806661903953682e+01
-1.228615855281301528e+01 -4.413619902058174560e+00 9.376396757436108942e+01 -2.074753461871715672e+02 1.407767987836170107e+02 5.747762107733630899e+01 1.378151946325922381e+02 -1.170045122483871296e+02 -2.490754426455501491e+00 -2.177851011426936623e+01 -1.988142297339928746e+02 2.959869779489321573e+01 -1.658425730317866709e+01 1.107940801366729744e+02 -1.133543235183236106e+02 5.589988142957188444e+01 1.134375922942882369e+02 -4.163347419623037382e+01 -4.484978134101823599e+01 -2.438151966569992268e+01 5.593301001757155433e+01 5.707508194243664690e+01 2.939411010936140300e+01 -2.105405613848939765e+02 -4.664224209701120571e+01 8.296086215149782106e+01 8.986921579370532598e+00 -9.423362243326241838e+00 -6.022786511762701878e+01 -1.407214723239388832e+01 6.641223613337312770e+01 -1.316652719038502255e+02 -5.614426721673232379e+01 8.102032794904930668e+00 1.880319463231259363e+02 1.920441226747616952e+02 -2.916512685726591769e+01 5.060220839890245514e+01 -2.218257562464792942e-01 -1.264275109956494276e+02 8.688325638072178947e+01 9.706182355242590631e+01 9.824268060354808085e+01 1.055634173591747427e+01 5.601197002175493367e+01 4.355982995915918821e+01 3.519174032284418274e+01 2.661731088224960828e+01 9.983778074208878195e+01 8.120354321974005529e+01 5.934822794803666568e+01 1.475937203487441423e+02 2.244823260282507249e+02 1.771010768582564481e+02 -5.355461707788658288e+01 4.460860359789548824e+01 -5.815812361615571291e+01 5.102516837429828200e+01 -1.740623849228092581e+02 5.115135952645281492e+01 -1.853464493044939445e+02 -1.527669921677719458e+02 1.173650875112440239e+01 -8.411905657213848642e+00 1.534635202810908368e+02 -1.883525824861886520e+02 6.814299928839521669e+01 2.081562827338096611e+02 -6.744061909936496235e+00 -1.764685039447230395e+02 3.212567462347583103e+01 1.785160090633877132e+02 -5.534749881414330730e+01 -2.414641254126574665e+02 -9.288459034131736303e+01 8.126317324879483550e+00 -2.083802126182663130e+02 2.912033141510631395e+01 -1.625406044197075062e+02 -1.680531480853803146e+02 -5.185755347525975623e+01 1.380510994297516447e+02 6.287614674810438231e+01 9.632498075582679675e+00 -8.039468981238785261e+01 -3.859813084656828153e+01 5.774217877689360989e+01 -2.104648575124008119e+02 4.903165188284027920e+01 -6.787237094935107962e+01 -7.087664665790317997e+01 -1.602892237128740476e+02 5.891472889381372369e+01 8.400273493565542537e+01 -1.471553665165675682e+02 1.567147035476277495e+02 -3.614009819955986558e+01 -1.534868910597879754e+01 7.955552152420996492e+01 1.418298580921078553e+02 1.977295646199620904e+01 1.374004056308103827e+02 -1.682331699936739611e+01 -8.228249798648819535e+01 -1.777561597827329365e+01 9.167052899610871464e+01 4.196250846605639140e+01 9.128359826093171137e+01 8.804987950628448345e+01 -7.757268906122109797e+01 -1.585523628968541630e+02 1.148142013322726314e+02 5.060367370734259396e+01 1.520999229609021519e+01 2.852201751830893173e+01 -6.338852530238164462e+01 8.960908899436024910e+01 8.389410657672210903e+01 -1.285761793261018227e+01 -6.652433344913562507e+01 2.860236900112865044e+01 5.876843568411280749e+00 -5.735128143375330723e+01 1.583432754630092063e+02 -3.050361397267078090e+01 1.135239575934293583e+02 -6.542430010541788477e+01 3.584605736373564611e+01 -3.364186290369975296e+01 8.358661703727506165e+01 2.190625899712341251e+01 1.079543180192423932e+02 -1.084029360936127517e+02 6.944707881377517822e+01 1.153072955768206782e+02 -4.172574240643874788e+01 7.198091791166351783e+00 -1.202479534511799919e+01 1.091841550263837206e+02 3.495467356045643292e+00 1.575106603033837871e+02 -1.321572950311475836e+02 1.089852039257928737e+02 -8.525524383361741343e+01 8.959634223120397678e+01 -1.281316854364824280e+02 2.757693343823300580e+01 2.315907753648965084e+01 1.634238631323349678e+00 3.395880287584070345e+01 4.309460981244632904e+01 -1.153888904954092354e+01 1.026478808449820690e+01 1.011116521989761168e+02 1.190025179094889438e+02 -8.115162643526029740e+01 -5.063814703823548058e+01 4.424392523304870650e+01 1.398125372480529816e+00 -1.282151861935919044e+02 -5.164642114915207571e+01 -3.309848295433122445e+01 4.573874164397482645e+01 -6.129566042761541667e+01 2.142989146423967028e+01 1.501720764067746927e+02 -7.437966424954991851e+01 7.575154992011228217e+01 7.871305673195520569e+01 1.060682696753606358e+01 1.156784726592053403e+02 5.892842113778471713e+01 1.575036098101045923e+02 -3.250650083548026714e+01 1.054030840845381647e+02 5.212400093869482731e+01 -1.505141638771726242e+01 1.915203373143083070e+02 -1.302068545774505139e+02 4.590581138682419038e+01 -1.761123340877078647e+02 -7.902391142762598975e+01 3.856933107144732986e+01 -6.784767155474396816e+01 -1.463511548771587343e+02 1.873278540545994133e+02 -8.061717461370905369e+01 -4.464773808795287380e+01 -4.349620745162559388e+01 1.144622892975042419e+02 1.831072291884350136e+02 6.087164176969020701e+01 1.375125698661310878e+02 2.064021902879718766e+02 -1.477705112125589304e+00 1.531374355480807026e+02 6.665588937508066181e+01 1.790576743159695354e+02 -1.183460898135896002e+02 -1.109853835390619636e+01 5.997487993502467418e+00 1.786115051935570364e+02 -8.540457443824882944e+01 -5.697332999232654061e+01 -4.976627552875933702e+01 -1.261121625997486433e+02 4.402371610174080629e+00 -9.490903186427225080e+01 1.450650882605296488e+02 2.212083889817196791e+01 1.125686900113018218e+01 6.799920370167014028e+01 -4.596247574488963927e+00 1.100919862721849825e+02 -1.494624937701522640e+02 4.274846369836846804e+01 -1.605787673041235450e+02 1.104412097709418816e+02 9.045632697132201372e+01 -6.325278133916312839e+01 4.405327520985112955e+01 2.239890838633960470e+02 -2.868235211905837545e+01 3.916457542308093309e+01 -3.074527914491835290e+01 5.450729968336197118e+01 6.041536577944541619e+01 -5.924799894838391090e+00 9.579820359790589634e+01 9.535606456605367498e+01 -1.823104820505317889e+02 -1.440966404698218923e+02 -1.127292908068533421e+02 -8.840209201947292428e+00 -1.407987543786711626e+02 1.086602765708216083e+02 1.037149681610436005e+02 5.551379898931531187e+01 1.050247229298072860e+01 1.482374778225469640e+02 7.893771831777924319e+01 6.349194698185780794e+01 -9.547600341118315725e+01 1.433815234775943566e+02 -3.415462082385197551e+00 1.028418700184578682e+02 8.299635304540450065e+00 3.453738261472295790e+01 -7.111566788658581117e+01 -8.526666194564850798e+01 6.728882235199525041e+01 -3.662149521815035946e+00 1.373290203844714767e+02 -1.178128679742574469e+01 -2.659385638843607236e+00 4.308571300697978046e+01 2.123935017969369454e+01 1.328482577333639654e+02 1.385540683362708592e+01 3.369142955644280590e+01 -1.452449275453939208e+02 6.177553669412363746e+01 1.254620477673681336e+02 -1.644194754069873454e+01 -2.139844957395042115e+02 7.919016398932582490e+01 1.277015750419587761e+02 1.915137635598402710e+01 1.771312662455118812e+02 -4.090288223858312477e+00 4.011207318461702442e+01 -4.085934767796978662e+01 -1.296204817690591256e+02 5.242184783790869318e+01 -4.440011909438338478e+01 -7.563535705879758098e+01 3.853061243394279956e+01 -1.725667985182737425e+02 6.685006917065362586e+01 1.536064462916409070e+02 -9.448514145316896418e+01 1.615274829655081703e+02 -9.102728034608337282e+01 -5.544109250699717606e+00 -9.862583339024192597e+00 7.153117271438880209e+01 -4.352118471607225558e+01 -1.004582737221534359e+02 -8.263616798554829757e+01 1.359020013664087969e+02 5.509224595451870243e+01 -1.228987326602143497e+02 4.095609073129375943e+00 4.040631437600892184e+01 7.686347734689394429e+01 -3.754303511826759632e+01 5.577330182344020670e+01 -6.420225864321028553e+01 -1.510246225638759938e+02 -3.221317716019100885e+01 1.311436852883740016e+02 -1.055555565616659379e+02 -5.911760002890789956e+00 -1.514361516792777707e+02 -4.565049663740896158e+00 -1.356854698217156567e+02 3.067805654429326268e+01 5.606786175138366701e+01 -4.678551369335099253e+01 -7.654810722967567926e+01 5.254420950745200436e+00 6.916463996745186193e+01 -6.298197529098494130e+01 1.251157974996306166e+02 9.813093788099882886e+01 -1.185720373529319573e+02 -9.797089537299291351e+01 1.254440935067760137e+02 6.617995969955545377e+01 1.394676948605867040e+02 9.267450498968229056e+01 7.526834049509102442e+01 -5.594608596291168112e+01 -7.580679400854673133e+01 -7.144681996519771872e+01 1.896343954948255828e+02 2.843559908783338841e+01 -2.311788853253763065e+01 -6.343945581647546561e+01 -4.619671436302996881e+01 -1.216225866220410268e+02 -1.522138373696012259e+01 -1.620409943009819358e+02 1.154331469592590480e+02 4.241560571836795646e+01 -1.063475451194130557e+02 -4.470895430733421705e+01 1.105312598478961519e+02 -8.941898937517929369e+01 9.495087108238610085e+01 -1.093993776871238452e+02 -1.088489428810798998e+01 -8.816629441716625593e+01 8.287695502466266362e+01 -3.919663025645422749e+01 9.416714629529536751e+00 2.711747647190563626e+01 -1.168671750200290376e+02 1.153069830416925434e+01 4.468019292970893019e+01 -2.057208680018743507e+01 -6.343542697121891649e+01 1.870245564425673308e+02 7.979521362411421137e+01 4.343090782668890171e+01 -2.897213582679477639e+01 7.397111407974999508e+01 1.546550636785055701e+02 -8.504451775449280149e+01 1.932967096699971421e+02 -1.228121274389222322e+02 -1.696414415760571899e+02 1.399660763860796635e+02 -2.158705232984832776e+02 -8.316219478731674553e-01 -2.259702064254858271e+02 -1.409998684403796574e+02 6.623074563186285957e+01 -1.342788859318544326e+02 5.382967917568194594e+01 1.015005389184876492e+02 -1.478572105627626456e+02 -2.771751073734029447e+01 6.959045226114422178e+01 1.235153299291780797e+02 -1.717402923471616987e+02 8.075435964061072980e+01 -9.039476985720466473e+01 -9.061135971230941166e+00 -1.274535511454080527e+01 -7.337834735451062329e+01 -8.326307126342648246e+01 1.673240329803538202e+02 -2.006543042502654117e+01 1.265252273677297312e+00 1.201909920475914220e+02 -8.009611581551293114e+01 -3.177991153713672290e+01 -9.944814475321945224e+01 -4.505784697752346091e+01 4.721039684546757265e+00 5.478555687845999955e+01 -1.248101769676428745e+02 2.192748688001206858e+02 -4.981095580940278467e+01 1.133817107382284917e+02 -4.517298540528697259e+01 1.108122109540451277e+02 1.288954540247837315e+02 4.433132507242937237e+01 1.129946574734892977e+02 -4.003395053468403120e+01 1.296448100603745957e+02 -1.450236602137443924e+02 -6.059682860977257945e+01 -5.834619129385585268e+01 2.374544748496386504e+01 -1.503828271542357413e+02 6.721182647121973730e+01 -2.859050604995839606e+01 -7.659258655472901012e+01 8.299938144968595566e+01 -1.400653628421137000e+02 -8.458406649857894877e+01 -4.885657605960144423e+01 3.064475849100356442e+01 1.203034333622963743e+02 1.082504775835536321e+02 6.400388997518119538e+01 -1.398043175544778416e+00 1.621898133702735834e+02 1.135788235789063094e+02 -8.763620169326884479e+01 -7.235696561418029660e+01 5.087017317545621609e+01 9.177484731422039133e+00 9.082216750363724600e+01 1.546460285140817916e+02 6.545960572344786499e+01 2.271880232027389468e+01 -9.478961516620090322e+01 1.591824683567231489e+02 -1.053367195771581919e+02 -1.531660849352104208e+02 6.092949162887940417e+01 1.033561816709429024e+02 1.823510741687362469e+01 -1.286631246141366205e+02 2.749921648591319823e+01 3.926391430501796975e+01 -3.843706165742385994e-01 1.213092494747055810e+02 9.073090800861416483e+01 1.585717880339098862e+01 7.255279583638696295e+01 -9.895345730091847258e+01 -5.953592323644347317e+00 9.108265324131427576e+01 2.750429736704929340e+01 -6.019518225069422357e+01 1.833939002091813393e+02 2.139556739964669987e+02 -1.160709437007686660e+02 -2.560329108918488572e+01 -1.944374842855861516e+02 -6.679037616666305155e+01 1.447971922144275254e+02 3.069151698530373729e+00 -6.567770927855248431e+01 1.514476188950695246e+02 -5.776272915127732688e+01 -1.485716737518665411e+02 1.263117226984455783e+02 -6.209239324172776975e+01 3.198423787784266992e+01 7.979564007307453721e+01 1.276932068728086378e+01 -2.203123703585421822e+02 3.916968672768264526e+01 -5.753808020305157811e+00 8.335593662807693249e+01 -2.179280487148364287e+01 9.339622531998823263e+01 1.574803846524882545e+01 -7.820493646423348366e+01 -1.894960980467392275e+01 -1.620197526922270299e+02 1.062656467688285886e+02 2.338715918810818550e+01 -3.844989430419835941e+01 -4.786161173601658447e+01 -5.821136242211589007e+01 3.804800083849567471e+01 1.485484978564990399e+02 1.226395992716758201e+02 3.975299270502742388e+01 -1.828953481203772924e+02 -3.586140083335715190e+01 4.052039400740193997e+01 1.084089883160040699e+02 8.053579973184970697e+01 1.424529527288015984e+01 -1.718960499750545807e+02 1.216352948088930930e+02 -2.067664929379418197e+02 -1.902082837450563773e+02 -1.665449521052956738e+00 -6.816441783623118056e+01 -2.234410825067169526e+01 8.049616279397518781e+01 5.167277802069075676e+01 -1.027239196372539709e+02 -1.400108215198735024e+02 1.345759731390139358e+01 1.143015907211108981e+02 1.905805721133893726e+01 -5.240613023973777729e+01 -4.778505861749363959e+01 -1.074053197532157178e+01 1.491347861111233328e+02 2.065254292117746715e+01 -1.635184291399195047e+02 1.208375048313699693e+02 -6.293491457313702142e+01 -3.923907099838801926e+00 1.448974556375381724e+02 -4.915532627599335314e+01 -1.845246816510927701e+01 -1.033651155835185591e+02 -5.634291462196749478e+00 -2.242254767727871112e+01 1.238504194537073602e+02 1.129330772958273741e+02 6.358793088587295728e+01 6.162640780930368578e+01 -1.759351442169734625e+01 1.271122480377609349e+02 -1.061349909201587565e+02 -3.991022335205097527e+00 -8.566738599753773542e+01 1.477306097099582587e+02 6.860088914764642709e+01 4.857481809714436594e+01 7.730041605798525062e+00 -5.018473754218398852e+01 3.234245290890602575e+01 6.293986354019596163e+00 3.507169618145431489e+00 2.264932883056717472e+01 5.623155017875308204e+01 1.601780568463296675e+02 -3.660300044708797174e+01 -4.887161382111595032e+01 6.284475230274185265e+01 1.087953101864915340e+02 -1.206464447441295640e+01 8.654272141122019946e+01 9.800615190917611130e+01 1.983482241351388780e+02 -8.139580416728615830e+01 -1.153656709408137289e+02 -2.695850568595964702e+01 5.851074753297401543e+01 -9.548684397450461603e+00 1.010259734338218323e+02 3.505622060437866594e+01 -1.529458495728249261e+02 4.236385889996361698e+01 -8.412896827027017821e+01 -1.272193922319653012e+02 1.264845120766747186e+02 -7.154524942105396690e+01 5.568953386354863966e+01 1.044589444346747058e+02 -9.300820402226074179e+01 2.212853367824887130e+01 -6.779566815970383686e+01 3.789763997893381031e+01 -1.078129126758650500e+02 5.792764274412029835e+01 5.141092473755181658e+01 3.578602919687883244e+00 7.890213676089146588e+01 -1.435627956900889615e+02 7.172229034571917339e+01 -2.760869463931700096e+01 -1.575608958084835649e+02 8.818636838471624628e+01 2.293172577241751142e+01 -1.828435331715440384e+02 2.194796333608104248e+02 -5.111965726807708998e-01 9.805917278681522475e+01 -1.124565289504216139e+02 -1.810973757173206593e+02 -8.703107131111599415e+01 2.361627998317135990e+00 1.331993879313245941e+02 3.648092327705914073e+00 -8.914583835593211347e+01 4.689682091924352392e+01 1.277981437809370817e+02 6.055722758769487513e+01 -4.820415733234899136e+01 -5.516826008440224172e+01 7.879981097910562937e+01 2.860752726916650346e+01 -1.824445338639183660e+02 -1.932851106540679709e+01 1.576084713013054852e+02 9.208678072923160585e+01 -5.349530099708402275e+01 -1.042629232931318484e+02 -3.978084492731129984e+01 -4.484022298938943862e+01 -1.067243388286832584e+02 -1.714155326511897925e+01 -4.257262610795520885e+01 -1.059621836246212894e+02 -1.230798282325548740e+02 -2.517539052272410416e+01 -1.172252242354206402e+02 -1.248774671482883605e+02 -3.574731906516720414e+01 -5.156695984028107205e+01 -1.035816269483415226e+02 1.798147244600197041e+02 1.015275332970299083e+01 -2.716072967803003024e+01 -1.640633860827505686e+01 7.599185693823537235e+01 1.512902897830706728e+01 2.419323240906380335e+01 -2.046428489027939435e+01 -4.477185775757129704e+01 2.018609144386334009e+01 -1.404531512874168584e+02 -1.537424883505616720e+02 -8.723951490143370791e+01 -1.843407335783478231e+02 -8.653492785340264959e+01 8.279083622573877221e+01 5.930562774269289861e+01 -2.514568554928277777e+01 5.869069719356298265e+01 -1.512779932119471482e+02 -3.955627915022321872e+01 -1.122064470394693103e+02 -6.446286100221037429e+01 2.038624919367101995e+02 -1.982845782330472844e+02 1.982556323271775511e+02 2.407546049525060639e+01 -5.448743155231431246e+01 8.900619621220478450e+01 1.198410144962000317e+02 -5.011071466072821323e+01 -1.968601488171439655e+02 -1.440042789216509220e+02 9.881342288415957853e+01 8.089611222310179528e+01 -1.309178175722911988e+02 3.081702067020852098e+01 -3.836329625606055771e+01 -7.476447181992456592e+01 -2.746200639367315333e+01 -5.292637981842013772e+01 -8.344850430324513013e+01 -3.292949294365227075e+01 4.419951452817010740e+00 -3.149549194436928090e+01 -3.285085013850345126e-01 -1.378335154175191235e+01 8.875877146594486078e+01 1.228194192330930861e+02 1.269948140915296442e+01 1.624540926406833563e+01 -6.103211328608631447e+01 -1.894317174567107713e+02 3.268776086951048399e+01 -8.856689906184740835e+01 2.497591938195926176e+01 -7.786714932869966965e+00 1.066441082010943342e+00 7.001112986913382485e+01 1.177548509563117989e+02 -6.811394562928568064e+01 3.670517635480134544e+01 -1.864036667352643235e+02 9.376360335040310190e+00 6.629882352571123683e+00 -1.184080049040084930e+02 -3.254410329367155441e+01 -4.282097809489336271e+01 4.591816290066226713e+00 -9.875001016668379350e+01 2.612309603171298278e+01 -9.430675747983789847e+01 5.408175433486687922e+01 6.558980968312233983e+01 3.566205673634139117e+01 -2.802349093542642677e+01 1.038485351784134991e+02 5.904692450227831557e+01 7.729154712301124164e+01 -6.474364968249126662e+01 1.951726843196054872e+01 1.234948704129578232e+02 -5.651840022874241498e+01 -6.687529876642249960e+00 3.088243136090844843e+01 -1.240487609576093604e+02 9.442892145326578657e+01 8.649627686416275196e+01 -9.773778303908569853e+01 -7.950174976416288075e+01 -5.363775302886644170e+01 -4.412855085712242698e+01 -1.546250146709658679e+02 -1.311614287928360341e+02 -1.279044276059668448e+02 1.019888438428863395e+02 5.775739704991982393e+01 1.539868767940779435e+02 6.966400958061612414e+00 -8.263112701369756508e+01 1.812550284183296512e+01 1.333517537115345242e+01 -6.137381666646454192e+01 7.143433697829287610e+01 1.138705309973374540e+02 9.573790136666852746e+00 1.381995376268995130e+02 2.166606463681232597e+01 1.069630660560214324e+02 1.450317431108785193e+01 -2.003302677647210430e+02 2.105229687248621815e+02 -4.717080979114713557e+01 -1.436294361920893152e+02 -6.475527259650091594e+01 -4.124090172479233019e+01 3.977732466442579806e+01 2.457063177499163587e+01 4.392405835476649401e+01 -7.100286136626047551e+01 1.173258055427746456e+02 -8.267813013518541254e+01 -6.722333475234990807e+00 1.363664236935470626e+02 1.048883307015773170e+02 5.558133177564245386e+01 -1.693956159028716115e+02 2.432663528244703599e+01 1.342173572256906482e+02 2.238264720100416483e+01 9.324603309480653479e+01 1.016294421077779049e+02 -2.019748855983521025e+02 7.341511759914584445e+01 -5.510025905870471519e+01 -2.145618142809872211e+02 8.436552360146120577e+01 2.338416622281785351e+01 -1.156974381504654161e+02 -5.543856384762759149e+01 1.311792620973031092e+02 1.393704137045855873e+02 -7.159314824915210806e+01 -1.204228154195698295e+02 -7.850776404398469310e+01 -1.559099478300531985e+02 1.839698623791895926e+01 3.564839578384201957e+01 -1.598690163370229911e+01 -1.161179471874063474e+01 -8.384755403287590525e+01 -8.254411580679301608e+01 -2.306113419160712397e+01 1.247673445508059018e+02 1.266873860810478618e+02 7.539493239303050132e+01 9.023053298567275249e+01 -7.281411884055438577e+01 -1.675107854153863229e+02 -1.219121251399771211e+01 -2.135519854375169757e+01 -6.575809915489693935e+01 1.361277703662121752e+00 6.755645355157882648e+01 -4.892922746000369472e+01 2.290500034813565833e+01 7.325507714147434513e+01 6.485344712244825871e+01 1.022765879574286174e+02 -1.379457398423395773e+02 3.665175696425470875e+01 7.705835922843041885e+01 8.764223998487359779e+01 5.459256882561393098e+01 -9.547844821955740713e+01 1.266282158230742141e+02 1.179327786417920407e+02 8.866722969550194478e+01 9.391843741149808977e+01 -7.787196108174441633e+01 -1.373138821227954764e+01 -1.199686334560248646e+01 7.123294532020528891e+01 6.010045376902407810e+01 5.185351339666672033e+01 9.021494495119475232e+01 1.077867030067792058e+02 1.147104253142783961e+02 -5.991068489235333061e+01 7.457408592817698434e+01 6.031646195108900343e+01 -1.088345158317820420e+02 1.217341256728953027e+02 -9.258958647649647489e+00 -2.584780697484831435e+01 1.844618125237866195e+02 8.194676941915734858e+01 1.149291377006554598e+02 -1.336803836576517597e+02 -1.461546198012227933e+02 -1.422868645469548028e+02 -1.131409936276961616e+02 -4.103210640522802777e+01 1.016794822720104463e+02 -1.563740805253166002e+02 3.011361618007786944e+01 1.338508249226195232e+02 -5.506818935445409835e+01 -8.472741623698148317e+01 -3.262141905741180636e+01 1.260541439437290876e+02 2.109562205779361648e+02 -6.197569600522001565e+01 1.841751676295450935e+01 -2.568755142591984253e+01 6.363358350611505898e+01 5.593972970534760947e+01 -1.981432390104096157e+02 -8.241448297056005856e+01 1.279072418607929364e+02 1.299471563214858918e+02 8.788846092242872032e+01 -4.637394775403365799e+01 -7.045927195424364697e+01 -4.217321500911701548e+01 -1.642868107440005474e+02 6.614607411466779752e+01 -2.384040033880205556e+01 1.547825668171115296e+02 -2.601666735800660035e+01 -2.928267209959012689e+02 1.348073841914518596e+02 4.667739433638903535e+01 -1.097592755440902721e+02 -2.067988062437380492e+01 3.284754955204061133e+01 -1.933638667311427071e+02 -1.063560110415357656e+02 -1.021301349191420940e+02 -5.246732014546944356e+01 5.843695193239842922e+01 -1.535384195411003248e+02 1.004359256660387274e+02 -5.059477886330891039e+01 2.741897944904957640e+00 -1.242617271003118020e+02 -9.662310179432492419e+01 1.637833008524437162e+02 8.073589703757441782e+01 -3.934006025909157245e+01 3.457865932965899702e+01 -2.611691362478423883e+01 4.041233506029256972e+01 -9.749060324565293456e+01 9.225218194493689339e+01 4.703543845832249559e+01 -1.107926502348198454e+02 1.088001545656608755e+02 -4.574245785263688191e+01 9.310192147217094316e+01 -4.602920300800862918e+01 8.234952622605240435e+01 -1.429713738328677266e+02 1.330787295363072928e+02 2.307387037446926570e+01 9.387535777515964242e+01 1.216237935397438577e+02 -1.367669573981742985e+02 -8.011725152037747932e+01 -9.852246262512827002e+01 6.235039175327939631e+01 -1.598272039159725750e+02 1.414155538936508094e+02 1.327477438516193899e+02 4.940459645103162245e+01 -7.920205023347040196e+01 5.325059599791045883e+01 -1.001806466217875879e+02 -1.016808522500527445e+01 3.260874674804102114e+01 -1.714441858712538647e+02 -7.608417793877670476e+01 -1.262877202349480044e+01 9.533686791330381993e+01 -4.687913965902246360e+01 1.015443468990426226e+02 -6.001883806144027034e+01 -1.967352173674002245e+02 -9.996811346478875748e+01 -3.172639119662295215e+01 -5.617068933828851129e+01 2.807476939535399652e+01 4.806190418876721537e+01 5.901463445847021205e+00 2.378811052426515715e+01 -1.096810067337469974e+02 5.038650468042553854e+01 3.050252581513833405e+01 -6.738794313790666024e+01 8.697761005987128868e+00 5.275764175981039017e+01 -8.916229273405406275e+01 -5.152911626639490095e+01 -2.263044634667331678e+01 9.120343860232256361e+01 -1.602240609299459706e+01 3.926259035003024422e+00 -2.134206773934007799e+02 -8.885339097967853661e+01 9.256413851792801495e+01 -8.334515978937356806e+01 2.930776605282354197e+01 2.904519015898455336e+01 3.542386368072367020e+01 6.181749848210161957e+01 -1.660299665537473288e+02 1.347395261386032530e+02 7.637609648499422121e+01 -7.078654532242096842e+00 -7.561059331574570308e+01 1.046339339832914419e+02 5.811830720496303115e+01 -1.882670245968031679e+02 -4.713127281673252611e+01 -7.650255869227312644e+01 -4.844964348059739478e+01 -5.790843754848459923e+01 -9.262027548626959117e+01 -5.648154719110836197e+01 1.793158946639886153e+02 -1.597833537744166676e+02 6.126248214935973380e+01 2.597737201602936352e+01 -7.040142614202881077e+01 9.748891242229136722e+00 -3.694042571988901358e+01 3.230796234967034497e+00 -9.003771193143803941e+01 -1.849997294905423360e+02 1.722502812878747491e+01 3.920554364609250797e+01 -1.197569522288429766e+01 -8.334494081480832151e+00 -3.724247552180683130e+01 -1.777801647437914880e+02 -2.866354580551754694e+01 -6.118457377284685350e+01 1.301896422888280824e+01 -1.463022690971975770e+01 8.487642356672124322e+01 -5.903605490152247626e+01 -9.708072963543868639e+01 -3.338186484755013339e+01 -8.373644318508606688e+00 4.248993514572142516e+01 -2.068983828055034380e+01 -6.921354204874947413e+01 -1.488339041030866206e+01 1.874851897053852312e+01 4.448905675407745974e+01 -1.067319639894706711e+02 -1.302022936349160602e+02 2.157817972893080025e+02 -2.044978588982761210e+02 -7.109646822183820802e+01 -4.336602784316826842e+01 1.309941933869434934e+02 5.927060605674197546e+01 2.145391591238125386e+02 2.293296439435327443e+02 -5.845477434192370225e+01 1.212477537838370125e+02 -5.257529458463745442e+01 -3.826041558917798824e+01 -9.424031199891278732e+01 -7.479956708330472281e+01 -6.512699213273899090e+01 -8.344264947424373702e+01 -2.284339700596610214e+02 -2.537409285781802453e+02 1.261715692060267173e+02 -2.488399260240305821e+01 4.992136891961992973e+01 1.227187870287816764e+02
