# 
#                 ----------------------------------------------------
#                 Data from a 3D direct N-body simulation. 
# 
#                 rows are i-particle; 
#                 coumns are :mass, tag, x ,y, z, vx, vy, vz, ax, ay, az
# 
#                 NTHU, Computational Physics Lab
# 
#                 ----------------------------------------------------
#                 Time = 1.300000000000001
1.000000000000000000e+00 2.000000000000000000e+00 3.000000000000000000e+00 4.000000000000000000e+00 5.000000000000000000e+00 6.000000000000000000e+00 7.000000000000000000e+00 8.000000000000000000e+00 9.000000000000000000e+00 1.000000000000000000e+01 1.100000000000000000e+01 1.200000000000000000e+01 1.300000000000000000e+01 1.400000000000000000e+01 1.500000000000000000e+01 1.600000000000000000e+01 1.700000000000000000e+01 1.800000000000000000e+01 1.900000000000000000e+01 2.000000000000000000e+01 2.100000000000000000e+01 2.200000000000000000e+01 2.300000000000000000e+01 2.400000000000000000e+01 2.500000000000000000e+01 2.600000000000000000e+01 2.700000000000000000e+01 2.800000000000000000e+01 2.900000000000000000e+01 3.000000000000000000e+01 3.100000000000000000e+01 3.200000000000000000e+01 3.300000000000000000e+01 3.400000000000000000e+01 3.500000000000000000e+01 3.600000000000000000e+01 3.700000000000000000e+01 3.800000000000000000e+01 3.900000000000000000e+01 4.000000000000000000e+01 4.100000000000000000e+01 4.200000000000000000e+01 4.300000000000000000e+01 4.400000000000000000e+01 4.500000000000000000e+01 4.600000000000000000e+01 4.700000000000000000e+01 4.800000000000000000e+01 4.900000000000000000e+01 5.000000000000000000e+01 5.100000000000000000e+01 5.200000000000000000e+01 5.300000000000000000e+01 5.400000000000000000e+01 5.500000000000000000e+01 5.600000000000000000e+01 5.700000000000000000e+01 5.800000000000000000e+01 5.900000000000000000e+01 6.000000000000000000e+01 6.100000000000000000e+01 6.200000000000000000e+01 6.300000000000000000e+01 6.400000000000000000e+01 6.500000000000000000e+01 6.600000000000000000e+01 6.700000000000000000e+01 6.800000000000000000e+01 6.900000000000000000e+01 7.000000000000000000e+01 7.100000000000000000e+01 7.200000000000000000e+01 7.300000000000000000e+01 7.400000000000000000e+01 7.500000000000000000e+01 7.600000000000000000e+01 7.700000000000000000e+01 7.800000000000000000e+01 7.900000000000000000e+01 8.000000000000000000e+01 8.100000000000000000e+01 8.200000000000000000e+01 8.300000000000000000e+01 8.400000000000000000e+01 8.500000000000000000e+01 8.600000000000000000e+01 8.700000000000000000e+01 8.800000000000000000e+01 8.900000000000000000e+01 9.000000000000000000e+01 9.100000000000000000e+01 9.200000000000000000e+01 9.300000000000000000e+01 9.400000000000000000e+01 9.500000000000000000e+01 9.600000000000000000e+01 9.700000000000000000e+01 9.800000000000000000e+01 9.900000000000000000e+01 1.000000000000000000e+02 1.010000000000000000e+02 1.020000000000000000e+02 1.030000000000000000e+02 1.040000000000000000e+02 1.050000000000000000e+02 1.060000000000000000e+02 1.070000000000000000e+02 1.080000000000000000e+02 1.090000000000000000e+02 1.100000000000000000e+02 1.110000000000000000e+02 1.120000000000000000e+02 1.130000000000000000e+02 1.140000000000000000e+02 1.150000000000000000e+02 1.160000000000000000e+02 1.170000000000000000e+02 1.180000000000000000e+02 1.190000000000000000e+02 1.200000000000000000e+02 1.210000000000000000e+02 1.220000000000000000e+02 1.230000000000000000e+02 1.240000000000000000e+02 1.250000000000000000e+02 1.260000000000000000e+02 1.270000000000000000e+02 1.280000000000000000e+02 1.290000000000000000e+02 1.300000000000000000e+02 1.310000000000000000e+02 1.320000000000000000e+02 1.330000000000000000e+02 1.340000000000000000e+02 1.350000000000000000e+02 1.360000000000000000e+02 1.370000000000000000e+02 1.380000000000000000e+02 1.390000000000000000e+02 1.400000000000000000e+02 1.410000000000000000e+02 1.420000000000000000e+02 1.430000000000000000e+02 1.440000000000000000e+02 1.450000000000000000e+02 1.460000000000000000e+02 1.470000000000000000e+02 1.480000000000000000e+02 1.490000000000000000e+02 1.500000000000000000e+02 1.510000000000000000e+02 1.520000000000000000e+02 1.530000000000000000e+02 1.540000000000000000e+02 1.550000000000000000e+02 1.560000000000000000e+02 1.570000000000000000e+02 1.580000000000000000e+02 1.590000000000000000e+02 1.600000000000000000e+02 1.610000000000000000e+02 1.620000000000000000e+02 1.630000000000000000e+02 1.640000000000000000e+02 1.650000000000000000e+02 1.660000000000000000e+02 1.670000000000000000e+02 1.680000000000000000e+02 1.690000000000000000e+02 1.700000000000000000e+02 1.710000000000000000e+02 1.720000000000000000e+02 1.730000000000000000e+02 1.740000000000000000e+02 1.750000000000000000e+02 1.760000000000000000e+02 1.770000000000000000e+02 1.780000000000000000e+02 1.790000000000000000e+02 1.800000000000000000e+02 1.810000000000000000e+02 1.820000000000000000e+02 1.830000000000000000e+02 1.840000000000000000e+02 1.850000000000000000e+02 1.860000000000000000e+02 1.870000000000000000e+02 1.880000000000000000e+02 1.890000000000000000e+02 1.900000000000000000e+02 1.910000000000000000e+02 1.920000000000000000e+02 1.930000000000000000e+02 1.940000000000000000e+02 1.950000000000000000e+02 1.960000000000000000e+02 1.970000000000000000e+02 1.980000000000000000e+02 1.990000000000000000e+02 2.000000000000000000e+02 2.010000000000000000e+02 2.020000000000000000e+02 2.030000000000000000e+02 2.040000000000000000e+02 2.050000000000000000e+02 2.060000000000000000e+02 2.070000000000000000e+02 2.080000000000000000e+02 2.090000000000000000e+02 2.100000000000000000e+02 2.110000000000000000e+02 2.120000000000000000e+02 2.130000000000000000e+02 2.140000000000000000e+02 2.150000000000000000e+02 2.160000000000000000e+02 2.170000000000000000e+02 2.180000000000000000e+02 2.190000000000000000e+02 2.200000000000000000e+02 2.210000000000000000e+02 2.220000000000000000e+02 2.230000000000000000e+02 2.240000000000000000e+02 2.250000000000000000e+02 2.260000000000000000e+02 2.270000000000000000e+02 2.280000000000000000e+02 2.290000000000000000e+02 2.300000000000000000e+02 2.310000000000000000e+02 2.320000000000000000e+02 2.330000000000000000e+02 2.340000000000000000e+02 2.350000000000000000e+02 2.360000000000000000e+02 2.370000000000000000e+02 2.380000000000000000e+02 2.390000000000000000e+02 2.400000000000000000e+02 2.410000000000000000e+02 2.420000000000000000e+02 2.430000000000000000e+02 2.440000000000000000e+02 2.450000000000000000e+02 2.460000000000000000e+02 2.470000000000000000e+02 2.480000000000000000e+02 2.490000000000000000e+02 2.500000000000000000e+02 2.510000000000000000e+02 2.520000000000000000e+02 2.530000000000000000e+02 2.540000000000000000e+02 2.550000000000000000e+02 2.560000000000000000e+02 2.570000000000000000e+02 2.580000000000000000e+02 2.590000000000000000e+02 2.600000000000000000e+02 2.610000000000000000e+02 2.620000000000000000e+02 2.630000000000000000e+02 2.640000000000000000e+02 2.650000000000000000e+02 2.660000000000000000e+02 2.670000000000000000e+02 2.680000000000000000e+02 2.690000000000000000e+02 2.700000000000000000e+02 2.710000000000000000e+02 2.720000000000000000e+02 2.730000000000000000e+02 2.740000000000000000e+02 2.750000000000000000e+02 2.760000000000000000e+02 2.770000000000000000e+02 2.780000000000000000e+02 2.790000000000000000e+02 2.800000000000000000e+02 2.810000000000000000e+02 2.820000000000000000e+02 2.830000000000000000e+02 2.840000000000000000e+02 2.850000000000000000e+02 2.860000000000000000e+02 2.870000000000000000e+02 2.880000000000000000e+02 2.890000000000000000e+02 2.900000000000000000e+02 2.910000000000000000e+02 2.920000000000000000e+02 2.930000000000000000e+02 2.940000000000000000e+02 2.950000000000000000e+02 2.960000000000000000e+02 2.970000000000000000e+02 2.980000000000000000e+02 2.990000000000000000e+02 3.000000000000000000e+02 3.010000000000000000e+02 3.020000000000000000e+02 3.030000000000000000e+02 3.040000000000000000e+02 3.050000000000000000e+02 3.060000000000000000e+02 3.070000000000000000e+02 3.080000000000000000e+02 3.090000000000000000e+02 3.100000000000000000e+02 3.110000000000000000e+02 3.120000000000000000e+02 3.130000000000000000e+02 3.140000000000000000e+02 3.150000000000000000e+02 3.160000000000000000e+02 3.170000000000000000e+02 3.180000000000000000e+02 3.190000000000000000e+02 3.200000000000000000e+02 3.210000000000000000e+02 3.220000000000000000e+02 3.230000000000000000e+02 3.240000000000000000e+02 3.250000000000000000e+02 3.260000000000000000e+02 3.270000000000000000e+02 3.280000000000000000e+02 3.290000000000000000e+02 3.300000000000000000e+02 3.310000000000000000e+02 3.320000000000000000e+02 3.330000000000000000e+02 3.340000000000000000e+02 3.350000000000000000e+02 3.360000000000000000e+02 3.370000000000000000e+02 3.380000000000000000e+02 3.390000000000000000e+02 3.400000000000000000e+02 3.410000000000000000e+02 3.420000000000000000e+02 3.430000000000000000e+02 3.440000000000000000e+02 3.450000000000000000e+02 3.460000000000000000e+02 3.470000000000000000e+02 3.480000000000000000e+02 3.490000000000000000e+02 3.500000000000000000e+02 3.510000000000000000e+02 3.520000000000000000e+02 3.530000000000000000e+02 3.540000000000000000e+02 3.550000000000000000e+02 3.560000000000000000e+02 3.570000000000000000e+02 3.580000000000000000e+02 3.590000000000000000e+02 3.600000000000000000e+02 3.610000000000000000e+02 3.620000000000000000e+02 3.630000000000000000e+02 3.640000000000000000e+02 3.650000000000000000e+02 3.660000000000000000e+02 3.670000000000000000e+02 3.680000000000000000e+02 3.690000000000000000e+02 3.700000000000000000e+02 3.710000000000000000e+02 3.720000000000000000e+02 3.730000000000000000e+02 3.740000000000000000e+02 3.750000000000000000e+02 3.760000000000000000e+02 3.770000000000000000e+02 3.780000000000000000e+02 3.790000000000000000e+02 3.800000000000000000e+02 3.810000000000000000e+02 3.820000000000000000e+02 3.830000000000000000e+02 3.840000000000000000e+02 3.850000000000000000e+02 3.860000000000000000e+02 3.870000000000000000e+02 3.880000000000000000e+02 3.890000000000000000e+02 3.900000000000000000e+02 3.910000000000000000e+02 3.920000000000000000e+02 3.930000000000000000e+02 3.940000000000000000e+02 3.950000000000000000e+02 3.960000000000000000e+02 3.970000000000000000e+02 3.980000000000000000e+02 3.990000000000000000e+02 4.000000000000000000e+02 4.010000000000000000e+02 4.020000000000000000e+02 4.030000000000000000e+02 4.040000000000000000e+02 4.050000000000000000e+02 4.060000000000000000e+02 4.070000000000000000e+02 4.080000000000000000e+02 4.090000000000000000e+02 4.100000000000000000e+02 4.110000000000000000e+02 4.120000000000000000e+02 4.130000000000000000e+02 4.140000000000000000e+02 4.150000000000000000e+02 4.160000000000000000e+02 4.170000000000000000e+02 4.180000000000000000e+02 4.190000000000000000e+02 4.200000000000000000e+02 4.210000000000000000e+02 4.220000000000000000e+02 4.230000000000000000e+02 4.240000000000000000e+02 4.250000000000000000e+02 4.260000000000000000e+02 4.270000000000000000e+02 4.280000000000000000e+02 4.290000000000000000e+02 4.300000000000000000e+02 4.310000000000000000e+02 4.320000000000000000e+02 4.330000000000000000e+02 4.340000000000000000e+02 4.350000000000000000e+02 4.360000000000000000e+02 4.370000000000000000e+02 4.380000000000000000e+02 4.390000000000000000e+02 4.400000000000000000e+02 4.410000000000000000e+02 4.420000000000000000e+02 4.430000000000000000e+02 4.440000000000000000e+02 4.450000000000000000e+02 4.460000000000000000e+02 4.470000000000000000e+02 4.480000000000000000e+02 4.490000000000000000e+02 4.500000000000000000e+02 4.510000000000000000e+02 4.520000000000000000e+02 4.530000000000000000e+02 4.540000000000000000e+02 4.550000000000000000e+02 4.560000000000000000e+02 4.570000000000000000e+02 4.580000000000000000e+02 4.590000000000000000e+02 4.600000000000000000e+02 4.610000000000000000e+02 4.620000000000000000e+02 4.630000000000000000e+02 4.640000000000000000e+02 4.650000000000000000e+02 4.660000000000000000e+02 4.670000000000000000e+02 4.680000000000000000e+02 4.690000000000000000e+02 4.700000000000000000e+02 4.710000000000000000e+02 4.720000000000000000e+02 4.730000000000000000e+02 4.740000000000000000e+02 4.750000000000000000e+02 4.760000000000000000e+02 4.770000000000000000e+02 4.780000000000000000e+02 4.790000000000000000e+02 4.800000000000000000e+02 4.810000000000000000e+02 4.820000000000000000e+02 4.830000000000000000e+02 4.840000000000000000e+02 4.850000000000000000e+02 4.860000000000000000e+02 4.870000000000000000e+02 4.880000000000000000e+02 4.890000000000000000e+02 4.900000000000000000e+02 4.910000000000000000e+02 4.920000000000000000e+02 4.930000000000000000e+02 4.940000000000000000e+02 4.950000000000000000e+02 4.960000000000000000e+02 4.970000000000000000e+02 4.980000000000000000e+02 4.990000000000000000e+02 5.000000000000000000e+02 5.010000000000000000e+02 5.020000000000000000e+02 5.030000000000000000e+02 5.040000000000000000e+02 5.050000000000000000e+02 5.060000000000000000e+02 5.070000000000000000e+02 5.080000000000000000e+02 5.090000000000000000e+02 5.100000000000000000e+02 5.110000000000000000e+02 5.120000000000000000e+02 5.130000000000000000e+02 5.140000000000000000e+02 5.150000000000000000e+02 5.160000000000000000e+02 5.170000000000000000e+02 5.180000000000000000e+02 5.190000000000000000e+02 5.200000000000000000e+02 5.210000000000000000e+02 5.220000000000000000e+02 5.230000000000000000e+02 5.240000000000000000e+02 5.250000000000000000e+02 5.260000000000000000e+02 5.270000000000000000e+02 5.280000000000000000e+02 5.290000000000000000e+02 5.300000000000000000e+02 5.310000000000000000e+02 5.320000000000000000e+02 5.330000000000000000e+02 5.340000000000000000e+02 5.350000000000000000e+02 5.360000000000000000e+02 5.370000000000000000e+02 5.380000000000000000e+02 5.390000000000000000e+02 5.400000000000000000e+02 5.410000000000000000e+02 5.420000000000000000e+02 5.430000000000000000e+02 5.440000000000000000e+02 5.450000000000000000e+02 5.460000000000000000e+02 5.470000000000000000e+02 5.480000000000000000e+02 5.490000000000000000e+02 5.500000000000000000e+02 5.510000000000000000e+02 5.520000000000000000e+02 5.530000000000000000e+02 5.540000000000000000e+02 5.550000000000000000e+02 5.560000000000000000e+02 5.570000000000000000e+02 5.580000000000000000e+02 5.590000000000000000e+02 5.600000000000000000e+02 5.610000000000000000e+02 5.620000000000000000e+02 5.630000000000000000e+02 5.640000000000000000e+02 5.650000000000000000e+02 5.660000000000000000e+02 5.670000000000000000e+02 5.680000000000000000e+02 5.690000000000000000e+02 5.700000000000000000e+02 5.710000000000000000e+02 5.720000000000000000e+02 5.730000000000000000e+02 5.740000000000000000e+02 5.750000000000000000e+02 5.760000000000000000e+02 5.770000000000000000e+02 5.780000000000000000e+02 5.790000000000000000e+02 5.800000000000000000e+02 5.810000000000000000e+02 5.820000000000000000e+02 5.830000000000000000e+02 5.840000000000000000e+02 5.850000000000000000e+02 5.860000000000000000e+02 5.870000000000000000e+02 5.880000000000000000e+02 5.890000000000000000e+02 5.900000000000000000e+02 5.910000000000000000e+02 5.920000000000000000e+02 5.930000000000000000e+02 5.940000000000000000e+02 5.950000000000000000e+02 5.960000000000000000e+02 5.970000000000000000e+02 5.980000000000000000e+02 5.990000000000000000e+02 6.000000000000000000e+02 6.010000000000000000e+02 6.020000000000000000e+02 6.030000000000000000e+02 6.040000000000000000e+02 6.050000000000000000e+02 6.060000000000000000e+02 6.070000000000000000e+02 6.080000000000000000e+02 6.090000000000000000e+02 6.100000000000000000e+02 6.110000000000000000e+02 6.120000000000000000e+02 6.130000000000000000e+02 6.140000000000000000e+02 6.150000000000000000e+02 6.160000000000000000e+02 6.170000000000000000e+02 6.180000000000000000e+02 6.190000000000000000e+02 6.200000000000000000e+02 6.210000000000000000e+02 6.220000000000000000e+02 6.230000000000000000e+02 6.240000000000000000e+02 6.250000000000000000e+02 6.260000000000000000e+02 6.270000000000000000e+02 6.280000000000000000e+02 6.290000000000000000e+02 6.300000000000000000e+02 6.310000000000000000e+02 6.320000000000000000e+02 6.330000000000000000e+02 6.340000000000000000e+02 6.350000000000000000e+02 6.360000000000000000e+02 6.370000000000000000e+02 6.380000000000000000e+02 6.390000000000000000e+02 6.400000000000000000e+02 6.410000000000000000e+02 6.420000000000000000e+02 6.430000000000000000e+02 6.440000000000000000e+02 6.450000000000000000e+02 6.460000000000000000e+02 6.470000000000000000e+02 6.480000000000000000e+02 6.490000000000000000e+02 6.500000000000000000e+02 6.510000000000000000e+02 6.520000000000000000e+02 6.530000000000000000e+02 6.540000000000000000e+02 6.550000000000000000e+02 6.560000000000000000e+02 6.570000000000000000e+02 6.580000000000000000e+02 6.590000000000000000e+02 6.600000000000000000e+02 6.610000000000000000e+02 6.620000000000000000e+02 6.630000000000000000e+02 6.640000000000000000e+02 6.650000000000000000e+02 6.660000000000000000e+02 6.670000000000000000e+02 6.680000000000000000e+02 6.690000000000000000e+02 6.700000000000000000e+02 6.710000000000000000e+02 6.720000000000000000e+02 6.730000000000000000e+02 6.740000000000000000e+02 6.750000000000000000e+02 6.760000000000000000e+02 6.770000000000000000e+02 6.780000000000000000e+02 6.790000000000000000e+02 6.800000000000000000e+02 6.810000000000000000e+02 6.820000000000000000e+02 6.830000000000000000e+02 6.840000000000000000e+02 6.850000000000000000e+02 6.860000000000000000e+02 6.870000000000000000e+02 6.880000000000000000e+02 6.890000000000000000e+02 6.900000000000000000e+02 6.910000000000000000e+02 6.920000000000000000e+02 6.930000000000000000e+02 6.940000000000000000e+02 6.950000000000000000e+02 6.960000000000000000e+02 6.970000000000000000e+02 6.980000000000000000e+02 6.990000000000000000e+02 7.000000000000000000e+02 7.010000000000000000e+02 7.020000000000000000e+02 7.030000000000000000e+02 7.040000000000000000e+02 7.050000000000000000e+02 7.060000000000000000e+02 7.070000000000000000e+02 7.080000000000000000e+02 7.090000000000000000e+02 7.100000000000000000e+02 7.110000000000000000e+02 7.120000000000000000e+02 7.130000000000000000e+02 7.140000000000000000e+02 7.150000000000000000e+02 7.160000000000000000e+02 7.170000000000000000e+02 7.180000000000000000e+02 7.190000000000000000e+02 7.200000000000000000e+02 7.210000000000000000e+02 7.220000000000000000e+02 7.230000000000000000e+02 7.240000000000000000e+02 7.250000000000000000e+02 7.260000000000000000e+02 7.270000000000000000e+02 7.280000000000000000e+02 7.290000000000000000e+02 7.300000000000000000e+02 7.310000000000000000e+02 7.320000000000000000e+02 7.330000000000000000e+02 7.340000000000000000e+02 7.350000000000000000e+02 7.360000000000000000e+02 7.370000000000000000e+02 7.380000000000000000e+02 7.390000000000000000e+02 7.400000000000000000e+02 7.410000000000000000e+02 7.420000000000000000e+02 7.430000000000000000e+02 7.440000000000000000e+02 7.450000000000000000e+02 7.460000000000000000e+02 7.470000000000000000e+02 7.480000000000000000e+02 7.490000000000000000e+02 7.500000000000000000e+02 7.510000000000000000e+02 7.520000000000000000e+02 7.530000000000000000e+02 7.540000000000000000e+02 7.550000000000000000e+02 7.560000000000000000e+02 7.570000000000000000e+02 7.580000000000000000e+02 7.590000000000000000e+02 7.600000000000000000e+02 7.610000000000000000e+02 7.620000000000000000e+02 7.630000000000000000e+02 7.640000000000000000e+02 7.650000000000000000e+02 7.660000000000000000e+02 7.670000000000000000e+02 7.680000000000000000e+02 7.690000000000000000e+02 7.700000000000000000e+02 7.710000000000000000e+02 7.720000000000000000e+02 7.730000000000000000e+02 7.740000000000000000e+02 7.750000000000000000e+02 7.760000000000000000e+02 7.770000000000000000e+02 7.780000000000000000e+02 7.790000000000000000e+02 7.800000000000000000e+02 7.810000000000000000e+02 7.820000000000000000e+02 7.830000000000000000e+02 7.840000000000000000e+02 7.850000000000000000e+02 7.860000000000000000e+02 7.870000000000000000e+02 7.880000000000000000e+02 7.890000000000000000e+02 7.900000000000000000e+02 7.910000000000000000e+02 7.920000000000000000e+02 7.930000000000000000e+02 7.940000000000000000e+02 7.950000000000000000e+02 7.960000000000000000e+02 7.970000000000000000e+02 7.980000000000000000e+02 7.990000000000000000e+02 8.000000000000000000e+02 8.010000000000000000e+02 8.020000000000000000e+02 8.030000000000000000e+02 8.040000000000000000e+02 8.050000000000000000e+02 8.060000000000000000e+02 8.070000000000000000e+02 8.080000000000000000e+02 8.090000000000000000e+02 8.100000000000000000e+02 8.110000000000000000e+02 8.120000000000000000e+02 8.130000000000000000e+02 8.140000000000000000e+02 8.150000000000000000e+02 8.160000000000000000e+02 8.170000000000000000e+02 8.180000000000000000e+02 8.190000000000000000e+02 8.200000000000000000e+02 8.210000000000000000e+02 8.220000000000000000e+02 8.230000000000000000e+02 8.240000000000000000e+02 8.250000000000000000e+02 8.260000000000000000e+02 8.270000000000000000e+02 8.280000000000000000e+02 8.290000000000000000e+02 8.300000000000000000e+02 8.310000000000000000e+02 8.320000000000000000e+02 8.330000000000000000e+02 8.340000000000000000e+02 8.350000000000000000e+02 8.360000000000000000e+02 8.370000000000000000e+02 8.380000000000000000e+02 8.390000000000000000e+02 8.400000000000000000e+02 8.410000000000000000e+02 8.420000000000000000e+02 8.430000000000000000e+02 8.440000000000000000e+02 8.450000000000000000e+02 8.460000000000000000e+02 8.470000000000000000e+02 8.480000000000000000e+02 8.490000000000000000e+02 8.500000000000000000e+02 8.510000000000000000e+02 8.520000000000000000e+02 8.530000000000000000e+02 8.540000000000000000e+02 8.550000000000000000e+02 8.560000000000000000e+02 8.570000000000000000e+02 8.580000000000000000e+02 8.590000000000000000e+02 8.600000000000000000e+02 8.610000000000000000e+02 8.620000000000000000e+02 8.630000000000000000e+02 8.640000000000000000e+02 8.650000000000000000e+02 8.660000000000000000e+02 8.670000000000000000e+02 8.680000000000000000e+02 8.690000000000000000e+02 8.700000000000000000e+02 8.710000000000000000e+02 8.720000000000000000e+02 8.730000000000000000e+02 8.740000000000000000e+02 8.750000000000000000e+02 8.760000000000000000e+02 8.770000000000000000e+02 8.780000000000000000e+02 8.790000000000000000e+02 8.800000000000000000e+02 8.810000000000000000e+02 8.820000000000000000e+02 8.830000000000000000e+02 8.840000000000000000e+02 8.850000000000000000e+02 8.860000000000000000e+02 8.870000000000000000e+02 8.880000000000000000e+02 8.890000000000000000e+02 8.900000000000000000e+02 8.910000000000000000e+02 8.920000000000000000e+02 8.930000000000000000e+02 8.940000000000000000e+02 8.950000000000000000e+02 8.960000000000000000e+02 8.970000000000000000e+02 8.980000000000000000e+02 8.990000000000000000e+02 9.000000000000000000e+02 9.010000000000000000e+02 9.020000000000000000e+02 9.030000000000000000e+02 9.040000000000000000e+02 9.050000000000000000e+02 9.060000000000000000e+02 9.070000000000000000e+02 9.080000000000000000e+02 9.090000000000000000e+02 9.100000000000000000e+02 9.110000000000000000e+02 9.120000000000000000e+02 9.130000000000000000e+02 9.140000000000000000e+02 9.150000000000000000e+02 9.160000000000000000e+02 9.170000000000000000e+02 9.180000000000000000e+02 9.190000000000000000e+02 9.200000000000000000e+02 9.210000000000000000e+02 9.220000000000000000e+02 9.230000000000000000e+02 9.240000000000000000e+02 9.250000000000000000e+02 9.260000000000000000e+02 9.270000000000000000e+02 9.280000000000000000e+02 9.290000000000000000e+02 9.300000000000000000e+02 9.310000000000000000e+02 9.320000000000000000e+02 9.330000000000000000e+02 9.340000000000000000e+02 9.350000000000000000e+02 9.360000000000000000e+02 9.370000000000000000e+02 9.380000000000000000e+02 9.390000000000000000e+02 9.400000000000000000e+02 9.410000000000000000e+02 9.420000000000000000e+02 9.430000000000000000e+02 9.440000000000000000e+02 9.450000000000000000e+02 9.460000000000000000e+02 9.470000000000000000e+02 9.480000000000000000e+02 9.490000000000000000e+02 9.500000000000000000e+02 9.510000000000000000e+02 9.520000000000000000e+02 9.530000000000000000e+02 9.540000000000000000e+02 9.550000000000000000e+02 9.560000000000000000e+02 9.570000000000000000e+02 9.580000000000000000e+02 9.590000000000000000e+02 9.600000000000000000e+02 9.610000000000000000e+02 9.620000000000000000e+02 9.630000000000000000e+02 9.640000000000000000e+02 9.650000000000000000e+02 9.660000000000000000e+02 9.670000000000000000e+02 9.680000000000000000e+02 9.690000000000000000e+02 9.700000000000000000e+02 9.710000000000000000e+02 9.720000000000000000e+02 9.730000000000000000e+02 9.740000000000000000e+02 9.750000000000000000e+02 9.760000000000000000e+02 9.770000000000000000e+02 9.780000000000000000e+02 9.790000000000000000e+02 9.800000000000000000e+02 9.810000000000000000e+02 9.820000000000000000e+02 9.830000000000000000e+02 9.840000000000000000e+02 9.850000000000000000e+02 9.860000000000000000e+02 9.870000000000000000e+02 9.880000000000000000e+02 9.890000000000000000e+02 9.900000000000000000e+02 9.910000000000000000e+02 9.920000000000000000e+02 9.930000000000000000e+02 9.940000000000000000e+02 9.950000000000000000e+02 9.960000000000000000e+02 9.970000000000000000e+02 9.980000000000000000e+02 9.990000000000000000e+02 1.000000000000000000e+03
1.000000000000000021e-02 1.000000000000000021e-02 1.000000000000000021e-02 1.000000000000000021e-02 1.000000000000000021e-02 1.000000000000000021e-02 1.000000000000000021e-02 1.000000000000000021e-02 1.000000000000000021e-02 1.000000000000000021e-02 1.000000000000000021e-02 1.000000000000000021e-02 1.000000000000000021e-02 1.000000000000000021e-02 1.000000000000000021e-02 1.000000000000000021e-02 1.000000000000000021e-02 1.000000000000000021e-02 1.000000000000000021e-02 1.000000000000000021e-02 1.000000000000000021e-02 1.000000000000000021e-02 1.000000000000000021e-02 1.000000000000000021e-02 1.000000000000000021e-02 1.000000000000000021e-02 1.000000000000000021e-02 1.000000000000000021e-02 1.000000000000000021e-02 1.000000000000000021e-02 1.000000000000000021e-02 1.000000000000000021e-02 1.000000000000000021e-02 1.000000000000000021e-02 1.000000000000000021e-02 1.000000000000000021e-02 1.000000000000000021e-02 1.000000000000000021e-02 1.000000000000000021e-02 1.000000000000000021e-02 1.000000000000000021e-02 1.000000000000000021e-02 1.000000000000000021e-02 1.000000000000000021e-02 1.000000000000000021e-02 1.000000000000000021e-02 1.000000000000000021e-02 1.000000000000000021e-02 1.000000000000000021e-02 1.000000000000000021e-02 1.000000000000000021e-02 1.000000000000000021e-02 1.000000000000000021e-02 1.000000000000000021e-02 1.000000000000000021e-02 1.000000000000000021e-02 1.000000000000000021e-02 1.000000000000000021e-02 1.000000000000000021e-02 1.000000000000000021e-02 1.000000000000000021e-02 1.000000000000000021e-02 1.000000000000000021e-02 1.000000000000000021e-02 1.000000000000000021e-02 1.000000000000000021e-02 1.000000000000000021e-02 1.000000000000000021e-02 1.000000000000000021e-02 1.000000000000000021e-02 1.000000000000000021e-02 1.000000000000000021e-02 1.000000000000000021e-02 1.000000000000000021e-02 1.000000000000000021e-02 1.000000000000000021e-02 1.000000000000000021e-02 1.000000000000000021e-02 1.000000000000000021e-02 1.000000000000000021e-02 1.000000000000000021e-02 1.000000000000000021e-02 1.000000000000000021e-02 1.000000000000000021e-02 1.000000000000000021e-02 1.000000000000000021e-02 1.000000000000000021e-02 1.000000000000000021e-02 1.000000000000000021e-02 1.000000000000000021e-02 1.000000000000000021e-02 1.000000000000000021e-02 1.000000000000000021e-02 1.000000000000000021e-02 1.000000000000000021e-02 1.000000000000000021e-02 1.000000000000000021e-02 1.000000000000000021e-02 1.000000000000000021e-02 1.000000000000000021e-02 1.000000000000000021e-02 1.000000000000000021e-02 1.000000000000000021e-02 1.000000000000000021e-02 1.000000000000000021e-02 1.000000000000000021e-02 1.000000000000000021e-02 1.000000000000000021e-02 1.000000000000000021e-02 1.000000000000000021e-02 1.000000000000000021e-02 1.000000000000000021e-02 1.000000000000000021e-02 1.000000000000000021e-02 1.000000000000000021e-02 1.000000000000000021e-02 1.000000000000000021e-02 1.000000000000000021e-02 1.000000000000000021e-02 1.000000000000000021e-02 1.000000000000000021e-02 1.000000000000000021e-02 1.000000000000000021e-02 1.000000000000000021e-02 1.000000000000000021e-02 1.000000000000000021e-02 1.000000000000000021e-02 1.000000000000000021e-02 1.000000000000000021e-02 1.000000000000000021e-02 1.000000000000000021e-02 1.000000000000000021e-02 1.000000000000000021e-02 1.000000000000000021e-02 1.000000000000000021e-02 1.000000000000000021e-02 1.000000000000000021e-02 1.000000000000000021e-02 1.000000000000000021e-02 1.000000000000000021e-02 1.000000000000000021e-02 1.000000000000000021e-02 1.000000000000000021e-02 1.000000000000000021e-02 1.000000000000000021e-02 1.000000000000000021e-02 1.000000000000000021e-02 1.000000000000000021e-02 1.000000000000000021e-02 1.000000000000000021e-02 1.000000000000000021e-02 1.000000000000000021e-02 1.000000000000000021e-02 1.000000000000000021e-02 1.000000000000000021e-02 1.000000000000000021e-02 1.000000000000000021e-02 1.000000000000000021e-02 1.000000000000000021e-02 1.000000000000000021e-02 1.000000000000000021e-02 1.000000000000000021e-02 1.000000000000000021e-02 1.000000000000000021e-02 1.000000000000000021e-02 1.000000000000000021e-02 1.000000000000000021e-02 1.000000000000000021e-02 1.000000000000000021e-02 1.000000000000000021e-02 1.000000000000000021e-02 1.000000000000000021e-02 1.000000000000000021e-02 1.000000000000000021e-02 1.000000000000000021e-02 1.000000000000000021e-02 1.000000000000000021e-02 1.000000000000000021e-02 1.000000000000000021e-02 1.000000000000000021e-02 1.000000000000000021e-02 1.000000000000000021e-02 1.000000000000000021e-02 1.000000000000000021e-02 1.000000000000000021e-02 1.000000000000000021e-02 1.000000000000000021e-02 1.000000000000000021e-02 1.000000000000000021e-02 1.000000000000000021e-02 1.000000000000000021e-02 1.000000000000000021e-02 1.000000000000000021e-02 1.000000000000000021e-02 1.000000000000000021e-02 1.000000000000000021e-02 1.000000000000000021e-02 1.000000000000000021e-02 1.000000000000000021e-02 1.000000000000000021e-02 1.000000000000000021e-02 1.000000000000000021e-02 1.000000000000000021e-02 1.000000000000000021e-02 1.000000000000000021e-02 1.000000000000000021e-02 1.000000000000000021e-02 1.000000000000000021e-02 1.000000000000000021e-02 1.000000000000000021e-02 1.000000000000000021e-02 1.000000000000000021e-02 1.000000000000000021e-02 1.000000000000000021e-02 1.000000000000000021e-02 1.000000000000000021e-02 1.000000000000000021e-02 1.000000000000000021e-02 1.000000000000000021e-02 1.000000000000000021e-02 1.000000000000000021e-02 1.000000000000000021e-02 1.000000000000000021e-02 1.000000000000000021e-02 1.000000000000000021e-02 1.000000000000000021e-02 1.000000000000000021e-02 1.000000000000000021e-02 1.000000000000000021e-02 1.000000000000000021e-02 1.000000000000000021e-02 1.000000000000000021e-02 1.000000000000000021e-02 1.000000000000000021e-02 1.000000000000000021e-02 1.000000000000000021e-02 1.000000000000000021e-02 1.000000000000000021e-02 1.000000000000000021e-02 1.000000000000000021e-02 1.000000000000000021e-02 1.000000000000000021e-02 1.000000000000000021e-02 1.000000000000000021e-02 1.000000000000000021e-02 1.000000000000000021e-02 1.000000000000000021e-02 1.000000000000000021e-02 1.000000000000000021e-02 1.000000000000000021e-02 1.000000000000000021e-02 1.000000000000000021e-02 1.000000000000000021e-02 1.000000000000000021e-02 1.000000000000000021e-02 1.000000000000000021e-02 1.000000000000000021e-02 1.000000000000000021e-02 1.000000000000000021e-02 1.000000000000000021e-02 1.000000000000000021e-02 1.000000000000000021e-02 1.000000000000000021e-02 1.000000000000000021e-02 1.000000000000000021e-02 1.000000000000000021e-02 1.000000000000000021e-02 1.000000000000000021e-02 1.000000000000000021e-02 1.000000000000000021e-02 1.000000000000000021e-02 1.000000000000000021e-02 1.000000000000000021e-02 1.000000000000000021e-02 1.000000000000000021e-02 1.000000000000000021e-02 1.000000000000000021e-02 1.000000000000000021e-02 1.000000000000000021e-02 1.000000000000000021e-02 1.000000000000000021e-02 1.000000000000000021e-02 1.000000000000000021e-02 1.000000000000000021e-02 1.000000000000000021e-02 1.000000000000000021e-02 1.000000000000000021e-02 1.000000000000000021e-02 1.000000000000000021e-02 1.000000000000000021e-02 1.000000000000000021e-02 1.000000000000000021e-02 1.000000000000000021e-02 1.000000000000000021e-02 1.000000000000000021e-02 1.000000000000000021e-02 1.000000000000000021e-02 1.000000000000000021e-02 1.000000000000000021e-02 1.000000000000000021e-02 1.000000000000000021e-02 1.000000000000000021e-02 1.000000000000000021e-02 1.000000000000000021e-02 1.000000000000000021e-02 1.000000000000000021e-02 1.000000000000000021e-02 1.000000000000000021e-02 1.000000000000000021e-02 1.000000000000000021e-02 1.000000000000000021e-02 1.000000000000000021e-02 1.000000000000000021e-02 1.000000000000000021e-02 1.000000000000000021e-02 1.000000000000000021e-02 1.000000000000000021e-02 1.000000000000000021e-02 1.000000000000000021e-02 1.000000000000000021e-02 1.000000000000000021e-02 1.000000000000000021e-02 1.000000000000000021e-02 1.000000000000000021e-02 1.000000000000000021e-02 1.000000000000000021e-02 1.000000000000000021e-02 1.000000000000000021e-02 1.000000000000000021e-02 1.000000000000000021e-02 1.000000000000000021e-02 1.000000000000000021e-02 1.000000000000000021e-02 1.000000000000000021e-02 1.000000000000000021e-02 1.000000000000000021e-02 1.000000000000000021e-02 1.000000000000000021e-02 1.000000000000000021e-02 1.000000000000000021e-02 1.000000000000000021e-02 1.000000000000000021e-02 1.000000000000000021e-02 1.000000000000000021e-02 1.000000000000000021e-02 1.000000000000000021e-02 1.000000000000000021e-02 1.000000000000000021e-02 1.000000000000000021e-02 1.000000000000000021e-02 1.000000000000000021e-02 1.000000000000000021e-02 1.000000000000000021e-02 1.000000000000000021e-02 1.000000000000000021e-02 1.000000000000000021e-02 1.000000000000000021e-02 1.000000000000000021e-02 1.000000000000000021e-02 1.000000000000000021e-02 1.000000000000000021e-02 1.000000000000000021e-02 1.000000000000000021e-02 1.000000000000000021e-02 1.000000000000000021e-02 1.000000000000000021e-02 1.000000000000000021e-02 1.000000000000000021e-02 1.000000000000000021e-02 1.000000000000000021e-02 1.000000000000000021e-02 1.000000000000000021e-02 1.000000000000000021e-02 1.000000000000000021e-02 1.000000000000000021e-02 1.000000000000000021e-02 1.000000000000000021e-02 1.000000000000000021e-02 1.000000000000000021e-02 1.000000000000000021e-02 1.000000000000000021e-02 1.000000000000000021e-02 1.000000000000000021e-02 1.000000000000000021e-02 1.000000000000000021e-02 1.000000000000000021e-02 1.000000000000000021e-02 1.000000000000000021e-02 1.000000000000000021e-02 1.000000000000000021e-02 1.000000000000000021e-02 1.000000000000000021e-02 1.000000000000000021e-02 1.000000000000000021e-02 1.000000000000000021e-02 1.000000000000000021e-02 1.000000000000000021e-02 1.000000000000000021e-02 1.000000000000000021e-02 1.000000000000000021e-02 1.000000000000000021e-02 1.000000000000000021e-02 1.000000000000000021e-02 1.000000000000000021e-02 1.000000000000000021e-02 1.000000000000000021e-02 1.000000000000000021e-02 1.000000000000000021e-02 1.000000000000000021e-02 1.000000000000000021e-02 1.000000000000000021e-02 1.000000000000000021e-02 1.000000000000000021e-02 1.000000000000000021e-02 1.000000000000000021e-02 1.000000000000000021e-02 1.000000000000000021e-02 1.000000000000000021e-02 1.000000000000000021e-02 1.000000000000000021e-02 1.000000000000000021e-02 1.000000000000000021e-02 1.000000000000000021e-02 1.000000000000000021e-02 1.000000000000000021e-02 1.000000000000000021e-02 1.000000000000000021e-02 1.000000000000000021e-02 1.000000000000000021e-02 1.000000000000000021e-02 1.000000000000000021e-02 1.000000000000000021e-02 1.000000000000000021e-02 1.000000000000000021e-02 1.000000000000000021e-02 1.000000000000000021e-02 1.000000000000000021e-02 1.000000000000000021e-02 1.000000000000000021e-02 1.000000000000000021e-02 1.000000000000000021e-02 1.000000000000000021e-02 1.000000000000000021e-02 1.000000000000000021e-02 1.000000000000000021e-02 1.000000000000000021e-02 1.000000000000000021e-02 1.000000000000000021e-02 1.000000000000000021e-02 1.000000000000000021e-02 1.000000000000000021e-02 1.000000000000000021e-02 1.000000000000000021e-02 1.000000000000000021e-02 1.000000000000000021e-02 1.000000000000000021e-02 1.000000000000000021e-02 1.000000000000000021e-02 1.000000000000000021e-02 1.000000000000000021e-02 1.000000000000000021e-02 1.000000000000000021e-02 1.000000000000000021e-02 1.000000000000000021e-02 1.000000000000000021e-02 1.000000000000000021e-02 1.000000000000000021e-02 1.000000000000000021e-02 1.000000000000000021e-02 1.000000000000000021e-02 1.000000000000000021e-02 1.000000000000000021e-02 1.000000000000000021e-02 1.000000000000000021e-02 1.000000000000000021e-02 1.000000000000000021e-02 1.000000000000000021e-02 1.000000000000000021e-02 1.000000000000000021e-02 1.000000000000000021e-02 1.000000000000000021e-02 1.000000000000000021e-02 1.000000000000000021e-02 1.000000000000000021e-02 1.000000000000000021e-02 1.000000000000000021e-02 1.000000000000000021e-02 1.000000000000000021e-02 1.000000000000000021e-02 1.000000000000000021e-02 1.000000000000000021e-02 1.000000000000000021e-02 1.000000000000000021e-02 1.000000000000000021e-02 1.000000000000000021e-02 1.000000000000000021e-02 1.000000000000000021e-02 1.000000000000000021e-02 1.000000000000000021e-02 1.000000000000000021e-02 1.000000000000000021e-02 1.000000000000000021e-02 1.000000000000000021e-02 1.000000000000000021e-02 1.000000000000000021e-02 1.000000000000000021e-02 1.000000000000000021e-02 1.000000000000000021e-02 1.000000000000000021e-02 1.000000000000000021e-02 1.000000000000000021e-02 1.000000000000000021e-02 1.000000000000000021e-02 1.000000000000000021e-02 1.000000000000000021e-02 1.000000000000000021e-02 1.000000000000000021e-02 1.000000000000000021e-02 1.000000000000000021e-02 1.000000000000000021e-02 1.000000000000000021e-02 1.000000000000000021e-02 1.000000000000000021e-02 1.000000000000000021e-02 1.000000000000000021e-02 1.000000000000000021e-02 1.000000000000000021e-02 1.000000000000000021e-02 1.000000000000000021e-02 1.000000000000000021e-02 1.000000000000000021e-02 1.000000000000000021e-02 1.000000000000000021e-02 1.000000000000000021e-02 1.000000000000000021e-02 1.000000000000000021e-02 1.000000000000000021e-02 1.000000000000000021e-02 1.000000000000000021e-02 1.000000000000000021e-02 1.000000000000000021e-02 1.000000000000000021e-02 1.000000000000000021e-02 1.000000000000000021e-02 1.000000000000000021e-02 1.000000000000000021e-02 1.000000000000000021e-02 1.000000000000000021e-02 1.000000000000000021e-02 1.000000000000000021e-02 1.000000000000000021e-02 1.000000000000000021e-02 1.000000000000000021e-02 1.000000000000000021e-02 1.000000000000000021e-02 1.000000000000000021e-02 1.000000000000000021e-02 1.000000000000000021e-02 1.000000000000000021e-02 1.000000000000000021e-02 1.000000000000000021e-02 1.000000000000000021e-02 1.000000000000000021e-02 1.000000000000000021e-02 1.000000000000000021e-02 1.000000000000000021e-02 1.000000000000000021e-02 1.000000000000000021e-02 1.000000000000000021e-02 1.000000000000000021e-02 1.000000000000000021e-02 1.000000000000000021e-02 1.000000000000000021e-02 1.000000000000000021e-02 1.000000000000000021e-02 1.000000000000000021e-02 1.000000000000000021e-02 1.000000000000000021e-02 1.000000000000000021e-02 1.000000000000000021e-02 1.000000000000000021e-02 1.000000000000000021e-02 1.000000000000000021e-02 1.000000000000000021e-02 1.000000000000000021e-02 1.000000000000000021e-02 1.000000000000000021e-02 1.000000000000000021e-02 1.000000000000000021e-02 1.000000000000000021e-02 1.000000000000000021e-02 1.000000000000000021e-02 1.000000000000000021e-02 1.000000000000000021e-02 1.000000000000000021e-02 1.000000000000000021e-02 1.000000000000000021e-02 1.000000000000000021e-02 1.000000000000000021e-02 1.000000000000000021e-02 1.000000000000000021e-02 1.000000000000000021e-02 1.000000000000000021e-02 1.000000000000000021e-02 1.000000000000000021e-02 1.000000000000000021e-02 1.000000000000000021e-02 1.000000000000000021e-02 1.000000000000000021e-02 1.000000000000000021e-02 1.000000000000000021e-02 1.000000000000000021e-02 1.000000000000000021e-02 1.000000000000000021e-02 1.000000000000000021e-02 1.000000000000000021e-02 1.000000000000000021e-02 1.000000000000000021e-02 1.000000000000000021e-02 1.000000000000000021e-02 1.000000000000000021e-02 1.000000000000000021e-02 1.000000000000000021e-02 1.000000000000000021e-02 1.000000000000000021e-02 1.000000000000000021e-02 1.000000000000000021e-02 1.000000000000000021e-02 1.000000000000000021e-02 1.000000000000000021e-02 1.000000000000000021e-02 1.000000000000000021e-02 1.000000000000000021e-02 1.000000000000000021e-02 1.000000000000000021e-02 1.000000000000000021e-02 1.000000000000000021e-02 1.000000000000000021e-02 1.000000000000000021e-02 1.000000000000000021e-02 1.000000000000000021e-02 1.000000000000000021e-02 1.000000000000000021e-02 1.000000000000000021e-02 1.000000000000000021e-02 1.000000000000000021e-02 1.000000000000000021e-02 1.000000000000000021e-02 1.000000000000000021e-02 1.000000000000000021e-02 1.000000000000000021e-02 1.000000000000000021e-02 1.000000000000000021e-02 1.000000000000000021e-02 1.000000000000000021e-02 1.000000000000000021e-02 1.000000000000000021e-02 1.000000000000000021e-02 1.000000000000000021e-02 1.000000000000000021e-02 1.000000000000000021e-02 1.000000000000000021e-02 1.000000000000000021e-02 1.000000000000000021e-02 1.000000000000000021e-02 1.000000000000000021e-02 1.000000000000000021e-02 1.000000000000000021e-02 1.000000000000000021e-02 1.000000000000000021e-02 1.000000000000000021e-02 1.000000000000000021e-02 1.000000000000000021e-02 1.000000000000000021e-02 1.000000000000000021e-02 1.000000000000000021e-02 1.000000000000000021e-02 1.000000000000000021e-02 1.000000000000000021e-02 1.000000000000000021e-02 1.000000000000000021e-02 1.000000000000000021e-02 1.000000000000000021e-02 1.000000000000000021e-02 1.000000000000000021e-02 1.000000000000000021e-02 1.000000000000000021e-02 1.000000000000000021e-02 1.000000000000000021e-02 1.000000000000000021e-02 1.000000000000000021e-02 1.000000000000000021e-02 1.000000000000000021e-02 1.000000000000000021e-02 1.000000000000000021e-02 1.000000000000000021e-02 1.000000000000000021e-02 1.000000000000000021e-02 1.000000000000000021e-02 1.000000000000000021e-02 1.000000000000000021e-02 1.000000000000000021e-02 1.000000000000000021e-02 1.000000000000000021e-02 1.000000000000000021e-02 1.000000000000000021e-02 1.000000000000000021e-02 1.000000000000000021e-02 1.000000000000000021e-02 1.000000000000000021e-02 1.000000000000000021e-02 1.000000000000000021e-02 1.000000000000000021e-02 1.000000000000000021e-02 1.000000000000000021e-02 1.000000000000000021e-02 1.000000000000000021e-02 1.000000000000000021e-02 1.000000000000000021e-02 1.000000000000000021e-02 1.000000000000000021e-02 1.000000000000000021e-02 1.000000000000000021e-02 1.000000000000000021e-02 1.000000000000000021e-02 1.000000000000000021e-02 1.000000000000000021e-02 1.000000000000000021e-02 1.000000000000000021e-02 1.000000000000000021e-02 1.000000000000000021e-02 1.000000000000000021e-02 1.000000000000000021e-02 1.000000000000000021e-02 1.000000000000000021e-02 1.000000000000000021e-02 1.000000000000000021e-02 1.000000000000000021e-02 1.000000000000000021e-02 1.000000000000000021e-02 1.000000000000000021e-02 1.000000000000000021e-02 1.000000000000000021e-02 1.000000000000000021e-02 1.000000000000000021e-02 1.000000000000000021e-02 1.000000000000000021e-02 1.000000000000000021e-02 1.000000000000000021e-02 1.000000000000000021e-02 1.000000000000000021e-02 1.000000000000000021e-02 1.000000000000000021e-02 1.000000000000000021e-02 1.000000000000000021e-02 1.000000000000000021e-02 1.000000000000000021e-02 1.000000000000000021e-02 1.000000000000000021e-02 1.000000000000000021e-02 1.000000000000000021e-02 1.000000000000000021e-02 1.000000000000000021e-02 1.000000000000000021e-02 1.000000000000000021e-02 1.000000000000000021e-02 1.000000000000000021e-02 1.000000000000000021e-02 1.000000000000000021e-02 1.000000000000000021e-02 1.000000000000000021e-02 1.000000000000000021e-02 1.000000000000000021e-02 1.000000000000000021e-02 1.000000000000000021e-02 1.000000000000000021e-02 1.000000000000000021e-02 1.000000000000000021e-02 1.000000000000000021e-02 1.000000000000000021e-02 1.000000000000000021e-02 1.000000000000000021e-02 1.000000000000000021e-02 1.000000000000000021e-02 1.000000000000000021e-02 1.000000000000000021e-02 1.000000000000000021e-02 1.000000000000000021e-02 1.000000000000000021e-02 1.000000000000000021e-02 1.000000000000000021e-02 1.000000000000000021e-02 1.000000000000000021e-02 1.000000000000000021e-02 1.000000000000000021e-02 1.000000000000000021e-02 1.000000000000000021e-02 1.000000000000000021e-02 1.000000000000000021e-02 1.000000000000000021e-02 1.000000000000000021e-02 1.000000000000000021e-02 1.000000000000000021e-02 1.000000000000000021e-02 1.000000000000000021e-02 1.000000000000000021e-02 1.000000000000000021e-02 1.000000000000000021e-02 1.000000000000000021e-02 1.000000000000000021e-02 1.000000000000000021e-02 1.000000000000000021e-02 1.000000000000000021e-02 1.000000000000000021e-02 1.000000000000000021e-02 1.000000000000000021e-02 1.000000000000000021e-02 1.000000000000000021e-02 1.000000000000000021e-02 1.000000000000000021e-02 1.000000000000000021e-02 1.000000000000000021e-02 1.000000000000000021e-02 1.000000000000000021e-02 1.000000000000000021e-02 1.000000000000000021e-02 1.000000000000000021e-02 1.000000000000000021e-02 1.000000000000000021e-02 1.000000000000000021e-02 1.000000000000000021e-02 1.000000000000000021e-02 1.000000000000000021e-02 1.000000000000000021e-02 1.000000000000000021e-02 1.000000000000000021e-02 1.000000000000000021e-02 1.000000000000000021e-02 1.000000000000000021e-02 1.000000000000000021e-02 1.000000000000000021e-02 1.000000000000000021e-02 1.000000000000000021e-02 1.000000000000000021e-02 1.000000000000000021e-02 1.000000000000000021e-02 1.000000000000000021e-02 1.000000000000000021e-02 1.000000000000000021e-02 1.000000000000000021e-02 1.000000000000000021e-02 1.000000000000000021e-02 1.000000000000000021e-02 1.000000000000000021e-02 1.000000000000000021e-02 1.000000000000000021e-02 1.000000000000000021e-02 1.000000000000000021e-02 1.000000000000000021e-02 1.000000000000000021e-02 1.000000000000000021e-02 1.000000000000000021e-02 1.000000000000000021e-02 1.000000000000000021e-02 1.000000000000000021e-02 1.000000000000000021e-02 1.000000000000000021e-02 1.000000000000000021e-02 1.000000000000000021e-02 1.000000000000000021e-02 1.000000000000000021e-02 1.000000000000000021e-02 1.000000000000000021e-02 1.000000000000000021e-02 1.000000000000000021e-02 1.000000000000000021e-02 1.000000000000000021e-02 1.000000000000000021e-02 1.000000000000000021e-02 1.000000000000000021e-02 1.000000000000000021e-02 1.000000000000000021e-02 1.000000000000000021e-02 1.000000000000000021e-02 1.000000000000000021e-02 1.000000000000000021e-02 1.000000000000000021e-02 1.000000000000000021e-02 1.000000000000000021e-02 1.000000000000000021e-02 1.000000000000000021e-02 1.000000000000000021e-02 1.000000000000000021e-02 1.000000000000000021e-02 1.000000000000000021e-02 1.000000000000000021e-02 1.000000000000000021e-02 1.000000000000000021e-02 1.000000000000000021e-02 1.000000000000000021e-02 1.000000000000000021e-02 1.000000000000000021e-02 1.000000000000000021e-02 1.000000000000000021e-02 1.000000000000000021e-02 1.000000000000000021e-02 1.000000000000000021e-02 1.000000000000000021e-02 1.000000000000000021e-02 1.000000000000000021e-02 1.000000000000000021e-02 1.000000000000000021e-02 1.000000000000000021e-02 1.000000000000000021e-02 1.000000000000000021e-02 1.000000000000000021e-02 1.000000000000000021e-02 1.000000000000000021e-02 1.000000000000000021e-02 1.000000000000000021e-02 1.000000000000000021e-02 1.000000000000000021e-02 1.000000000000000021e-02 1.000000000000000021e-02 1.000000000000000021e-02 1.000000000000000021e-02 1.000000000000000021e-02 1.000000000000000021e-02 1.000000000000000021e-02 1.000000000000000021e-02 1.000000000000000021e-02 1.000000000000000021e-02 1.000000000000000021e-02 1.000000000000000021e-02 1.000000000000000021e-02 1.000000000000000021e-02 1.000000000000000021e-02 1.000000000000000021e-02 1.000000000000000021e-02 1.000000000000000021e-02 1.000000000000000021e-02 1.000000000000000021e-02 1.000000000000000021e-02 1.000000000000000021e-02 1.000000000000000021e-02 1.000000000000000021e-02 1.000000000000000021e-02 1.000000000000000021e-02 1.000000000000000021e-02 1.000000000000000021e-02 1.000000000000000021e-02 1.000000000000000021e-02 1.000000000000000021e-02 1.000000000000000021e-02 1.000000000000000021e-02 1.000000000000000021e-02 1.000000000000000021e-02 1.000000000000000021e-02 1.000000000000000021e-02 1.000000000000000021e-02 1.000000000000000021e-02 1.000000000000000021e-02 1.000000000000000021e-02 1.000000000000000021e-02 1.000000000000000021e-02 1.000000000000000021e-02 1.000000000000000021e-02 1.000000000000000021e-02 1.000000000000000021e-02 1.000000000000000021e-02 1.000000000000000021e-02 1.000000000000000021e-02 1.000000000000000021e-02 1.000000000000000021e-02 1.000000000000000021e-02 1.000000000000000021e-02 1.000000000000000021e-02 1.000000000000000021e-02 1.000000000000000021e-02 1.000000000000000021e-02 1.000000000000000021e-02 1.000000000000000021e-02 1.000000000000000021e-02 1.000000000000000021e-02 1.000000000000000021e-02 1.000000000000000021e-02 1.000000000000000021e-02 1.000000000000000021e-02 1.000000000000000021e-02 1.000000000000000021e-02 1.000000000000000021e-02 1.000000000000000021e-02 1.000000000000000021e-02 1.000000000000000021e-02 1.000000000000000021e-02 1.000000000000000021e-02 1.000000000000000021e-02 1.000000000000000021e-02 1.000000000000000021e-02 1.000000000000000021e-02
-1.054793527677005329e+02 1.605230447709164423e+02 3.714241452908020591e+01 -8.337108362188688560e+00 -8.310701528911360469e+01 -1.266070159432234554e+01 -1.967274815914888961e+02 6.833141256239444461e-01 -8.009211785483520885e+01 -1.345967130366295450e+01 -1.878859156070983616e+01 6.216609532741101063e+00 -1.687377812384033060e+00 1.587148609422804668e+02 8.005998109960565046e+01 -3.674900954031458866e+01 -5.002245379652097057e+01 7.493594922727299945e+01 3.106487405132120827e+01 -2.402310375819705968e+01 -7.456151384864986653e+01 -6.978184379458562603e+01 -1.303609647039342967e+01 2.737046083650820449e+01 -1.843732499516749783e+02 -9.336345292939141416e+01 -2.469006357923755601e+01 1.907070339528191880e+02 6.694015467752439008e+01 7.264160270571471756e+01 7.597400277472439711e+01 1.113072370492120378e+00 -7.510447232262130512e+01 1.963535912143366886e+02 -2.317291682949928600e+02 5.574644965142986308e+01 -1.135757135569497365e+02 -3.282919537366156248e+01 3.824379465994290683e+00 1.198860261058289751e+02 -1.162451978178298475e+02 -1.286731272131639869e+01 7.314160791577842247e+01 1.642689358480453450e+02 6.746252838311858113e+01 -6.465397508330086396e+01 3.891457491605856944e+01 -2.688142226463085294e+01 -6.250188052094272706e+01 1.481362150527520214e+02 -6.664038248578629009e+01 -4.926497297918201212e+01 -1.319211912793020645e+02 5.554553689154086982e+00 -4.777978531422886022e+01 3.660604630490727374e+01 -8.395776444109276326e+01 -4.734292863901941217e+01 -9.595084008348320026e+01 -1.471023474314966109e+02 1.834465949835673726e+01 4.299618189522100664e+01 -1.165158135805524182e+02 1.215189041358072508e+01 -7.497065780710197203e+01 4.648717654900292473e+01 1.577567809541095585e+02 -1.365361192402247923e+02 -4.095105074419269897e+01 6.852299216876344801e+00 2.789995072022332767e+00 4.012267041783805155e+01 7.946839895109000906e+01 7.021159921024842099e-01 -8.387055443849664726e+00 -6.623136715167365196e+01 7.402914460472712221e+01 -3.092663351253122883e+01 2.490728640564983465e+01 9.844897342438470389e+01 8.343505291155817361e+01 -4.048781088947585971e+01 5.462022051176489157e+01 1.395032735274271261e+02 1.099851182663897333e+02 -3.759430693776309340e+00 1.648102809104298103e+02 -1.055511044087052994e+02 3.919983632348974734e+00 -3.968776538858154623e+01 1.956934101034006233e+02 -2.008425327234159496e+01 2.758948221123789679e+00 -7.266124406854670781e+01 -6.777884511570659853e+00 -6.036552934659411562e+01 6.416021296949534758e+01 -8.949250942542913378e+01 6.499630026984938524e+01 -4.522412190509808028e+01 -4.706085880974968205e+01 -8.675335956275735327e+01 5.018691007138137650e+01 -5.171676592381695770e+01 -1.413047556580234243e+02 -7.516870667825280350e+01 -9.897692316781532895e+01 -1.487794312760925095e+02 1.286106170518534100e+02 -2.593574479835464075e+01 3.033530313994090477e+01 8.484949777375028646e+01 -9.842369821578134292e+01 5.386980419628749672e+01 -4.098450721567323285e+01 -6.573544178781962444e+01 -8.533310084422863895e+01 1.922386010408860955e+02 -5.368491003649232596e+01 -4.688415493636647824e+01 -4.459852856670369192e+01 7.606944015079437804e+01 -3.920947644024717960e+01 1.305260632910096206e+02 -4.728989472692047968e+01 5.220748828723449009e+01 4.300073611511650462e+00 -7.668380534700449402e+01 6.505725820366576784e+01 2.625215545630542238e+02 -8.716134557908844727e+01 4.490549505277024167e+01 -7.221928323783234305e+01 4.282698753683256143e+01 1.241906427041830483e+02 -4.871505625276575557e+01 1.385855647985033556e+01 -2.552529764003017121e+01 -9.653218429414614832e+01 -1.647270391001837098e+01 4.103105576971719515e+00 -7.383619451810103484e+00 -1.413199923905981947e+01 1.118699573348136482e+02 1.234932227901119290e+02 1.765918520583453528e+02 -2.882576272437732428e+02 3.616714948964249743e+01 -1.495798639723005152e+01 -5.903097807938594599e+01 1.708274956445592636e+02 7.207539215762253093e+01 -2.509156125875171117e+00 -1.098023447582035743e+02 -1.028389171689823556e+01 9.482984152118540067e+01 -1.272659626053049777e+02 -1.597283947330921592e+02 1.017509682289626660e+01 4.017599404185938994e+01 -5.785142234474701439e+01 3.984196509388019081e+01 -1.014646164070670835e+02 -1.433714278364656423e+02 1.996526564626437050e+01 4.603823371323822755e+01 4.588987448101097932e+00 -7.905157008222542458e+01 -8.870756551035030668e+01 -7.986439815921362140e+01 -8.301659684498721958e+01 1.203413391604420291e+01 5.386722995315491147e+01 1.105193684300383552e+02 7.531898511261351814e+01 8.493892325858131187e+01 1.020204017027809584e+02 -7.095298241211911261e+01 -7.829041294850364352e+01 6.694077407142195568e+01 6.514383410729013235e+01 5.623607246318004371e+01 -8.900811920345102379e+00 -8.649912414023611973e+01 5.130498481370845809e+01 -1.702453938387115215e+02 6.386889199547109541e+01 -4.228679419165881370e+01 -9.165925012227739899e+01 7.057268520304815240e+01 -1.634853285982406845e+01 -7.331848552949195152e+01 -5.462511042431135877e+01 -8.747829064531330800e+00 2.310524027193127665e+02 7.331206400792221700e+01 5.223687413841672367e+01 -9.890185602248583052e+01 1.412785216196132865e+02 1.039332384818677291e+00 -8.610531307431183734e+01 1.485764881504572372e+02 -1.469572462903198868e+02 1.505018007180068729e+01 -3.099117168410676015e+01 -2.119657801568619391e+02 -1.285387979986178095e+02 -8.408989406762063368e+01 -2.840176929182790033e+01 -1.149164384277498954e+02 5.556018900235048363e+01 6.268679533977219620e+01 -2.663964602549116734e+01 -9.625505274311117887e+01 1.090491002172348516e+02 1.139124326422739841e+02 4.455676051615338196e+01 1.691263220834182590e+01 2.521924157739432815e+02 4.209522922831695269e+01 -1.153601892685092594e+02 -4.352339169117239237e+01 -1.628824589096050204e+02 3.076041458426939812e+01 1.479051555482461993e+02 -1.430576113344687315e+02 1.271552789186537638e+02 -8.781068712526952424e+01 -1.830320850376542197e+01 -8.177319459593939133e-01 5.107247487943504183e+01 -1.115527402539081159e+01 -2.206477456475761656e+01 -1.811171269412476903e+01 -1.224925746035216747e+02 4.479275195276816390e+01 -2.928627991291304511e+01 -1.244381833519791947e+01 -1.036424224994256349e+01 2.183164517745680939e+02 1.684006525494323512e+02 2.247658856737395183e+02 1.273482501001974754e+02 -8.365425911307853823e+01 7.259357687750534183e+01 2.045722713770403089e+01 4.587624159496308351e+01 -3.829124120147945831e+01 2.468056735753813484e+02 -2.255077692299068204e+01 -1.321523188068693173e+02 -1.442866569038602265e+01 -4.431842264600120274e+01 -7.476936899721002305e+01 4.170546989612057587e+01 -1.131921987927781359e+01 1.758308359232035798e+02 8.920311114700471933e+01 3.950321372152959043e+01 9.468278233281934320e+01 9.154925975167682850e+01 -2.221791682921501376e+01 1.349817818301451950e+02 2.567939322140064817e+01 8.665989347112248709e+01 4.613123491812178401e+01 6.687176589014501182e+00 -1.119053353889663214e+02 -1.120628564911778824e+02 -8.708538026989110392e+01 -1.504274584967896011e+01 8.384777151471814705e+01 -2.959181056701321211e+01 9.562017371726723525e+01 4.239361172850476578e+01 -7.032649725580158417e+01 -2.894046056886211105e+01 -5.664678184372152003e+01 1.699505814081366850e+01 -4.474166490020490983e+01 -1.083518260168687277e+02 1.174865938373935705e+02 1.173602501658901929e+02 -7.639755566598056191e+01 5.184936778763052700e+00 -4.384994750827513599e+01 -3.145586972949421423e+01 -1.096726012754493595e+01 -3.023070131010954498e+01 4.306376510921238321e+01 -1.359799530550476732e+02 -5.113247052026876105e+01 -1.468040599020717991e+02 1.683295109463871597e+02 -1.947533618743033657e+01 5.690988902178814612e+01 1.149174079132491855e+01 1.395242446923577972e+02 4.307117434609375550e+01 3.446566459742552269e+01 1.491637746977625625e+02 -4.758342027725787204e+01 -9.433134341902146502e+01 2.632354116064256999e+01 -1.525983930794124319e+02 -5.158170332845783435e+01 9.883577416360081713e+01 -1.230630368367580871e+02 -3.509395358925610253e+01 8.811064738863564116e+01 -9.112172324192634676e+01 -8.630752782441543047e+01 -7.973185062723644023e+01 -6.151612820219330047e+01 2.403990683752213329e+02 1.912440999773588430e+02 9.932257007103005719e+01 -9.858554646117684683e+01 7.217066858999702106e+01 -6.391194535979109048e+01 -3.040971348824887244e+01 1.603630696554783697e+01 -3.117054320311629567e+01 -9.035648604640054771e+01 -2.758010813738952738e+00 1.419066612765602997e+01 1.048943623645859304e+02 -1.238384712574403039e+02 4.049708469154846568e+01 6.145077549790917004e+01 3.321694290942171079e+01 -8.728866485279941401e+01 -1.430774049499444516e+02 1.859509378404007691e+02 -1.713055362193295750e+01 2.424505699126163094e+01 1.507661411001041643e+02 2.565417361801276996e+01 2.667354783786507255e+01 -4.287554516445661079e+01 8.526242052325042664e+01 -1.311309035734753650e+02 -2.961096662303428673e+01 -5.905382793469565073e+00 -5.132404025745544374e+01 6.131015944936113904e+00 2.039910728853583066e+01 -3.440511825734401441e+01 1.313656712970367835e+01 2.054335771646318847e+02 -2.634700529786737633e+01 -2.694135706549979048e+01 -9.769253071149044843e+01 -1.559882198310665213e+00 -7.756511842230926845e+01 6.104850768891497026e+00 1.077011072940190672e+02 -4.996708857612039623e+01 5.797888213317929029e+00 -5.215125763819876425e+01 3.170008018244001580e+00 8.373498817061030763e+01 -1.112598521427323703e+02 -9.302768390869066195e+01 -9.853980304210949726e+01 6.848979308198209992e+01 8.311888654283276878e+01 -8.852153755575308480e+01 6.018341255631942488e+01 2.482765432638401037e+01 3.714931994250156322e+01 -1.702667125766256717e+01 8.773619794942624139e+01 7.649632569603978993e+01 -7.415025884776626697e+01 1.128676753956963452e+01 7.762504404652922574e+01 6.991480632054417299e+01 -1.913307442724392970e+01 2.394860170563181967e+01 -1.272971530348505240e+02 4.661497236682138379e+01 -3.147852465894258245e+01 -3.140176135123563128e+01 1.662471783665882583e+02 4.550271570964260803e+01 1.153683799724794028e+02 1.833402698755872393e+02 -1.321436042359999874e+02 1.431434145534511231e+02 -6.095074084233358747e+01 -1.297404132871121760e+02 7.900927286614418676e+01 -1.286532775753584588e+02 -2.757115944028616639e+01 5.412082368633282670e+01 7.698142556267881353e+00 -1.614803303483664081e+02 8.092156703507528448e+01 2.424246440718006568e+01 6.630850338259500631e+01 3.487303940663547053e+01 9.079597415054493581e+00 -6.441908230825957560e+01 1.110402328760985426e+02 5.231258492141789418e+01 -5.961680969976489308e+01 -9.718322684532374467e+01 3.732064949501733508e+01 2.473625427667623455e+01 7.911218767306644395e+01 1.764656163296286309e+02 -2.361242939987394962e+01 -1.057492181492158210e+02 -8.123802814761972968e+01 -4.925170333509205278e+01 -4.250799026064699859e+01 -1.408105062436747801e+02 -2.163878489746245393e+01 1.243445662679295225e+02 7.151867237080503514e+01 -1.174426435972475957e+02 -1.439578530719280138e+02 -6.532265256165440803e+01 -7.320180388890761947e+01 1.409597461194751986e+02 -1.636172777339590425e+02 8.311238695225779338e+01 -4.420535416648788463e+00 -4.131804256386614327e+01 1.273908207236662271e+01 8.744581642063178606e+01 4.752528043031785643e+01 1.326341411967529780e+02 -1.527344041567958470e+02 -7.770444405386542996e+01 2.437918091551774680e+01 4.023044506032275081e+01 1.977733494878058309e+02 1.396098383736319875e+02 6.292508241542870451e+01 6.919298689301675154e+01 -3.258997030507497783e+01 1.456438953904802531e+02 -1.721674229611566034e+02 -6.088712927078473314e+01 -5.150781877985013324e+01 -4.969860126223922236e+01 -9.906021440392653687e+01 -1.440031762933339898e+01 -6.584660642412036680e+01 6.826716849394877329e+01 -8.759026901151127475e+00 -5.567466325178775577e+01 -5.965343778062887026e+01 1.728880738918283839e+02 5.668500646269313847e+01 -1.320464397568034265e+01 2.004376749098315997e+02 -1.039863031345796998e+02 -3.388634352748832868e+01 6.425604884528273431e+01 -1.371193435382310477e-01 1.439528539417456621e+01 -1.200923320623018924e+02 1.690462818172497634e+02 -4.692864600281479426e+01 -2.577374930023906074e+01 -1.052158332792493809e+02 1.207029877167967129e+02 9.188458272761053536e+01 -7.431336917499649530e+01 -3.612160782424746941e+01 3.737855432485402929e+01 -1.451255925495764245e+02 -2.164160932770064216e-01 -7.161538869789703199e+01 7.351743718699173868e+00 -1.035923643985797042e+02 -1.519469012249242326e+02 -6.775385930807344437e+01 1.420232949182984896e+02 5.415872034238164900e+01 -8.590945032034841233e+01 8.540515346329617330e+01 3.275229253324877732e+01 8.467129537419039309e+01 -4.034959480754800154e+01 -8.050838062569080478e+01 1.638238806105310346e+02 3.984996859796699908e+01 2.771078383265789569e+01 -6.986760110867177787e+01 -4.051419670977764298e+01 9.082969793766087818e+00 -6.877031956133742518e+00 -1.654575909244276488e+02 -3.314949153513368429e+01 6.163216270174191891e+01 1.067589864797523802e+02 1.490470646803807426e+02 -1.272512110955807962e+01 8.574780061059391301e+01 1.509212581698026554e+02 6.064056635319250432e+01 1.411857871857409066e+02 1.536596317672316303e+01 1.255581058357227704e+02 -8.025169076567202353e+01 5.095989046709585324e+01 2.798118874156861935e+01 7.246490531322540107e+01 -1.014658552394569284e+02 1.891975456368057849e+02 -1.228380923092356625e+02 8.434408355541609126e+01 -1.024545694633739004e+02 4.407970749562033319e+01 1.318242413945317715e+01 8.650555752791571251e+01 -7.022887546439059747e+01 -7.200812206058974141e+01 -1.059895647179574318e+01 8.493231801329959296e+01 -2.820984862491162559e+01 -1.552219427387942119e+01 -1.870362914969842905e+01 4.509710010910887412e+00 9.344039985514041291e+01 -5.952218828232580705e+01 -2.567220340322273753e+00 -1.843516302445449639e+02 1.159956932600952086e+02 -1.186204917001569896e+02 -7.014933343004649657e+01 -2.232767735247696095e+01 -1.025375086066971591e+02 -5.046518462386791981e+01 -5.565339236111996257e+01 -1.871726398045028361e+01 1.293418529081831423e+02 5.133517869238914955e+01 9.533398606478557724e+01 -1.292287214619903182e+02 -1.315646111657960091e+02 -2.722786968955902012e+02 9.705532777738585537e+01 9.893391948015442949e+01 4.021188553107916874e+01 -4.035931437943978750e+01 -3.526200718316793825e+01 -1.744226780990429688e+02 1.386797055784671215e+02 -1.019748277886927781e+02 1.015622936309238469e+02 -1.511282497625637689e+02 -1.360473868572877443e+01 -5.258242946484645586e+01 -1.132522022276794615e+02 -4.378531968747404335e+01 -1.194233645687359946e+01 -8.801932831465001073e+01 -9.822758281196709618e+01 -1.174300060609587248e+01 6.758788419155057170e+01 -1.183216325558121440e+02 -1.484859235390511856e+01 -7.003269348645832792e+01 -1.247946681946563103e+02 6.221514510788358265e+00 9.027237493189845452e+01 1.572530829957240144e+02 -1.809168817573047505e+01 -4.373571343049542293e+01 -1.179896441328178867e+02 -1.555074193434721224e+02 9.865868139763395561e+01 -6.911480035647103648e+01 7.504725234270348722e+01 8.928064293320170819e+00 2.774372459453035233e+01 7.018243068745577773e+01 -8.059969785648969776e+01 7.862078999136161883e+01 1.096129268524496467e+02 1.498071485990603264e+02 -1.107597271986395526e+02 9.886900878969365181e+01 -4.545891244630745121e+01 -8.635761456807591685e+01 2.041215650001643382e+02 4.677646978569145375e+01 7.938895892539660792e+01 2.013274985191911171e+01 -6.023536885781482653e+01 -3.322437194760102130e+01 -2.001124434376814349e+02 1.004830585973655843e+02 7.748656783198987341e+01 -7.199377745017358166e+01 -6.951401620781430779e+01 1.380838023723135848e+02 9.612303168081277249e+01 4.862564568297025147e+01 7.233328554498275764e+01 -7.437187553476364066e+00 9.813929302556385892e+01 -9.854707257401189224e+01 1.772041207057229428e+02 -3.755281270607144961e+01 -1.160536331224959525e+02 -3.589027940896492908e+01 6.822971867570220184e+01 1.401173411915564202e+02 1.218210107830406663e+01 1.653221972202672703e+02 4.962004394381099814e+01 3.200363768461981806e+01 -1.058519115390791541e+02 4.257094271530650076e+01 -1.188447689064101525e+02 4.539829474588322000e+01 3.665475145703290849e+01 -1.173662885292303741e+02 -8.088209679152819831e+01 3.792483256747382825e+01 8.297717952028271782e+00 -2.205696702302673984e+01 3.985523033706843421e+01 -2.035846058681022797e+01 -6.000074765516629327e+01 -2.500204281683834040e+01 -2.130058474351392306e+01 -3.786483791463147952e+01 1.783649949633401732e+01 -7.661332414764001442e+01 1.131137373668186825e+02 -7.060930739534612144e+01 -3.955426168270819609e+00 6.246644761635033660e+01 3.671011223721586170e+00 1.519604475227274776e+01 1.519701025126851945e+01 -1.113634113855875682e+02 -4.184232534951965121e+00 6.185291647430821627e+01 -2.200774153375336937e+02 -8.075001519015100371e+01 -1.071471105414300524e+02 4.165720567560486387e+01 9.148667126420873785e+01 -8.727475303001720874e+01 -1.596394513304318252e+02 -1.761247825396007158e+02 1.896385843517152026e+01 -1.377726087768658374e+02 -6.021263679269162061e+00 1.402843264242889632e+02 -6.699067422456243648e+00 3.525414522421660735e+01 -9.384064360147266370e+01 7.577513369511318331e+01 -1.124186287748697879e+02 -1.464903373575334022e+01 -2.868157615044098918e+01 5.458949518640508813e+01 -8.348943530578869954e+00 1.000767170746289452e+02 -1.156196056634747009e+02 -4.741554302074019489e+01 8.208217019126783498e+01 6.259379470970338843e+01 -7.784767685690867722e+01 -5.147887367313156659e+01 -4.671436122997540252e+01 -2.736088186592465377e+02 1.829213963364378230e+02 7.185274628652142326e+01 -2.224609818090130275e+01 -2.802958724322949280e+01 3.921593143883146126e+01 -7.936092701268707117e+01 9.388983106213206042e+01 5.709657684728858129e+01 7.723004343371974301e+01 -7.931530459207563410e+01 -2.494988482163195442e+01 3.139126768962419334e+01 1.638578337818255903e+01 -4.041578231027777690e+01 1.489419920158310902e+02 -1.627972424092438075e+01 3.339332478959157413e+01 -2.166620360778532586e+02 -7.975443946810266027e+01 -6.889934094128084041e+01 2.170208496564241329e+01 1.028529976390464924e+02 -2.183872641744438567e+02 -1.762128352213676123e+02 2.087569012898062795e+02 -9.948966082705185343e+00 9.045058952393907248e+01 5.896189595338738343e+01 -5.210949469310764215e+01 -1.233884461856674193e+02 -8.963173178202018221e+01 -4.732048821937173955e+01 -3.522103650160504174e+01 -3.688969557163672874e+01 1.517313208351213305e+01 3.508506824650459066e+01 1.572016537480336922e+02 1.161234198244162457e+02 6.619577810416832797e+00 -4.166679256754571625e+00 -1.494930739142155005e+02 1.127037354745996254e+02 1.500287235660062208e+02 -9.747967271134194789e+01 6.943277627975194832e+01 1.558378024869918166e+00 5.177430825715381957e+01 1.180612838605151040e+02 6.682328123838391321e+01 -1.262874931056287409e+02 1.516418865013083916e+01 -2.768542206810617046e+01 1.050279177744278059e+01 -2.172542201999779365e+01 4.270039921421449236e+01 -2.456581116469254198e+02 1.707019769100664064e+02 6.817215420934885195e+00 1.502436700923906869e+02 -9.894934107897656261e+00 1.000631697332684240e+02 6.753700308950301689e+01 -3.955755112957791653e+01 2.827489373872874978e+01 -6.872801404521075597e+01 -8.399304581901971289e+01 -6.796422954023660168e+01 -3.025966338532068889e+01 4.262095339226282675e+01 1.039714614403066975e+02 2.685514818850235486e+01 5.873946873883030406e+01 -9.900271956102865545e+01 -1.295129860749213151e+02 -1.273461329628724137e+01 4.379384986399804802e+01 -4.288398205407791153e+01 8.940101580265935866e+01 5.250104653023124968e+01 -2.610838978281991274e+01 2.828893504095407252e+01 5.803428251643625657e+01 -6.812018736052515067e+01 -1.263816011513867323e+02 1.342570995208772331e+02 7.382953107108255253e+00 4.739944308285464558e+01 -1.412126948896555803e+02 -5.051878629080221828e+01 -3.959789384071021323e-01 -6.230825438644411918e+01 4.024446523857540647e+00 5.329320100997769316e+01 1.764972519512289182e+02 3.705177032567122097e+01 -1.037179858176392067e+01 6.845490652639004736e+01 -4.305220259606293354e+01 -1.032246328287939861e+02 -1.308958097712584561e+02 8.864022788638418859e+00 2.379583041346439742e+01 2.261213565229515154e+01 -5.392368910637565449e+01 1.145304256896086059e+02 -7.662937051230812813e+01 1.216890759123551646e+02 8.278585911558381838e+01 -6.169327698451581199e+01 -8.045819027036519344e+01 7.992079234257575138e+01 1.934617145141012173e+01 -4.987310634195097947e+01 -5.109848734118003932e+01 1.298796602376388876e+02 5.446365809939884173e+01 7.592830208647036727e+01 2.483644999944321086e+01 -3.992325583847476622e+01 1.020258861856101618e+02 -5.185876696823939369e+01 5.586879713579260276e-01 7.272702711367567474e+01 9.468717501045742324e+01 2.429880817336335213e+02 -1.666347358914291306e+02 1.530307122151998556e+02 -6.422063990954144685e+01 -1.449661975112341317e+01 -2.394226993403234260e+01 -1.972516057220465768e+01 -5.242099323915459053e+01 8.856136292777516417e+01 1.751980637956222608e+02 -1.130935277638464385e+02 2.946444242210498743e+01 -1.209091791470308124e+02 6.689906323245999431e+01 -4.237197549968603028e+01 -7.729352313909848249e+01 -5.144088260105459653e+01 3.932390586769815854e+01 1.846999586412278305e+01 -7.803088156636303552e+01 -1.346641277022698375e+02 1.982492688034389516e+01 1.505735115624950993e+02 1.365364519669144805e+01 1.744170421093319021e+02 7.122858751191233573e+00 1.287500361498869097e+02 -3.307639098102023212e+01 8.685200720338353619e+01 -6.835749961007738307e+01 -1.080667945172146602e+02 4.732948901483990767e+01 -5.553057714252901178e+01 -7.523533820167401132e+01 6.977431338589239829e+01 6.219882918279156847e+00 -9.033935221985302633e+01 -1.443880496192416558e+02 1.418774728308090118e+02 -8.553946200091168350e+01 -2.290370221264683259e+00 1.152684412355776402e+02 5.566947200277023455e+01 -9.431221693428287267e+01 1.024873805055198339e+01 2.709203865299176073e+02 5.119043070035628773e+01 -1.515457598931621703e+02 -4.588334320386942977e+01 -5.909546587609122525e+01 9.236526251917945629e+00 1.034484908853662120e+02 -9.957057590834338612e+01 2.078772539771276584e+01 1.255329600665043444e+02 1.806297599388017971e+01 -2.033569403206992945e+02 4.645698275000798105e+01 7.267471988319420007e+01 -1.309835717501331942e+01 3.155808877815343649e+01 1.853716945458464549e-01 2.175248710298234656e+01 2.670713309336824182e+01 1.115692237254968830e+02 9.444753171594879859e+01 1.509351171404775904e+01 1.435181548344370981e+02 -6.166037679440711372e+01 2.375748872276607813e+02 6.265906622889492894e+01 1.365500379210989195e+02 -2.115263351991798757e+01 8.678929682621667041e+01 -4.709350552908978926e+01 -1.410303652020667755e+02 2.519065919651662355e+01 9.147546737495197533e+01 -8.434929716175626879e+01 -1.009285555030637909e+02 -6.411836479680471257e+01 3.529951036472348136e+01 -1.100099553169608839e+02 7.196626870733601322e+01 2.700285114715591206e+01 -9.406330268496317615e+01 1.829957115477794218e+02 -1.133204192532202015e+01 -9.809296939543793314e+01 -1.294473767665478547e+01 -1.969479328790707129e+01 -1.351215237006135510e+02 -3.855713517505014210e+01 5.928791345121041445e+01 1.270303210057196281e+02 2.800511228726278645e+01 2.575983750161582364e+01 4.316282550483856539e+01 -3.439965364934727887e+01 -1.403581976369843005e+02 1.533937804233908686e+01 2.981181034329120649e+01 1.283170370405070457e+02 -9.505499424450508883e+00 -7.336102457536929933e+01 7.054662345059537643e+01 9.289467683331289471e-01 3.060474601418461305e+01 1.341527729204303796e+02 -1.710277544761800357e+02 -8.951087745131668783e+01 1.202332020043940730e+02 -2.020552139774542866e+02 -1.722448932677732216e+02 8.527825695058410815e+01 1.442313022787987222e+02 5.942067081109299664e+01 -4.207487746858521227e+00 1.458263177916011273e+02 -2.056391017388854721e+02 1.003612948921308572e+02 3.968815249398974032e+01 1.190140918344066847e+02 -1.766325583177996066e+02 9.970191290119460348e+01 -2.641095292796554261e+01 -1.252086734115389106e+02 -4.982418034467086088e+00 -8.652166868526340693e+01 -1.514848216492914013e+01 -4.102938816684218892e+00 -1.153847569580324546e+02 -1.154998349783497531e+02 -5.859234849331670603e+01 -1.207199371239863126e+02 1.882249279543388809e+02 -1.509474419429228078e+02 -4.700692774419621145e+01 1.616049277113626488e+02 3.178396522440948146e+01 -2.772343893097453815e+02 -1.190985952552145619e+02 3.323840808520968437e+01 5.120664563774919031e+01 7.968862120474223154e+00 -1.447698038455909000e+02 3.342172422118903796e+01 7.049575296959016413e+00 -6.961849464559733747e+01 1.898980856212087929e+02 1.897111228996080570e+02 4.081560363908526945e+00 -1.953405044125660197e+02 1.179833291761306384e+02 2.878808444462990579e+01 3.599934333830048683e+00 7.170457687554244330e+01 -1.943457243233639531e+02 -1.292552822093967393e+02 1.320583181261999641e+02 1.027079902274646628e+02 4.953192723426712263e+01 1.340721718915843041e+02 -1.669598116885604782e+02 -1.918422880515397111e+01 -1.221135261205568554e+02 4.093495736454635647e+01 -9.729278491556507902e+01 8.156424141503545400e+01 -3.179313618382618856e+01 1.160166403017335135e+01 1.661971744695674715e+02 2.676633203004043082e+01 -2.468587966977293888e+02 -1.183945526886197825e+02 -7.804988391284530280e+01 1.480852010655029005e+02 1.174782081879300577e+01 -5.050930751320305490e+01 2.836782319961934107e+01 5.850490749836909998e+01 -3.702070359976130476e+01 1.006916419281953949e+02 -9.436363188892339338e+01 4.609284594139622726e+01 1.048380487338238680e+02 -3.330735526531125856e+01 -9.190462592367229888e+01 -1.062907368718035315e+02 1.121695456712810568e+02 -4.654662627778694173e+01 1.840870293663787152e+02 5.357842296311376629e+01 1.039020683959139006e+02 1.728573002337607250e+02 8.010183538544174198e+00 -1.164480240317630262e+02 -1.551943789020425868e+02 -1.069113359528257945e+02 3.983302925447225817e+01
-1.241680058696495337e+01 -4.449825501594991017e+00 9.470780416825672887e+01 -2.095442885689900550e+02 1.421834739230979494e+02 5.806110881909688715e+01 1.391907343200400078e+02 -1.181710938352178601e+02 -2.520191866797398372e+00 -2.200046678922060295e+01 -2.007988461499213884e+02 2.990249974284785850e+01 -1.675211740824992290e+01 1.118978075765008242e+02 -1.144750782371392148e+02 5.645749838614779037e+01 1.145796281690461598e+02 -4.204644761134407105e+01 -4.531713663522147328e+01 -2.464256555889109634e+01 5.648506140667473119e+01 5.765865143708502671e+01 2.968278227187265017e+01 -2.126543840345866272e+02 -4.712512425315340892e+01 8.377642357011208674e+01 9.074183935986043892e+00 -9.510568747487903707e+00 -6.083458385957855086e+01 -1.420234680064490007e+01 6.707731412850544928e+01 -1.329850510419092586e+02 -5.669417854563159409e+01 8.189375348202977634e+00 1.898971943764473451e+02 1.939623665483443631e+02 -2.943936167472480392e+01 5.110961558585686504e+01 -2.280730217871204391e-01 -1.276994899974127833e+02 8.775795918550269903e+01 9.804071421273441445e+01 9.922990826585052559e+01 1.066665095527505791e+01 5.657822969413586378e+01 4.399865504786755821e+01 3.554696406789152974e+01 2.687477237232402416e+01 1.008416611545662249e+02 8.202246281313614418e+01 5.995058962092205235e+01 1.490690258167309992e+02 2.266995318125945857e+02 1.788726350255088278e+02 -5.408886337712090153e+01 4.505545777381735917e+01 -5.874891770091382170e+01 5.154486477047569082e+01 -1.757947127663318270e+02 5.166497594622331491e+01 -1.872133589012501886e+02 -1.542965216567574203e+02 1.185159145551756232e+01 -8.489460549272546785e+00 1.550080652268687800e+02 -1.902287399615741208e+02 6.882937727449787246e+01 2.102321378766662292e+02 -6.796415792264991929e+00 -1.782145066159334590e+02 3.246151878073401775e+01 1.803147711591729490e+02 -5.589945904994308989e+01 -2.438623760213964715e+02 -9.381450667953401990e+01 8.190238624777046894e+00 -2.104675937216497630e+02 2.939524780648044100e+01 -1.641692747951579463e+02 -1.697448838098485169e+02 -5.235923837027857530e+01 1.394470655651114441e+02 6.352021515022312315e+01 9.725646649877321082e+00 -8.118810399571593450e+01 -3.898678787456879036e+01 5.832627896131189260e+01 -2.125593510233821632e+02 4.952505431911559697e+01 -6.857063054879330366e+01 -7.157715234922957848e+01 -1.618959632611904453e+02 5.951908473199370064e+01 8.485913534820991799e+01 -1.486365382961012074e+02 1.582790202953476069e+02 -3.650883916938879992e+01 -1.550159786168621245e+01 8.033383197484808136e+01 1.432437978814475912e+02 1.995680553255546741e+01 1.387738964261940566e+02 -1.698183019946023364e+01 -8.310783239584831961e+01 -1.795698450271712332e+01 9.259459157229778725e+01 4.238082504451175225e+01 9.219334489508992192e+01 8.893286462161445627e+01 -7.833539904833993717e+01 -1.601330812839786404e+02 1.159613569520262644e+02 5.111200842657599708e+01 1.534393518531243217e+01 2.880863614803615746e+01 -6.402105090900893458e+01 9.050585090081470696e+01 8.472410429780175889e+01 -1.297240498560193878e+01 -6.718382488343307557e+01 2.890413332948261882e+01 5.932608739711225709e+00 -5.793647632294720751e+01 1.599142600201015796e+02 -3.084717300168701826e+01 1.146595575690444804e+02 -6.608362411053427365e+01 3.620377360698430635e+01 -3.398957606071675741e+01 8.441602971849334835e+01 2.212917202099468383e+01 1.090321035254264928e+02 -1.094782677154460941e+02 7.014122707119975075e+01 1.164680157829611176e+02 -4.215018523685204599e+01 7.254617445960800381e+00 -1.211876501964854747e+01 1.102667309603903902e+02 3.505115179809695558e+00 1.591049424067832092e+02 -1.334816536034689136e+02 1.100874314651820640e+02 -8.612737710769260957e+01 9.048272070157057101e+01 -1.294159395933903056e+02 2.785693514019614980e+01 2.338772829158616062e+01 1.659632790692662230e+00 3.429941662653418177e+01 4.350441802982062711e+01 -1.166688669601995088e+01 1.034531032100376535e+01 1.021256598013907961e+02 1.202038878191675337e+02 -8.195685579041868607e+01 -5.115943385676320077e+01 4.469886966724912725e+01 1.418404388305123165e+00 -1.294946837062300062e+02 -5.215216209911891809e+01 -3.344370924272078582e+01 4.620542978814395951e+01 -6.192229577345571556e+01 2.165065552558266759e+01 1.516784449192049067e+02 -7.513281107059214037e+01 7.650035332927961917e+01 7.951186586111880672e+01 1.070080281137000888e+01 1.168370165955097377e+02 5.952081119770090822e+01 1.590859914306253984e+02 -3.281614076225579879e+01 1.064679120163626749e+02 5.264184447641668640e+01 -1.520648810779114690e+01 1.934377728609437952e+02 -1.315179477791057536e+02 4.636134135554671332e+01 -1.778712357022450306e+02 -7.981739058868282655e+01 3.894896046647070875e+01 -6.852249076333522737e+01 -1.478222828542385230e+02 1.891939677228044729e+02 -8.142208514400391550e+01 -4.509187816918223746e+01 -4.393162943854532188e+01 1.156034224631418681e+02 1.849377797797902474e+02 6.148114668478064004e+01 1.388858182440530413e+02 2.084565051950147847e+02 -1.499837703887155982e+00 1.546757599109723742e+02 6.732310645591911680e+01 1.808456002359760078e+02 -1.195195465511002340e+02 -1.121882432875395708e+01 6.051933379061526175e+00 1.804008354111820154e+02 -8.626988302399273323e+01 -5.752732994896189211e+01 -5.026830841888892820e+01 -1.273535808047296030e+02 4.443948503455474430e+00 -9.586046101674396880e+01 1.464953188610205643e+02 2.234866290196436722e+01 1.137497651096910545e+01 6.867959648117519578e+01 -4.648993301217499763e+00 1.111773054183662026e+02 -1.509458785686396709e+02 4.316890024373591217e+01 -1.621987879610055359e+02 1.115442296799919148e+02 9.133900161014044272e+01 -6.389321229637701549e+01 4.448303359475906404e+01 2.262241896414290920e+02 -2.896317161567170118e+01 3.955834965599218123e+01 -3.105005795066612251e+01 5.504929205625199984e+01 6.102585460488953117e+01 -5.980148675178520890e+00 9.676406579171995759e+01 9.632514056324859553e+01 -1.841341929044955918e+02 -1.455384242361679696e+02 -1.138471126807370695e+02 -8.935805078081402897e+00 -1.422146136839784276e+02 1.097450127978456749e+02 1.047593285832185757e+02 5.605946580454745742e+01 1.060624693090434256e+01 1.497234127116913669e+02 7.972766896826314564e+01 6.412180676168506466e+01 -9.644269991922061536e+01 1.447923104762536468e+02 -3.441817897926707559e+00 1.038607472730540451e+02 8.380863522994783210e+00 3.488334089221554279e+01 -7.183395418259624421e+01 -8.612466116837359209e+01 6.796029085602741304e+01 -3.690138551118650856e+00 1.387193480812499615e+02 -1.190430411971135705e+01 -2.689672338613213753e+00 4.351631567378461796e+01 2.145678054088108766e+01 1.341775108527449731e+02 1.397819992077755558e+01 3.402453150827290074e+01 -1.467060016605201724e+02 6.240279633130204218e+01 1.267235751471069278e+02 -1.662796839255256742e+01 -2.161320741234924299e+02 7.998587172673576617e+01 1.289743364135445916e+02 1.932699573709180285e+01 1.788906297345615144e+02 -4.102619931685977939e+00 4.052005976147399480e+01 -4.125751458929188686e+01 -1.309288208594117009e+02 5.293660259784945765e+01 -4.484038941843968473e+01 -7.640912951432861178e+01 3.891264106469035511e+01 -1.743009768793431249e+02 6.753808619475454122e+01 1.551257007129913461e+02 -9.543270845908782007e+01 1.631303831047018207e+02 -9.195408494747235295e+01 -5.605358688698014014e+00 -9.954064269363321671e+00 7.223552025527621367e+01 -4.394422965535650860e+01 -1.014724080649605469e+02 -8.344849467124576847e+01 1.372552873458436693e+02 5.564061847000412797e+01 -1.241037658623052522e+02 4.142548069254529786e+00 4.081740329121911515e+01 7.763551671299649115e+01 -3.792012680375392364e+01 5.634168160978533990e+01 -6.484434646928920642e+01 -1.525492203676365079e+02 -3.253835759530974769e+01 1.324624293605266132e+02 -1.066012218856879059e+02 -5.979789433692914713e+00 -1.529698671087639639e+02 -4.593274279010453931e+00 -1.370430956547328663e+02 3.097318540370383388e+01 5.661001783365182405e+01 -4.725584073431120657e+01 -7.732274508333894403e+01 5.304190064952400974e+00 6.985498642605593034e+01 -6.361342156531414815e+01 1.263784422469759932e+02 9.910024465708683294e+01 -1.197622634846464962e+02 -9.895043106686721046e+01 1.267038302573577084e+02 6.685352445427444934e+01 1.408639829561510908e+02 9.365409253490254571e+01 7.603400743325772737e+01 -5.650445554744736398e+01 -7.657774185997617167e+01 -7.217175661133924791e+01 1.915453030384420003e+02 2.870413928937574255e+01 -2.334557790446994829e+01 -6.409070784761284756e+01 -4.668384813096405139e+01 -1.228396440385080126e+02 -1.538379887752804187e+01 -1.636623127058881551e+02 1.165951089506921221e+02 4.285211697651633500e+01 -1.074234324377873406e+02 -4.515278079902144981e+01 1.116451995352861104e+02 -9.033331890909133222e+01 9.590116944942938915e+01 -1.104915073574834423e+02 -1.099088455590355728e+01 -8.905089995105491596e+01 8.369990662357737676e+01 -3.959263917687707135e+01 9.527906473339907478e+00 2.738297911024203657e+01 -1.180452083232868858e+02 1.164762260079233513e+01 4.511824594906234154e+01 -2.079354025290997043e+01 -6.407288245145265648e+01 1.888804874915784353e+02 8.059241796907966204e+01 4.387538038023051001e+01 -2.926556639817034622e+01 7.472236778248422695e+01 1.562040692064737755e+02 -8.591213439921426698e+01 1.952286291084974437e+02 -1.240421777923204871e+02 -1.713505334170456536e+02 1.413884354201111648e+02 -2.180309644103591040e+02 -8.519147107623853410e-01 -2.282340588747756271e+02 -1.424249271402524357e+02 6.689016909157174950e+01 -1.356365201688170146e+02 5.437381745457319937e+01 1.025011005639550348e+02 -1.493533138450471256e+02 -2.800738723558820453e+01 7.028383604988890454e+01 1.247589219257192354e+02 -1.734517417434178981e+02 8.155403656929188116e+01 -9.129645451270431522e+01 -9.158949249802367021e+00 -1.288257604966582370e+01 -7.411927868397270913e+01 -8.410516017906824970e+01 1.689996290853226526e+02 -2.025680558444230428e+01 1.272819215163012441e+00 1.213897119984609247e+02 -8.088288976290748167e+01 -3.209675335388993744e+01 -1.004320754070013066e+02 -4.551317734879680899e+01 4.777138904084965887e+00 5.534185726714562747e+01 -1.260602051387912894e+02 2.214682313903562374e+02 -5.031591159625570953e+01 1.145335879984165217e+02 -4.562749006139744523e+01 1.119338965997120283e+02 1.301700159184657650e+02 4.479253715838152061e+01 1.141404010710407420e+02 -4.043574571126642780e+01 1.309464998894297878e+02 -1.464656332988263898e+02 -6.120325938229410667e+01 -5.893196287092938235e+01 2.397133965375428843e+01 -1.518952231926851937e+02 6.788988714018599069e+01 -2.887580384019376467e+01 -7.736118865448304405e+01 8.383970829098478816e+01 -1.414685435625972900e+02 -8.542685190991672073e+01 -4.933270999948165780e+01 3.095507799598346921e+01 1.215149539558468632e+02 1.093480419497330445e+02 6.465673807139243934e+01 -1.424995805558385342e+00 1.638013799533661938e+02 1.147171756666300837e+02 -8.850068795715512238e+01 -7.309519870326943192e+01 5.144922907547070423e+01 9.280646519275643769e+00 9.173184814855660818e+01 1.561733275638628129e+02 6.611029660821972698e+01 2.293031660154548845e+01 -9.572869033124598559e+01 1.607843656545460931e+02 -1.063945601092979132e+02 -1.547002022164888047e+02 6.153514965183769903e+01 1.043827924585226015e+02 1.841085774432086097e+01 -1.299471193276638985e+02 2.778139420612746235e+01 3.966252214067066717e+01 -3.753371780307313554e-01 1.225159469920807567e+02 9.159020832293464309e+01 1.601359010199440647e+01 7.327796116987052244e+01 -9.996365944214016963e+01 -5.997354798845379698e+00 9.198700578202857514e+01 2.777612433792199198e+01 -6.079862056170061635e+01 1.852157895885175378e+02 2.160885207917667401e+02 -1.172465816667756116e+02 -2.585147279609465087e+01 -1.963950252423097425e+02 -6.745853346126720851e+01 1.462616084590209482e+02 3.111610994916411244e+00 -6.633393938607902385e+01 1.529743533083720308e+02 -5.835007682145733554e+01 -1.500550462189680445e+02 1.275736024665701791e+02 -6.272467350119558205e+01 3.228754223902495113e+01 8.060319354821454851e+01 1.289301866539935837e+01 -2.225109746025136701e+02 3.955166118633547256e+01 -5.799492920748526181e+00 8.417953118288654935e+01 -2.200942258313533273e+01 9.434843784138973888e+01 1.589665744482413245e+01 -7.900872722861430475e+01 -1.913613525083178857e+01 -1.636343186996977863e+02 1.073333431100800084e+02 2.361699808418673641e+01 -3.883895426366140669e+01 -4.834531946990986739e+01 -5.878009135378614047e+01 3.842059554093670215e+01 1.500318115339918847e+02 1.238694649874632319e+02 4.015888823988817791e+01 -1.847236037569565212e+02 -3.621947809652267836e+01 4.092214538650673461e+01 1.095011515627760303e+02 8.135439002688865173e+01 1.439351057247799481e+01 -1.736247202561492315e+02 1.228682772980883584e+02 -2.088432203453490956e+02 -1.921148918757893682e+02 -1.688201314471205805e+00 -6.885039547386008962e+01 -2.255539224809190202e+01 8.130731005766581632e+01 5.219220525233455987e+01 -1.037618211993862474e+02 -1.414079358135517737e+02 1.359697541371125240e+01 1.154493711502562121e+02 1.926025264100317003e+01 -5.293215174428919312e+01 -4.825223509839047153e+01 -1.086865278145483593e+01 1.506308385305742092e+02 2.086352045971313984e+01 -1.651381330911951011e+02 1.220277799096690785e+02 -6.355276231267551879e+01 -3.963961785161540963e+00 1.463480903812511826e+02 -4.965655487215939701e+01 -1.863320740498339134e+01 -1.043995134657161827e+02 -5.693621479715637257e+00 -2.265098782490667517e+01 1.251025461167341177e+02 1.140738287542557714e+02 6.422499529560867870e+01 6.223247383313908188e+01 -1.777174582628019195e+01 1.284029290429977266e+02 -1.071911048786519558e+02 -4.033987543153121358e+00 -8.652642676684133960e+01 1.492288970357195694e+02 6.929309445854123339e+01 4.907122621851369360e+01 7.816137090972667067e+00 -5.067916429729554295e+01 3.266773638800835755e+01 6.365625092597815282e+00 3.524840748470660756e+00 2.288241762775724553e+01 5.679619697987212845e+01 1.617830175914508857e+02 -3.695889124393846714e+01 -4.936721195446268240e+01 6.347224760846246738e+01 1.098894880399096792e+02 -1.218339029852212718e+01 8.740034676669839087e+01 9.896758661743858454e+01 2.003223722288569491e+02 -8.221427541482863433e+01 -1.165288833758099969e+02 -2.722550889405430397e+01 5.908819037219656423e+01 -9.643654379883548344e+00 1.020392182587978027e+02 3.540212224573329536e+01 -1.544791892395801653e+02 4.279036345088927362e+01 -8.497180480472464126e+01 -1.284955382859937743e+02 1.277496909332128325e+02 -7.225221436576153167e+01 5.623498801834971061e+01 1.055179482493125533e+02 -9.395258147675156124e+01 2.234075848494643424e+01 -6.847701692646397476e+01 3.826829362188169625e+01 -1.088731317219804566e+02 5.849688304452642740e+01 5.191859199846527417e+01 3.630155298787105966e+00 7.970326969518504256e+01 -1.450146687452603942e+02 7.244355516921437754e+01 -2.786518999608521696e+01 -1.591359911696102927e+02 8.905683578851879645e+01 2.315162370979654582e+01 -1.846870292354357161e+02 2.216614833298568499e+02 -5.139657025993804584e-01 9.904351547369681441e+01 -1.135835772973674551e+02 -1.829108650666860854e+02 -8.790076993820207463e+01 2.377425400445259740e+00 1.345421940524398394e+02 3.698025614409646167e+00 -9.003447137667318145e+01 4.738271475804732091e+01 1.290778215800632438e+02 6.117026904708244217e+01 -4.869438766055159107e+01 -5.571778657612847496e+01 7.958964750599463400e+01 2.890437881247018481e+01 -1.842575574258353583e+02 -1.952295177240389279e+01 1.591900248668716813e+02 9.302046870862847072e+01 -5.402462282376634306e+01 -1.053064609238224136e+02 -4.018221191208397869e+01 -4.528860224812990509e+01 -1.077936951515939228e+02 -1.732747563309666816e+01 -4.300034449839097306e+01 -1.070211825755440458e+02 -1.242977721144458627e+02 -2.541772830668052308e+01 -1.183924802890466310e+02 -1.261094756119172189e+02 -3.610491293394990464e+01 -5.209090769947945887e+01 -1.046078059539459701e+02 1.816225195910704997e+02 1.025780398423192530e+01 -2.743625494605032955e+01 -1.657492962539275538e+01 7.675555445213791472e+01 1.527742978011784380e+01 2.443678860193734081e+01 -2.068513570188624229e+01 -4.520474872734683203e+01 2.039232594193796544e+01 -1.418595808510230256e+02 -1.552938962949156405e+02 -8.813433148475191103e+01 -1.861954746006432799e+02 -8.741089177314509584e+01 8.363775127386327313e+01 5.989996663707775326e+01 -2.540305744769053220e+01 5.928244865968787991e+01 -1.527911753240661028e+02 -3.993491011539889968e+01 -1.133298324830639245e+02 -6.511381694633806205e+01 2.058964162329819487e+02 -2.002806687532662693e+02 2.002530361525035687e+02 2.432832369779529458e+01 -5.504541298808472050e+01 8.991724948918734128e+01 1.210491308479251984e+02 -5.061677718433976025e+01 -1.988296202210127319e+02 -1.454555296198601582e+02 9.980299608990712557e+01 8.171190161673723651e+01 -1.322426525824868122e+02 3.113527942669058746e+01 -3.874153262200918846e+01 -7.551654606020045435e+01 -2.773733809418323659e+01 -5.346435535874336153e+01 -8.429570265211540914e+01 -3.325268939387724032e+01 4.449592932120366662e+00 -3.182767127736457979e+01 -3.402096850287349428e-01 -1.393561773270214843e+01 8.966555477954051412e+01 1.240450313467719496e+02 1.283052992135670145e+01 1.640448903246045376e+01 -6.163474559274887099e+01 -1.913245598673937877e+02 3.301869906250965414e+01 -8.946496973089973892e+01 2.522302517498357943e+01 -7.883181573678831100e+00 1.064257745271950606e+00 7.068436557127961350e+01 1.189356372337263252e+02 -6.879127760289969729e+01 3.707442040815738693e+01 -1.882589225922246214e+02 9.464986380024146939e+00 6.717278052280088119e+00 -1.195942384185058245e+02 -3.287699078733140823e+01 -4.325127825466082498e+01 4.640824812863840521e+00 -9.974676770385836733e+01 2.638781696277377975e+01 -9.525858344762903585e+01 5.464534282706669188e+01 6.624124094363740767e+01 3.601478487099078762e+01 -2.830637863608593463e+01 1.048834874965166364e+02 5.963121326209854800e+01 7.806432073501643742e+01 -6.538803133561030734e+01 1.972697551332960941e+01 1.247386310859932763e+02 -5.707821286049752274e+01 -6.752853722882272258e+00 3.119426988621266617e+01 -1.252845529883135356e+02 9.538076431473477612e+01 8.736267476206246840e+01 -9.870354419983030425e+01 -8.030002789543875963e+01 -5.416949941034955174e+01 -4.454767451205221818e+01 -1.561881717413585875e+02 -1.324819220608676744e+02 -1.291788406891660372e+02 1.030084591977099109e+02 5.832413895559366068e+01 1.555198314453552655e+02 7.032501182161289499e+00 -8.347364843530768042e+01 1.829832963178700922e+01 1.347007711651121298e+01 -6.197057129854172786e+01 7.214739942071015832e+01 1.150090515080459710e+02 9.679523092525537109e+00 1.395969684003428029e+02 2.188925625573181222e+01 1.080367928716317749e+02 1.465645266605486974e+01 -2.023309785687895612e+02 2.126268053357574956e+02 -4.764266323568188000e+01 -1.450820966085483690e+02 -6.540306085956341065e+01 -4.167279424272979327e+01 4.015872137295092159e+01 2.481146675981403504e+01 4.435191074942060396e+01 -7.171830469682389264e+01 1.184890635794602218e+02 -8.349835204942347389e+01 -6.788326820547125884e+00 1.377372717078327469e+02 1.059460375704019839e+02 5.612509090876109497e+01 -1.710845074739796132e+02 2.456967365150198290e+01 1.355667496691262954e+02 2.260968715826960462e+01 9.417856748091280394e+01 1.026503383160524692e+02 -2.039741437487108726e+02 7.415020890714930601e+01 -5.565260528905924531e+01 -2.167026142531532003e+02 8.520906319067603363e+01 2.362240297130434996e+01 -1.168602218298232316e+02 -5.599740621211012837e+01 1.325095686864150650e+02 1.407611737833299230e+02 -7.229826360777700245e+01 -1.216272918195765413e+02 -7.929844291641036591e+01 -1.574788489010471721e+02 1.857802142105619581e+01 3.599673095431016634e+01 -1.613191858119043331e+01 -1.172537601021280373e+01 -8.467429961046134679e+01 -8.338502279549112473e+01 -2.328676175142018323e+01 1.260139685231069961e+02 1.279731509776037939e+02 7.615713616968909605e+01 9.112971954976887901e+01 -7.356522709194149456e+01 -1.691780214003182721e+02 -1.232449835605308408e+01 -2.158437582368976493e+01 -6.641022314754769695e+01 1.378892985577740093e+00 6.824245490922992019e+01 -4.942624303681026277e+01 2.311829081239934780e+01 7.399042537370351624e+01 6.550413411365630623e+01 1.032994054671632540e+02 -1.393415417143760351e+02 3.702325197183331795e+01 7.783467449959857731e+01 8.852561752687569196e+01 5.514945897566635580e+01 -9.644193814606062176e+01 1.279083289835749184e+02 1.191142609103087011e+02 8.955639222135864941e+01 9.486298982873567809e+01 -7.866120496471404522e+01 -1.387361789200731188e+01 -1.211139416284517090e+01 7.195715497718001075e+01 6.070433389517774714e+01 5.236227887052731944e+01 9.113065389735162114e+01 1.088640048438220163e+02 1.158454118154179184e+02 -6.053331903657501556e+01 7.532080401861968255e+01 6.092926512915753534e+01 -1.099295414283305803e+02 1.229591624102466199e+02 -9.356452487019772946e+00 -2.610485842043044258e+01 1.863052837712428982e+02 8.275902793660917212e+01 1.160736706033918040e+02 -1.350130438707447524e+02 -1.476125018122614847e+02 -1.437298678160228746e+02 -1.142795339093984239e+02 -4.144278824738811551e+01 1.027111737369522899e+02 -1.579324281403554835e+02 3.042208777610229475e+01 1.351916030829701754e+02 -5.561476046544365914e+01 -8.557789865903207271e+01 -3.294138845365317536e+01 1.273232134201901005e+02 2.130716031123511982e+02 -6.257960166936663882e+01 1.859876144231263595e+01 -2.594989185209121985e+01 6.426695819610266369e+01 5.650530990762829475e+01 -2.001195179961943609e+02 -8.323441387020864113e+01 1.291782831138055201e+02 1.312454182789019512e+02 8.876587014130456055e+01 -4.682689622601816382e+01 -7.116806470724195322e+01 -4.260322071397861521e+01 -1.659117034845052387e+02 6.681350178374113113e+01 -2.408469147772405705e+01 1.563301063617120690e+02 -2.627134783566506826e+01 -2.957322300443258882e+02 1.361565261659441433e+02 4.716438388446626107e+01 -1.108616575322627682e+02 -2.087586914901186930e+01 3.317940005323271180e+01 -1.952900065193708201e+02 -1.074250731438363005e+02 -1.031365867193180321e+02 -5.300402223240485000e+01 5.902815721630707912e+01 -1.550641741703849448e+02 1.014515807231763631e+02 -5.109887568957138626e+01 2.764413119547383335e+00 -1.255041995483615977e+02 -9.756938982488264855e+01 1.654250056635031001e+02 8.154227400563938488e+01 -3.973449292146029421e+01 3.493328620587976019e+01 -2.638220279629957687e+01 4.079670293183615826e+01 -9.846533204099745262e+01 9.315361472305619372e+01 4.751167972485380631e+01 -1.119057941411135317e+02 1.098926093731673035e+02 -4.620963318815017118e+01 9.403863462076898827e+01 -4.649447851158664236e+01 8.318161504964631092e+01 -1.444110390683258629e+02 1.344062621979276742e+02 2.330852853422551618e+01 9.481092555784924514e+01 1.228402445257449074e+02 -1.381359371443909936e+02 -8.091879131427407401e+01 -9.950905574900114914e+01 6.297970703751509802e+01 -1.614292066546793762e+02 1.428167580386594864e+02 1.340922904282038246e+02 4.990382042238678650e+01 -7.999671409029859603e+01 5.378181731761056739e+01 -1.011753791125155857e+02 -1.027818694295392632e+01 3.294173708834792791e+01 -1.731668958092680555e+02 -7.685659605916833925e+01 -1.275592934181487159e+01 9.630256966007567598e+01 -4.734704095326782181e+01 1.025519973213985025e+02 -6.062784711377290137e+01 -1.987220675645418453e+02 -1.009752986051586277e+02 -3.205883775674153213e+01 -5.673993890427349385e+01 2.836174728085246244e+01 4.853282497236350679e+01 5.965223207700324437e+00 2.400436343540830819e+01 -1.107664068104633088e+02 5.087829547489850057e+01 3.080613164533723491e+01 -6.807392934894215841e+01 8.778300378574693141e+00 5.326826606307831469e+01 -9.005937532932391321e+01 -5.203869323130837188e+01 -2.284794605906046883e+01 9.212429222720263056e+01 -1.618194510458443247e+01 3.964799836587665993e+00 -2.155356527628020160e+02 -8.974811830220517095e+01 9.348553533637705470e+01 -8.419789995217304579e+01 2.960245588001447103e+01 2.933829681789494970e+01 3.578884216829133180e+01 6.243740025501598723e+01 -1.676912255257751667e+02 1.360821368412973698e+02 7.711883113289978553e+01 -7.142375059817095639e+00 -7.636775476115380457e+01 1.056957590553266755e+02 5.869835511648843607e+01 -1.901385105153163693e+02 -4.760642831219061577e+01 -7.726003939697490353e+01 -4.894510692532421814e+01 -5.849756692856432494e+01 -9.356102775132332283e+01 -5.705046063949203017e+01 1.810974326435235184e+02 -1.613934916583142467e+02 6.188050701795661013e+01 2.623584213027379874e+01 -7.110111908916657342e+01 9.841830770907815662e+00 -3.730341994796946636e+01 3.259692274929029576e+00 -9.093139260024776149e+01 -1.868415407785514617e+02 1.739652971015849303e+01 3.960296821844724491e+01 -1.209659546721562506e+01 -8.435012805798374202e+00 -3.761542655222992693e+01 -1.795659734575430093e+02 -2.895557692822485762e+01 -6.179964610687493831e+01 1.315844451000972448e+01 -1.477450027933451970e+01 8.571192013229706674e+01 -5.962489725891964554e+01 -9.805587909915091416e+01 -3.372966473003438637e+01 -8.467801917501102338e+00 4.293423668614705946e+01 -2.090389124362052442e+01 -6.988190102203071774e+01 -1.502958482775455451e+01 1.894296238961763024e+01 4.493426023506781064e+01 -1.078080371884578881e+02 -1.315082261567301316e+02 2.179364268692229132e+02 -2.065378117274169369e+02 -7.181563159377324723e+01 -4.380713991551094466e+01 1.323086940158604250e+02 5.986545498761487494e+01 2.166654243004325622e+02 2.316181602761132012e+02 -5.903105786766855800e+01 1.224688221638686230e+02 -5.307798313657042399e+01 -3.863932673150438291e+01 -9.519216957187475714e+01 -7.554906751357619044e+01 -6.578735300587551649e+01 -8.426829032130659414e+01 -2.307147686218963258e+02 -2.562880977068305697e+02 1.274393966570280270e+02 -2.512876854791168313e+01 5.041877888817206355e+01 1.239314610942306132e+02
