# 
#                 ----------------------------------------------------
#                 Data from a 3D direct N-body simulation. 
# 
#                 rows are i-particle; 
#                 coumns are :mass, tag, x ,y, z, vx, vy, vz, ax, ay, az
# 
#                 NTHU, Computational Physics Lab
# 
#                 ----------------------------------------------------
#                 Time = 7.099999999999893
1.000000000000000000e+00 2.000000000000000000e+00 3.000000000000000000e+00 4.000000000000000000e+00 5.000000000000000000e+00 6.000000000000000000e+00 7.000000000000000000e+00 8.000000000000000000e+00 9.000000000000000000e+00 1.000000000000000000e+01 1.100000000000000000e+01 1.200000000000000000e+01 1.300000000000000000e+01 1.400000000000000000e+01 1.500000000000000000e+01 1.600000000000000000e+01 1.700000000000000000e+01 1.800000000000000000e+01 1.900000000000000000e+01 2.000000000000000000e+01 2.100000000000000000e+01 2.200000000000000000e+01 2.300000000000000000e+01 2.400000000000000000e+01 2.500000000000000000e+01 2.600000000000000000e+01 2.700000000000000000e+01 2.800000000000000000e+01 2.900000000000000000e+01 3.000000000000000000e+01 3.100000000000000000e+01 3.200000000000000000e+01 3.300000000000000000e+01 3.400000000000000000e+01 3.500000000000000000e+01 3.600000000000000000e+01 3.700000000000000000e+01 3.800000000000000000e+01 3.900000000000000000e+01 4.000000000000000000e+01 4.100000000000000000e+01 4.200000000000000000e+01 4.300000000000000000e+01 4.400000000000000000e+01 4.500000000000000000e+01 4.600000000000000000e+01 4.700000000000000000e+01 4.800000000000000000e+01 4.900000000000000000e+01 5.000000000000000000e+01 5.100000000000000000e+01 5.200000000000000000e+01 5.300000000000000000e+01 5.400000000000000000e+01 5.500000000000000000e+01 5.600000000000000000e+01 5.700000000000000000e+01 5.800000000000000000e+01 5.900000000000000000e+01 6.000000000000000000e+01 6.100000000000000000e+01 6.200000000000000000e+01 6.300000000000000000e+01 6.400000000000000000e+01 6.500000000000000000e+01 6.600000000000000000e+01 6.700000000000000000e+01 6.800000000000000000e+01 6.900000000000000000e+01 7.000000000000000000e+01 7.100000000000000000e+01 7.200000000000000000e+01 7.300000000000000000e+01 7.400000000000000000e+01 7.500000000000000000e+01 7.600000000000000000e+01 7.700000000000000000e+01 7.800000000000000000e+01 7.900000000000000000e+01 8.000000000000000000e+01 8.100000000000000000e+01 8.200000000000000000e+01 8.300000000000000000e+01 8.400000000000000000e+01 8.500000000000000000e+01 8.600000000000000000e+01 8.700000000000000000e+01 8.800000000000000000e+01 8.900000000000000000e+01 9.000000000000000000e+01 9.100000000000000000e+01 9.200000000000000000e+01 9.300000000000000000e+01 9.400000000000000000e+01 9.500000000000000000e+01 9.600000000000000000e+01 9.700000000000000000e+01 9.800000000000000000e+01 9.900000000000000000e+01 1.000000000000000000e+02 1.010000000000000000e+02 1.020000000000000000e+02 1.030000000000000000e+02 1.040000000000000000e+02 1.050000000000000000e+02 1.060000000000000000e+02 1.070000000000000000e+02 1.080000000000000000e+02 1.090000000000000000e+02 1.100000000000000000e+02 1.110000000000000000e+02 1.120000000000000000e+02 1.130000000000000000e+02 1.140000000000000000e+02 1.150000000000000000e+02 1.160000000000000000e+02 1.170000000000000000e+02 1.180000000000000000e+02 1.190000000000000000e+02 1.200000000000000000e+02 1.210000000000000000e+02 1.220000000000000000e+02 1.230000000000000000e+02 1.240000000000000000e+02 1.250000000000000000e+02 1.260000000000000000e+02 1.270000000000000000e+02 1.280000000000000000e+02 1.290000000000000000e+02 1.300000000000000000e+02 1.310000000000000000e+02 1.320000000000000000e+02 1.330000000000000000e+02 1.340000000000000000e+02 1.350000000000000000e+02 1.360000000000000000e+02 1.370000000000000000e+02 1.380000000000000000e+02 1.390000000000000000e+02 1.400000000000000000e+02 1.410000000000000000e+02 1.420000000000000000e+02 1.430000000000000000e+02 1.440000000000000000e+02 1.450000000000000000e+02 1.460000000000000000e+02 1.470000000000000000e+02 1.480000000000000000e+02 1.490000000000000000e+02 1.500000000000000000e+02 1.510000000000000000e+02 1.520000000000000000e+02 1.530000000000000000e+02 1.540000000000000000e+02 1.550000000000000000e+02 1.560000000000000000e+02 1.570000000000000000e+02 1.580000000000000000e+02 1.590000000000000000e+02 1.600000000000000000e+02 1.610000000000000000e+02 1.620000000000000000e+02 1.630000000000000000e+02 1.640000000000000000e+02 1.650000000000000000e+02 1.660000000000000000e+02 1.670000000000000000e+02 1.680000000000000000e+02 1.690000000000000000e+02 1.700000000000000000e+02 1.710000000000000000e+02 1.720000000000000000e+02 1.730000000000000000e+02 1.740000000000000000e+02 1.750000000000000000e+02 1.760000000000000000e+02 1.770000000000000000e+02 1.780000000000000000e+02 1.790000000000000000e+02 1.800000000000000000e+02 1.810000000000000000e+02 1.820000000000000000e+02 1.830000000000000000e+02 1.840000000000000000e+02 1.850000000000000000e+02 1.860000000000000000e+02 1.870000000000000000e+02 1.880000000000000000e+02 1.890000000000000000e+02 1.900000000000000000e+02 1.910000000000000000e+02 1.920000000000000000e+02 1.930000000000000000e+02 1.940000000000000000e+02 1.950000000000000000e+02 1.960000000000000000e+02 1.970000000000000000e+02 1.980000000000000000e+02 1.990000000000000000e+02 2.000000000000000000e+02 2.010000000000000000e+02 2.020000000000000000e+02 2.030000000000000000e+02 2.040000000000000000e+02 2.050000000000000000e+02 2.060000000000000000e+02 2.070000000000000000e+02 2.080000000000000000e+02 2.090000000000000000e+02 2.100000000000000000e+02 2.110000000000000000e+02 2.120000000000000000e+02 2.130000000000000000e+02 2.140000000000000000e+02 2.150000000000000000e+02 2.160000000000000000e+02 2.170000000000000000e+02 2.180000000000000000e+02 2.190000000000000000e+02 2.200000000000000000e+02 2.210000000000000000e+02 2.220000000000000000e+02 2.230000000000000000e+02 2.240000000000000000e+02 2.250000000000000000e+02 2.260000000000000000e+02 2.270000000000000000e+02 2.280000000000000000e+02 2.290000000000000000e+02 2.300000000000000000e+02 2.310000000000000000e+02 2.320000000000000000e+02 2.330000000000000000e+02 2.340000000000000000e+02 2.350000000000000000e+02 2.360000000000000000e+02 2.370000000000000000e+02 2.380000000000000000e+02 2.390000000000000000e+02 2.400000000000000000e+02 2.410000000000000000e+02 2.420000000000000000e+02 2.430000000000000000e+02 2.440000000000000000e+02 2.450000000000000000e+02 2.460000000000000000e+02 2.470000000000000000e+02 2.480000000000000000e+02 2.490000000000000000e+02 2.500000000000000000e+02 2.510000000000000000e+02 2.520000000000000000e+02 2.530000000000000000e+02 2.540000000000000000e+02 2.550000000000000000e+02 2.560000000000000000e+02 2.570000000000000000e+02 2.580000000000000000e+02 2.590000000000000000e+02 2.600000000000000000e+02 2.610000000000000000e+02 2.620000000000000000e+02 2.630000000000000000e+02 2.640000000000000000e+02 2.650000000000000000e+02 2.660000000000000000e+02 2.670000000000000000e+02 2.680000000000000000e+02 2.690000000000000000e+02 2.700000000000000000e+02 2.710000000000000000e+02 2.720000000000000000e+02 2.730000000000000000e+02 2.740000000000000000e+02 2.750000000000000000e+02 2.760000000000000000e+02 2.770000000000000000e+02 2.780000000000000000e+02 2.790000000000000000e+02 2.800000000000000000e+02 2.810000000000000000e+02 2.820000000000000000e+02 2.830000000000000000e+02 2.840000000000000000e+02 2.850000000000000000e+02 2.860000000000000000e+02 2.870000000000000000e+02 2.880000000000000000e+02 2.890000000000000000e+02 2.900000000000000000e+02 2.910000000000000000e+02 2.920000000000000000e+02 2.930000000000000000e+02 2.940000000000000000e+02 2.950000000000000000e+02 2.960000000000000000e+02 2.970000000000000000e+02 2.980000000000000000e+02 2.990000000000000000e+02 3.000000000000000000e+02 3.010000000000000000e+02 3.020000000000000000e+02 3.030000000000000000e+02 3.040000000000000000e+02 3.050000000000000000e+02 3.060000000000000000e+02 3.070000000000000000e+02 3.080000000000000000e+02 3.090000000000000000e+02 3.100000000000000000e+02 3.110000000000000000e+02 3.120000000000000000e+02 3.130000000000000000e+02 3.140000000000000000e+02 3.150000000000000000e+02 3.160000000000000000e+02 3.170000000000000000e+02 3.180000000000000000e+02 3.190000000000000000e+02 3.200000000000000000e+02 3.210000000000000000e+02 3.220000000000000000e+02 3.230000000000000000e+02 3.240000000000000000e+02 3.250000000000000000e+02 3.260000000000000000e+02 3.270000000000000000e+02 3.280000000000000000e+02 3.290000000000000000e+02 3.300000000000000000e+02 3.310000000000000000e+02 3.320000000000000000e+02 3.330000000000000000e+02 3.340000000000000000e+02 3.350000000000000000e+02 3.360000000000000000e+02 3.370000000000000000e+02 3.380000000000000000e+02 3.390000000000000000e+02 3.400000000000000000e+02 3.410000000000000000e+02 3.420000000000000000e+02 3.430000000000000000e+02 3.440000000000000000e+02 3.450000000000000000e+02 3.460000000000000000e+02 3.470000000000000000e+02 3.480000000000000000e+02 3.490000000000000000e+02 3.500000000000000000e+02 3.510000000000000000e+02 3.520000000000000000e+02 3.530000000000000000e+02 3.540000000000000000e+02 3.550000000000000000e+02 3.560000000000000000e+02 3.570000000000000000e+02 3.580000000000000000e+02 3.590000000000000000e+02 3.600000000000000000e+02 3.610000000000000000e+02 3.620000000000000000e+02 3.630000000000000000e+02 3.640000000000000000e+02 3.650000000000000000e+02 3.660000000000000000e+02 3.670000000000000000e+02 3.680000000000000000e+02 3.690000000000000000e+02 3.700000000000000000e+02 3.710000000000000000e+02 3.720000000000000000e+02 3.730000000000000000e+02 3.740000000000000000e+02 3.750000000000000000e+02 3.760000000000000000e+02 3.770000000000000000e+02 3.780000000000000000e+02 3.790000000000000000e+02 3.800000000000000000e+02 3.810000000000000000e+02 3.820000000000000000e+02 3.830000000000000000e+02 3.840000000000000000e+02 3.850000000000000000e+02 3.860000000000000000e+02 3.870000000000000000e+02 3.880000000000000000e+02 3.890000000000000000e+02 3.900000000000000000e+02 3.910000000000000000e+02 3.920000000000000000e+02 3.930000000000000000e+02 3.940000000000000000e+02 3.950000000000000000e+02 3.960000000000000000e+02 3.970000000000000000e+02 3.980000000000000000e+02 3.990000000000000000e+02 4.000000000000000000e+02 4.010000000000000000e+02 4.020000000000000000e+02 4.030000000000000000e+02 4.040000000000000000e+02 4.050000000000000000e+02 4.060000000000000000e+02 4.070000000000000000e+02 4.080000000000000000e+02 4.090000000000000000e+02 4.100000000000000000e+02 4.110000000000000000e+02 4.120000000000000000e+02 4.130000000000000000e+02 4.140000000000000000e+02 4.150000000000000000e+02 4.160000000000000000e+02 4.170000000000000000e+02 4.180000000000000000e+02 4.190000000000000000e+02 4.200000000000000000e+02 4.210000000000000000e+02 4.220000000000000000e+02 4.230000000000000000e+02 4.240000000000000000e+02 4.250000000000000000e+02 4.260000000000000000e+02 4.270000000000000000e+02 4.280000000000000000e+02 4.290000000000000000e+02 4.300000000000000000e+02 4.310000000000000000e+02 4.320000000000000000e+02 4.330000000000000000e+02 4.340000000000000000e+02 4.350000000000000000e+02 4.360000000000000000e+02 4.370000000000000000e+02 4.380000000000000000e+02 4.390000000000000000e+02 4.400000000000000000e+02 4.410000000000000000e+02 4.420000000000000000e+02 4.430000000000000000e+02 4.440000000000000000e+02 4.450000000000000000e+02 4.460000000000000000e+02 4.470000000000000000e+02 4.480000000000000000e+02 4.490000000000000000e+02 4.500000000000000000e+02 4.510000000000000000e+02 4.520000000000000000e+02 4.530000000000000000e+02 4.540000000000000000e+02 4.550000000000000000e+02 4.560000000000000000e+02 4.570000000000000000e+02 4.580000000000000000e+02 4.590000000000000000e+02 4.600000000000000000e+02 4.610000000000000000e+02 4.620000000000000000e+02 4.630000000000000000e+02 4.640000000000000000e+02 4.650000000000000000e+02 4.660000000000000000e+02 4.670000000000000000e+02 4.680000000000000000e+02 4.690000000000000000e+02 4.700000000000000000e+02 4.710000000000000000e+02 4.720000000000000000e+02 4.730000000000000000e+02 4.740000000000000000e+02 4.750000000000000000e+02 4.760000000000000000e+02 4.770000000000000000e+02 4.780000000000000000e+02 4.790000000000000000e+02 4.800000000000000000e+02 4.810000000000000000e+02 4.820000000000000000e+02 4.830000000000000000e+02 4.840000000000000000e+02 4.850000000000000000e+02 4.860000000000000000e+02 4.870000000000000000e+02 4.880000000000000000e+02 4.890000000000000000e+02 4.900000000000000000e+02 4.910000000000000000e+02 4.920000000000000000e+02 4.930000000000000000e+02 4.940000000000000000e+02 4.950000000000000000e+02 4.960000000000000000e+02 4.970000000000000000e+02 4.980000000000000000e+02 4.990000000000000000e+02 5.000000000000000000e+02 5.010000000000000000e+02 5.020000000000000000e+02 5.030000000000000000e+02 5.040000000000000000e+02 5.050000000000000000e+02 5.060000000000000000e+02 5.070000000000000000e+02 5.080000000000000000e+02 5.090000000000000000e+02 5.100000000000000000e+02 5.110000000000000000e+02 5.120000000000000000e+02 5.130000000000000000e+02 5.140000000000000000e+02 5.150000000000000000e+02 5.160000000000000000e+02 5.170000000000000000e+02 5.180000000000000000e+02 5.190000000000000000e+02 5.200000000000000000e+02 5.210000000000000000e+02 5.220000000000000000e+02 5.230000000000000000e+02 5.240000000000000000e+02 5.250000000000000000e+02 5.260000000000000000e+02 5.270000000000000000e+02 5.280000000000000000e+02 5.290000000000000000e+02 5.300000000000000000e+02 5.310000000000000000e+02 5.320000000000000000e+02 5.330000000000000000e+02 5.340000000000000000e+02 5.350000000000000000e+02 5.360000000000000000e+02 5.370000000000000000e+02 5.380000000000000000e+02 5.390000000000000000e+02 5.400000000000000000e+02 5.410000000000000000e+02 5.420000000000000000e+02 5.430000000000000000e+02 5.440000000000000000e+02 5.450000000000000000e+02 5.460000000000000000e+02 5.470000000000000000e+02 5.480000000000000000e+02 5.490000000000000000e+02 5.500000000000000000e+02 5.510000000000000000e+02 5.520000000000000000e+02 5.530000000000000000e+02 5.540000000000000000e+02 5.550000000000000000e+02 5.560000000000000000e+02 5.570000000000000000e+02 5.580000000000000000e+02 5.590000000000000000e+02 5.600000000000000000e+02 5.610000000000000000e+02 5.620000000000000000e+02 5.630000000000000000e+02 5.640000000000000000e+02 5.650000000000000000e+02 5.660000000000000000e+02 5.670000000000000000e+02 5.680000000000000000e+02 5.690000000000000000e+02 5.700000000000000000e+02 5.710000000000000000e+02 5.720000000000000000e+02 5.730000000000000000e+02 5.740000000000000000e+02 5.750000000000000000e+02 5.760000000000000000e+02 5.770000000000000000e+02 5.780000000000000000e+02 5.790000000000000000e+02 5.800000000000000000e+02 5.810000000000000000e+02 5.820000000000000000e+02 5.830000000000000000e+02 5.840000000000000000e+02 5.850000000000000000e+02 5.860000000000000000e+02 5.870000000000000000e+02 5.880000000000000000e+02 5.890000000000000000e+02 5.900000000000000000e+02 5.910000000000000000e+02 5.920000000000000000e+02 5.930000000000000000e+02 5.940000000000000000e+02 5.950000000000000000e+02 5.960000000000000000e+02 5.970000000000000000e+02 5.980000000000000000e+02 5.990000000000000000e+02 6.000000000000000000e+02 6.010000000000000000e+02 6.020000000000000000e+02 6.030000000000000000e+02 6.040000000000000000e+02 6.050000000000000000e+02 6.060000000000000000e+02 6.070000000000000000e+02 6.080000000000000000e+02 6.090000000000000000e+02 6.100000000000000000e+02 6.110000000000000000e+02 6.120000000000000000e+02 6.130000000000000000e+02 6.140000000000000000e+02 6.150000000000000000e+02 6.160000000000000000e+02 6.170000000000000000e+02 6.180000000000000000e+02 6.190000000000000000e+02 6.200000000000000000e+02 6.210000000000000000e+02 6.220000000000000000e+02 6.230000000000000000e+02 6.240000000000000000e+02 6.250000000000000000e+02 6.260000000000000000e+02 6.270000000000000000e+02 6.280000000000000000e+02 6.290000000000000000e+02 6.300000000000000000e+02 6.310000000000000000e+02 6.320000000000000000e+02 6.330000000000000000e+02 6.340000000000000000e+02 6.350000000000000000e+02 6.360000000000000000e+02 6.370000000000000000e+02 6.380000000000000000e+02 6.390000000000000000e+02 6.400000000000000000e+02 6.410000000000000000e+02 6.420000000000000000e+02 6.430000000000000000e+02 6.440000000000000000e+02 6.450000000000000000e+02 6.460000000000000000e+02 6.470000000000000000e+02 6.480000000000000000e+02 6.490000000000000000e+02 6.500000000000000000e+02 6.510000000000000000e+02 6.520000000000000000e+02 6.530000000000000000e+02 6.540000000000000000e+02 6.550000000000000000e+02 6.560000000000000000e+02 6.570000000000000000e+02 6.580000000000000000e+02 6.590000000000000000e+02 6.600000000000000000e+02 6.610000000000000000e+02 6.620000000000000000e+02 6.630000000000000000e+02 6.640000000000000000e+02 6.650000000000000000e+02 6.660000000000000000e+02 6.670000000000000000e+02 6.680000000000000000e+02 6.690000000000000000e+02 6.700000000000000000e+02 6.710000000000000000e+02 6.720000000000000000e+02 6.730000000000000000e+02 6.740000000000000000e+02 6.750000000000000000e+02 6.760000000000000000e+02 6.770000000000000000e+02 6.780000000000000000e+02 6.790000000000000000e+02 6.800000000000000000e+02 6.810000000000000000e+02 6.820000000000000000e+02 6.830000000000000000e+02 6.840000000000000000e+02 6.850000000000000000e+02 6.860000000000000000e+02 6.870000000000000000e+02 6.880000000000000000e+02 6.890000000000000000e+02 6.900000000000000000e+02 6.910000000000000000e+02 6.920000000000000000e+02 6.930000000000000000e+02 6.940000000000000000e+02 6.950000000000000000e+02 6.960000000000000000e+02 6.970000000000000000e+02 6.980000000000000000e+02 6.990000000000000000e+02 7.000000000000000000e+02 7.010000000000000000e+02 7.020000000000000000e+02 7.030000000000000000e+02 7.040000000000000000e+02 7.050000000000000000e+02 7.060000000000000000e+02 7.070000000000000000e+02 7.080000000000000000e+02 7.090000000000000000e+02 7.100000000000000000e+02 7.110000000000000000e+02 7.120000000000000000e+02 7.130000000000000000e+02 7.140000000000000000e+02 7.150000000000000000e+02 7.160000000000000000e+02 7.170000000000000000e+02 7.180000000000000000e+02 7.190000000000000000e+02 7.200000000000000000e+02 7.210000000000000000e+02 7.220000000000000000e+02 7.230000000000000000e+02 7.240000000000000000e+02 7.250000000000000000e+02 7.260000000000000000e+02 7.270000000000000000e+02 7.280000000000000000e+02 7.290000000000000000e+02 7.300000000000000000e+02 7.310000000000000000e+02 7.320000000000000000e+02 7.330000000000000000e+02 7.340000000000000000e+02 7.350000000000000000e+02 7.360000000000000000e+02 7.370000000000000000e+02 7.380000000000000000e+02 7.390000000000000000e+02 7.400000000000000000e+02 7.410000000000000000e+02 7.420000000000000000e+02 7.430000000000000000e+02 7.440000000000000000e+02 7.450000000000000000e+02 7.460000000000000000e+02 7.470000000000000000e+02 7.480000000000000000e+02 7.490000000000000000e+02 7.500000000000000000e+02 7.510000000000000000e+02 7.520000000000000000e+02 7.530000000000000000e+02 7.540000000000000000e+02 7.550000000000000000e+02 7.560000000000000000e+02 7.570000000000000000e+02 7.580000000000000000e+02 7.590000000000000000e+02 7.600000000000000000e+02 7.610000000000000000e+02 7.620000000000000000e+02 7.630000000000000000e+02 7.640000000000000000e+02 7.650000000000000000e+02 7.660000000000000000e+02 7.670000000000000000e+02 7.680000000000000000e+02 7.690000000000000000e+02 7.700000000000000000e+02 7.710000000000000000e+02 7.720000000000000000e+02 7.730000000000000000e+02 7.740000000000000000e+02 7.750000000000000000e+02 7.760000000000000000e+02 7.770000000000000000e+02 7.780000000000000000e+02 7.790000000000000000e+02 7.800000000000000000e+02 7.810000000000000000e+02 7.820000000000000000e+02 7.830000000000000000e+02 7.840000000000000000e+02 7.850000000000000000e+02 7.860000000000000000e+02 7.870000000000000000e+02 7.880000000000000000e+02 7.890000000000000000e+02 7.900000000000000000e+02 7.910000000000000000e+02 7.920000000000000000e+02 7.930000000000000000e+02 7.940000000000000000e+02 7.950000000000000000e+02 7.960000000000000000e+02 7.970000000000000000e+02 7.980000000000000000e+02 7.990000000000000000e+02 8.000000000000000000e+02 8.010000000000000000e+02 8.020000000000000000e+02 8.030000000000000000e+02 8.040000000000000000e+02 8.050000000000000000e+02 8.060000000000000000e+02 8.070000000000000000e+02 8.080000000000000000e+02 8.090000000000000000e+02 8.100000000000000000e+02 8.110000000000000000e+02 8.120000000000000000e+02 8.130000000000000000e+02 8.140000000000000000e+02 8.150000000000000000e+02 8.160000000000000000e+02 8.170000000000000000e+02 8.180000000000000000e+02 8.190000000000000000e+02 8.200000000000000000e+02 8.210000000000000000e+02 8.220000000000000000e+02 8.230000000000000000e+02 8.240000000000000000e+02 8.250000000000000000e+02 8.260000000000000000e+02 8.270000000000000000e+02 8.280000000000000000e+02 8.290000000000000000e+02 8.300000000000000000e+02 8.310000000000000000e+02 8.320000000000000000e+02 8.330000000000000000e+02 8.340000000000000000e+02 8.350000000000000000e+02 8.360000000000000000e+02 8.370000000000000000e+02 8.380000000000000000e+02 8.390000000000000000e+02 8.400000000000000000e+02 8.410000000000000000e+02 8.420000000000000000e+02 8.430000000000000000e+02 8.440000000000000000e+02 8.450000000000000000e+02 8.460000000000000000e+02 8.470000000000000000e+02 8.480000000000000000e+02 8.490000000000000000e+02 8.500000000000000000e+02 8.510000000000000000e+02 8.520000000000000000e+02 8.530000000000000000e+02 8.540000000000000000e+02 8.550000000000000000e+02 8.560000000000000000e+02 8.570000000000000000e+02 8.580000000000000000e+02 8.590000000000000000e+02 8.600000000000000000e+02 8.610000000000000000e+02 8.620000000000000000e+02 8.630000000000000000e+02 8.640000000000000000e+02 8.650000000000000000e+02 8.660000000000000000e+02 8.670000000000000000e+02 8.680000000000000000e+02 8.690000000000000000e+02 8.700000000000000000e+02 8.710000000000000000e+02 8.720000000000000000e+02 8.730000000000000000e+02 8.740000000000000000e+02 8.750000000000000000e+02 8.760000000000000000e+02 8.770000000000000000e+02 8.780000000000000000e+02 8.790000000000000000e+02 8.800000000000000000e+02 8.810000000000000000e+02 8.820000000000000000e+02 8.830000000000000000e+02 8.840000000000000000e+02 8.850000000000000000e+02 8.860000000000000000e+02 8.870000000000000000e+02 8.880000000000000000e+02 8.890000000000000000e+02 8.900000000000000000e+02 8.910000000000000000e+02 8.920000000000000000e+02 8.930000000000000000e+02 8.940000000000000000e+02 8.950000000000000000e+02 8.960000000000000000e+02 8.970000000000000000e+02 8.980000000000000000e+02 8.990000000000000000e+02 9.000000000000000000e+02 9.010000000000000000e+02 9.020000000000000000e+02 9.030000000000000000e+02 9.040000000000000000e+02 9.050000000000000000e+02 9.060000000000000000e+02 9.070000000000000000e+02 9.080000000000000000e+02 9.090000000000000000e+02 9.100000000000000000e+02 9.110000000000000000e+02 9.120000000000000000e+02 9.130000000000000000e+02 9.140000000000000000e+02 9.150000000000000000e+02 9.160000000000000000e+02 9.170000000000000000e+02 9.180000000000000000e+02 9.190000000000000000e+02 9.200000000000000000e+02 9.210000000000000000e+02 9.220000000000000000e+02 9.230000000000000000e+02 9.240000000000000000e+02 9.250000000000000000e+02 9.260000000000000000e+02 9.270000000000000000e+02 9.280000000000000000e+02 9.290000000000000000e+02 9.300000000000000000e+02 9.310000000000000000e+02 9.320000000000000000e+02 9.330000000000000000e+02 9.340000000000000000e+02 9.350000000000000000e+02 9.360000000000000000e+02 9.370000000000000000e+02 9.380000000000000000e+02 9.390000000000000000e+02 9.400000000000000000e+02 9.410000000000000000e+02 9.420000000000000000e+02 9.430000000000000000e+02 9.440000000000000000e+02 9.450000000000000000e+02 9.460000000000000000e+02 9.470000000000000000e+02 9.480000000000000000e+02 9.490000000000000000e+02 9.500000000000000000e+02 9.510000000000000000e+02 9.520000000000000000e+02 9.530000000000000000e+02 9.540000000000000000e+02 9.550000000000000000e+02 9.560000000000000000e+02 9.570000000000000000e+02 9.580000000000000000e+02 9.590000000000000000e+02 9.600000000000000000e+02 9.610000000000000000e+02 9.620000000000000000e+02 9.630000000000000000e+02 9.640000000000000000e+02 9.650000000000000000e+02 9.660000000000000000e+02 9.670000000000000000e+02 9.680000000000000000e+02 9.690000000000000000e+02 9.700000000000000000e+02 9.710000000000000000e+02 9.720000000000000000e+02 9.730000000000000000e+02 9.740000000000000000e+02 9.750000000000000000e+02 9.760000000000000000e+02 9.770000000000000000e+02 9.780000000000000000e+02 9.790000000000000000e+02 9.800000000000000000e+02 9.810000000000000000e+02 9.820000000000000000e+02 9.830000000000000000e+02 9.840000000000000000e+02 9.850000000000000000e+02 9.860000000000000000e+02 9.870000000000000000e+02 9.880000000000000000e+02 9.890000000000000000e+02 9.900000000000000000e+02 9.910000000000000000e+02 9.920000000000000000e+02 9.930000000000000000e+02 9.940000000000000000e+02 9.950000000000000000e+02 9.960000000000000000e+02 9.970000000000000000e+02 9.980000000000000000e+02 9.990000000000000000e+02 1.000000000000000000e+03
1.000000000000000021e-02 1.000000000000000021e-02 1.000000000000000021e-02 1.000000000000000021e-02 1.000000000000000021e-02 1.000000000000000021e-02 1.000000000000000021e-02 1.000000000000000021e-02 1.000000000000000021e-02 1.000000000000000021e-02 1.000000000000000021e-02 1.000000000000000021e-02 1.000000000000000021e-02 1.000000000000000021e-02 1.000000000000000021e-02 1.000000000000000021e-02 1.000000000000000021e-02 1.000000000000000021e-02 1.000000000000000021e-02 1.000000000000000021e-02 1.000000000000000021e-02 1.000000000000000021e-02 1.000000000000000021e-02 1.000000000000000021e-02 1.000000000000000021e-02 1.000000000000000021e-02 1.000000000000000021e-02 1.000000000000000021e-02 1.000000000000000021e-02 1.000000000000000021e-02 1.000000000000000021e-02 1.000000000000000021e-02 1.000000000000000021e-02 1.000000000000000021e-02 1.000000000000000021e-02 1.000000000000000021e-02 1.000000000000000021e-02 1.000000000000000021e-02 1.000000000000000021e-02 1.000000000000000021e-02 1.000000000000000021e-02 1.000000000000000021e-02 1.000000000000000021e-02 1.000000000000000021e-02 1.000000000000000021e-02 1.000000000000000021e-02 1.000000000000000021e-02 1.000000000000000021e-02 1.000000000000000021e-02 1.000000000000000021e-02 1.000000000000000021e-02 1.000000000000000021e-02 1.000000000000000021e-02 1.000000000000000021e-02 1.000000000000000021e-02 1.000000000000000021e-02 1.000000000000000021e-02 1.000000000000000021e-02 1.000000000000000021e-02 1.000000000000000021e-02 1.000000000000000021e-02 1.000000000000000021e-02 1.000000000000000021e-02 1.000000000000000021e-02 1.000000000000000021e-02 1.000000000000000021e-02 1.000000000000000021e-02 1.000000000000000021e-02 1.000000000000000021e-02 1.000000000000000021e-02 1.000000000000000021e-02 1.000000000000000021e-02 1.000000000000000021e-02 1.000000000000000021e-02 1.000000000000000021e-02 1.000000000000000021e-02 1.000000000000000021e-02 1.000000000000000021e-02 1.000000000000000021e-02 1.000000000000000021e-02 1.000000000000000021e-02 1.000000000000000021e-02 1.000000000000000021e-02 1.000000000000000021e-02 1.000000000000000021e-02 1.000000000000000021e-02 1.000000000000000021e-02 1.000000000000000021e-02 1.000000000000000021e-02 1.000000000000000021e-02 1.000000000000000021e-02 1.000000000000000021e-02 1.000000000000000021e-02 1.000000000000000021e-02 1.000000000000000021e-02 1.000000000000000021e-02 1.000000000000000021e-02 1.000000000000000021e-02 1.000000000000000021e-02 1.000000000000000021e-02 1.000000000000000021e-02 1.000000000000000021e-02 1.000000000000000021e-02 1.000000000000000021e-02 1.000000000000000021e-02 1.000000000000000021e-02 1.000000000000000021e-02 1.000000000000000021e-02 1.000000000000000021e-02 1.000000000000000021e-02 1.000000000000000021e-02 1.000000000000000021e-02 1.000000000000000021e-02 1.000000000000000021e-02 1.000000000000000021e-02 1.000000000000000021e-02 1.000000000000000021e-02 1.000000000000000021e-02 1.000000000000000021e-02 1.000000000000000021e-02 1.000000000000000021e-02 1.000000000000000021e-02 1.000000000000000021e-02 1.000000000000000021e-02 1.000000000000000021e-02 1.000000000000000021e-02 1.000000000000000021e-02 1.000000000000000021e-02 1.000000000000000021e-02 1.000000000000000021e-02 1.000000000000000021e-02 1.000000000000000021e-02 1.000000000000000021e-02 1.000000000000000021e-02 1.000000000000000021e-02 1.000000000000000021e-02 1.000000000000000021e-02 1.000000000000000021e-02 1.000000000000000021e-02 1.000000000000000021e-02 1.000000000000000021e-02 1.000000000000000021e-02 1.000000000000000021e-02 1.000000000000000021e-02 1.000000000000000021e-02 1.000000000000000021e-02 1.000000000000000021e-02 1.000000000000000021e-02 1.000000000000000021e-02 1.000000000000000021e-02 1.000000000000000021e-02 1.000000000000000021e-02 1.000000000000000021e-02 1.000000000000000021e-02 1.000000000000000021e-02 1.000000000000000021e-02 1.000000000000000021e-02 1.000000000000000021e-02 1.000000000000000021e-02 1.000000000000000021e-02 1.000000000000000021e-02 1.000000000000000021e-02 1.000000000000000021e-02 1.000000000000000021e-02 1.000000000000000021e-02 1.000000000000000021e-02 1.000000000000000021e-02 1.000000000000000021e-02 1.000000000000000021e-02 1.000000000000000021e-02 1.000000000000000021e-02 1.000000000000000021e-02 1.000000000000000021e-02 1.000000000000000021e-02 1.000000000000000021e-02 1.000000000000000021e-02 1.000000000000000021e-02 1.000000000000000021e-02 1.000000000000000021e-02 1.000000000000000021e-02 1.000000000000000021e-02 1.000000000000000021e-02 1.000000000000000021e-02 1.000000000000000021e-02 1.000000000000000021e-02 1.000000000000000021e-02 1.000000000000000021e-02 1.000000000000000021e-02 1.000000000000000021e-02 1.000000000000000021e-02 1.000000000000000021e-02 1.000000000000000021e-02 1.000000000000000021e-02 1.000000000000000021e-02 1.000000000000000021e-02 1.000000000000000021e-02 1.000000000000000021e-02 1.000000000000000021e-02 1.000000000000000021e-02 1.000000000000000021e-02 1.000000000000000021e-02 1.000000000000000021e-02 1.000000000000000021e-02 1.000000000000000021e-02 1.000000000000000021e-02 1.000000000000000021e-02 1.000000000000000021e-02 1.000000000000000021e-02 1.000000000000000021e-02 1.000000000000000021e-02 1.000000000000000021e-02 1.000000000000000021e-02 1.000000000000000021e-02 1.000000000000000021e-02 1.000000000000000021e-02 1.000000000000000021e-02 1.000000000000000021e-02 1.000000000000000021e-02 1.000000000000000021e-02 1.000000000000000021e-02 1.000000000000000021e-02 1.000000000000000021e-02 1.000000000000000021e-02 1.000000000000000021e-02 1.000000000000000021e-02 1.000000000000000021e-02 1.000000000000000021e-02 1.000000000000000021e-02 1.000000000000000021e-02 1.000000000000000021e-02 1.000000000000000021e-02 1.000000000000000021e-02 1.000000000000000021e-02 1.000000000000000021e-02 1.000000000000000021e-02 1.000000000000000021e-02 1.000000000000000021e-02 1.000000000000000021e-02 1.000000000000000021e-02 1.000000000000000021e-02 1.000000000000000021e-02 1.000000000000000021e-02 1.000000000000000021e-02 1.000000000000000021e-02 1.000000000000000021e-02 1.000000000000000021e-02 1.000000000000000021e-02 1.000000000000000021e-02 1.000000000000000021e-02 1.000000000000000021e-02 1.000000000000000021e-02 1.000000000000000021e-02 1.000000000000000021e-02 1.000000000000000021e-02 1.000000000000000021e-02 1.000000000000000021e-02 1.000000000000000021e-02 1.000000000000000021e-02 1.000000000000000021e-02 1.000000000000000021e-02 1.000000000000000021e-02 1.000000000000000021e-02 1.000000000000000021e-02 1.000000000000000021e-02 1.000000000000000021e-02 1.000000000000000021e-02 1.000000000000000021e-02 1.000000000000000021e-02 1.000000000000000021e-02 1.000000000000000021e-02 1.000000000000000021e-02 1.000000000000000021e-02 1.000000000000000021e-02 1.000000000000000021e-02 1.000000000000000021e-02 1.000000000000000021e-02 1.000000000000000021e-02 1.000000000000000021e-02 1.000000000000000021e-02 1.000000000000000021e-02 1.000000000000000021e-02 1.000000000000000021e-02 1.000000000000000021e-02 1.000000000000000021e-02 1.000000000000000021e-02 1.000000000000000021e-02 1.000000000000000021e-02 1.000000000000000021e-02 1.000000000000000021e-02 1.000000000000000021e-02 1.000000000000000021e-02 1.000000000000000021e-02 1.000000000000000021e-02 1.000000000000000021e-02 1.000000000000000021e-02 1.000000000000000021e-02 1.000000000000000021e-02 1.000000000000000021e-02 1.000000000000000021e-02 1.000000000000000021e-02 1.000000000000000021e-02 1.000000000000000021e-02 1.000000000000000021e-02 1.000000000000000021e-02 1.000000000000000021e-02 1.000000000000000021e-02 1.000000000000000021e-02 1.000000000000000021e-02 1.000000000000000021e-02 1.000000000000000021e-02 1.000000000000000021e-02 1.000000000000000021e-02 1.000000000000000021e-02 1.000000000000000021e-02 1.000000000000000021e-02 1.000000000000000021e-02 1.000000000000000021e-02 1.000000000000000021e-02 1.000000000000000021e-02 1.000000000000000021e-02 1.000000000000000021e-02 1.000000000000000021e-02 1.000000000000000021e-02 1.000000000000000021e-02 1.000000000000000021e-02 1.000000000000000021e-02 1.000000000000000021e-02 1.000000000000000021e-02 1.000000000000000021e-02 1.000000000000000021e-02 1.000000000000000021e-02 1.000000000000000021e-02 1.000000000000000021e-02 1.000000000000000021e-02 1.000000000000000021e-02 1.000000000000000021e-02 1.000000000000000021e-02 1.000000000000000021e-02 1.000000000000000021e-02 1.000000000000000021e-02 1.000000000000000021e-02 1.000000000000000021e-02 1.000000000000000021e-02 1.000000000000000021e-02 1.000000000000000021e-02 1.000000000000000021e-02 1.000000000000000021e-02 1.000000000000000021e-02 1.000000000000000021e-02 1.000000000000000021e-02 1.000000000000000021e-02 1.000000000000000021e-02 1.000000000000000021e-02 1.000000000000000021e-02 1.000000000000000021e-02 1.000000000000000021e-02 1.000000000000000021e-02 1.000000000000000021e-02 1.000000000000000021e-02 1.000000000000000021e-02 1.000000000000000021e-02 1.000000000000000021e-02 1.000000000000000021e-02 1.000000000000000021e-02 1.000000000000000021e-02 1.000000000000000021e-02 1.000000000000000021e-02 1.000000000000000021e-02 1.000000000000000021e-02 1.000000000000000021e-02 1.000000000000000021e-02 1.000000000000000021e-02 1.000000000000000021e-02 1.000000000000000021e-02 1.000000000000000021e-02 1.000000000000000021e-02 1.000000000000000021e-02 1.000000000000000021e-02 1.000000000000000021e-02 1.000000000000000021e-02 1.000000000000000021e-02 1.000000000000000021e-02 1.000000000000000021e-02 1.000000000000000021e-02 1.000000000000000021e-02 1.000000000000000021e-02 1.000000000000000021e-02 1.000000000000000021e-02 1.000000000000000021e-02 1.000000000000000021e-02 1.000000000000000021e-02 1.000000000000000021e-02 1.000000000000000021e-02 1.000000000000000021e-02 1.000000000000000021e-02 1.000000000000000021e-02 1.000000000000000021e-02 1.000000000000000021e-02 1.000000000000000021e-02 1.000000000000000021e-02 1.000000000000000021e-02 1.000000000000000021e-02 1.000000000000000021e-02 1.000000000000000021e-02 1.000000000000000021e-02 1.000000000000000021e-02 1.000000000000000021e-02 1.000000000000000021e-02 1.000000000000000021e-02 1.000000000000000021e-02 1.000000000000000021e-02 1.000000000000000021e-02 1.000000000000000021e-02 1.000000000000000021e-02 1.000000000000000021e-02 1.000000000000000021e-02 1.000000000000000021e-02 1.000000000000000021e-02 1.000000000000000021e-02 1.000000000000000021e-02 1.000000000000000021e-02 1.000000000000000021e-02 1.000000000000000021e-02 1.000000000000000021e-02 1.000000000000000021e-02 1.000000000000000021e-02 1.000000000000000021e-02 1.000000000000000021e-02 1.000000000000000021e-02 1.000000000000000021e-02 1.000000000000000021e-02 1.000000000000000021e-02 1.000000000000000021e-02 1.000000000000000021e-02 1.000000000000000021e-02 1.000000000000000021e-02 1.000000000000000021e-02 1.000000000000000021e-02 1.000000000000000021e-02 1.000000000000000021e-02 1.000000000000000021e-02 1.000000000000000021e-02 1.000000000000000021e-02 1.000000000000000021e-02 1.000000000000000021e-02 1.000000000000000021e-02 1.000000000000000021e-02 1.000000000000000021e-02 1.000000000000000021e-02 1.000000000000000021e-02 1.000000000000000021e-02 1.000000000000000021e-02 1.000000000000000021e-02 1.000000000000000021e-02 1.000000000000000021e-02 1.000000000000000021e-02 1.000000000000000021e-02 1.000000000000000021e-02 1.000000000000000021e-02 1.000000000000000021e-02 1.000000000000000021e-02 1.000000000000000021e-02 1.000000000000000021e-02 1.000000000000000021e-02 1.000000000000000021e-02 1.000000000000000021e-02 1.000000000000000021e-02 1.000000000000000021e-02 1.000000000000000021e-02 1.000000000000000021e-02 1.000000000000000021e-02 1.000000000000000021e-02 1.000000000000000021e-02 1.000000000000000021e-02 1.000000000000000021e-02 1.000000000000000021e-02 1.000000000000000021e-02 1.000000000000000021e-02 1.000000000000000021e-02 1.000000000000000021e-02 1.000000000000000021e-02 1.000000000000000021e-02 1.000000000000000021e-02 1.000000000000000021e-02 1.000000000000000021e-02 1.000000000000000021e-02 1.000000000000000021e-02 1.000000000000000021e-02 1.000000000000000021e-02 1.000000000000000021e-02 1.000000000000000021e-02 1.000000000000000021e-02 1.000000000000000021e-02 1.000000000000000021e-02 1.000000000000000021e-02 1.000000000000000021e-02 1.000000000000000021e-02 1.000000000000000021e-02 1.000000000000000021e-02 1.000000000000000021e-02 1.000000000000000021e-02 1.000000000000000021e-02 1.000000000000000021e-02 1.000000000000000021e-02 1.000000000000000021e-02 1.000000000000000021e-02 1.000000000000000021e-02 1.000000000000000021e-02 1.000000000000000021e-02 1.000000000000000021e-02 1.000000000000000021e-02 1.000000000000000021e-02 1.000000000000000021e-02 1.000000000000000021e-02 1.000000000000000021e-02 1.000000000000000021e-02 1.000000000000000021e-02 1.000000000000000021e-02 1.000000000000000021e-02 1.000000000000000021e-02 1.000000000000000021e-02 1.000000000000000021e-02 1.000000000000000021e-02 1.000000000000000021e-02 1.000000000000000021e-02 1.000000000000000021e-02 1.000000000000000021e-02 1.000000000000000021e-02 1.000000000000000021e-02 1.000000000000000021e-02 1.000000000000000021e-02 1.000000000000000021e-02 1.000000000000000021e-02 1.000000000000000021e-02 1.000000000000000021e-02 1.000000000000000021e-02 1.000000000000000021e-02 1.000000000000000021e-02 1.000000000000000021e-02 1.000000000000000021e-02 1.000000000000000021e-02 1.000000000000000021e-02 1.000000000000000021e-02 1.000000000000000021e-02 1.000000000000000021e-02 1.000000000000000021e-02 1.000000000000000021e-02 1.000000000000000021e-02 1.000000000000000021e-02 1.000000000000000021e-02 1.000000000000000021e-02 1.000000000000000021e-02 1.000000000000000021e-02 1.000000000000000021e-02 1.000000000000000021e-02 1.000000000000000021e-02 1.000000000000000021e-02 1.000000000000000021e-02 1.000000000000000021e-02 1.000000000000000021e-02 1.000000000000000021e-02 1.000000000000000021e-02 1.000000000000000021e-02 1.000000000000000021e-02 1.000000000000000021e-02 1.000000000000000021e-02 1.000000000000000021e-02 1.000000000000000021e-02 1.000000000000000021e-02 1.000000000000000021e-02 1.000000000000000021e-02 1.000000000000000021e-02 1.000000000000000021e-02 1.000000000000000021e-02 1.000000000000000021e-02 1.000000000000000021e-02 1.000000000000000021e-02 1.000000000000000021e-02 1.000000000000000021e-02 1.000000000000000021e-02 1.000000000000000021e-02 1.000000000000000021e-02 1.000000000000000021e-02 1.000000000000000021e-02 1.000000000000000021e-02 1.000000000000000021e-02 1.000000000000000021e-02 1.000000000000000021e-02 1.000000000000000021e-02 1.000000000000000021e-02 1.000000000000000021e-02 1.000000000000000021e-02 1.000000000000000021e-02 1.000000000000000021e-02 1.000000000000000021e-02 1.000000000000000021e-02 1.000000000000000021e-02 1.000000000000000021e-02 1.000000000000000021e-02 1.000000000000000021e-02 1.000000000000000021e-02 1.000000000000000021e-02 1.000000000000000021e-02 1.000000000000000021e-02 1.000000000000000021e-02 1.000000000000000021e-02 1.000000000000000021e-02 1.000000000000000021e-02 1.000000000000000021e-02 1.000000000000000021e-02 1.000000000000000021e-02 1.000000000000000021e-02 1.000000000000000021e-02 1.000000000000000021e-02 1.000000000000000021e-02 1.000000000000000021e-02 1.000000000000000021e-02 1.000000000000000021e-02 1.000000000000000021e-02 1.000000000000000021e-02 1.000000000000000021e-02 1.000000000000000021e-02 1.000000000000000021e-02 1.000000000000000021e-02 1.000000000000000021e-02 1.000000000000000021e-02 1.000000000000000021e-02 1.000000000000000021e-02 1.000000000000000021e-02 1.000000000000000021e-02 1.000000000000000021e-02 1.000000000000000021e-02 1.000000000000000021e-02 1.000000000000000021e-02 1.000000000000000021e-02 1.000000000000000021e-02 1.000000000000000021e-02 1.000000000000000021e-02 1.000000000000000021e-02 1.000000000000000021e-02 1.000000000000000021e-02 1.000000000000000021e-02 1.000000000000000021e-02 1.000000000000000021e-02 1.000000000000000021e-02 1.000000000000000021e-02 1.000000000000000021e-02 1.000000000000000021e-02 1.000000000000000021e-02 1.000000000000000021e-02 1.000000000000000021e-02 1.000000000000000021e-02 1.000000000000000021e-02 1.000000000000000021e-02 1.000000000000000021e-02 1.000000000000000021e-02 1.000000000000000021e-02 1.000000000000000021e-02 1.000000000000000021e-02 1.000000000000000021e-02 1.000000000000000021e-02 1.000000000000000021e-02 1.000000000000000021e-02 1.000000000000000021e-02 1.000000000000000021e-02 1.000000000000000021e-02 1.000000000000000021e-02 1.000000000000000021e-02 1.000000000000000021e-02 1.000000000000000021e-02 1.000000000000000021e-02 1.000000000000000021e-02 1.000000000000000021e-02 1.000000000000000021e-02 1.000000000000000021e-02 1.000000000000000021e-02 1.000000000000000021e-02 1.000000000000000021e-02 1.000000000000000021e-02 1.000000000000000021e-02 1.000000000000000021e-02 1.000000000000000021e-02 1.000000000000000021e-02 1.000000000000000021e-02 1.000000000000000021e-02 1.000000000000000021e-02 1.000000000000000021e-02 1.000000000000000021e-02 1.000000000000000021e-02 1.000000000000000021e-02 1.000000000000000021e-02 1.000000000000000021e-02 1.000000000000000021e-02 1.000000000000000021e-02 1.000000000000000021e-02 1.000000000000000021e-02 1.000000000000000021e-02 1.000000000000000021e-02 1.000000000000000021e-02 1.000000000000000021e-02 1.000000000000000021e-02 1.000000000000000021e-02 1.000000000000000021e-02 1.000000000000000021e-02 1.000000000000000021e-02 1.000000000000000021e-02 1.000000000000000021e-02 1.000000000000000021e-02 1.000000000000000021e-02 1.000000000000000021e-02 1.000000000000000021e-02 1.000000000000000021e-02 1.000000000000000021e-02 1.000000000000000021e-02 1.000000000000000021e-02 1.000000000000000021e-02 1.000000000000000021e-02 1.000000000000000021e-02 1.000000000000000021e-02 1.000000000000000021e-02 1.000000000000000021e-02 1.000000000000000021e-02 1.000000000000000021e-02 1.000000000000000021e-02 1.000000000000000021e-02 1.000000000000000021e-02 1.000000000000000021e-02 1.000000000000000021e-02 1.000000000000000021e-02 1.000000000000000021e-02 1.000000000000000021e-02 1.000000000000000021e-02 1.000000000000000021e-02 1.000000000000000021e-02 1.000000000000000021e-02 1.000000000000000021e-02 1.000000000000000021e-02 1.000000000000000021e-02 1.000000000000000021e-02 1.000000000000000021e-02 1.000000000000000021e-02 1.000000000000000021e-02 1.000000000000000021e-02 1.000000000000000021e-02 1.000000000000000021e-02 1.000000000000000021e-02 1.000000000000000021e-02 1.000000000000000021e-02 1.000000000000000021e-02 1.000000000000000021e-02 1.000000000000000021e-02 1.000000000000000021e-02 1.000000000000000021e-02 1.000000000000000021e-02 1.000000000000000021e-02 1.000000000000000021e-02 1.000000000000000021e-02 1.000000000000000021e-02 1.000000000000000021e-02 1.000000000000000021e-02 1.000000000000000021e-02 1.000000000000000021e-02 1.000000000000000021e-02 1.000000000000000021e-02 1.000000000000000021e-02 1.000000000000000021e-02 1.000000000000000021e-02 1.000000000000000021e-02 1.000000000000000021e-02 1.000000000000000021e-02 1.000000000000000021e-02 1.000000000000000021e-02 1.000000000000000021e-02 1.000000000000000021e-02 1.000000000000000021e-02 1.000000000000000021e-02 1.000000000000000021e-02 1.000000000000000021e-02 1.000000000000000021e-02 1.000000000000000021e-02 1.000000000000000021e-02 1.000000000000000021e-02 1.000000000000000021e-02 1.000000000000000021e-02 1.000000000000000021e-02 1.000000000000000021e-02 1.000000000000000021e-02 1.000000000000000021e-02 1.000000000000000021e-02 1.000000000000000021e-02 1.000000000000000021e-02 1.000000000000000021e-02 1.000000000000000021e-02 1.000000000000000021e-02 1.000000000000000021e-02 1.000000000000000021e-02 1.000000000000000021e-02 1.000000000000000021e-02 1.000000000000000021e-02 1.000000000000000021e-02 1.000000000000000021e-02 1.000000000000000021e-02 1.000000000000000021e-02 1.000000000000000021e-02 1.000000000000000021e-02 1.000000000000000021e-02 1.000000000000000021e-02 1.000000000000000021e-02 1.000000000000000021e-02 1.000000000000000021e-02 1.000000000000000021e-02 1.000000000000000021e-02 1.000000000000000021e-02 1.000000000000000021e-02 1.000000000000000021e-02 1.000000000000000021e-02 1.000000000000000021e-02 1.000000000000000021e-02 1.000000000000000021e-02 1.000000000000000021e-02 1.000000000000000021e-02 1.000000000000000021e-02 1.000000000000000021e-02 1.000000000000000021e-02 1.000000000000000021e-02 1.000000000000000021e-02 1.000000000000000021e-02 1.000000000000000021e-02 1.000000000000000021e-02 1.000000000000000021e-02 1.000000000000000021e-02 1.000000000000000021e-02 1.000000000000000021e-02 1.000000000000000021e-02 1.000000000000000021e-02 1.000000000000000021e-02 1.000000000000000021e-02 1.000000000000000021e-02 1.000000000000000021e-02 1.000000000000000021e-02 1.000000000000000021e-02 1.000000000000000021e-02 1.000000000000000021e-02 1.000000000000000021e-02 1.000000000000000021e-02 1.000000000000000021e-02 1.000000000000000021e-02 1.000000000000000021e-02 1.000000000000000021e-02 1.000000000000000021e-02 1.000000000000000021e-02 1.000000000000000021e-02 1.000000000000000021e-02 1.000000000000000021e-02 1.000000000000000021e-02 1.000000000000000021e-02 1.000000000000000021e-02 1.000000000000000021e-02 1.000000000000000021e-02 1.000000000000000021e-02 1.000000000000000021e-02 1.000000000000000021e-02 1.000000000000000021e-02 1.000000000000000021e-02 1.000000000000000021e-02 1.000000000000000021e-02 1.000000000000000021e-02 1.000000000000000021e-02 1.000000000000000021e-02 1.000000000000000021e-02 1.000000000000000021e-02 1.000000000000000021e-02 1.000000000000000021e-02 1.000000000000000021e-02 1.000000000000000021e-02 1.000000000000000021e-02 1.000000000000000021e-02 1.000000000000000021e-02 1.000000000000000021e-02 1.000000000000000021e-02 1.000000000000000021e-02 1.000000000000000021e-02 1.000000000000000021e-02 1.000000000000000021e-02 1.000000000000000021e-02 1.000000000000000021e-02 1.000000000000000021e-02 1.000000000000000021e-02 1.000000000000000021e-02 1.000000000000000021e-02 1.000000000000000021e-02 1.000000000000000021e-02 1.000000000000000021e-02 1.000000000000000021e-02 1.000000000000000021e-02 1.000000000000000021e-02 1.000000000000000021e-02 1.000000000000000021e-02 1.000000000000000021e-02 1.000000000000000021e-02 1.000000000000000021e-02 1.000000000000000021e-02 1.000000000000000021e-02 1.000000000000000021e-02 1.000000000000000021e-02 1.000000000000000021e-02 1.000000000000000021e-02 1.000000000000000021e-02 1.000000000000000021e-02 1.000000000000000021e-02 1.000000000000000021e-02 1.000000000000000021e-02 1.000000000000000021e-02 1.000000000000000021e-02 1.000000000000000021e-02 1.000000000000000021e-02 1.000000000000000021e-02 1.000000000000000021e-02 1.000000000000000021e-02 1.000000000000000021e-02 1.000000000000000021e-02 1.000000000000000021e-02 1.000000000000000021e-02 1.000000000000000021e-02 1.000000000000000021e-02 1.000000000000000021e-02 1.000000000000000021e-02 1.000000000000000021e-02 1.000000000000000021e-02 1.000000000000000021e-02 1.000000000000000021e-02 1.000000000000000021e-02 1.000000000000000021e-02 1.000000000000000021e-02 1.000000000000000021e-02 1.000000000000000021e-02 1.000000000000000021e-02 1.000000000000000021e-02 1.000000000000000021e-02 1.000000000000000021e-02 1.000000000000000021e-02 1.000000000000000021e-02 1.000000000000000021e-02 1.000000000000000021e-02 1.000000000000000021e-02 1.000000000000000021e-02 1.000000000000000021e-02 1.000000000000000021e-02 1.000000000000000021e-02 1.000000000000000021e-02 1.000000000000000021e-02 1.000000000000000021e-02 1.000000000000000021e-02 1.000000000000000021e-02 1.000000000000000021e-02 1.000000000000000021e-02 1.000000000000000021e-02 1.000000000000000021e-02 1.000000000000000021e-02 1.000000000000000021e-02 1.000000000000000021e-02 1.000000000000000021e-02 1.000000000000000021e-02 1.000000000000000021e-02 1.000000000000000021e-02 1.000000000000000021e-02 1.000000000000000021e-02 1.000000000000000021e-02 1.000000000000000021e-02 1.000000000000000021e-02 1.000000000000000021e-02 1.000000000000000021e-02 1.000000000000000021e-02 1.000000000000000021e-02 1.000000000000000021e-02 1.000000000000000021e-02 1.000000000000000021e-02 1.000000000000000021e-02 1.000000000000000021e-02 1.000000000000000021e-02 1.000000000000000021e-02 1.000000000000000021e-02 1.000000000000000021e-02 1.000000000000000021e-02 1.000000000000000021e-02 1.000000000000000021e-02 1.000000000000000021e-02 1.000000000000000021e-02 1.000000000000000021e-02 1.000000000000000021e-02 1.000000000000000021e-02 1.000000000000000021e-02 1.000000000000000021e-02 1.000000000000000021e-02 1.000000000000000021e-02 1.000000000000000021e-02 1.000000000000000021e-02 1.000000000000000021e-02 1.000000000000000021e-02 1.000000000000000021e-02
-1.131457092855452657e+02 1.719346856603085314e+02 3.990184426154151254e+01 -8.970971118207703654e+00 -8.910845943555636950e+01 -1.357928329505209675e+01 -2.107907523286904166e+02 6.894988786440322537e-01 -8.591955384919891969e+01 -1.419695328592387895e+01 -2.010289538420570565e+01 6.597742537503370031e+00 -1.805738365293100722e+00 1.701382253778178892e+02 8.580028245252107411e+01 -3.930815005246110161e+01 -5.351273584069546985e+01 8.032679281803731897e+01 3.327815481205313120e+01 -2.571983693096416346e+01 -7.996122612418704989e+01 -7.485250024386267853e+01 -1.400510997059984319e+01 2.933881211386948706e+01 -1.976579045904802001e+02 -1.001270781435387818e+02 -2.645174943237143594e+01 2.044705095785155891e+02 7.175624781832699739e+01 7.778319216535120972e+01 8.141633211705000406e+01 1.203298412562040287e+00 -8.031067201616237128e+01 2.103202219414456238e+02 -2.482540253969704622e+02 5.963199473510373139e+01 -1.218567356953531657e+02 -3.516397076256830445e+01 4.088405111918904211e+00 1.284908806082763988e+02 -1.246370601867616301e+02 -1.385237667119946003e+01 7.845854105055997252e+01 1.760321902893454364e+02 7.237156383508227009e+01 -6.939914715624166774e+01 4.182530843370724938e+01 -2.877427091589938613e+01 -6.699491271729914388e+01 1.588004022399835264e+02 -7.159164781425971569e+01 -5.285811185489288988e+01 -1.412630485909786842e+02 5.806861736787621631e+00 -5.125923820817301646e+01 3.920639613457735351e+01 -8.997862631371873476e+01 -5.077358455790225378e+01 -1.028416983173160872e+02 -1.576388803653173625e+02 1.974712719675783035e+01 4.598030704515385025e+01 -1.248642418102243710e+02 1.304345209553311591e+01 -8.043325786846639858e+01 4.981398764505901511e+01 1.689679144775702184e+02 -1.463036954463493373e+02 -4.393376560770335715e+01 7.287076940810314873e+00 2.966606474399910987e+00 4.297962791740737032e+01 8.517804458730678618e+01 9.221446294005859468e-01 -8.911918308947688772e+00 -7.103330788662627526e+01 7.938367242552547509e+01 -3.325421285892304724e+01 2.666311520925881240e+01 1.054924498089837357e+02 8.949587306070463910e+01 -4.335822387728703120e+01 5.864747500475733943e+01 1.495444163938519466e+02 1.178635053634467766e+02 -4.092065185052388365e+00 1.767079908301660964e+02 -1.131050572534264234e+02 4.272725981507680793e+00 -4.253744456619982373e+01 2.098028438847970847e+02 -2.152663836910494055e+01 2.915433748870188246e+00 -7.788120410361696599e+01 -7.232856606927949628e+00 -6.477074594854009604e+01 6.873435156528142898e+01 -9.589925422111346620e+01 6.953064298972864776e+01 -4.842271383810243890e+01 -5.048128384693974624e+01 -9.296908724983281047e+01 5.386417830353085634e+01 -5.551422388788689943e+01 -1.514754915678450402e+02 -8.061653926220860455e+01 -1.061188333396993215e+02 -1.594859549585177092e+02 1.378983523543093099e+02 -2.790919907926754462e+01 3.248497823977484700e+01 9.095493172263702775e+01 -1.055786305784246792e+02 5.779533170211541915e+01 -4.394523532242673269e+01 -7.030226508104982486e+01 -9.136175782724522776e+01 2.062150739517693694e+02 -5.755988433503389956e+01 -5.019308977273823302e+01 -4.790699881570076712e+01 8.156007807108231589e+01 -4.199816608021251341e+01 1.399813819865997857e+02 -5.057258891333876960e+01 5.587142977997147142e+01 4.607269375654150956e+00 -8.232398030458656990e+01 6.981921749675929334e+01 2.813713884446626707e+02 -9.333508295491638762e+01 4.818511816834478623e+01 -7.732412718782885008e+01 4.588837862679574187e+01 1.330863067688474359e+02 -5.211134658044559842e+01 1.479402248378889162e+01 -2.730972028331943235e+01 -1.034161506139339508e+02 -1.753255134970163809e+01 4.329589834740098730e+00 -7.938033159445248899e+00 -1.517664092321782832e+01 1.199828567293185557e+02 1.322553838437954994e+02 1.891947510036202971e+02 -3.088000991632729892e+02 3.878089488093858961e+01 -1.597974172892776856e+01 -6.328432861268994003e+01 1.830341736160115147e+02 7.736816611089278695e+01 -2.610314877627464725e+00 -1.177219845961467684e+02 -1.107496975520534477e+01 1.016113784416123451e+02 -1.364602974216328164e+02 -1.712228090056293865e+02 1.090064408983465150e+01 4.309385699221195409e+01 -6.195986580455102199e+01 4.268904811667805888e+01 -1.087590807573745337e+02 -1.537061306313402440e+02 2.145219477523654561e+01 4.935119359291691410e+01 4.875734842367517530e+00 -8.483578158573094186e+01 -9.510223470658118572e+01 -8.570137621714935960e+01 -8.897467265319390606e+01 1.283025691748409969e+01 5.778192098402467280e+01 1.184423975222188687e+02 8.077327358815085745e+01 9.101907479220469099e+01 1.092751497397767508e+02 -7.608372189054500723e+01 -8.394968264962061255e+01 7.175411387376155403e+01 6.965674737379183057e+01 6.028552338815980249e+01 -9.562892800945999028e+00 -9.272902749458633309e+01 5.497009649299975109e+01 -1.822704383874464895e+02 6.840757222613342492e+01 -4.539063688678242414e+01 -9.828274828968191912e+01 7.563147302279476492e+01 -1.746024491015506541e+01 -7.865275664770912556e+01 -5.861328067022405008e+01 -9.326413961807535458e+00 2.475687504815341526e+02 7.838618121039553444e+01 5.596312848949224872e+01 -1.060694853352640621e+02 1.513765518609450567e+02 1.061481840244248076e+00 -9.232940529832414711e+01 1.591638578236464525e+02 -1.575117696785340797e+02 1.612127666252136393e+01 -3.327622516660017027e+01 -2.271156825784289026e+02 -1.378911159988166162e+02 -9.016891942923318481e+01 -3.025922037747159621e+01 -1.232519702282527163e+02 5.960109652702265493e+01 6.716426915364250760e+01 -2.849092263340461173e+01 -1.030632370511124094e+02 1.168960701884513753e+02 1.221982518775857329e+02 4.777297087244784279e+01 1.804724099159879458e+01 2.702094336549194509e+02 4.515897373704341788e+01 -1.234804014344583720e+02 -4.658420651244307464e+01 -1.746508407587847387e+02 3.296455127522516193e+01 1.586074167891845264e+02 -1.535182845334650210e+02 1.362933748657029298e+02 -9.411987318254584522e+01 -1.955390278549467453e+01 -7.708472736253798585e-01 5.469995266179386562e+01 -1.201216571504940767e+01 -2.358383764075216504e+01 -1.958256402792270379e+01 -1.311284399756586936e+02 4.806015137466217624e+01 -3.143422944928695983e+01 -1.344612358498857674e+01 -1.109095974376475979e+01 2.339536245763905242e+02 1.803633409231507869e+02 2.408730187478396374e+02 1.364761903882188676e+02 -8.964713864001700472e+01 7.787228651851938821e+01 2.186230322461720377e+01 4.929633613736994135e+01 -4.115319608834450804e+01 2.645408294541999794e+02 -2.412732285211365735e+01 -1.416192536616882478e+02 -1.549422926567319614e+01 -4.746543772292265118e+01 -8.018508461422295852e+01 4.471110884549144515e+01 -1.213446631427815703e+01 1.884607853404416744e+02 9.574805836735446007e+01 4.236243934857249371e+01 1.015786751369333274e+02 9.789848917452376043e+01 -2.382045581158013547e+01 1.446925271124202936e+02 2.744298540162771971e+01 9.281773565722046726e+01 4.937699747870333056e+01 7.188546058927502536e+00 -1.199778696428624585e+02 -1.200385320604148944e+02 -9.328808697578166687e+01 -1.614192494595697269e+01 8.983772939500614996e+01 -3.178124036776974037e+01 1.024935194162092102e+02 4.540128331803235540e+01 -7.537475802142080283e+01 -3.106248949422007044e+01 -6.073428180312794922e+01 1.820239401013787983e+01 -4.802657211314613050e+01 -1.161300328593007691e+02 1.259705432297000272e+02 1.257578851713035277e+02 -8.182186965372942211e+01 5.656666557940159379e+00 -4.696030404640661260e+01 -3.380787494628577861e+01 -1.175594430773233334e+01 -3.235532360823713560e+01 4.606379859366232665e+01 -1.456348519929938732e+02 -5.475151178008486141e+01 -1.573956984336914218e+02 1.804179682848327388e+02 -2.097069417988164020e+01 6.107226038508277810e+01 1.236121373592791883e+01 1.495727842272143278e+02 4.624750375554262405e+01 3.701443451121502193e+01 1.598275039609599162e+02 -5.101000402381029630e+01 -1.010353638574916744e+02 2.811640697776402575e+01 -1.635632367522367758e+02 -5.526838312420122179e+01 1.058690374651988151e+02 -1.321791607725116648e+02 -3.763251560263134365e+01 9.447016234839445303e+01 -9.777598969842152599e+01 -9.261062581005096206e+01 -8.551382720590122233e+01 -6.604362904240714727e+01 2.576206784924848989e+02 2.050059692921635985e+02 1.065459363500217478e+02 -1.057017314468289584e+02 7.742188627488049235e+01 -6.838130476212934639e+01 -3.228906333466358802e+01 1.716308686885613000e+01 -3.327138480197805848e+01 -9.690335405887482523e+01 -2.808588515306206901e+00 1.529328256980014267e+01 1.123719855920949442e+02 -1.327151497946421728e+02 4.325289680150955718e+01 6.583318761543438313e+01 3.567557916360701142e+01 -9.353515273561605170e+01 -1.532676400762609887e+02 1.993953093349051642e+02 -1.838443354836700649e+01 2.599027473367306840e+01 1.614622347928917918e+02 2.750821179787271120e+01 2.861500253417986883e+01 -4.591873636311260043e+01 9.134193636791312088e+01 -1.405670617856638671e+02 -3.175996547307896023e+01 -6.323123586032997956e+00 -5.505612966662477703e+01 6.372991220675501722e+00 2.195807558048961994e+01 -3.687713463826142402e+01 1.408118007782689851e+01 2.201786470522406773e+02 -2.821362863337053994e+01 -2.880711101663706941e+01 -1.047128319494773336e+02 -1.704514249597347764e+00 -8.317509971409896252e+01 6.598964730858657646e+00 1.154099949151059690e+02 -5.358103888632772538e+01 6.230561496748856065e+00 -5.593939655894730123e+01 3.433255105969297283e+00 8.979721195450036930e+01 -1.192863993853421078e+02 -9.966852495185037242e+01 -1.055824299173203400e+02 7.350303070158948060e+01 8.911365140715660971e+01 -9.502477006476155452e+01 6.444364969079563821e+01 2.657120846972380690e+01 3.982469896112787922e+01 -1.827944971089103277e+01 9.401643920153367162e+01 8.207411981083345154e+01 -7.954716806444386634e+01 1.220619009808572741e+01 8.327048435237419710e+01 7.499743978611503792e+01 -2.046007215805206414e+01 2.571745264307209311e+01 -1.364612563847520335e+02 4.992796093037431149e+01 -3.372292287408886580e+01 -3.359713479829322580e+01 1.782368008483026642e+02 4.882587620861809086e+01 1.237239508840089144e+02 1.965073852771712382e+02 -1.417087467125988098e+02 1.534027443556050230e+02 -6.522696161947345672e+01 -1.390625461801179483e+02 8.471843884953028692e+01 -1.379864729716292402e+02 -2.953788363035270947e+01 5.806464989614651984e+01 8.325650807627326344e+00 -1.729895188124677361e+02 8.666912048151540660e+01 2.594565562242900114e+01 7.110855917869841392e+01 3.732536298400105323e+01 9.752333598408146287e+00 -6.906964635205810055e+01 1.191073936923244219e+02 5.606828211219215774e+01 -6.393223519506218366e+01 -1.041802018917423993e+02 4.008690250398314703e+01 2.640631220493240150e+01 8.477349346757743831e+01 1.890585502697185518e+02 -2.535610886719938151e+01 -1.133382116048186816e+02 -8.720600529987254390e+01 -5.281045168328994066e+01 -4.567696531946106830e+01 -1.509912195580052980e+02 -2.314785620432508040e+01 1.332337743532218326e+02 7.670697389885923201e+01 -1.259151097768855010e+02 -1.541593188586826955e+02 -7.008308356350721624e+01 -7.858794563854959847e+01 1.509786599275149968e+02 -1.753788643671542502e+02 8.902472353008037942e+01 -4.741340864817543910e+00 -4.426030045629913445e+01 1.369365214517557128e+01 9.381448769310827629e+01 5.103698366138682019e+01 1.421910081295127668e+02 -1.637137834447620151e+02 -8.330426424147208309e+01 2.605930908731487250e+01 4.314528705141186293e+01 2.120893913762911893e+02 1.496299895722102065e+02 6.740130183882934034e+01 7.417884606030456496e+01 -3.521781348362579678e+01 1.562023548449536463e+02 -1.844659381939343916e+02 -6.521063836830481364e+01 -5.522978879932379215e+01 -5.328143856633276698e+01 -1.062598673463062084e+02 -1.541029229669493539e+01 -7.061546317144906482e+01 7.323008260326434993e+01 -9.429472715805669480e+00 -5.977938808296936912e+01 -6.410611008358864638e+01 1.853552320722684215e+02 6.067029695727530481e+01 -1.408715633230231745e+01 2.148489699245870952e+02 -1.114155672067054610e+02 -3.634981992639131221e+01 6.886735767817165765e+01 -1.316231856831865943e-01 1.535685134972730204e+01 -1.286104372640192253e+02 1.811980452226316061e+02 -5.039739581834759008e+01 -2.772182391689639402e+01 -1.128127273838966858e+02 1.293979008403049420e+02 9.859844742831516839e+01 -7.970375657344767717e+01 -3.860337483043521445e+01 4.002060513804322284e+01 -1.556220009805549296e+02 -1.397118567609636208e-01 -7.677311768914906054e+01 7.923347291847933072e+00 -1.111128678156679825e+02 -1.628987541365258380e+02 -7.261465584668658835e+01 1.522160697901674951e+02 5.813986609641516878e+01 -9.204550094878173638e+01 9.160901973009296739e+01 3.517532585592937266e+01 9.066905964986258937e+01 -4.324486782177942956e+01 -8.635361531865035545e+01 1.755763679295141628e+02 4.277659413571867475e+01 2.972497770797301087e+01 -7.494379182311266163e+01 -4.342251846380046487e+01 9.817703470122038922e+00 -7.343048086218629145e+00 -1.773290661880498078e+02 -3.549857916326889296e+01 6.609125516667319289e+01 1.145060950386371985e+02 1.597015080483331815e+02 -1.360371345503296681e+01 9.190153057407441395e+01 1.617051176348952595e+02 6.502857070644769522e+01 1.515140306956214431e+02 1.646335139711268170e+01 1.345566145319914142e+02 -8.601054779985007315e+01 5.468057448986292712e+01 3.006379135488042564e+01 7.770298600780209597e+01 -1.087463284417153204e+02 2.027093339372807748e+02 -1.318403760683043799e+02 9.035234502957911218e+01 -1.099439190836968265e+02 4.719605648442878731e+01 1.411181122779355412e+01 9.277651448614540186e+01 -7.534466687971298882e+01 -7.720432061438927462e+01 -1.142139836493350202e+01 9.106108485567723676e+01 -3.023321828923652888e+01 -1.666951534266738477e+01 -2.005802558168264582e+01 4.839562546351364070e+00 1.002243040986382852e+02 -6.388666123566956401e+01 -2.773797986363306656e+00 -1.976389517106636617e+02 1.242165776360669724e+02 -1.271488040230216825e+02 -7.523267878455881430e+01 -2.397733614085366582e+01 -1.098851220868683214e+02 -5.413016432617167339e+01 -5.962558136939541242e+01 -2.001988941470996863e+01 1.387391278091022002e+02 5.503665527377408750e+01 1.022516810541990253e+02 -1.385510696792925387e+02 -1.410845243629189554e+02 -2.916839120250133988e+02 1.039814111853496712e+02 1.061647500180737325e+02 4.303209270856510926e+01 -4.317618049346229014e+01 -3.789920120875870424e+01 -1.869494281580918198e+02 1.487899688173970958e+02 -1.093693151916617552e+02 1.088988388826439717e+02 -1.621216031605616763e+02 -1.456591906635139289e+01 -5.638230374428546554e+01 -1.214172394871689278e+02 -4.693436531272219980e+01 -1.270844572430083019e+01 -9.434350576813103828e+01 -1.053987725100673600e+02 -1.257893659279558918e+01 7.251048864811343719e+01 -1.269244890778998496e+02 -1.596072670896396239e+01 -7.511623150871577081e+01 -1.338398668534350406e+02 6.808158468705023836e+00 9.695488768702590221e+01 1.685761442019276615e+02 -1.943104002598464675e+01 -4.691870248817463107e+01 -1.264590751913711415e+02 -1.666358011627076792e+02 1.057147213410870563e+02 -7.412124184345954347e+01 8.052118145719481390e+01 9.583954134278071635e+00 2.981494704517798766e+01 7.526313345742424588e+01 -8.634369727646394210e+01 8.424775522257431248e+01 1.174872650992072352e+02 1.604446860913953117e+02 -1.188484617813597595e+02 1.059479905499741363e+02 -4.868283132783549405e+01 -9.255242439050165615e+01 2.187127685742673009e+02 5.021904579375524236e+01 8.508631595475303300e+01 2.171329325841379188e+01 -6.439569794510761369e+01 -3.561641706164798649e+01 -2.144559304446635508e+02 1.076794683901458995e+02 8.309616507127117302e+01 -7.717294158112892433e+01 -7.458489073636658873e+01 1.480220497309529719e+02 1.030318806330869563e+02 5.210646085603681854e+01 7.756932404697194272e+01 -8.060884220144584944e+00 1.052083711998153461e+02 -1.055425725937844561e+02 1.900492337524963489e+02 -4.025197515078092181e+01 -1.243628476454764495e+02 -3.839123755550131278e+01 7.314588711181741587e+01 1.502206195537319502e+02 1.318832577738310619e+01 1.772157116913774644e+02 5.323029489721522367e+01 3.426741072891847040e+01 -1.134982846751791783e+02 4.569588561749735334e+01 -1.274927095278316642e+02 4.861970357860658964e+01 3.940907576951356361e+01 -1.257455854620457245e+02 -8.669770605174103650e+01 4.060905427025671344e+01 8.897036034347578948e+00 -2.369651370704459836e+01 4.266674013024402967e+01 -2.181668782215595925e+01 -6.432815234429891404e+01 -2.664159541703383383e+01 -2.290405615723369692e+01 -4.061148234102098797e+01 1.915031689095957290e+01 -8.206091941358914710e+01 1.212833634079346012e+02 -7.579449577700226826e+01 -4.385197656730866811e+00 6.678548050670961800e+01 3.980158731985576459e+00 1.625194494679192658e+01 1.626666409267108904e+01 -1.194348030273360592e+02 -4.507774337032856238e+00 6.632756278377803483e+01 -2.359678873791646367e+02 -8.650309985594296336e+01 -1.149358854584858136e+02 4.464311641015316212e+01 9.810541117591718319e+01 -9.353538494952503868e+01 -1.711664572150685046e+02 -1.887426630373148555e+02 2.036602131779469360e+01 -1.477565255889173557e+02 -6.438677986337784098e+00 1.504021914156701030e+02 -7.251088566470356156e+00 3.783907701649587807e+01 -1.007191086481724795e+02 8.123887953002056861e+01 -1.205724003850548627e+02 -1.565927970826814786e+01 -3.081634153841662993e+01 5.849173667989050784e+01 -9.030140113214919495e+00 1.073226932250248780e+02 -1.239014947544599892e+02 -5.082709248868102492e+01 8.779263421910953014e+01 6.709729876740485111e+01 -8.352469127125296211e+01 -5.514639863841416911e+01 -5.002123344254945181e+01 -2.932137649909164452e+02 1.960563812194992011e+02 7.710022024227795612e+01 -2.390715229684181509e+01 -3.003125116777199821e+01 4.203913153166818972e+01 -8.518688258221678211e+01 1.007274069440519071e+02 6.114713020692918377e+01 8.297338813051011641e+01 -8.504395296978175622e+01 -2.687827826403930231e+01 3.372382580141093200e+01 1.757088875571564301e+01 -4.326713409416560552e+01 1.595630631982388650e+02 -1.747802307542852063e+01 3.574597870501283836e+01 -2.321541908482536769e+02 -8.555340494910004168e+01 -7.390447627909053097e+01 2.324459807103573183e+01 1.102683777467773751e+02 -2.339300854052965803e+02 -1.888588507132691063e+02 2.238382864719829115e+02 -1.067348639208617911e+01 9.701194036667725129e+01 6.334207216482057845e+01 -5.591248225334390298e+01 -1.322717820563890996e+02 -9.608312304900314871e+01 -5.075224422742061847e+01 -3.780599777213718937e+01 -3.953274999972401815e+01 1.633641798920015731e+01 3.749040772448615400e+01 1.684139424728591905e+02 1.243754931104528794e+02 6.986300811160819357e+00 -4.423326224138524942e+00 -1.603365763910744590e+02 1.208015666197581197e+02 1.608631493576511673e+02 -1.044020583086715845e+02 7.444396139508779697e+01 1.800705074243876824e+00 5.541208431537776136e+01 1.266576870582455001e+02 7.162601629954482974e+01 -1.353135313218225235e+02 1.630965971891428623e+01 -2.967034560672819055e+01 1.124717104965396430e+01 -2.340721104242857464e+01 4.580725807660153492e+01 -2.631180646063438076e+02 1.830473322648940950e+02 7.397452715166505932e+00 1.610887729100379886e+02 -1.068000229065521722e+01 1.073309697954069151e+02 7.241152801659113436e+01 -4.247750852349192030e+01 3.022158312219485765e+01 -7.360573731343680493e+01 -8.997960737059204916e+01 -7.291926392977441651e+01 -3.242237041664831310e+01 4.572179585382199463e+01 1.114997540952226984e+02 2.884897623372467379e+01 6.284436023278751549e+01 -1.061085149050887679e+02 -1.388454743343449422e+02 -1.365355379897618349e+01 4.699552335572190032e+01 -4.610820649495487800e+01 9.573927643141990984e+01 5.622720112403590775e+01 -2.801289729470232359e+01 3.034383669754301494e+01 6.216764234629522434e+01 -7.307071567127104572e+01 -1.354951174778629763e+02 1.439885897158445403e+02 7.921493575501401097e+00 5.082872635723088450e+01 -1.513437743664379411e+02 -5.414905800707197159e+01 -4.753397369334927403e-01 -6.664142558701780672e+01 4.336013121221546918e+00 5.709387194907614571e+01 1.891602934004152701e+02 3.970146843759435029e+01 -1.112845471936516084e+01 7.327452660238530768e+01 -4.617824540406684264e+01 -1.106472182449816160e+02 -1.403388110277710439e+02 9.522762089719112311e+00 2.550876553088159326e+01 2.416542342259488052e+01 -5.778990290208193414e+01 1.227906000882489650e+02 -8.216391553312608664e+01 1.304461030682245735e+02 8.875395879609975225e+01 -6.613548281268656126e+01 -8.610884374865196378e+01 8.562468704557169019e+01 2.084221717166458632e+01 -5.338890595298953201e+01 -5.478808208518559297e+01 1.390591338665809644e+02 5.830762262545043484e+01 8.129374087518016267e+01 2.661380622665402740e+01 -4.284775838516129909e+01 1.094286029971913621e+02 -5.556146502393867337e+01 5.393270671996664989e-01 7.799927253527000914e+01 1.014404900028802246e+02 2.602605771194698718e+02 -1.784561846501198943e+02 1.640227335066513774e+02 -6.890910425198840983e+01 -1.551794445826613256e+01 -2.553184916450691944e+01 -2.114225918547541028e+01 -5.628392452278122704e+01 9.479004924480938143e+01 1.878299549743231012e+02 -1.212588934377626515e+02 3.157732146628694636e+01 -1.295892345344629462e+02 7.169470520986496354e+01 -4.547108207361733179e+01 -8.275759662680344775e+01 -5.507788866268409578e+01 4.210036313345104020e+01 1.983883548706204181e+01 -8.369463902450173975e+01 -1.443775324129606759e+02 2.126792762503330536e+01 1.614040379713074742e+02 1.463252254532555341e+01 1.869642340491456025e+02 7.652535403509076239e+00 1.379850876953334193e+02 -3.547633769134851178e+01 9.301913146799419962e+01 -7.328691012772451074e+01 -1.158471673897980025e+02 5.073326973278101093e+01 -5.956106732833579542e+01 -8.061575049603209209e+01 7.488461490020401357e+01 6.611697715273208154e+00 -9.689847449726467232e+01 -1.547147773040694858e+02 1.520335875687730720e+02 -9.169452977976733621e+01 -2.401719506063578091e+00 1.235237843523620143e+02 5.972289629816332734e+01 -1.010589620898415859e+02 1.092484300853688772e+01 2.903854834464503938e+02 5.492266326708332969e+01 -1.624897143365377303e+02 -4.915485909202747905e+01 -6.341578122391786110e+01 9.932740906952162163e+00 1.108814123452851845e+02 -1.066770402484735314e+02 2.222950705875646804e+01 1.345992700627810166e+02 1.937189240408734747e+01 -2.179460852956570136e+02 4.989687852117917544e+01 7.788470061986787130e+01 -1.400378568372914678e+01 3.385636527504068738e+01 1.317322092049561522e-01 2.320466106720639488e+01 2.862633579107944115e+01 1.195292298300902445e+02 1.011566142359655345e+02 1.602489199802008102e+01 1.538223745472021449e+02 -6.608189610754999421e+01 2.545906525123697861e+02 6.711862826170224139e+01 1.462545630313480274e+02 -2.268754339396448927e+01 9.297298301839140322e+01 -5.065100664496230820e+01 -1.511245954143489314e+02 2.705109659253167109e+01 9.819445757983709200e+01 -9.047899036676453477e+01 -1.081529425611587953e+02 -6.870860341997720866e+01 3.777922124392426895e+01 -1.179815040632215641e+02 7.718293546318798803e+01 2.900265953590751522e+01 -1.008110005973961592e+02 1.961808025905016279e+02 -1.215024789066238498e+01 -1.050782618742816226e+02 -1.380978865460902938e+01 -2.110588844584227175e+01 -1.448454645678651787e+02 -4.135835988822303477e+01 6.352173867904927107e+01 1.361004063040968788e+02 2.996540708495377814e+01 2.765501812747517363e+01 4.626512066261270917e+01 -3.694695214151677476e+01 -1.503791240610801196e+02 1.636289977870122669e+01 3.202797184630178862e+01 1.374750072212751775e+02 -1.028132823393514172e+01 -7.866093709069598106e+01 7.562949846613430793e+01 1.036808188533602904e+00 3.302058982228872708e+01 1.439094419538099885e+02 -1.834353742928502413e+02 -9.592051671735529794e+01 1.288560337490812060e+02 -2.165769873157390464e+02 -1.846233921806107503e+02 9.132967598361466344e+01 1.545919842747791506e+02 6.361625818628073858e+01 -4.458028638308881852e+00 1.563927299352453417e+02 -2.203221013055388653e+02 1.075716313355629552e+02 4.254628724179670485e+01 1.275716445997335882e+02 -1.893228949437989570e+02 1.070051001818174825e+02 -2.840749499977851400e+01 -1.342204646384219302e+02 -5.348316158067952131e+00 -9.277023633253742219e+01 -1.639981499032766976e+01 -4.284204461452183921e+00 -1.236679174385635775e+02 -1.237956770360892307e+02 -6.282172492878455472e+01 -1.294327037463109207e+02 2.017817179050774996e+02 -1.616241712516410587e+02 -5.035804842371931045e+01 1.732030542593218456e+02 3.405470595326807626e+01 -2.971253729894780236e+02 -1.275596965916765555e+02 3.566752504932661338e+01 5.485229457389340979e+01 8.652389235754403884e+00 -1.552391389356572802e+02 3.582614305198112703e+01 7.485652663577311294e+00 -7.461405443976849483e+01 2.034840974869167383e+02 2.033883869111197953e+02 4.342695794324494152e+00 -2.093257446078548298e+02 1.264810032760361764e+02 3.089681408081009550e+01 3.752314909760731787e+00 7.693779950458578298e+01 -2.082588577772456233e+02 -1.385751470646984842e+02 1.415955969974301922e+02 1.100598526920308728e+02 5.314484230440044854e+01 1.437935380738694278e+02 -1.789472951140412533e+02 -2.050321972164584494e+01 -1.309432733765253829e+02 4.373437375117348580e+01 -1.042592210771596797e+02 8.737190661892491050e+01 -3.399438672788038929e+01 1.242878378429740671e+01 1.781019814171363294e+02 2.858823665775350875e+01 -2.645742399390300648e+02 -1.268300970320403849e+02 -8.367606180469061883e+01 1.587064622286474105e+02 1.258099463667436346e+01 -5.400004310572857946e+01 3.051520513511083266e+01 6.276627905108828287e+01 -3.974308869384147869e+01 1.079241392615262924e+02 -1.011159847524801876e+02 4.939976477192059434e+01 1.123507496439106177e+02 -3.555899194196249624e+01 -9.849552548373885941e+01 -1.138330078439653192e+02 1.202120908897178140e+02 -4.984069593993714165e+01 1.972969495171220160e+02 5.742134967428475534e+01 1.113806141877148264e+02 1.850852038347503026e+02 8.595523794099802828e+00 -1.247375175435677477e+02 -1.664059529371992880e+02 -1.146308060802664670e+02 4.262384314432696897e+01
-1.336413077121655846e+01 -4.712335665499951531e+00 1.015511998306396180e+02 -2.245446938584124723e+02 1.523825772572479593e+02 6.229191057489752836e+01 1.491637202182461976e+02 -1.266293888537716867e+02 -2.733685140909290379e+00 -2.360970242283982046e+01 -2.151880367327650276e+02 3.210533576197666150e+01 -1.796935298999861885e+01 1.199002138003936011e+02 -1.226011510875186445e+02 6.050073604925427162e+01 1.228599388947533839e+02 -4.504089288284186665e+01 -4.870594567449849421e+01 -2.653553277734833671e+01 6.048765842740446885e+01 6.189010594585035108e+01 3.177593334186518703e+01 -2.279802066971380725e+02 -5.062624011030758453e+01 8.968982035226814276e+01 9.706894546048639327e+00 -1.014289132909799740e+01 -6.523358615137630068e+01 -1.514591193327663454e+01 7.189948675657721822e+01 -1.425539367794011980e+02 -6.068111923954457865e+01 8.822613000705230135e+00 2.034205316039005140e+02 2.078702658405628085e+02 -3.142769128118643351e+01 5.478862297642442769e+01 -2.735759800248981910e-01 -1.369217509146149894e+02 9.409998535753923932e+01 1.051380241930568076e+02 1.063877206559889146e+02 1.146641818536926394e+01 6.068383579252406435e+01 4.718019211567698790e+01 3.812301327157614850e+01 2.874172644673242161e+01 1.081203094289356983e+02 8.795983951306237714e+01 6.431833902890556942e+01 1.597654128777398341e+02 2.427745991467231761e+02 1.917170997736746187e+02 -5.796250912552964962e+01 4.829533802201615345e+01 -6.303247951036917129e+01 5.531290886045614030e+01 -1.883547645725801090e+02 5.538888207125197738e+01 -2.007493197227444170e+02 -1.653865340194497264e+02 1.268602352738628980e+01 -9.051756388168902490e+00 1.662067709510991165e+02 -2.038318278995770640e+02 7.380584668305375828e+01 2.252826416807304213e+02 -7.176308362738976321e+00 -1.908730914824559477e+02 3.489690870216637109e+01 1.933567772003384562e+02 -5.990129061559024848e+01 -2.612499188365658256e+02 -1.005571734097871399e+02 8.653741194098328648e+00 -2.256016787989179022e+02 3.138874171506835253e+01 -1.759780091852161377e+02 -1.820105877455499410e+02 -5.599663972456161076e+01 1.495687511034501824e+02 6.819023846634898689e+01 1.040096017233794612e+01 -8.694056357256970102e+01 -4.180473698932866711e+01 6.256122931101641882e+01 -2.277450949919301024e+02 5.310169852996056505e+01 -7.363388799801630569e+01 -7.665605359844575162e+01 -1.735457618597145313e+02 6.390175778058397071e+01 9.106880875779552298e+01 -1.593757867876629462e+02 1.696214079107741384e+02 -3.918234749884781820e+01 -1.661028769668346072e+01 8.597679627196114893e+01 1.534955404082499228e+02 2.128941493750275882e+01 1.487323174288132179e+02 -1.813123668410368694e+01 -8.909187648213831778e+01 -1.927208205184219025e+01 9.929442238149155742e+01 4.541401201472496751e+01 9.878934088868992092e+01 9.533476538462741701e+01 -8.386526985321307848e+01 -1.715939829660661644e+02 1.242789183819002403e+02 5.479698133513578995e+01 1.631523391585528771e+01 3.088675223532787228e+01 -6.860742371729492106e+01 9.700791815540466700e+01 9.074187636626845688e+01 -1.380485196529008718e+01 -7.196572152912716547e+01 3.109231641786622902e+01 6.336885425269026761e+00 -6.217934636700325512e+01 1.713045204213288741e+02 -3.333790298708716193e+01 1.228932906896979205e+02 -7.086394605858984619e+01 3.879708832965834375e+01 -3.651112641037298800e+01 9.042943475255465557e+01 2.374548778115955017e+01 1.168473649087522688e+02 -1.172753865207747452e+02 7.517400087457988889e+01 1.248838324497155554e+02 -4.522782200626127036e+01 7.664212289951928270e+00 -1.279966670601768364e+01 1.181159885884053296e+02 3.572809455308640914e+00 1.706643778550385093e+02 -1.430841894258577724e+02 1.180793233280856214e+02 -9.245071790250446497e+01 9.690941419191702266e+01 -1.387272746264513046e+02 2.988698750005177729e+01 2.504516967770982916e+01 1.845939257967687652e+00 3.676903828445455957e+01 4.647386024116363501e+01 -1.259509514723290913e+01 1.092848559633248406e+01 1.094777802636234298e+02 1.289147932668978456e+02 -8.779504989240146529e+01 -5.493918634513391908e+01 4.799749090221908432e+01 1.565370359597844097e+00 -1.387721350390969519e+02 -5.581912035827897967e+01 -3.594692374579692284e+01 4.958937918710662274e+01 -6.646575029718354699e+01 2.325122927289506691e+01 1.626005171375351495e+02 -8.059352677902215589e+01 8.192960705902969210e+01 8.530390698705141972e+01 1.138227772607468324e+01 1.252371799514751842e+02 6.381545125545000019e+01 1.705589302931775819e+02 -3.506108692099819990e+01 1.141886289747203733e+02 5.639647695507332514e+01 -1.633099150976174485e+01 2.073400322829437528e+02 -1.410240980479402140e+02 4.966404348994137763e+01 -1.906239227943465835e+02 -8.557064067951880304e+01 4.170118446585134109e+01 -7.341540769919728859e+01 -1.584884178400444910e+02 2.027238116776792367e+02 -8.725808920506415234e+01 -4.831281564780417881e+01 -4.708885067984021333e+01 1.238773603753961083e+02 1.982102345538808095e+02 6.590037513239276734e+01 1.488430848682438636e+02 2.233514092956161790e+02 -1.660353521991818848e+00 1.658293156992753836e+02 7.216068075693122807e+01 1.938088258046810211e+02 -1.280276514717683654e+02 -1.209081123552203429e+01 6.446665340282930146e+00 1.933741673844020283e+02 -9.254401259130588642e+01 -6.154398277139162587e+01 -5.390802724585104500e+01 -1.363542223838822167e+02 4.745563298795324236e+00 -1.027590079656481095e+02 1.568653585157903194e+02 2.400039606473872311e+01 1.223153553171783869e+01 7.361279212826069340e+01 -5.031943611012702711e+00 1.190464898041313404e+02 -1.617009529542579571e+02 4.621718765545966789e+01 -1.739445320144562004e+02 1.195417623021731401e+02 9.773853301774310864e+01 -6.853681598657584573e+01 4.759894066177229632e+01 2.424295363309684035e+02 -3.099925909218990583e+01 4.241341997170023603e+01 -3.325945620616736420e+01 5.897917441984600373e+01 6.545230947218624351e+01 -6.381395597718933388e+00 1.037677352253901262e+02 1.033520154971728999e+02 -1.973568287367579615e+02 -1.559921975987381302e+02 -1.219520457253655508e+02 -9.628664295705487319e+00 -1.524802849147105519e+02 1.176098865084127141e+02 1.123315615518713173e+02 6.001599622525812094e+01 1.135851711825277199e+01 1.604968710113783175e+02 8.545465510305997725e+01 6.868847630939492888e+01 -1.034517550959271972e+02 1.550213492602402710e+02 -3.633239074482455422e+00 1.112483514461563914e+02 8.969484993292065056e+00 3.739224405647639315e+01 -7.704168849899413374e+01 -9.234595997744621343e+01 7.282873042795664276e+01 -3.893163044639237569e+00 1.488002475127752007e+02 -1.279634676871127219e+01 -2.909335877220748934e+00 4.663967472448924667e+01 2.303322302515314135e+01 1.438157058353165496e+02 1.486828097636217016e+01 3.643935725636353595e+01 -1.572998662311676981e+02 6.695074219862463849e+01 1.358703490795683990e+02 -1.797896820826539255e+01 -2.317027487500441225e+02 8.575580265962925353e+01 1.382032045822154203e+02 2.060034203496507388e+01 1.916467344848487926e+02 -4.191957135566180881e+00 4.347794005088734082e+01 -4.414448745542873098e+01 -1.404148800251000466e+02 5.666891072749894676e+01 -4.803291383553575855e+01 -8.201999858388562359e+01 4.168243377210080780e+01 -1.868741811150897831e+02 7.252743988558543720e+01 1.661415745152341401e+02 -1.023033248228594942e+02 1.747522229850544875e+02 -9.867472358942475807e+01 -6.049901194135012261e+00 -1.061730992911200211e+01 7.734237112791683444e+01 -4.701167887671999779e+01 -1.088260801247820382e+02 -8.933834184236877718e+01 1.470677299591859253e+02 5.961684251509247900e+01 -1.328404769542293025e+02 4.482763345402362098e+00 4.379979020597927075e+01 8.323327446633594207e+01 -4.065390817355572750e+01 6.046285234054058577e+01 -6.949983717649108428e+01 -1.636036278740442071e+02 -3.489635311253679362e+01 1.420238063201864520e+02 -1.141835189601039389e+02 -6.472369670975634648e+00 -1.640903831708943130e+02 -4.797898720865462430e+00 -1.468868438207737483e+02 3.311307083391582751e+01 6.054143903711003105e+01 -5.066635663274493595e+01 -8.293974025603876044e+01 5.665114229497639542e+00 7.486096999340021796e+01 -6.819221231135961148e+01 1.355334820292511324e+02 1.061280284289897367e+02 -1.283918131362163422e+02 -1.060529836455367700e+02 1.358375153800101032e+02 7.173773475101152997e+01 1.509878565884025079e+02 1.007586976977981266e+02 8.158610837174093433e+01 -6.055368187271774616e+01 -8.216774026320696578e+01 -7.742856969327540639e+01 2.054004674332024365e+02 3.065115176821372600e+01 -2.499638612241475144e+01 -6.881285194197840838e+01 -5.021626270151129035e+01 -1.316638447942965797e+02 -1.656163262599343966e+01 -1.754172506361273918e+02 1.250197535942522933e+02 4.601777598135657144e+01 -1.152243457428186701e+02 -4.837101896020637071e+01 1.197221742535310938e+02 -9.696295136796348402e+01 1.027917474634675727e+02 -1.184101506831513575e+02 -1.175958641147812322e+01 -9.546612874488648970e+01 8.966677413943956765e+01 -4.246450443307045219e+01 1.033402200179904362e+01 2.930728602512550651e+01 -1.265866316040362136e+02 1.249539190915873377e+01 4.829424307231168711e+01 -2.239971125969843513e+01 -6.869570146415638590e+01 2.023369608051300190e+02 8.637327589765983760e+01 4.709800530667624230e+01 -3.139346063820427091e+01 8.016937908648961297e+01 1.674348174957549418e+02 -9.220314019940749972e+01 2.092363165077462952e+02 -1.329612886950150425e+02 -1.837422490942528555e+02 1.517015499881786411e+02 -2.336950172578918057e+02 -9.999723457843906482e-01 -2.446475022979896323e+02 -1.527577255907363565e+02 7.167175463081305509e+01 -1.454799394369532308e+02 5.831931167064433907e+01 1.097556341653873062e+02 -1.602011079391954240e+02 -3.010935212044799769e+01 7.531132497990097363e+01 1.337758530531889960e+02 -1.858607319794348030e+02 8.735191307079439582e+01 -9.783450913296476870e+01 -9.867701276048819636e+00 -1.387613824260218820e+01 -7.949147324829147010e+01 -9.021139383224509345e+01 1.811488537500078735e+02 -2.164452470956538122e+01 1.327537877100674502e+00 1.300811357893787488e+02 -8.658712704556033657e+01 -3.439391213935322611e+01 -1.075664582241776799e+02 -4.881485366332158549e+01 5.184010228461437109e+00 5.937554453702346535e+01 -1.351236953397781235e+02 2.373707640997757267e+02 -5.397707295460451604e+01 1.228857594954888413e+02 -4.892321330786376876e+01 1.200665705747758238e+02 1.394112891219038488e+02 4.813705321042044005e+01 1.224479932662065664e+02 -4.334935283356988123e+01 1.403847746074500833e+02 -1.569210178286422490e+02 -6.560038080877981770e+01 -6.317927598335373318e+01 2.560932902541283340e+01 -1.628609872955763365e+02 7.280651861513869960e+01 -3.094391725624421241e+01 -8.293429310143955036e+01 8.993245795724547520e+01 -1.516421369543327842e+02 -9.153775147860181960e+01 -5.278518757882739720e+01 3.320520802789169323e+01 1.302996512358010648e+02 1.173059799736382587e+02 6.939053621792140802e+01 -1.621882111405047677e+00 1.754866202137784228e+02 1.229711009969849016e+02 -9.476871712941799331e+01 -7.844820408057572081e+01 5.564796403546419157e+01 1.002845163408023943e+01 9.832772099820424216e+01 1.672469725999599746e+02 7.082836016865346096e+01 2.446443053914010690e+01 -1.025378412903710341e+02 1.723995111747981923e+02 -1.140644811517576329e+02 -1.658233535046581721e+02 6.592661951265999676e+01 1.118263627916679894e+02 1.968536127612993880e+01 -1.392572046884213535e+02 2.982733160831221753e+01 4.255263254370596115e+01 -3.098517990879035011e-01 1.312655027778124008e+02 9.781937313250523403e+01 1.714759818098886512e+01 7.853578945386722410e+01 -1.072884853052483152e+02 -6.314618108083476677e+00 9.854455057859775025e+01 2.974620027969557512e+01 -6.517387849641129094e+01 1.984254646123805799e+02 2.315523921739788591e+02 -1.257708262079333963e+02 -2.765108416074529529e+01 -2.105883255040765789e+02 -7.230300605361939859e+01 1.568807018710552939e+02 3.419635884818000626e+00 -7.109201369064709297e+01 1.640442579941675945e+02 -6.260910240345908306e+01 -1.608108655129719580e+02 1.367229618193779856e+02 -6.730897151825018909e+01 3.448644902244009103e+01 8.645895998622749801e+01 1.379057118932386672e+01 -2.384519114049091684e+02 4.232116320588589531e+01 -6.129223387650617028e+00 9.015125586131701141e+01 -2.357998046082545329e+01 1.012530393063324965e+02 1.697424275031941221e+01 -8.483660035929698040e+01 -2.048851038263281055e+01 -1.753409368179136152e+02 1.150754012503021926e+02 2.528457793356135141e+01 -4.166001200357257517e+01 -5.184953936865689172e+01 -6.290379710445698436e+01 4.112241520279994944e+01 1.607869071834053329e+02 1.327870704230876697e+02 4.310237108607118728e+01 -1.979794586629352295e+02 -3.881590276616628188e+01 4.383518158219340677e+01 1.174196996128021482e+02 8.728980227950022197e+01 1.546838112934997334e+01 -1.861585556778566399e+02 1.318086319073123889e+02 -2.239007431264465424e+02 -2.059390577343966697e+02 -1.853334165780865517e+00 -7.382480752338780405e+01 -2.408744396291304568e+01 8.718877021428536978e+01 5.595871127226381958e+01 -1.112876638097058333e+02 -1.515378830548915232e+02 1.460733654262715753e+01 1.237717976191031539e+02 2.072641390794150240e+01 -5.674691944899683449e+01 -5.163952193261200563e+01 -1.179825375260356601e+01 1.614780749802439459e+02 2.239302582507957595e+01 -1.768811908530782091e+02 1.306579383998501385e+02 -6.803241546666440343e+01 -4.254701390959461094e+00 1.568663275838745506e+02 -5.329098702093669715e+01 -1.994393079772764565e+01 -1.118999771122090721e+02 -6.123701215848567969e+00 -2.430753054253702672e+01 1.341816529354396152e+02 1.223458022105052692e+02 6.884381882063075864e+01 6.662734353137737742e+01 -1.906432142784876405e+01 1.377613038526991431e+02 -1.148488758097106057e+02 -4.345573632106542128e+00 -9.275513616516840898e+01 1.600929439597015858e+02 7.431188061740616035e+01 5.267044556982239101e+01 8.440506233098655997e+00 -5.426712575819502149e+01 3.502639847388112315e+01 6.884665100824548745e+00 3.652721937879132241e+00 2.457249494689454039e+01 6.089012766473752691e+01 1.734200754551340253e+02 -3.953958193159571266e+01 -5.296078845550928804e+01 6.802212698766243193e+01 1.178230120190186057e+02 -1.304434760262347126e+01 9.361753729294456150e+01 1.059379957953316165e+02 2.146359629250131036e+02 -8.814879758716875813e+01 -1.249634418893552947e+02 -2.916140931667490577e+01 6.327506721495220177e+01 -1.033250109975858066e+01 1.093871481994092676e+02 3.790953799409633973e+01 -1.655968872264635934e+02 4.588291228818193446e+01 -9.108331978236002158e+01 -1.377483428293190286e+02 1.369232537401843217e+02 -7.737814788764879381e+01 6.018986120281272179e+01 1.131969034387746547e+02 -1.008005199149485804e+02 2.387926740350582122e+01 -7.341797358761265002e+01 4.095605869857755721e+01 -1.165604271677747334e+02 6.262433656443892005e+01 5.559987580356566639e+01 4.003752827124351654e+00 8.551254331929501973e+01 -1.555419587234449637e+02 7.767255061506351410e+01 -2.972504586740218357e+01 -1.705563212048302546e+02 9.536855259132855167e+01 2.474624792746368485e+01 -1.980532448052138648e+02 2.374806124555247493e+02 -5.337283151780699564e-01 1.061806497555437687e+02 -1.217551888924068493e+02 -1.960595922764513261e+02 -9.420680524561272762e+01 2.492098032798766738e+00 1.442786666649980418e+02 4.059470030953532316e+00 -9.647778023630817756e+01 5.090541832118916687e+01 1.383561745095046263e+02 6.561513436520441189e+01 -5.224887041348601713e+01 -5.970253962517639224e+01 8.531735377679962085e+01 3.105666521563406945e+01 -1.974027350898348914e+02 -2.093291097969534675e+01 1.706573108013210742e+02 9.979046203358910816e+01 -5.786226884534693227e+01 -1.128730880909997296e+02 -4.309251735949141704e+01 -4.853978403803498054e+01 -1.155471898016119354e+02 -1.867584493580575966e+01 -4.610155662620031336e+01 -1.146995977804359939e+02 -1.331278735190778946e+02 -2.717495204291546784e+01 -1.268557816910382030e+02 -1.350424650747377200e+02 -3.869757978440991764e+01 -5.588994374772202889e+01 -1.120480180059570614e+02 1.947304314158023146e+02 1.101909481384904765e+01 -2.943440108678196765e+01 -1.779764129565129238e+01 8.229296480910083744e+01 1.635471037409416439e+01 2.620290443555695958e+01 -2.228631843463183415e+01 -4.834389128570192184e+01 2.188832658535391573e+01 -1.520573397655465726e+02 -1.665429537730504421e+02 -9.462211296943054606e+01 -1.996439463851036749e+02 -9.376264409279566792e+01 8.977819544024248444e+01 6.420970236584852842e+01 -2.726975125559484070e+01 6.357330129077722347e+01 -1.637619850995391175e+02 -4.268001715030403176e+01 -1.214753736708650962e+02 -6.983421424802619981e+01 2.206434046807036395e+02 -2.147534459889157006e+02 2.147354973560509848e+02 2.616234826686617154e+01 -5.909144217258288734e+01 9.652321665368735637e+01 1.298092880134476559e+02 -5.428608467853344877e+01 -2.131092990966127161e+02 -1.559778968918311648e+02 1.069781913813027643e+02 8.762746281398788994e+01 -1.418485551447250543e+02 3.344286180754627225e+01 -4.148410621272974197e+01 -8.097004609652229590e+01 -2.973405892865558897e+01 -5.736513913621040928e+01 -9.043848840024286062e+01 -3.559596419533110634e+01 4.665640708448138163e+00 -3.423628199396671334e+01 -4.249333683161397035e-01 -1.503942127029185905e+01 9.624022133576370663e+01 1.329317873172638258e+02 1.378071471387379887e+01 1.755792920587728290e+01 -6.600435905936822678e+01 -2.050483961003332354e+02 3.541837721432111152e+01 -9.597688618929133497e+01 2.701476305752124318e+01 -8.582726200783527659e+00 1.048108208133953001e+00 7.556566044921341074e+01 1.274965127493424717e+02 -7.370224976185251364e+01 3.975180791449209750e+01 -2.017100405967678682e+02 1.010768166654662537e+01 7.348529036510371704e+00 -1.281949267290708860e+02 -3.529033420322939207e+01 -4.637148140175739996e+01 4.996042011429888241e+00 -1.069741483829130715e+02 2.830651145211016484e+01 -1.021604730632864459e+02 5.873182297949687580e+01 7.096461713369883739e+01 3.857326987462790413e+01 -3.035770881028128798e+01 1.123876544345637143e+02 6.386743613951020393e+01 8.366753837882403388e+01 -7.006010340547514659e+01 2.124744153790651779e+01 1.337563588649835822e+02 -6.113684984451180782e+01 -7.226572596485263844e+00 3.345532629296010185e+01 -1.342446157093549175e+02 1.022822080186407874e+02 9.364532381312606901e+01 -1.057053943542719736e+02 -8.608783596765643154e+01 -5.802539327440490524e+01 -4.758667573456227728e+01 -1.675219264432425632e+02 -1.420570438059139349e+02 -1.384193556212881617e+02 1.104008644037518820e+02 6.243323121747675941e+01 1.666342912228572857e+02 7.512296948372848782e+00 -8.958292865765004365e+01 1.955168514013647041e+01 1.444826668239346645e+01 -6.629752406701651068e+01 7.731773699187966997e+01 1.232640412256468636e+02 1.044589840677329384e+01 1.497294497328495027e+02 2.350745687222021729e+01 1.158217991939982454e+02 1.576779041360117439e+01 -2.168370772441956262e+02 2.278805488585118724e+02 -5.106422717690151103e+01 -1.556150843571206224e+02 -7.010013005305373213e+01 -4.480415577158824902e+01 4.292398952696069614e+01 2.655801835661986487e+01 4.745319754130073875e+01 -7.690560442550589926e+01 1.269236470941610975e+02 -8.944588343889604687e+01 -7.266853824437836451e+00 1.476769308587457203e+02 1.136150569020461489e+02 6.006779751786579169e+01 -1.833297051326099734e+02 2.633275127569957519e+01 1.453510527404983748e+02 2.425599280279650216e+01 1.009403865412798638e+02 1.100523990353607076e+02 -2.184695962768375068e+02 7.947988607471367573e+01 -5.965772022466148172e+01 -2.322243128857496401e+02 9.132539279445384750e+01 2.534984615597595337e+01 -1.252916468390870364e+02 -6.004938340850268474e+01 1.421555049672249424e+02 1.508446966280412198e+02 -7.741111793932992668e+01 -1.303603768383783859e+02 -8.503123760670305842e+01 -1.688545207245464610e+02 1.989067406008403793e+01 3.852236393006455728e+01 -1.718355244549358929e+01 -1.254904023916643219e+01 -9.066866069051283716e+01 -8.948245046252208112e+01 -2.492239480651436878e+01 1.350524262808080778e+02 1.372954261316644704e+02 8.168368316373158677e+01 9.764954340439929581e+01 -7.901126049497078441e+01 -1.812660920666376967e+02 -1.329078062938259563e+01 -2.324601012884627238e+01 -7.113902870707867976e+01 1.506248987407455830e+00 7.321659578533316903e+01 -5.303011718990536139e+01 2.466456908424460082e+01 7.932197743129232492e+01 7.022200348534136083e+01 1.107160064302336195e+02 -1.494625554817990292e+02 3.971679198239393571e+01 8.346273079441918696e+01 9.493097596798855875e+01 5.918713333572779334e+01 -1.034278279419667683e+02 1.371900332388983941e+02 1.276811827391552754e+02 9.600332617088656662e+01 1.017116612373937272e+02 -8.438381912168465249e+01 -1.490470182553249856e+01 -1.294171999146813512e+01 7.720825645398255688e+01 6.508287269044561185e+01 5.605100069032401677e+01 9.776980349484070132e+01 1.166750533350335246e+02 1.240747808349707952e+02 -6.504808635579064457e+01 8.073511166208962209e+01 6.537188765115584488e+01 -1.178698339517139857e+02 1.318416224269012673e+02 -1.006341079410866080e+01 -2.796862200193914560e+01 1.996711702142241336e+02 8.864885937844657349e+01 1.243718824383545325e+02 -1.446757599011599495e+02 -1.581829141286096672e+02 -1.541925175437972086e+02 -1.225346738777069078e+02 -4.441969853016216518e+01 1.101915988806002247e+02 -1.692310324624279474e+02 3.265868820115932891e+01 1.449128602613963892e+02 -5.957800727252282513e+01 -9.174421785842446297e+01 -3.526111682696330973e+01 1.365247138967161504e+02 2.284087982525472285e+02 -6.695808974008053838e+01 1.991300067140694452e+01 -2.785209935159281258e+01 6.885930390925997813e+01 6.060594581180943408e+01 -2.144482277682614040e+02 -8.917928173464332531e+01 1.383942477452027333e+02 1.406585557767231478e+02 9.512760248955642339e+01 -5.011105413897501393e+01 -7.630715882424084384e+01 -4.572110561522310235e+01 -1.776927171050097911e+02 7.165262790808804994e+01 -2.585594582206519476e+01 1.675504646160002267e+02 -2.811780562058751798e+01 -3.167976814738423741e+02 1.459383021378335457e+02 5.069552812239497541e+01 -1.188545125411484378e+02 -2.229776552345565577e+01 3.558572345479289822e+01 -2.092552773999015869e+02 -1.151763330061305908e+02 -1.104338932741465129e+02 -5.689574467695114635e+01 6.331476216003579793e+01 -1.661265017732786760e+02 1.088159644373976676e+02 -5.475392624911178530e+01 2.927478217008229855e+00 -1.345127946855709524e+02 -1.044310348694267248e+02 1.773284835517417264e+02 8.738892610868612110e+01 -4.259470067364468093e+01 3.750419590469942221e+01 -2.830565656926382090e+01 4.358362453716129181e+01 -1.055323160013130916e+02 9.968843594045455347e+01 5.096767092270162891e+01 -1.199764614670492193e+02 1.178132800485626746e+02 -4.959687352049572695e+01 1.008306000546060517e+02 -4.986914600002914710e+01 8.921455175539560400e+01 -1.548492056666239591e+02 1.440317154680959391e+02 2.500997436928460971e+01 1.015943010440560954e+02 1.316607009576053997e+02 -1.480617837890118835e+02 -8.673034540599176978e+01 -1.066622922282385133e+02 6.754262670863307960e+01 -1.730446093985038658e+02 1.529756246814008023e+02 1.438412726472306531e+02 5.352426135569705679e+01 -8.575850599395424467e+01 5.763368313488710015e+01 -1.083881110534753702e+02 -1.107642611400802934e+01 3.535599732555053265e+01 -1.856570738942986338e+02 -8.245742245812643034e+01 -1.367812423452541992e+01 1.033045236638412518e+02 -5.073953901523692167e+01 1.098581350162523478e+02 -6.504343060553962630e+01 -2.131274324337230439e+02 -1.082777548242849122e+02 -3.446926184955499650e+01 -6.086719179919925438e+01 3.044311939392978061e+01 5.194391368806992659e+01 6.427489875134705599e+00 2.557222591383842314e+01 -1.186363745025340961e+02 5.444384091731676278e+01 3.300734741930810401e+01 -7.304807548606963508e+01 9.362398032399003256e+00 5.697084832684862477e+01 -9.656332503289331726e+01 -5.573333107159844957e+01 -2.442503016906281132e+01 9.880097160775687826e+01 -1.733865291256982388e+01 4.244237307132764592e+00 -2.308696457897393657e+02 -9.623561093310723891e+01 1.001665315752060934e+02 -9.038044192873620375e+01 3.173926060573129959e+01 3.146361896729810326e+01 3.843511625485761130e+01 6.693209966020765478e+01 -1.797358864196741592e+02 1.458169554854567593e+02 8.250429853391241863e+01 -7.604362422620552842e+00 -8.185739129267517455e+01 1.133943031801276504e+02 6.290411984773694343e+01 -2.037073137416623752e+02 -5.105157143629387662e+01 -8.275194396640331718e+01 -5.253783626816815655e+01 -6.276915873762061437e+01 -1.003820344893652248e+02 -6.117509164938422117e+01 1.940140866108929458e+02 -1.730676772686082927e+02 6.636154400125859354e+01 2.810979138564688284e+01 -7.617425214808636724e+01 1.051563706176128399e+01 -3.993522946480828040e+01 3.469241195573028236e+00 -9.741116649023143736e+01 -2.001956286420193578e+02 1.863965877156920570e+01 4.248440572642094537e+01 -1.297302795229810890e+01 -9.163787039611712260e+00 -4.031936246921922162e+01 -1.925137964768650818e+02 -3.107304150972866452e+01 -6.625929424761096698e+01 1.416970628907485086e+01 -1.582040990441171502e+01 9.176986220323051668e+01 -6.389404009640995241e+01 -1.051260756358864512e+02 -3.625143319402837960e+01 -9.150503406745253088e+00 4.615586206483686738e+01 -2.245596101701107372e+01 -7.472761458734140660e+01 -1.608950431256701563e+01 2.035276656255296501e+01 4.816224000756470502e+01 -1.156099906575958443e+02 -1.409769783942253980e+02 2.335580635253488992e+02 -2.213283118426045064e+02 -7.702989325348640648e+01 -4.700549636967812006e+01 1.418395578627818452e+02 6.417840832752352753e+01 2.320814839102294798e+02 2.482104744399699712e+02 -6.320930306720300251e+01 1.313221412439911830e+02 -5.672282775903440211e+01 -4.138669553145206947e+01 -1.020937516276870127e+02 -8.098322028667689665e+01 -7.057529394532608080e+01 -9.025428376320100199e+01 -2.472508455995300096e+02 -2.747557487528724209e+02 1.366310083769219261e+02 -2.690351471890559409e+01 5.402529335455460568e+01 1.327240865735671491e+02
