# 
#                 ----------------------------------------------------
#                 Data from a 3D direct N-body simulation. 
# 
#                 rows are i-particle; 
#                 coumns are :mass, tag, x ,y, z, vx, vy, vz, ax, ay, az
# 
#                 NTHU, Computational Physics Lab
# 
#                 ----------------------------------------------------
#                 Time = 0.8000000000000005
1.000000000000000000e+00 2.000000000000000000e+00 3.000000000000000000e+00 4.000000000000000000e+00 5.000000000000000000e+00 6.000000000000000000e+00 7.000000000000000000e+00 8.000000000000000000e+00 9.000000000000000000e+00 1.000000000000000000e+01 1.100000000000000000e+01 1.200000000000000000e+01 1.300000000000000000e+01 1.400000000000000000e+01 1.500000000000000000e+01 1.600000000000000000e+01 1.700000000000000000e+01 1.800000000000000000e+01 1.900000000000000000e+01 2.000000000000000000e+01 2.100000000000000000e+01 2.200000000000000000e+01 2.300000000000000000e+01 2.400000000000000000e+01 2.500000000000000000e+01 2.600000000000000000e+01 2.700000000000000000e+01 2.800000000000000000e+01 2.900000000000000000e+01 3.000000000000000000e+01 3.100000000000000000e+01 3.200000000000000000e+01 3.300000000000000000e+01 3.400000000000000000e+01 3.500000000000000000e+01 3.600000000000000000e+01 3.700000000000000000e+01 3.800000000000000000e+01 3.900000000000000000e+01 4.000000000000000000e+01 4.100000000000000000e+01 4.200000000000000000e+01 4.300000000000000000e+01 4.400000000000000000e+01 4.500000000000000000e+01 4.600000000000000000e+01 4.700000000000000000e+01 4.800000000000000000e+01 4.900000000000000000e+01 5.000000000000000000e+01 5.100000000000000000e+01 5.200000000000000000e+01 5.300000000000000000e+01 5.400000000000000000e+01 5.500000000000000000e+01 5.600000000000000000e+01 5.700000000000000000e+01 5.800000000000000000e+01 5.900000000000000000e+01 6.000000000000000000e+01 6.100000000000000000e+01 6.200000000000000000e+01 6.300000000000000000e+01 6.400000000000000000e+01 6.500000000000000000e+01 6.600000000000000000e+01 6.700000000000000000e+01 6.800000000000000000e+01 6.900000000000000000e+01 7.000000000000000000e+01 7.100000000000000000e+01 7.200000000000000000e+01 7.300000000000000000e+01 7.400000000000000000e+01 7.500000000000000000e+01 7.600000000000000000e+01 7.700000000000000000e+01 7.800000000000000000e+01 7.900000000000000000e+01 8.000000000000000000e+01 8.100000000000000000e+01 8.200000000000000000e+01 8.300000000000000000e+01 8.400000000000000000e+01 8.500000000000000000e+01 8.600000000000000000e+01 8.700000000000000000e+01 8.800000000000000000e+01 8.900000000000000000e+01 9.000000000000000000e+01 9.100000000000000000e+01 9.200000000000000000e+01 9.300000000000000000e+01 9.400000000000000000e+01 9.500000000000000000e+01 9.600000000000000000e+01 9.700000000000000000e+01 9.800000000000000000e+01 9.900000000000000000e+01 1.000000000000000000e+02 1.010000000000000000e+02 1.020000000000000000e+02 1.030000000000000000e+02 1.040000000000000000e+02 1.050000000000000000e+02 1.060000000000000000e+02 1.070000000000000000e+02 1.080000000000000000e+02 1.090000000000000000e+02 1.100000000000000000e+02 1.110000000000000000e+02 1.120000000000000000e+02 1.130000000000000000e+02 1.140000000000000000e+02 1.150000000000000000e+02 1.160000000000000000e+02 1.170000000000000000e+02 1.180000000000000000e+02 1.190000000000000000e+02 1.200000000000000000e+02 1.210000000000000000e+02 1.220000000000000000e+02 1.230000000000000000e+02 1.240000000000000000e+02 1.250000000000000000e+02 1.260000000000000000e+02 1.270000000000000000e+02 1.280000000000000000e+02 1.290000000000000000e+02 1.300000000000000000e+02 1.310000000000000000e+02 1.320000000000000000e+02 1.330000000000000000e+02 1.340000000000000000e+02 1.350000000000000000e+02 1.360000000000000000e+02 1.370000000000000000e+02 1.380000000000000000e+02 1.390000000000000000e+02 1.400000000000000000e+02 1.410000000000000000e+02 1.420000000000000000e+02 1.430000000000000000e+02 1.440000000000000000e+02 1.450000000000000000e+02 1.460000000000000000e+02 1.470000000000000000e+02 1.480000000000000000e+02 1.490000000000000000e+02 1.500000000000000000e+02 1.510000000000000000e+02 1.520000000000000000e+02 1.530000000000000000e+02 1.540000000000000000e+02 1.550000000000000000e+02 1.560000000000000000e+02 1.570000000000000000e+02 1.580000000000000000e+02 1.590000000000000000e+02 1.600000000000000000e+02 1.610000000000000000e+02 1.620000000000000000e+02 1.630000000000000000e+02 1.640000000000000000e+02 1.650000000000000000e+02 1.660000000000000000e+02 1.670000000000000000e+02 1.680000000000000000e+02 1.690000000000000000e+02 1.700000000000000000e+02 1.710000000000000000e+02 1.720000000000000000e+02 1.730000000000000000e+02 1.740000000000000000e+02 1.750000000000000000e+02 1.760000000000000000e+02 1.770000000000000000e+02 1.780000000000000000e+02 1.790000000000000000e+02 1.800000000000000000e+02 1.810000000000000000e+02 1.820000000000000000e+02 1.830000000000000000e+02 1.840000000000000000e+02 1.850000000000000000e+02 1.860000000000000000e+02 1.870000000000000000e+02 1.880000000000000000e+02 1.890000000000000000e+02 1.900000000000000000e+02 1.910000000000000000e+02 1.920000000000000000e+02 1.930000000000000000e+02 1.940000000000000000e+02 1.950000000000000000e+02 1.960000000000000000e+02 1.970000000000000000e+02 1.980000000000000000e+02 1.990000000000000000e+02 2.000000000000000000e+02 2.010000000000000000e+02 2.020000000000000000e+02 2.030000000000000000e+02 2.040000000000000000e+02 2.050000000000000000e+02 2.060000000000000000e+02 2.070000000000000000e+02 2.080000000000000000e+02 2.090000000000000000e+02 2.100000000000000000e+02 2.110000000000000000e+02 2.120000000000000000e+02 2.130000000000000000e+02 2.140000000000000000e+02 2.150000000000000000e+02 2.160000000000000000e+02 2.170000000000000000e+02 2.180000000000000000e+02 2.190000000000000000e+02 2.200000000000000000e+02 2.210000000000000000e+02 2.220000000000000000e+02 2.230000000000000000e+02 2.240000000000000000e+02 2.250000000000000000e+02 2.260000000000000000e+02 2.270000000000000000e+02 2.280000000000000000e+02 2.290000000000000000e+02 2.300000000000000000e+02 2.310000000000000000e+02 2.320000000000000000e+02 2.330000000000000000e+02 2.340000000000000000e+02 2.350000000000000000e+02 2.360000000000000000e+02 2.370000000000000000e+02 2.380000000000000000e+02 2.390000000000000000e+02 2.400000000000000000e+02 2.410000000000000000e+02 2.420000000000000000e+02 2.430000000000000000e+02 2.440000000000000000e+02 2.450000000000000000e+02 2.460000000000000000e+02 2.470000000000000000e+02 2.480000000000000000e+02 2.490000000000000000e+02 2.500000000000000000e+02 2.510000000000000000e+02 2.520000000000000000e+02 2.530000000000000000e+02 2.540000000000000000e+02 2.550000000000000000e+02 2.560000000000000000e+02 2.570000000000000000e+02 2.580000000000000000e+02 2.590000000000000000e+02 2.600000000000000000e+02 2.610000000000000000e+02 2.620000000000000000e+02 2.630000000000000000e+02 2.640000000000000000e+02 2.650000000000000000e+02 2.660000000000000000e+02 2.670000000000000000e+02 2.680000000000000000e+02 2.690000000000000000e+02 2.700000000000000000e+02 2.710000000000000000e+02 2.720000000000000000e+02 2.730000000000000000e+02 2.740000000000000000e+02 2.750000000000000000e+02 2.760000000000000000e+02 2.770000000000000000e+02 2.780000000000000000e+02 2.790000000000000000e+02 2.800000000000000000e+02 2.810000000000000000e+02 2.820000000000000000e+02 2.830000000000000000e+02 2.840000000000000000e+02 2.850000000000000000e+02 2.860000000000000000e+02 2.870000000000000000e+02 2.880000000000000000e+02 2.890000000000000000e+02 2.900000000000000000e+02 2.910000000000000000e+02 2.920000000000000000e+02 2.930000000000000000e+02 2.940000000000000000e+02 2.950000000000000000e+02 2.960000000000000000e+02 2.970000000000000000e+02 2.980000000000000000e+02 2.990000000000000000e+02 3.000000000000000000e+02 3.010000000000000000e+02 3.020000000000000000e+02 3.030000000000000000e+02 3.040000000000000000e+02 3.050000000000000000e+02 3.060000000000000000e+02 3.070000000000000000e+02 3.080000000000000000e+02 3.090000000000000000e+02 3.100000000000000000e+02 3.110000000000000000e+02 3.120000000000000000e+02 3.130000000000000000e+02 3.140000000000000000e+02 3.150000000000000000e+02 3.160000000000000000e+02 3.170000000000000000e+02 3.180000000000000000e+02 3.190000000000000000e+02 3.200000000000000000e+02 3.210000000000000000e+02 3.220000000000000000e+02 3.230000000000000000e+02 3.240000000000000000e+02 3.250000000000000000e+02 3.260000000000000000e+02 3.270000000000000000e+02 3.280000000000000000e+02 3.290000000000000000e+02 3.300000000000000000e+02 3.310000000000000000e+02 3.320000000000000000e+02 3.330000000000000000e+02 3.340000000000000000e+02 3.350000000000000000e+02 3.360000000000000000e+02 3.370000000000000000e+02 3.380000000000000000e+02 3.390000000000000000e+02 3.400000000000000000e+02 3.410000000000000000e+02 3.420000000000000000e+02 3.430000000000000000e+02 3.440000000000000000e+02 3.450000000000000000e+02 3.460000000000000000e+02 3.470000000000000000e+02 3.480000000000000000e+02 3.490000000000000000e+02 3.500000000000000000e+02 3.510000000000000000e+02 3.520000000000000000e+02 3.530000000000000000e+02 3.540000000000000000e+02 3.550000000000000000e+02 3.560000000000000000e+02 3.570000000000000000e+02 3.580000000000000000e+02 3.590000000000000000e+02 3.600000000000000000e+02 3.610000000000000000e+02 3.620000000000000000e+02 3.630000000000000000e+02 3.640000000000000000e+02 3.650000000000000000e+02 3.660000000000000000e+02 3.670000000000000000e+02 3.680000000000000000e+02 3.690000000000000000e+02 3.700000000000000000e+02 3.710000000000000000e+02 3.720000000000000000e+02 3.730000000000000000e+02 3.740000000000000000e+02 3.750000000000000000e+02 3.760000000000000000e+02 3.770000000000000000e+02 3.780000000000000000e+02 3.790000000000000000e+02 3.800000000000000000e+02 3.810000000000000000e+02 3.820000000000000000e+02 3.830000000000000000e+02 3.840000000000000000e+02 3.850000000000000000e+02 3.860000000000000000e+02 3.870000000000000000e+02 3.880000000000000000e+02 3.890000000000000000e+02 3.900000000000000000e+02 3.910000000000000000e+02 3.920000000000000000e+02 3.930000000000000000e+02 3.940000000000000000e+02 3.950000000000000000e+02 3.960000000000000000e+02 3.970000000000000000e+02 3.980000000000000000e+02 3.990000000000000000e+02 4.000000000000000000e+02 4.010000000000000000e+02 4.020000000000000000e+02 4.030000000000000000e+02 4.040000000000000000e+02 4.050000000000000000e+02 4.060000000000000000e+02 4.070000000000000000e+02 4.080000000000000000e+02 4.090000000000000000e+02 4.100000000000000000e+02 4.110000000000000000e+02 4.120000000000000000e+02 4.130000000000000000e+02 4.140000000000000000e+02 4.150000000000000000e+02 4.160000000000000000e+02 4.170000000000000000e+02 4.180000000000000000e+02 4.190000000000000000e+02 4.200000000000000000e+02 4.210000000000000000e+02 4.220000000000000000e+02 4.230000000000000000e+02 4.240000000000000000e+02 4.250000000000000000e+02 4.260000000000000000e+02 4.270000000000000000e+02 4.280000000000000000e+02 4.290000000000000000e+02 4.300000000000000000e+02 4.310000000000000000e+02 4.320000000000000000e+02 4.330000000000000000e+02 4.340000000000000000e+02 4.350000000000000000e+02 4.360000000000000000e+02 4.370000000000000000e+02 4.380000000000000000e+02 4.390000000000000000e+02 4.400000000000000000e+02 4.410000000000000000e+02 4.420000000000000000e+02 4.430000000000000000e+02 4.440000000000000000e+02 4.450000000000000000e+02 4.460000000000000000e+02 4.470000000000000000e+02 4.480000000000000000e+02 4.490000000000000000e+02 4.500000000000000000e+02 4.510000000000000000e+02 4.520000000000000000e+02 4.530000000000000000e+02 4.540000000000000000e+02 4.550000000000000000e+02 4.560000000000000000e+02 4.570000000000000000e+02 4.580000000000000000e+02 4.590000000000000000e+02 4.600000000000000000e+02 4.610000000000000000e+02 4.620000000000000000e+02 4.630000000000000000e+02 4.640000000000000000e+02 4.650000000000000000e+02 4.660000000000000000e+02 4.670000000000000000e+02 4.680000000000000000e+02 4.690000000000000000e+02 4.700000000000000000e+02 4.710000000000000000e+02 4.720000000000000000e+02 4.730000000000000000e+02 4.740000000000000000e+02 4.750000000000000000e+02 4.760000000000000000e+02 4.770000000000000000e+02 4.780000000000000000e+02 4.790000000000000000e+02 4.800000000000000000e+02 4.810000000000000000e+02 4.820000000000000000e+02 4.830000000000000000e+02 4.840000000000000000e+02 4.850000000000000000e+02 4.860000000000000000e+02 4.870000000000000000e+02 4.880000000000000000e+02 4.890000000000000000e+02 4.900000000000000000e+02 4.910000000000000000e+02 4.920000000000000000e+02 4.930000000000000000e+02 4.940000000000000000e+02 4.950000000000000000e+02 4.960000000000000000e+02 4.970000000000000000e+02 4.980000000000000000e+02 4.990000000000000000e+02 5.000000000000000000e+02 5.010000000000000000e+02 5.020000000000000000e+02 5.030000000000000000e+02 5.040000000000000000e+02 5.050000000000000000e+02 5.060000000000000000e+02 5.070000000000000000e+02 5.080000000000000000e+02 5.090000000000000000e+02 5.100000000000000000e+02 5.110000000000000000e+02 5.120000000000000000e+02 5.130000000000000000e+02 5.140000000000000000e+02 5.150000000000000000e+02 5.160000000000000000e+02 5.170000000000000000e+02 5.180000000000000000e+02 5.190000000000000000e+02 5.200000000000000000e+02 5.210000000000000000e+02 5.220000000000000000e+02 5.230000000000000000e+02 5.240000000000000000e+02 5.250000000000000000e+02 5.260000000000000000e+02 5.270000000000000000e+02 5.280000000000000000e+02 5.290000000000000000e+02 5.300000000000000000e+02 5.310000000000000000e+02 5.320000000000000000e+02 5.330000000000000000e+02 5.340000000000000000e+02 5.350000000000000000e+02 5.360000000000000000e+02 5.370000000000000000e+02 5.380000000000000000e+02 5.390000000000000000e+02 5.400000000000000000e+02 5.410000000000000000e+02 5.420000000000000000e+02 5.430000000000000000e+02 5.440000000000000000e+02 5.450000000000000000e+02 5.460000000000000000e+02 5.470000000000000000e+02 5.480000000000000000e+02 5.490000000000000000e+02 5.500000000000000000e+02 5.510000000000000000e+02 5.520000000000000000e+02 5.530000000000000000e+02 5.540000000000000000e+02 5.550000000000000000e+02 5.560000000000000000e+02 5.570000000000000000e+02 5.580000000000000000e+02 5.590000000000000000e+02 5.600000000000000000e+02 5.610000000000000000e+02 5.620000000000000000e+02 5.630000000000000000e+02 5.640000000000000000e+02 5.650000000000000000e+02 5.660000000000000000e+02 5.670000000000000000e+02 5.680000000000000000e+02 5.690000000000000000e+02 5.700000000000000000e+02 5.710000000000000000e+02 5.720000000000000000e+02 5.730000000000000000e+02 5.740000000000000000e+02 5.750000000000000000e+02 5.760000000000000000e+02 5.770000000000000000e+02 5.780000000000000000e+02 5.790000000000000000e+02 5.800000000000000000e+02 5.810000000000000000e+02 5.820000000000000000e+02 5.830000000000000000e+02 5.840000000000000000e+02 5.850000000000000000e+02 5.860000000000000000e+02 5.870000000000000000e+02 5.880000000000000000e+02 5.890000000000000000e+02 5.900000000000000000e+02 5.910000000000000000e+02 5.920000000000000000e+02 5.930000000000000000e+02 5.940000000000000000e+02 5.950000000000000000e+02 5.960000000000000000e+02 5.970000000000000000e+02 5.980000000000000000e+02 5.990000000000000000e+02 6.000000000000000000e+02 6.010000000000000000e+02 6.020000000000000000e+02 6.030000000000000000e+02 6.040000000000000000e+02 6.050000000000000000e+02 6.060000000000000000e+02 6.070000000000000000e+02 6.080000000000000000e+02 6.090000000000000000e+02 6.100000000000000000e+02 6.110000000000000000e+02 6.120000000000000000e+02 6.130000000000000000e+02 6.140000000000000000e+02 6.150000000000000000e+02 6.160000000000000000e+02 6.170000000000000000e+02 6.180000000000000000e+02 6.190000000000000000e+02 6.200000000000000000e+02 6.210000000000000000e+02 6.220000000000000000e+02 6.230000000000000000e+02 6.240000000000000000e+02 6.250000000000000000e+02 6.260000000000000000e+02 6.270000000000000000e+02 6.280000000000000000e+02 6.290000000000000000e+02 6.300000000000000000e+02 6.310000000000000000e+02 6.320000000000000000e+02 6.330000000000000000e+02 6.340000000000000000e+02 6.350000000000000000e+02 6.360000000000000000e+02 6.370000000000000000e+02 6.380000000000000000e+02 6.390000000000000000e+02 6.400000000000000000e+02 6.410000000000000000e+02 6.420000000000000000e+02 6.430000000000000000e+02 6.440000000000000000e+02 6.450000000000000000e+02 6.460000000000000000e+02 6.470000000000000000e+02 6.480000000000000000e+02 6.490000000000000000e+02 6.500000000000000000e+02 6.510000000000000000e+02 6.520000000000000000e+02 6.530000000000000000e+02 6.540000000000000000e+02 6.550000000000000000e+02 6.560000000000000000e+02 6.570000000000000000e+02 6.580000000000000000e+02 6.590000000000000000e+02 6.600000000000000000e+02 6.610000000000000000e+02 6.620000000000000000e+02 6.630000000000000000e+02 6.640000000000000000e+02 6.650000000000000000e+02 6.660000000000000000e+02 6.670000000000000000e+02 6.680000000000000000e+02 6.690000000000000000e+02 6.700000000000000000e+02 6.710000000000000000e+02 6.720000000000000000e+02 6.730000000000000000e+02 6.740000000000000000e+02 6.750000000000000000e+02 6.760000000000000000e+02 6.770000000000000000e+02 6.780000000000000000e+02 6.790000000000000000e+02 6.800000000000000000e+02 6.810000000000000000e+02 6.820000000000000000e+02 6.830000000000000000e+02 6.840000000000000000e+02 6.850000000000000000e+02 6.860000000000000000e+02 6.870000000000000000e+02 6.880000000000000000e+02 6.890000000000000000e+02 6.900000000000000000e+02 6.910000000000000000e+02 6.920000000000000000e+02 6.930000000000000000e+02 6.940000000000000000e+02 6.950000000000000000e+02 6.960000000000000000e+02 6.970000000000000000e+02 6.980000000000000000e+02 6.990000000000000000e+02 7.000000000000000000e+02 7.010000000000000000e+02 7.020000000000000000e+02 7.030000000000000000e+02 7.040000000000000000e+02 7.050000000000000000e+02 7.060000000000000000e+02 7.070000000000000000e+02 7.080000000000000000e+02 7.090000000000000000e+02 7.100000000000000000e+02 7.110000000000000000e+02 7.120000000000000000e+02 7.130000000000000000e+02 7.140000000000000000e+02 7.150000000000000000e+02 7.160000000000000000e+02 7.170000000000000000e+02 7.180000000000000000e+02 7.190000000000000000e+02 7.200000000000000000e+02 7.210000000000000000e+02 7.220000000000000000e+02 7.230000000000000000e+02 7.240000000000000000e+02 7.250000000000000000e+02 7.260000000000000000e+02 7.270000000000000000e+02 7.280000000000000000e+02 7.290000000000000000e+02 7.300000000000000000e+02 7.310000000000000000e+02 7.320000000000000000e+02 7.330000000000000000e+02 7.340000000000000000e+02 7.350000000000000000e+02 7.360000000000000000e+02 7.370000000000000000e+02 7.380000000000000000e+02 7.390000000000000000e+02 7.400000000000000000e+02 7.410000000000000000e+02 7.420000000000000000e+02 7.430000000000000000e+02 7.440000000000000000e+02 7.450000000000000000e+02 7.460000000000000000e+02 7.470000000000000000e+02 7.480000000000000000e+02 7.490000000000000000e+02 7.500000000000000000e+02 7.510000000000000000e+02 7.520000000000000000e+02 7.530000000000000000e+02 7.540000000000000000e+02 7.550000000000000000e+02 7.560000000000000000e+02 7.570000000000000000e+02 7.580000000000000000e+02 7.590000000000000000e+02 7.600000000000000000e+02 7.610000000000000000e+02 7.620000000000000000e+02 7.630000000000000000e+02 7.640000000000000000e+02 7.650000000000000000e+02 7.660000000000000000e+02 7.670000000000000000e+02 7.680000000000000000e+02 7.690000000000000000e+02 7.700000000000000000e+02 7.710000000000000000e+02 7.720000000000000000e+02 7.730000000000000000e+02 7.740000000000000000e+02 7.750000000000000000e+02 7.760000000000000000e+02 7.770000000000000000e+02 7.780000000000000000e+02 7.790000000000000000e+02 7.800000000000000000e+02 7.810000000000000000e+02 7.820000000000000000e+02 7.830000000000000000e+02 7.840000000000000000e+02 7.850000000000000000e+02 7.860000000000000000e+02 7.870000000000000000e+02 7.880000000000000000e+02 7.890000000000000000e+02 7.900000000000000000e+02 7.910000000000000000e+02 7.920000000000000000e+02 7.930000000000000000e+02 7.940000000000000000e+02 7.950000000000000000e+02 7.960000000000000000e+02 7.970000000000000000e+02 7.980000000000000000e+02 7.990000000000000000e+02 8.000000000000000000e+02 8.010000000000000000e+02 8.020000000000000000e+02 8.030000000000000000e+02 8.040000000000000000e+02 8.050000000000000000e+02 8.060000000000000000e+02 8.070000000000000000e+02 8.080000000000000000e+02 8.090000000000000000e+02 8.100000000000000000e+02 8.110000000000000000e+02 8.120000000000000000e+02 8.130000000000000000e+02 8.140000000000000000e+02 8.150000000000000000e+02 8.160000000000000000e+02 8.170000000000000000e+02 8.180000000000000000e+02 8.190000000000000000e+02 8.200000000000000000e+02 8.210000000000000000e+02 8.220000000000000000e+02 8.230000000000000000e+02 8.240000000000000000e+02 8.250000000000000000e+02 8.260000000000000000e+02 8.270000000000000000e+02 8.280000000000000000e+02 8.290000000000000000e+02 8.300000000000000000e+02 8.310000000000000000e+02 8.320000000000000000e+02 8.330000000000000000e+02 8.340000000000000000e+02 8.350000000000000000e+02 8.360000000000000000e+02 8.370000000000000000e+02 8.380000000000000000e+02 8.390000000000000000e+02 8.400000000000000000e+02 8.410000000000000000e+02 8.420000000000000000e+02 8.430000000000000000e+02 8.440000000000000000e+02 8.450000000000000000e+02 8.460000000000000000e+02 8.470000000000000000e+02 8.480000000000000000e+02 8.490000000000000000e+02 8.500000000000000000e+02 8.510000000000000000e+02 8.520000000000000000e+02 8.530000000000000000e+02 8.540000000000000000e+02 8.550000000000000000e+02 8.560000000000000000e+02 8.570000000000000000e+02 8.580000000000000000e+02 8.590000000000000000e+02 8.600000000000000000e+02 8.610000000000000000e+02 8.620000000000000000e+02 8.630000000000000000e+02 8.640000000000000000e+02 8.650000000000000000e+02 8.660000000000000000e+02 8.670000000000000000e+02 8.680000000000000000e+02 8.690000000000000000e+02 8.700000000000000000e+02 8.710000000000000000e+02 8.720000000000000000e+02 8.730000000000000000e+02 8.740000000000000000e+02 8.750000000000000000e+02 8.760000000000000000e+02 8.770000000000000000e+02 8.780000000000000000e+02 8.790000000000000000e+02 8.800000000000000000e+02 8.810000000000000000e+02 8.820000000000000000e+02 8.830000000000000000e+02 8.840000000000000000e+02 8.850000000000000000e+02 8.860000000000000000e+02 8.870000000000000000e+02 8.880000000000000000e+02 8.890000000000000000e+02 8.900000000000000000e+02 8.910000000000000000e+02 8.920000000000000000e+02 8.930000000000000000e+02 8.940000000000000000e+02 8.950000000000000000e+02 8.960000000000000000e+02 8.970000000000000000e+02 8.980000000000000000e+02 8.990000000000000000e+02 9.000000000000000000e+02 9.010000000000000000e+02 9.020000000000000000e+02 9.030000000000000000e+02 9.040000000000000000e+02 9.050000000000000000e+02 9.060000000000000000e+02 9.070000000000000000e+02 9.080000000000000000e+02 9.090000000000000000e+02 9.100000000000000000e+02 9.110000000000000000e+02 9.120000000000000000e+02 9.130000000000000000e+02 9.140000000000000000e+02 9.150000000000000000e+02 9.160000000000000000e+02 9.170000000000000000e+02 9.180000000000000000e+02 9.190000000000000000e+02 9.200000000000000000e+02 9.210000000000000000e+02 9.220000000000000000e+02 9.230000000000000000e+02 9.240000000000000000e+02 9.250000000000000000e+02 9.260000000000000000e+02 9.270000000000000000e+02 9.280000000000000000e+02 9.290000000000000000e+02 9.300000000000000000e+02 9.310000000000000000e+02 9.320000000000000000e+02 9.330000000000000000e+02 9.340000000000000000e+02 9.350000000000000000e+02 9.360000000000000000e+02 9.370000000000000000e+02 9.380000000000000000e+02 9.390000000000000000e+02 9.400000000000000000e+02 9.410000000000000000e+02 9.420000000000000000e+02 9.430000000000000000e+02 9.440000000000000000e+02 9.450000000000000000e+02 9.460000000000000000e+02 9.470000000000000000e+02 9.480000000000000000e+02 9.490000000000000000e+02 9.500000000000000000e+02 9.510000000000000000e+02 9.520000000000000000e+02 9.530000000000000000e+02 9.540000000000000000e+02 9.550000000000000000e+02 9.560000000000000000e+02 9.570000000000000000e+02 9.580000000000000000e+02 9.590000000000000000e+02 9.600000000000000000e+02 9.610000000000000000e+02 9.620000000000000000e+02 9.630000000000000000e+02 9.640000000000000000e+02 9.650000000000000000e+02 9.660000000000000000e+02 9.670000000000000000e+02 9.680000000000000000e+02 9.690000000000000000e+02 9.700000000000000000e+02 9.710000000000000000e+02 9.720000000000000000e+02 9.730000000000000000e+02 9.740000000000000000e+02 9.750000000000000000e+02 9.760000000000000000e+02 9.770000000000000000e+02 9.780000000000000000e+02 9.790000000000000000e+02 9.800000000000000000e+02 9.810000000000000000e+02 9.820000000000000000e+02 9.830000000000000000e+02 9.840000000000000000e+02 9.850000000000000000e+02 9.860000000000000000e+02 9.870000000000000000e+02 9.880000000000000000e+02 9.890000000000000000e+02 9.900000000000000000e+02 9.910000000000000000e+02 9.920000000000000000e+02 9.930000000000000000e+02 9.940000000000000000e+02 9.950000000000000000e+02 9.960000000000000000e+02 9.970000000000000000e+02 9.980000000000000000e+02 9.990000000000000000e+02 1.000000000000000000e+03
1.000000000000000021e-02 1.000000000000000021e-02 1.000000000000000021e-02 1.000000000000000021e-02 1.000000000000000021e-02 1.000000000000000021e-02 1.000000000000000021e-02 1.000000000000000021e-02 1.000000000000000021e-02 1.000000000000000021e-02 1.000000000000000021e-02 1.000000000000000021e-02 1.000000000000000021e-02 1.000000000000000021e-02 1.000000000000000021e-02 1.000000000000000021e-02 1.000000000000000021e-02 1.000000000000000021e-02 1.000000000000000021e-02 1.000000000000000021e-02 1.000000000000000021e-02 1.000000000000000021e-02 1.000000000000000021e-02 1.000000000000000021e-02 1.000000000000000021e-02 1.000000000000000021e-02 1.000000000000000021e-02 1.000000000000000021e-02 1.000000000000000021e-02 1.000000000000000021e-02 1.000000000000000021e-02 1.000000000000000021e-02 1.000000000000000021e-02 1.000000000000000021e-02 1.000000000000000021e-02 1.000000000000000021e-02 1.000000000000000021e-02 1.000000000000000021e-02 1.000000000000000021e-02 1.000000000000000021e-02 1.000000000000000021e-02 1.000000000000000021e-02 1.000000000000000021e-02 1.000000000000000021e-02 1.000000000000000021e-02 1.000000000000000021e-02 1.000000000000000021e-02 1.000000000000000021e-02 1.000000000000000021e-02 1.000000000000000021e-02 1.000000000000000021e-02 1.000000000000000021e-02 1.000000000000000021e-02 1.000000000000000021e-02 1.000000000000000021e-02 1.000000000000000021e-02 1.000000000000000021e-02 1.000000000000000021e-02 1.000000000000000021e-02 1.000000000000000021e-02 1.000000000000000021e-02 1.000000000000000021e-02 1.000000000000000021e-02 1.000000000000000021e-02 1.000000000000000021e-02 1.000000000000000021e-02 1.000000000000000021e-02 1.000000000000000021e-02 1.000000000000000021e-02 1.000000000000000021e-02 1.000000000000000021e-02 1.000000000000000021e-02 1.000000000000000021e-02 1.000000000000000021e-02 1.000000000000000021e-02 1.000000000000000021e-02 1.000000000000000021e-02 1.000000000000000021e-02 1.000000000000000021e-02 1.000000000000000021e-02 1.000000000000000021e-02 1.000000000000000021e-02 1.000000000000000021e-02 1.000000000000000021e-02 1.000000000000000021e-02 1.000000000000000021e-02 1.000000000000000021e-02 1.000000000000000021e-02 1.000000000000000021e-02 1.000000000000000021e-02 1.000000000000000021e-02 1.000000000000000021e-02 1.000000000000000021e-02 1.000000000000000021e-02 1.000000000000000021e-02 1.000000000000000021e-02 1.000000000000000021e-02 1.000000000000000021e-02 1.000000000000000021e-02 1.000000000000000021e-02 1.000000000000000021e-02 1.000000000000000021e-02 1.000000000000000021e-02 1.000000000000000021e-02 1.000000000000000021e-02 1.000000000000000021e-02 1.000000000000000021e-02 1.000000000000000021e-02 1.000000000000000021e-02 1.000000000000000021e-02 1.000000000000000021e-02 1.000000000000000021e-02 1.000000000000000021e-02 1.000000000000000021e-02 1.000000000000000021e-02 1.000000000000000021e-02 1.000000000000000021e-02 1.000000000000000021e-02 1.000000000000000021e-02 1.000000000000000021e-02 1.000000000000000021e-02 1.000000000000000021e-02 1.000000000000000021e-02 1.000000000000000021e-02 1.000000000000000021e-02 1.000000000000000021e-02 1.000000000000000021e-02 1.000000000000000021e-02 1.000000000000000021e-02 1.000000000000000021e-02 1.000000000000000021e-02 1.000000000000000021e-02 1.000000000000000021e-02 1.000000000000000021e-02 1.000000000000000021e-02 1.000000000000000021e-02 1.000000000000000021e-02 1.000000000000000021e-02 1.000000000000000021e-02 1.000000000000000021e-02 1.000000000000000021e-02 1.000000000000000021e-02 1.000000000000000021e-02 1.000000000000000021e-02 1.000000000000000021e-02 1.000000000000000021e-02 1.000000000000000021e-02 1.000000000000000021e-02 1.000000000000000021e-02 1.000000000000000021e-02 1.000000000000000021e-02 1.000000000000000021e-02 1.000000000000000021e-02 1.000000000000000021e-02 1.000000000000000021e-02 1.000000000000000021e-02 1.000000000000000021e-02 1.000000000000000021e-02 1.000000000000000021e-02 1.000000000000000021e-02 1.000000000000000021e-02 1.000000000000000021e-02 1.000000000000000021e-02 1.000000000000000021e-02 1.000000000000000021e-02 1.000000000000000021e-02 1.000000000000000021e-02 1.000000000000000021e-02 1.000000000000000021e-02 1.000000000000000021e-02 1.000000000000000021e-02 1.000000000000000021e-02 1.000000000000000021e-02 1.000000000000000021e-02 1.000000000000000021e-02 1.000000000000000021e-02 1.000000000000000021e-02 1.000000000000000021e-02 1.000000000000000021e-02 1.000000000000000021e-02 1.000000000000000021e-02 1.000000000000000021e-02 1.000000000000000021e-02 1.000000000000000021e-02 1.000000000000000021e-02 1.000000000000000021e-02 1.000000000000000021e-02 1.000000000000000021e-02 1.000000000000000021e-02 1.000000000000000021e-02 1.000000000000000021e-02 1.000000000000000021e-02 1.000000000000000021e-02 1.000000000000000021e-02 1.000000000000000021e-02 1.000000000000000021e-02 1.000000000000000021e-02 1.000000000000000021e-02 1.000000000000000021e-02 1.000000000000000021e-02 1.000000000000000021e-02 1.000000000000000021e-02 1.000000000000000021e-02 1.000000000000000021e-02 1.000000000000000021e-02 1.000000000000000021e-02 1.000000000000000021e-02 1.000000000000000021e-02 1.000000000000000021e-02 1.000000000000000021e-02 1.000000000000000021e-02 1.000000000000000021e-02 1.000000000000000021e-02 1.000000000000000021e-02 1.000000000000000021e-02 1.000000000000000021e-02 1.000000000000000021e-02 1.000000000000000021e-02 1.000000000000000021e-02 1.000000000000000021e-02 1.000000000000000021e-02 1.000000000000000021e-02 1.000000000000000021e-02 1.000000000000000021e-02 1.000000000000000021e-02 1.000000000000000021e-02 1.000000000000000021e-02 1.000000000000000021e-02 1.000000000000000021e-02 1.000000000000000021e-02 1.000000000000000021e-02 1.000000000000000021e-02 1.000000000000000021e-02 1.000000000000000021e-02 1.000000000000000021e-02 1.000000000000000021e-02 1.000000000000000021e-02 1.000000000000000021e-02 1.000000000000000021e-02 1.000000000000000021e-02 1.000000000000000021e-02 1.000000000000000021e-02 1.000000000000000021e-02 1.000000000000000021e-02 1.000000000000000021e-02 1.000000000000000021e-02 1.000000000000000021e-02 1.000000000000000021e-02 1.000000000000000021e-02 1.000000000000000021e-02 1.000000000000000021e-02 1.000000000000000021e-02 1.000000000000000021e-02 1.000000000000000021e-02 1.000000000000000021e-02 1.000000000000000021e-02 1.000000000000000021e-02 1.000000000000000021e-02 1.000000000000000021e-02 1.000000000000000021e-02 1.000000000000000021e-02 1.000000000000000021e-02 1.000000000000000021e-02 1.000000000000000021e-02 1.000000000000000021e-02 1.000000000000000021e-02 1.000000000000000021e-02 1.000000000000000021e-02 1.000000000000000021e-02 1.000000000000000021e-02 1.000000000000000021e-02 1.000000000000000021e-02 1.000000000000000021e-02 1.000000000000000021e-02 1.000000000000000021e-02 1.000000000000000021e-02 1.000000000000000021e-02 1.000000000000000021e-02 1.000000000000000021e-02 1.000000000000000021e-02 1.000000000000000021e-02 1.000000000000000021e-02 1.000000000000000021e-02 1.000000000000000021e-02 1.000000000000000021e-02 1.000000000000000021e-02 1.000000000000000021e-02 1.000000000000000021e-02 1.000000000000000021e-02 1.000000000000000021e-02 1.000000000000000021e-02 1.000000000000000021e-02 1.000000000000000021e-02 1.000000000000000021e-02 1.000000000000000021e-02 1.000000000000000021e-02 1.000000000000000021e-02 1.000000000000000021e-02 1.000000000000000021e-02 1.000000000000000021e-02 1.000000000000000021e-02 1.000000000000000021e-02 1.000000000000000021e-02 1.000000000000000021e-02 1.000000000000000021e-02 1.000000000000000021e-02 1.000000000000000021e-02 1.000000000000000021e-02 1.000000000000000021e-02 1.000000000000000021e-02 1.000000000000000021e-02 1.000000000000000021e-02 1.000000000000000021e-02 1.000000000000000021e-02 1.000000000000000021e-02 1.000000000000000021e-02 1.000000000000000021e-02 1.000000000000000021e-02 1.000000000000000021e-02 1.000000000000000021e-02 1.000000000000000021e-02 1.000000000000000021e-02 1.000000000000000021e-02 1.000000000000000021e-02 1.000000000000000021e-02 1.000000000000000021e-02 1.000000000000000021e-02 1.000000000000000021e-02 1.000000000000000021e-02 1.000000000000000021e-02 1.000000000000000021e-02 1.000000000000000021e-02 1.000000000000000021e-02 1.000000000000000021e-02 1.000000000000000021e-02 1.000000000000000021e-02 1.000000000000000021e-02 1.000000000000000021e-02 1.000000000000000021e-02 1.000000000000000021e-02 1.000000000000000021e-02 1.000000000000000021e-02 1.000000000000000021e-02 1.000000000000000021e-02 1.000000000000000021e-02 1.000000000000000021e-02 1.000000000000000021e-02 1.000000000000000021e-02 1.000000000000000021e-02 1.000000000000000021e-02 1.000000000000000021e-02 1.000000000000000021e-02 1.000000000000000021e-02 1.000000000000000021e-02 1.000000000000000021e-02 1.000000000000000021e-02 1.000000000000000021e-02 1.000000000000000021e-02 1.000000000000000021e-02 1.000000000000000021e-02 1.000000000000000021e-02 1.000000000000000021e-02 1.000000000000000021e-02 1.000000000000000021e-02 1.000000000000000021e-02 1.000000000000000021e-02 1.000000000000000021e-02 1.000000000000000021e-02 1.000000000000000021e-02 1.000000000000000021e-02 1.000000000000000021e-02 1.000000000000000021e-02 1.000000000000000021e-02 1.000000000000000021e-02 1.000000000000000021e-02 1.000000000000000021e-02 1.000000000000000021e-02 1.000000000000000021e-02 1.000000000000000021e-02 1.000000000000000021e-02 1.000000000000000021e-02 1.000000000000000021e-02 1.000000000000000021e-02 1.000000000000000021e-02 1.000000000000000021e-02 1.000000000000000021e-02 1.000000000000000021e-02 1.000000000000000021e-02 1.000000000000000021e-02 1.000000000000000021e-02 1.000000000000000021e-02 1.000000000000000021e-02 1.000000000000000021e-02 1.000000000000000021e-02 1.000000000000000021e-02 1.000000000000000021e-02 1.000000000000000021e-02 1.000000000000000021e-02 1.000000000000000021e-02 1.000000000000000021e-02 1.000000000000000021e-02 1.000000000000000021e-02 1.000000000000000021e-02 1.000000000000000021e-02 1.000000000000000021e-02 1.000000000000000021e-02 1.000000000000000021e-02 1.000000000000000021e-02 1.000000000000000021e-02 1.000000000000000021e-02 1.000000000000000021e-02 1.000000000000000021e-02 1.000000000000000021e-02 1.000000000000000021e-02 1.000000000000000021e-02 1.000000000000000021e-02 1.000000000000000021e-02 1.000000000000000021e-02 1.000000000000000021e-02 1.000000000000000021e-02 1.000000000000000021e-02 1.000000000000000021e-02 1.000000000000000021e-02 1.000000000000000021e-02 1.000000000000000021e-02 1.000000000000000021e-02 1.000000000000000021e-02 1.000000000000000021e-02 1.000000000000000021e-02 1.000000000000000021e-02 1.000000000000000021e-02 1.000000000000000021e-02 1.000000000000000021e-02 1.000000000000000021e-02 1.000000000000000021e-02 1.000000000000000021e-02 1.000000000000000021e-02 1.000000000000000021e-02 1.000000000000000021e-02 1.000000000000000021e-02 1.000000000000000021e-02 1.000000000000000021e-02 1.000000000000000021e-02 1.000000000000000021e-02 1.000000000000000021e-02 1.000000000000000021e-02 1.000000000000000021e-02 1.000000000000000021e-02 1.000000000000000021e-02 1.000000000000000021e-02 1.000000000000000021e-02 1.000000000000000021e-02 1.000000000000000021e-02 1.000000000000000021e-02 1.000000000000000021e-02 1.000000000000000021e-02 1.000000000000000021e-02 1.000000000000000021e-02 1.000000000000000021e-02 1.000000000000000021e-02 1.000000000000000021e-02 1.000000000000000021e-02 1.000000000000000021e-02 1.000000000000000021e-02 1.000000000000000021e-02 1.000000000000000021e-02 1.000000000000000021e-02 1.000000000000000021e-02 1.000000000000000021e-02 1.000000000000000021e-02 1.000000000000000021e-02 1.000000000000000021e-02 1.000000000000000021e-02 1.000000000000000021e-02 1.000000000000000021e-02 1.000000000000000021e-02 1.000000000000000021e-02 1.000000000000000021e-02 1.000000000000000021e-02 1.000000000000000021e-02 1.000000000000000021e-02 1.000000000000000021e-02 1.000000000000000021e-02 1.000000000000000021e-02 1.000000000000000021e-02 1.000000000000000021e-02 1.000000000000000021e-02 1.000000000000000021e-02 1.000000000000000021e-02 1.000000000000000021e-02 1.000000000000000021e-02 1.000000000000000021e-02 1.000000000000000021e-02 1.000000000000000021e-02 1.000000000000000021e-02 1.000000000000000021e-02 1.000000000000000021e-02 1.000000000000000021e-02 1.000000000000000021e-02 1.000000000000000021e-02 1.000000000000000021e-02 1.000000000000000021e-02 1.000000000000000021e-02 1.000000000000000021e-02 1.000000000000000021e-02 1.000000000000000021e-02 1.000000000000000021e-02 1.000000000000000021e-02 1.000000000000000021e-02 1.000000000000000021e-02 1.000000000000000021e-02 1.000000000000000021e-02 1.000000000000000021e-02 1.000000000000000021e-02 1.000000000000000021e-02 1.000000000000000021e-02 1.000000000000000021e-02 1.000000000000000021e-02 1.000000000000000021e-02 1.000000000000000021e-02 1.000000000000000021e-02 1.000000000000000021e-02 1.000000000000000021e-02 1.000000000000000021e-02 1.000000000000000021e-02 1.000000000000000021e-02 1.000000000000000021e-02 1.000000000000000021e-02 1.000000000000000021e-02 1.000000000000000021e-02 1.000000000000000021e-02 1.000000000000000021e-02 1.000000000000000021e-02 1.000000000000000021e-02 1.000000000000000021e-02 1.000000000000000021e-02 1.000000000000000021e-02 1.000000000000000021e-02 1.000000000000000021e-02 1.000000000000000021e-02 1.000000000000000021e-02 1.000000000000000021e-02 1.000000000000000021e-02 1.000000000000000021e-02 1.000000000000000021e-02 1.000000000000000021e-02 1.000000000000000021e-02 1.000000000000000021e-02 1.000000000000000021e-02 1.000000000000000021e-02 1.000000000000000021e-02 1.000000000000000021e-02 1.000000000000000021e-02 1.000000000000000021e-02 1.000000000000000021e-02 1.000000000000000021e-02 1.000000000000000021e-02 1.000000000000000021e-02 1.000000000000000021e-02 1.000000000000000021e-02 1.000000000000000021e-02 1.000000000000000021e-02 1.000000000000000021e-02 1.000000000000000021e-02 1.000000000000000021e-02 1.000000000000000021e-02 1.000000000000000021e-02 1.000000000000000021e-02 1.000000000000000021e-02 1.000000000000000021e-02 1.000000000000000021e-02 1.000000000000000021e-02 1.000000000000000021e-02 1.000000000000000021e-02 1.000000000000000021e-02 1.000000000000000021e-02 1.000000000000000021e-02 1.000000000000000021e-02 1.000000000000000021e-02 1.000000000000000021e-02 1.000000000000000021e-02 1.000000000000000021e-02 1.000000000000000021e-02 1.000000000000000021e-02 1.000000000000000021e-02 1.000000000000000021e-02 1.000000000000000021e-02 1.000000000000000021e-02 1.000000000000000021e-02 1.000000000000000021e-02 1.000000000000000021e-02 1.000000000000000021e-02 1.000000000000000021e-02 1.000000000000000021e-02 1.000000000000000021e-02 1.000000000000000021e-02 1.000000000000000021e-02 1.000000000000000021e-02 1.000000000000000021e-02 1.000000000000000021e-02 1.000000000000000021e-02 1.000000000000000021e-02 1.000000000000000021e-02 1.000000000000000021e-02 1.000000000000000021e-02 1.000000000000000021e-02 1.000000000000000021e-02 1.000000000000000021e-02 1.000000000000000021e-02 1.000000000000000021e-02 1.000000000000000021e-02 1.000000000000000021e-02 1.000000000000000021e-02 1.000000000000000021e-02 1.000000000000000021e-02 1.000000000000000021e-02 1.000000000000000021e-02 1.000000000000000021e-02 1.000000000000000021e-02 1.000000000000000021e-02 1.000000000000000021e-02 1.000000000000000021e-02 1.000000000000000021e-02 1.000000000000000021e-02 1.000000000000000021e-02 1.000000000000000021e-02 1.000000000000000021e-02 1.000000000000000021e-02 1.000000000000000021e-02 1.000000000000000021e-02 1.000000000000000021e-02 1.000000000000000021e-02 1.000000000000000021e-02 1.000000000000000021e-02 1.000000000000000021e-02 1.000000000000000021e-02 1.000000000000000021e-02 1.000000000000000021e-02 1.000000000000000021e-02 1.000000000000000021e-02 1.000000000000000021e-02 1.000000000000000021e-02 1.000000000000000021e-02 1.000000000000000021e-02 1.000000000000000021e-02 1.000000000000000021e-02 1.000000000000000021e-02 1.000000000000000021e-02 1.000000000000000021e-02 1.000000000000000021e-02 1.000000000000000021e-02 1.000000000000000021e-02 1.000000000000000021e-02 1.000000000000000021e-02 1.000000000000000021e-02 1.000000000000000021e-02 1.000000000000000021e-02 1.000000000000000021e-02 1.000000000000000021e-02 1.000000000000000021e-02 1.000000000000000021e-02 1.000000000000000021e-02 1.000000000000000021e-02 1.000000000000000021e-02 1.000000000000000021e-02 1.000000000000000021e-02 1.000000000000000021e-02 1.000000000000000021e-02 1.000000000000000021e-02 1.000000000000000021e-02 1.000000000000000021e-02 1.000000000000000021e-02 1.000000000000000021e-02 1.000000000000000021e-02 1.000000000000000021e-02 1.000000000000000021e-02 1.000000000000000021e-02 1.000000000000000021e-02 1.000000000000000021e-02 1.000000000000000021e-02 1.000000000000000021e-02 1.000000000000000021e-02 1.000000000000000021e-02 1.000000000000000021e-02 1.000000000000000021e-02 1.000000000000000021e-02 1.000000000000000021e-02 1.000000000000000021e-02 1.000000000000000021e-02 1.000000000000000021e-02 1.000000000000000021e-02 1.000000000000000021e-02 1.000000000000000021e-02 1.000000000000000021e-02 1.000000000000000021e-02 1.000000000000000021e-02 1.000000000000000021e-02 1.000000000000000021e-02 1.000000000000000021e-02 1.000000000000000021e-02 1.000000000000000021e-02 1.000000000000000021e-02 1.000000000000000021e-02 1.000000000000000021e-02 1.000000000000000021e-02 1.000000000000000021e-02 1.000000000000000021e-02 1.000000000000000021e-02 1.000000000000000021e-02 1.000000000000000021e-02 1.000000000000000021e-02 1.000000000000000021e-02 1.000000000000000021e-02 1.000000000000000021e-02 1.000000000000000021e-02 1.000000000000000021e-02 1.000000000000000021e-02 1.000000000000000021e-02 1.000000000000000021e-02 1.000000000000000021e-02 1.000000000000000021e-02 1.000000000000000021e-02 1.000000000000000021e-02 1.000000000000000021e-02 1.000000000000000021e-02 1.000000000000000021e-02 1.000000000000000021e-02 1.000000000000000021e-02 1.000000000000000021e-02 1.000000000000000021e-02 1.000000000000000021e-02 1.000000000000000021e-02 1.000000000000000021e-02 1.000000000000000021e-02 1.000000000000000021e-02 1.000000000000000021e-02 1.000000000000000021e-02 1.000000000000000021e-02 1.000000000000000021e-02 1.000000000000000021e-02 1.000000000000000021e-02 1.000000000000000021e-02 1.000000000000000021e-02 1.000000000000000021e-02 1.000000000000000021e-02 1.000000000000000021e-02 1.000000000000000021e-02 1.000000000000000021e-02 1.000000000000000021e-02 1.000000000000000021e-02 1.000000000000000021e-02 1.000000000000000021e-02 1.000000000000000021e-02 1.000000000000000021e-02 1.000000000000000021e-02 1.000000000000000021e-02 1.000000000000000021e-02 1.000000000000000021e-02 1.000000000000000021e-02 1.000000000000000021e-02 1.000000000000000021e-02 1.000000000000000021e-02 1.000000000000000021e-02 1.000000000000000021e-02 1.000000000000000021e-02 1.000000000000000021e-02 1.000000000000000021e-02 1.000000000000000021e-02 1.000000000000000021e-02 1.000000000000000021e-02 1.000000000000000021e-02 1.000000000000000021e-02 1.000000000000000021e-02 1.000000000000000021e-02 1.000000000000000021e-02 1.000000000000000021e-02 1.000000000000000021e-02 1.000000000000000021e-02 1.000000000000000021e-02 1.000000000000000021e-02 1.000000000000000021e-02 1.000000000000000021e-02 1.000000000000000021e-02 1.000000000000000021e-02 1.000000000000000021e-02 1.000000000000000021e-02 1.000000000000000021e-02 1.000000000000000021e-02 1.000000000000000021e-02 1.000000000000000021e-02 1.000000000000000021e-02 1.000000000000000021e-02 1.000000000000000021e-02 1.000000000000000021e-02 1.000000000000000021e-02 1.000000000000000021e-02 1.000000000000000021e-02 1.000000000000000021e-02 1.000000000000000021e-02 1.000000000000000021e-02 1.000000000000000021e-02 1.000000000000000021e-02 1.000000000000000021e-02 1.000000000000000021e-02 1.000000000000000021e-02 1.000000000000000021e-02 1.000000000000000021e-02 1.000000000000000021e-02 1.000000000000000021e-02 1.000000000000000021e-02 1.000000000000000021e-02 1.000000000000000021e-02 1.000000000000000021e-02 1.000000000000000021e-02 1.000000000000000021e-02 1.000000000000000021e-02 1.000000000000000021e-02 1.000000000000000021e-02 1.000000000000000021e-02 1.000000000000000021e-02 1.000000000000000021e-02 1.000000000000000021e-02 1.000000000000000021e-02 1.000000000000000021e-02 1.000000000000000021e-02 1.000000000000000021e-02 1.000000000000000021e-02 1.000000000000000021e-02 1.000000000000000021e-02 1.000000000000000021e-02 1.000000000000000021e-02 1.000000000000000021e-02 1.000000000000000021e-02 1.000000000000000021e-02 1.000000000000000021e-02 1.000000000000000021e-02 1.000000000000000021e-02 1.000000000000000021e-02 1.000000000000000021e-02 1.000000000000000021e-02 1.000000000000000021e-02 1.000000000000000021e-02 1.000000000000000021e-02 1.000000000000000021e-02 1.000000000000000021e-02 1.000000000000000021e-02 1.000000000000000021e-02 1.000000000000000021e-02 1.000000000000000021e-02 1.000000000000000021e-02 1.000000000000000021e-02 1.000000000000000021e-02 1.000000000000000021e-02 1.000000000000000021e-02 1.000000000000000021e-02 1.000000000000000021e-02 1.000000000000000021e-02 1.000000000000000021e-02 1.000000000000000021e-02 1.000000000000000021e-02 1.000000000000000021e-02 1.000000000000000021e-02 1.000000000000000021e-02 1.000000000000000021e-02 1.000000000000000021e-02 1.000000000000000021e-02 1.000000000000000021e-02 1.000000000000000021e-02 1.000000000000000021e-02 1.000000000000000021e-02 1.000000000000000021e-02 1.000000000000000021e-02 1.000000000000000021e-02 1.000000000000000021e-02 1.000000000000000021e-02 1.000000000000000021e-02 1.000000000000000021e-02 1.000000000000000021e-02 1.000000000000000021e-02 1.000000000000000021e-02 1.000000000000000021e-02 1.000000000000000021e-02 1.000000000000000021e-02 1.000000000000000021e-02 1.000000000000000021e-02 1.000000000000000021e-02 1.000000000000000021e-02 1.000000000000000021e-02 1.000000000000000021e-02 1.000000000000000021e-02 1.000000000000000021e-02 1.000000000000000021e-02 1.000000000000000021e-02 1.000000000000000021e-02 1.000000000000000021e-02 1.000000000000000021e-02 1.000000000000000021e-02 1.000000000000000021e-02 1.000000000000000021e-02 1.000000000000000021e-02 1.000000000000000021e-02 1.000000000000000021e-02 1.000000000000000021e-02 1.000000000000000021e-02 1.000000000000000021e-02 1.000000000000000021e-02 1.000000000000000021e-02 1.000000000000000021e-02 1.000000000000000021e-02 1.000000000000000021e-02 1.000000000000000021e-02 1.000000000000000021e-02 1.000000000000000021e-02 1.000000000000000021e-02 1.000000000000000021e-02 1.000000000000000021e-02 1.000000000000000021e-02 1.000000000000000021e-02 1.000000000000000021e-02 1.000000000000000021e-02 1.000000000000000021e-02 1.000000000000000021e-02 1.000000000000000021e-02 1.000000000000000021e-02 1.000000000000000021e-02 1.000000000000000021e-02 1.000000000000000021e-02 1.000000000000000021e-02 1.000000000000000021e-02 1.000000000000000021e-02 1.000000000000000021e-02 1.000000000000000021e-02 1.000000000000000021e-02 1.000000000000000021e-02 1.000000000000000021e-02 1.000000000000000021e-02 1.000000000000000021e-02 1.000000000000000021e-02 1.000000000000000021e-02 1.000000000000000021e-02 1.000000000000000021e-02 1.000000000000000021e-02 1.000000000000000021e-02 1.000000000000000021e-02 1.000000000000000021e-02 1.000000000000000021e-02 1.000000000000000021e-02 1.000000000000000021e-02 1.000000000000000021e-02 1.000000000000000021e-02 1.000000000000000021e-02 1.000000000000000021e-02 1.000000000000000021e-02 1.000000000000000021e-02 1.000000000000000021e-02 1.000000000000000021e-02 1.000000000000000021e-02 1.000000000000000021e-02 1.000000000000000021e-02 1.000000000000000021e-02 1.000000000000000021e-02 1.000000000000000021e-02 1.000000000000000021e-02 1.000000000000000021e-02 1.000000000000000021e-02 1.000000000000000021e-02 1.000000000000000021e-02 1.000000000000000021e-02 1.000000000000000021e-02 1.000000000000000021e-02 1.000000000000000021e-02 1.000000000000000021e-02 1.000000000000000021e-02 1.000000000000000021e-02 1.000000000000000021e-02 1.000000000000000021e-02 1.000000000000000021e-02 1.000000000000000021e-02 1.000000000000000021e-02 1.000000000000000021e-02 1.000000000000000021e-02 1.000000000000000021e-02 1.000000000000000021e-02 1.000000000000000021e-02 1.000000000000000021e-02 1.000000000000000021e-02 1.000000000000000021e-02 1.000000000000000021e-02 1.000000000000000021e-02 1.000000000000000021e-02 1.000000000000000021e-02 1.000000000000000021e-02 1.000000000000000021e-02 1.000000000000000021e-02 1.000000000000000021e-02 1.000000000000000021e-02 1.000000000000000021e-02 1.000000000000000021e-02 1.000000000000000021e-02 1.000000000000000021e-02
-1.048185179163460106e+02 1.595393391959410110e+02 3.690455657107835918e+01 -8.282470347036253955e+00 -8.258969171189134784e+01 -1.258151992633566429e+01 -1.955151748096444919e+02 6.827880790207249140e-01 -7.958978695698318973e+01 -1.339611780769347860e+01 -1.867529590687517072e+01 6.183754352837255830e+00 -1.677158679607627878e+00 1.577301407870300523e+02 7.956516570289456070e+01 -3.652842830928875628e+01 -4.972158333690848053e+01 7.447127133292470091e+01 3.087410160303597095e+01 -2.387683875965401370e+01 -7.409606141387006062e+01 -6.934474540348037408e+01 -1.295255034070594391e+01 2.720077923429935751e+01 -1.832280805674186297e+02 -9.278045353757107705e+01 -2.453821360230792692e+01 1.895205831091511186e+02 6.652500749426056359e+01 7.219837830759209396e+01 7.550489899545803496e+01 1.105298231107245011e+00 -7.465572524799320320e+01 1.951496211145594941e+02 -2.303046417230407883e+02 5.541150098999844431e+01 -1.128618931114047541e+02 -3.262792774092485359e+01 3.801625226726327078e+00 1.191442702198286696e+02 -1.155218086100864667e+02 -1.278239050580773295e+01 7.268330150467764383e+01 1.632549101158264477e+02 6.703936355949718973e+01 -6.424491734123297704e+01 3.866371481861374804e+01 -2.671827417433105722e+01 -6.211458339529495021e+01 1.472169268194178073e+02 -6.621356705672229737e+01 -4.895520169584024472e+01 -1.311158741963282068e+02 5.532807075976755584e+00 -4.747987615461799749e+01 3.638189250891672089e+01 -8.343875809001774257e+01 -4.704718103054734968e+01 -9.535683603922045393e+01 -1.461941244763503676e+02 1.822375160005906025e+01 4.273895318592565218e+01 -1.157961904224579257e+02 1.207503824751366039e+01 -7.449977525717783067e+01 4.620040234670977242e+01 1.567903553425338714e+02 -1.356941202260024681e+02 -4.069399403395647141e+01 6.814842412231866930e+00 2.774789501362363797e+00 3.987639701365191058e+01 7.897622159394825303e+01 6.831462180679204188e-01 -8.341809732745886663e+00 -6.581741136612139087e+01 7.356756334422804855e+01 -3.072605845688886106e+01 2.475592004282055925e+01 9.784180866181988279e+01 8.291258686968392055e+01 -4.024038725985338516e+01 5.427305782147027458e+01 1.386377141935097654e+02 1.093059733656603782e+02 -3.730749162914530181e+00 1.637846795295878621e+02 -1.048999280354423576e+02 3.889592773480802457e+00 -3.944214854725268538e+01 1.944771379095612360e+02 -1.995991612155110673e+01 2.745461363139234834e+00 -7.221125453267049465e+01 -6.738664595037565874e+00 -5.998581724028931461e+01 6.376593898461958787e+01 -8.894025975462044187e+01 6.460542137698242016e+01 -4.494839259472315973e+01 -4.676603105194874388e+01 -8.621756717278834969e+01 4.986994232139750238e+01 -5.138944292479731502e+01 -1.404280299288679146e+02 -7.469908579382375535e+01 -9.836130830325883778e+01 -1.478564991152570371e+02 1.278099869027727351e+02 -2.576565937500768655e+01 3.014998091203489849e+01 8.432324121983771192e+01 -9.780698315924820463e+01 5.353143387326886682e+01 -4.072928563603244356e+01 -6.534177969985755396e+01 -8.481342240970083424e+01 1.910337954339364614e+02 -5.335089098132588958e+01 -4.659888681245138997e+01 -4.431333689206255855e+01 7.559614386797420593e+01 -3.896909075002930933e+01 1.297109863695006595e+02 -4.700695112900255168e+01 5.189165983258844506e+01 4.273591405238768459e+00 -7.619763212556868837e+01 6.464673964130545869e+01 2.608966139816016607e+02 -8.662918247709509956e+01 4.462282308437193024e+01 -7.177925768739652312e+01 4.256310370322709247e+01 1.234238181740065983e+02 -4.842230604703897967e+01 1.377793347807843105e+01 -2.537145941287160511e+01 -9.593876825196345237e+01 -1.638116047915794482e+01 4.083588675990531769e+00 -7.335826365123886639e+00 -1.404195349514485081e+01 1.111706300207242748e+02 1.227379174204595245e+02 1.755054467420064270e+02 -2.864867691531005676e+02 3.594182760363609930e+01 -1.487005197919622468e+01 -5.866436760362524439e+01 1.697751238462116135e+02 7.161917669882144821e+01 -2.500475701356347447e+00 -1.091196757507372439e+02 -1.021568567577734576e+01 9.424527198359132285e+01 -1.264734153989552965e+02 -1.587375410475498825e+02 1.011256817059086721e+01 3.992452545102775474e+01 -5.749727515670451794e+01 3.959655008064066806e+01 -1.008358167609510332e+02 -1.424805822505425965e+02 1.983710361976600822e+01 4.575266998022550524e+01 4.564284139339423341e+00 -7.855296881507281626e+01 -8.815636647416688731e+01 -7.936130701401947363e+01 -8.250301294659665530e+01 1.196551019680212491e+01 5.352977543508659863e+01 1.098363996134539633e+02 7.484882683218434352e+01 8.441483904931723714e+01 1.013950594911344041e+02 -7.051069783109355171e+01 -7.780258408738787068e+01 6.652589278354375324e+01 6.475480999589554187e+01 5.588703202798855330e+01 -8.843692131796430544e+00 -8.596210928311946020e+01 5.098905413168959200e+01 -1.692087864952875975e+02 6.347765518101660120e+01 -4.201922072868532609e+01 -9.108832379045533401e+01 7.013659654207094718e+01 -1.625271254844781765e+01 -7.285869738106779891e+01 -5.428133587021043382e+01 -8.697958825747731382e+00 2.296286422536408622e+02 7.287466070491326775e+01 5.191569809975737115e+01 -9.828400583214181552e+01 1.404080536870126252e+02 1.037441912998328775e+00 -8.556876875483897038e+01 1.476638344081317769e+02 -1.460474536260499860e+02 1.495783873324549873e+01 -3.079422662616673634e+01 -2.106598016982823367e+02 -1.277326652868627122e+02 -8.356590686918492850e+01 -2.824165207438001701e+01 -1.141979067994414123e+02 5.521193821668823176e+01 6.230084710151047034e+01 -2.647995839616297431e+01 -9.566816849659601019e+01 1.083726863491248054e+02 1.131981943856051345e+02 4.427952031591137683e+01 1.681478937954847552e+01 2.506392487049064641e+02 4.183116843753025904e+01 -1.146602349326404777e+02 -4.325953426194244145e+01 -1.618680337827860001e+02 3.057044207957249071e+01 1.469826333028358931e+02 -1.421559085128957634e+02 1.263675839203526152e+02 -8.726686457462658097e+01 -1.819540554121083176e+01 -8.217395878288883404e-01 5.075978492208164283e+01 -1.108143851332267005e+01 -2.193382085287693428e+01 -1.798496543343070186e+01 -1.217481488052532228e+02 4.451112920500997205e+01 -2.910112146473186812e+01 -1.235742570454557665e+01 -1.030152135908862299e+01 2.169684686960701470e+02 1.673694175469760239e+02 2.233774042533676152e+02 1.265614349476745417e+02 -8.313767650968667056e+01 7.213858795614537200e+01 2.033609823242651871e+01 4.558142772761868144e+01 -3.804455486196995651e+01 2.452768362173328001e+02 -2.241487263008999165e+01 -1.313362994062795792e+02 -1.433681073827627550e+01 -4.404713643550469016e+01 -7.430259722429383373e+01 4.144641130725911893e+01 -1.124892483065356252e+01 1.747421455894631492e+02 8.863894546006905273e+01 3.925680282508324836e+01 9.408836306364976565e+01 9.100194822762178148e+01 -2.207977344306597800e+01 1.341447353881684421e+02 2.552739937186276364e+01 8.612906772173370484e+01 4.585147102516028639e+01 6.643996031634974209e+00 -1.112095458578312446e+02 -1.113753471810305200e+02 -8.655067848085441540e+01 -1.494804676832996826e+01 8.333145358254661517e+01 -2.940309809542282693e+01 9.502772130097923764e+01 4.213435614471823953e+01 -6.989137640226471149e+01 -2.875755025167068268e+01 -5.629442082352912280e+01 1.689103937832079794e+01 -4.445850680017495193e+01 -1.076813473500726985e+02 1.167552749931616063e+02 1.166363796147014966e+02 -7.592999638441186505e+01 5.144289404214257289e+00 -4.358187595985723561e+01 -3.125312452020650866e+01 -1.089929072482610550e+01 -3.004753557248806572e+01 4.280516759184130393e+01 -1.351477557593399581e+02 -5.082049235879376425e+01 -1.458910711546640471e+02 1.672876247137161840e+02 -1.934644299842446102e+01 5.655117757613642482e+01 1.141681015352428119e+01 1.386580683455583483e+02 4.279740929981801401e+01 3.424600732561463445e+01 1.482445184555898550e+02 -4.728803626405328941e+01 -9.375352861634044643e+01 2.616897887547400003e+01 -1.516531925220478740e+02 -5.126390910554805203e+01 9.822953895059318086e+01 -1.222772657484927379e+02 -3.487514986351626334e+01 8.756246227612979283e+01 -9.054815888690768588e+01 -8.576422546992380092e+01 -7.923348771557043335e+01 -6.112588677174989726e+01 2.389145085454617288e+02 1.900577913177028790e+02 9.869991312589236543e+01 -9.797211504692317874e+01 7.171805218786248304e+01 -6.352667431898988326e+01 -3.024759618055332311e+01 1.593921163027450127e+01 -3.098945866798950277e+01 -8.979214292247847595e+01 -2.753630646362429601e+00 1.409562886601871945e+01 1.042498150489435318e+02 -1.230732822428097393e+02 4.025951631951791398e+01 6.107304983637351370e+01 3.300498055637964967e+01 -8.675022560578206310e+01 -1.421989721986810480e+02 1.847920103403826317e+02 -1.702245109736222517e+01 2.409463810072797330e+01 1.498441081288409293e+02 2.549441642384492468e+01 2.650619969218334404e+01 -4.261325317223665365e+01 8.473839318022506006e+01 -1.303175482531969465e+02 -2.942571048035015835e+01 -5.869371654620439749e+00 -5.100237111891389219e+01 6.110147368600919116e+00 2.026473388039308787e+01 -3.419201262802614139e+01 1.305514902662175380e+01 2.041625072621269794e+02 -2.618609544966312797e+01 -2.678051688955550702e+01 -9.708735258373552313e+01 -1.547401567066817307e+00 -7.708153556595608791e+01 6.062299826929365310e+00 1.070366341126361078e+02 -4.965554887358538849e+01 5.760607337504171532e+00 -5.182470520287557747e+01 3.147331001669805062e+00 8.321243272433116545e+01 -1.105679959228974241e+02 -9.245523132618114914e+01 -9.793270704348461209e+01 6.805763529378462806e+01 8.260214860123841163e+01 -8.796099894256037999e+01 5.981617011102420634e+01 2.467738542026402015e+01 3.691867179782168051e+01 -1.691867895058928539e+01 8.719488725988125566e+01 7.601554848780608609e+01 -7.368507692762455008e+01 1.120750902559728601e+01 7.713841352405361818e+01 6.947672662112769615e+01 -1.901866102078576048e+01 2.379606056439600437e+01 -1.265072293449582617e+02 4.632940377178190516e+01 -3.128506314708031510e+01 -3.121253285847026504e+01 1.652136672823373260e+02 4.521629082551481105e+01 1.146481810782965454e+02 1.822052491766320941e+02 -1.313190947321419344e+02 1.422591301669990287e+02 -6.058217478729703487e+01 -1.289368479983668863e+02 7.851715992859249127e+01 -1.278487224700381404e+02 -2.740157950323392555e+01 5.378084245984251055e+01 7.644072768094860137e+00 -1.604882253095619546e+02 8.042617593903092654e+01 2.409565488211586981e+01 6.589475277110038576e+01 3.466166965449620108e+01 9.021588250363731021e+00 -6.401823192185901235e+01 1.103448682742227049e+02 5.198889270862989775e+01 -5.924484181460146459e+01 -9.658010433934593664e+01 3.708222035137255546e+01 2.459230093816131912e+01 7.862421586392916595e+01 1.753800875967378659e+02 -2.346209021279670637e+01 -1.050950765633981092e+02 -8.072362360999709097e+01 -4.894495947395233060e+01 -4.223484541112974711e+01 -1.399329532130051632e+02 -2.150869240957372952e+01 1.235782454287478771e+02 7.107146649165815688e+01 -1.167123340955926096e+02 -1.430785202390275117e+02 -6.491233979557728162e+01 -7.273752227919960944e+01 1.400961166110167540e+02 -1.626034116560944653e+02 8.260273947890659940e+01 -4.392895992685895479e+00 -4.106443995586347029e+01 1.265683092828074230e+01 8.689684100033296943e+01 4.722258925087253800e+01 1.318103370873784002e+02 -1.517880223915062459e+02 -7.722175085329280364e+01 2.423437166822773747e+01 3.997919021020634034e+01 1.965393036752944056e+02 1.387460980988470283e+02 6.253927338994061103e+01 6.876322424932399713e+01 -3.236367760586017539e+01 1.447337677656694837e+02 -1.711073014673914372e+02 -6.051449588704850413e+01 -5.118702136473382325e+01 -4.938974221956217292e+01 -9.843971105070589545e+01 -1.431322996228984223e+01 -6.543553579186408342e+01 6.783935411934839976e+01 -8.701249257615152999e+00 -5.532088693581400207e+01 -5.926960706907284049e+01 1.718133985794067939e+02 5.634141228804044488e+01 -1.312853908913477241e+01 1.991954413931309773e+02 -1.033459048049607389e+02 -3.367401444844077218e+01 6.385856276803244214e+01 -1.376169100809060963e-01 1.431239517100629399e+01 -1.193581289852216685e+02 1.679988290849874204e+02 -4.662966645107906771e+01 -2.560582220921012464e+01 -1.045610055268278273e+02 1.199536228599993706e+02 9.130588990499386171e+01 -7.384872302348227890e+01 -3.590769831793502220e+01 3.715078887441796951e+01 -1.442208320427711499e+02 -2.229813251239375349e-01 -7.117079712646427936e+01 7.302469446144974619e+00 -1.029440687162269796e+02 -1.510028839639624607e+02 -6.733467907705197320e+01 1.411446882401193932e+02 5.381561657482324534e+01 -8.538055170971135510e+01 8.487037121723233213e+01 3.254347144676779635e+01 8.415429079885687713e+01 -4.010006259987864041e+01 -8.000456781621311109e+01 1.628108117563903079e+02 3.959768951966396600e+01 2.753716654980142664e+01 -6.943003933812202888e+01 -4.026350339848480786e+01 9.019644594456313058e+00 -6.836872984768654682e+00 -1.644342959237442301e+02 -3.294703543427559822e+01 6.124782093726856402e+01 1.060912109129466927e+02 1.481286701772023946e+02 -1.264939038218185274e+01 8.521736733447731638e+01 1.499917488726909767e+02 6.026233252363490323e+01 1.402954968724950788e+02 1.527136754598335955e+01 1.247824453427838307e+02 -7.975530412432982530e+01 5.063923413569667531e+01 2.780166267116971213e+01 7.201335181018271214e+01 -1.008382754064391946e+02 1.880327947427999504e+02 -1.220621501244215210e+02 8.382617593982368476e+01 -1.018090207273835546e+02 4.381113919438988802e+01 1.310231456171852393e+01 8.596502051194751459e+01 -6.978793840564335937e+01 -7.156019677681697999e+01 -1.052807463648683850e+01 8.440403941305812907e+01 -2.803544878413019958e+01 -1.542329619139068697e+01 -1.858686663534411565e+01 4.481247988666456905e+00 9.285566619313308934e+01 -5.914599271084829724e+01 -2.549420586940453148e+00 -1.832062795132815154e+02 1.152870840485728792e+02 -1.178853549547773696e+02 -6.971146625420909970e+01 -2.218549841118231569e+01 -1.019041634996920465e+02 -5.014928845569312443e+01 -5.531102361886522800e+01 -1.860499019762365691e+01 1.285318355866359923e+02 5.101612942853544297e+01 9.473769673571150918e+01 -1.284251745659638857e+02 -1.307440244737557578e+02 -2.706058698153262299e+02 9.645828512166104929e+01 9.831058087537367385e+01 3.996877866544298996e+01 -4.011652542995756932e+01 -3.503469440549990566e+01 -1.733428484597730517e+02 1.378082164653115171e+02 -1.013374609566892985e+02 1.009299904806789669e+02 -1.501806794624603185e+02 -1.352188465093192882e+01 -5.225489534516722046e+01 -1.125483636587867693e+02 -4.351388008375619876e+01 -1.187631702501192521e+01 -8.747422250287478107e+01 -9.760943177038349461e+01 -1.167093948901644573e+01 6.716357844759903628e+01 -1.175801057181983396e+02 -1.475273403826223806e+01 -6.959454149818206758e+01 -1.240149859593062303e+02 6.170965942694445872e+00 8.969633686792545291e+01 1.562770654510019313e+02 -1.797623585366362420e+01 -4.346134645100295302e+01 -1.172595993762577393e+02 -1.545481678008683559e+02 9.805045467033700390e+01 -6.868327402506358226e+01 7.457543104182394700e+01 8.871544816210827022e+00 2.756517228500351990e+01 6.974453040800611348e+01 -8.010457721781517648e+01 7.813577239752262926e+01 1.089341599327879351e+02 1.488902076398035774e+02 -1.100625682400892487e+02 9.825881500102170207e+01 -4.518103251931533038e+01 -8.582365640778068894e+01 2.028637397086087901e+02 4.647969939923073923e+01 7.889789101390192627e+01 1.999652319280038171e+01 -5.987674853035838396e+01 -3.301817904142009752e+01 -1.988760106328052188e+02 9.986270758731343733e+01 7.700306079676103366e+01 -7.154734190322649567e+01 -6.907694880503422041e+01 1.372271076804227050e+02 9.552751432124676967e+01 4.832564021704627066e+01 7.188196788560910022e+01 -7.383433848416956380e+00 9.753000885747356108e+01 -9.794410401582993586e+01 1.760968608211129549e+02 -3.732016539641634267e+01 -1.153373590861749847e+02 -3.567469325158280213e+01 6.780596003625002766e+01 1.392464449814573868e+02 1.209534527270252013e+01 1.642969548670872939e+02 4.930884392459975629e+01 3.180850792118880221e+01 -1.051928089825911030e+02 4.230160791647163165e+01 -1.180993183800085262e+02 4.512061656520631203e+01 3.641739001885652982e+01 -1.166439970384043932e+02 -8.038074849537034083e+01 3.769354730690482569e+01 8.246062809847872543e+00 -2.191564022655787269e+01 3.961291465330357653e+01 -2.023279603000350946e+01 -5.962773306930501604e+01 -2.486065642812365795e+01 -2.116237950688340064e+01 -3.762811522295294964e+01 1.772327574495849589e+01 -7.614375271833952752e+01 1.124095544250294267e+02 -7.016236425378480135e+01 -3.918377358513285280e+00 6.209414068009555621e+01 3.644353456878900221e+00 1.510501649135017921e+01 1.510478977294834557e+01 -1.106676787163777647e+02 -4.156346748244339473e+00 6.146716895412348691e+01 -2.187076199516050110e+02 -8.025410417917392181e+01 -1.064757267864543735e+02 4.139974347708225366e+01 9.091620910166869862e+01 -8.673512419203738943e+01 -1.586457965423483358e+02 -1.750371195836089555e+02 1.884300602303768102e+01 -1.369120198482562216e+02 -5.985271620384445157e+00 1.394121701463778606e+02 -6.651492995533942576e+00 3.503155613153064962e+01 -9.324779162951365663e+01 7.530418659961200945e+01 -1.117157568291775931e+02 -1.456195049023106769e+01 -2.849756853061089146e+01 5.425315314886645979e+01 -8.290225698062334558e+00 9.945213880433004761e+01 -1.149056951130569075e+02 -4.712147386666562454e+01 8.158993508256206439e+01 6.220561829052491021e+01 -7.735834769992123938e+01 -5.116273715481773365e+01 -4.642933718372896124e+01 -2.719187773523312899e+02 1.817891465852286217e+02 7.140052685037751701e+01 -2.210288949662128388e+01 -2.785703762520902416e+01 3.897237401770505727e+01 -7.885873469232070931e+01 9.330042705482100018e+01 5.674741952180258409e+01 7.673497439861405667e+01 -7.882152781319500434e+01 -2.478385072532048383e+01 3.119020466361751076e+01 1.628362170931686848e+01 -4.017001106053729842e+01 1.480264795107026714e+02 -1.617646005859822722e+01 3.319053689474487356e+01 -2.153265788738517017e+02 -7.925461467306261909e+01 -6.846793508300240205e+01 2.156910812892344964e+01 1.022138023469642860e+02 -2.170474356354254724e+02 -1.751227106630426817e+02 2.074568467874139230e+02 -9.886527552185922829e+00 8.988502409952296546e+01 5.858437544848794687e+01 -5.178172697655282519e+01 -1.226227541858569197e+02 -8.907566388329009044e+01 -4.702470232171577180e+01 -3.499820626539861479e+01 -3.666185695086658569e+01 1.507286641752629208e+01 3.487777646523617392e+01 1.562351529931706011e+02 1.154120670729889326e+02 6.587871118507997004e+00 -4.144575567245190939e+00 -1.485584056706528031e+02 1.120057309080557246e+02 1.490948358287928954e+02 -9.688295929753900282e+01 6.900080354841820451e+01 1.537548449226388225e+00 5.146074659894846093e+01 1.173203034204737207e+02 6.640925755550303222e+01 -1.255094909082711041e+02 1.506544347708537046e+01 -2.751431317993215941e+01 1.043845567398800078e+01 -2.158048898989089892e+01 4.243261918481000805e+01 -2.441529798803747155e+02 1.696378156437505424e+02 6.767158799682826853e+00 1.493088412594441934e+02 -9.827274825547144488e+00 9.943670486657144636e+01 6.711682770556508615e+01 -3.930588668572983124e+01 2.810710058071624573e+01 -6.830745531658880054e+01 -8.347703652666079677e+01 -6.753710899844531923e+01 -3.007307722277479556e+01 4.235361379371097001e+01 1.033224778977257188e+02 2.668330833731354801e+01 5.838562624160179126e+01 -9.839017555504317158e+01 -1.287085113703967636e+02 -1.265543416681166633e+01 4.351786153503006460e+01 -4.260605197101740771e+01 8.885464995655814846e+01 5.217986428241601971e+01 -2.594422355367498056e+01 2.811180419317619794e+01 5.767796629890636240e+01 -6.769345762511298403e+01 -1.255960160593929515e+02 1.334182028874554646e+02 7.336532508325019464e+00 4.710387908874893981e+01 -1.403394053969432491e+02 -5.020587903032154031e+01 -3.891556033507185819e-01 -6.193470958473692178e+01 3.997607988933328471e+00 5.296556829473652783e+01 1.754056639110408184e+02 3.682338518080992174e+01 -1.030657636356672668e+01 6.803944824218186227e+01 -4.278274205018961140e+01 -1.025847874632351022e+02 -1.300818403909051710e+02 8.807221854186282783e+00 2.364816776904430284e+01 2.247822585150024466e+01 -5.359043292886856591e+01 1.138184092864753580e+02 -7.615232005818742778e+01 1.209342352349945884e+02 8.227142166355305619e+01 -6.131047324406662824e+01 -7.997109458011330219e+01 7.942904331961641162e+01 1.921719584010723381e+01 -4.957003351832442206e+01 -5.078044376911017110e+01 1.290883941884029298e+02 5.413237537752601014e+01 7.546578066139255725e+01 2.468323472749600711e+01 -3.967119414668170663e+01 1.013877920645200277e+02 -5.153960860396997390e+01 5.603306162027077431e-01 7.227258025762142779e+01 9.410505571934439217e+01 2.414991370967434250e+02 -1.656156994573972270e+02 1.520831964776606924e+02 -6.381651264079105346e+01 -1.440860436381610121e+01 -2.380524921446785669e+01 -1.960303119322669474e+01 -5.208801309798317192e+01 8.802443014680213196e+01 1.741091699588478718e+02 -1.123896728803624967e+02 2.928230202632655477e+01 -1.201609407971265000e+02 6.648572095131036974e+01 -4.210485967834100762e+01 -7.682251653731269414e+01 -5.112733560103956165e+01 3.908458528545234145e+01 1.835197945365308314e+01 -7.754268045110552521e+01 -1.338268251377183162e+02 1.970056910137048689e+01 1.496398927119258531e+02 1.356922356033028620e+01 1.733354359096786084e+02 7.077218103769512325e+00 1.279539757062086096e+02 -3.286951211996838396e+01 8.632043574335757796e+01 -6.793258743542173761e+01 -1.073961177968535310e+02 4.703609308133005840e+01 -5.518313146264749491e+01 -7.477153837274101988e+01 6.933382697771152436e+01 6.186109537236164968e+00 -8.977393876224058999e+01 -1.434978911234782686e+02 1.410020139747546466e+02 -8.500890683384554336e+01 -2.280792534452137588e+00 1.145568277932426042e+02 5.532006696473781204e+01 -9.373066203011630648e+01 1.019046798394516351e+01 2.692424091413042220e+02 5.086869404171586240e+01 -1.506023590146712934e+02 -4.560136924428724114e+01 -5.872305359244086986e+01 9.176544657836458896e+00 1.028077851203436808e+02 -9.895797909470279308e+01 2.066345465699823691e+01 1.247514380574180706e+02 1.795019163251411598e+01 -2.020993217138392026e+02 4.616045193686170478e+01 7.222562404441285366e+01 -1.302029450201958483e+01 3.135999247734017104e+01 1.900087055716562501e-01 2.162727109289598459e+01 2.654169116877958601e+01 1.108830905162162281e+02 9.386922780170779390e+01 1.501323567176079088e+01 1.426299400124727299e+02 -6.127922583927744427e+01 2.361080457295130941e+02 6.227461850217090245e+01 1.357128675804617046e+02 -2.102032208676613934e+01 8.625628247011724170e+01 -4.678685440021587993e+01 -1.401602181354219567e+02 2.503030321358026455e+01 9.089628655761283937e+01 -8.382091084700761030e+01 -1.003057770754671907e+02 -6.372269912586740048e+01 3.508574306446999458e+01 -1.093228624735623526e+02 7.151659495352480178e+01 2.683049769777477067e+01 -9.348164786613992305e+01 1.818591294511973615e+02 -1.126150707841731169e+01 -9.749081421142869885e+01 -1.287018316592614653e+01 -1.957318142338805345e+01 -1.342832763973576391e+02 -3.831566013959773898e+01 5.892295115723943155e+01 1.262484803436951779e+02 2.783615446656683190e+01 2.559646857442046297e+01 4.289539761170412646e+01 -3.418010866771091827e+01 -1.394944139372058487e+02 1.525130195701237135e+01 2.962076211869331743e+01 1.275276024101214318e+02 -9.438616891035378487e+00 -7.290415921124653664e+01 7.010852102355383408e+01 9.196549420751571891e-01 3.039649048249107111e+01 1.333123570569719618e+02 -1.699582046552016266e+02 -8.895838407057345876e+01 1.194899030906828301e+02 -2.008033966012788483e+02 -1.711778271079491844e+02 8.475661294463908746e+01 1.433381955293748149e+02 5.905899845174428719e+01 -4.185899290020788754e+00 1.449154929865074166e+02 -2.043734044713399101e+02 9.973977551824523857e+01 3.944178698596460464e+01 1.182764467715400230e+02 -1.755385963467338968e+02 9.907237893033432385e+01 -2.623885609252703333e+01 -1.244318946042862848e+02 -4.950918746992948982e+00 -8.598306740493946165e+01 -1.504061878975079125e+01 -4.087318123575337303e+00 -1.146707314016899204e+02 -1.147847263740133599e+02 -5.822778540669889225e+01 -1.199688822692713188e+02 1.870562783040876980e+02 -1.500270729511557875e+02 -4.671807425988500739e+01 1.606051273817782317e+02 3.158822700380646964e+01 -2.755196890994701562e+02 -1.183692422126083414e+02 3.302904598100845135e+01 5.089239634831984915e+01 7.909968294118081999e+00 -1.438673095245767399e+02 3.321446110029391008e+01 7.011987552880651897e+00 -6.918788533750891645e+01 1.887269385560725539e+02 1.885321124835267597e+02 4.059045329612072095e+00 -1.941349619235733996e+02 1.172508126097165473e+02 2.860632007527976484e+01 3.586801199462576584e+00 7.125347289903980652e+01 -1.931463594723165897e+02 -1.284519029519367166e+02 1.312362038383972163e+02 1.020742318142639533e+02 4.922050544046024356e+01 1.332341679202491491e+02 -1.659264705930974344e+02 -1.907054075971380058e+01 -1.213523966754986958e+02 4.069359336031727281e+01 -9.669226781372447022e+01 8.106362188520179757e+01 -3.160336877532136768e+01 1.153037585072192073e+01 1.651709621607308520e+02 2.660927885745045884e+01 -2.453316174284314286e+02 -1.176673963457642031e+02 -7.756491050859479230e+01 1.471696319278130716e+02 1.167600078246170980e+01 -5.020839427404602162e+01 2.818271579738592791e+01 5.813757175637469032e+01 -3.678604468232756375e+01 1.000681970310741349e+02 -9.378158717507049857e+01 4.580777667296977995e+01 1.041904250626399744e+02 -3.311322521084500892e+01 -9.133648183443179391e+01 -1.056405950378416065e+02 1.114762576813213286e+02 -4.626267840895278738e+01 1.829483072096158196e+02 5.324717799250933581e+01 1.032574173565493680e+02 1.718031916744950536e+02 7.959724233664415394e+00 -1.157334104055155137e+02 -1.542279190325807008e+02 -1.062459119054215790e+02 3.959242828893160038e+01
-1.233514859270908914e+01 -4.427196920631555344e+00 9.411790390367902148e+01 -2.082511972172263768e+02 1.413042990389280078e+02 5.769642685362263279e+01 1.383310206829999061e+02 -1.174419779594489768e+02 -2.501793170481156459e+00 -2.186174365936762243e+01 -1.995584579158751524e+02 2.971262239858222998e+01 -1.664720381039566988e+01 1.112079763501018306e+02 -1.137746040589411649e+02 5.610898566412313926e+01 1.138658534705449625e+02 -4.178833762754790371e+01 -4.502503758510354004e+01 -2.447941028554592791e+01 5.614002836125150964e+01 5.729391812876334455e+01 2.950236102674630345e+01 -2.113332423703209315e+02 -4.682332199819680341e+01 8.326669530713473932e+01 9.019644725031845667e+00 -9.456064371290842985e+00 -6.045538344469612468e+01 -1.412097364193297899e+01 6.666163890954939575e+01 -1.321601870732194470e+02 -5.635048362623874851e+01 8.134786237576962620e+00 1.887314131525744187e+02 1.927634615254825405e+02 -2.926796438980785098e+01 5.079248483476897036e+01 -2.241676107167120402e-01 -1.269045014181343447e+02 8.721126815639429708e+01 9.742890609825975901e+01 9.861288928050429092e+01 1.059770758813822233e+01 5.622431647811901456e+01 4.372438914301731927e+01 3.532494642501514193e+01 2.671385746765979619e+01 1.002142337669731660e+02 8.151063720330269291e+01 5.957411099552045641e+01 1.481469581623446743e+02 2.253137768577630879e+02 1.777654084179790175e+02 -5.375495794634595370e+01 4.477617314123595094e+01 -5.837967014189109705e+01 5.122005351208315460e+01 -1.747120050816886305e+02 5.134396491988677269e+01 -1.860465368325334339e+02 -1.533405619189150002e+02 1.177966442713783124e+01 -8.440988647548699930e+00 1.540427215186673209e+02 -1.890561376389843815e+02 6.840039008981602819e+01 2.089347261290518816e+02 -6.763693262189523381e+00 -1.771232546792137157e+02 3.225161403239186342e+01 1.791905408045038541e+02 -5.555448341217920216e+01 -2.423634684623176554e+02 -9.323330578089522191e+01 8.150287504328495913e+00 -2.091629781739933662e+02 2.922342362862114840e+01 -1.631513522094474524e+02 -1.686875464262466835e+02 -5.204568454051494086e+01 1.385745828937446902e+02 6.311767022289834017e+01 9.667428847238211276e+00 -8.069221929279257211e+01 -3.874387646929242379e+01 5.796121542267130877e+01 -2.112502898341750779e+02 4.921667997183148202e+01 -6.813421466987939823e+01 -7.113933532322991482e+01 -1.608917471824098868e+02 5.914135781422110938e+01 8.432388192045223718e+01 -1.477108028295563429e+02 1.573013178277268480e+02 -3.627837550159762259e+01 -1.540602947142972212e+01 7.984738706032456435e+01 1.423600827180330839e+02 1.984190108625665161e+01 1.379154621521535375e+02 -1.688275868379984601e+01 -8.259199686278776653e+01 -1.784362845089819416e+01 9.201705090746446558e+01 4.211937557049972014e+01 9.162475187651693886e+01 8.838099785811239428e+01 -7.785870434959531394e+01 -1.591451294324437242e+02 1.152443818738190089e+02 5.079430108382373277e+01 1.526022001368295022e+01 2.862949896362502855e+01 -6.362572008523770961e+01 8.994537247238523037e+01 8.420535453173224028e+01 -1.290066207248258934e+01 -6.677164036521701007e+01 2.871552899541455162e+01 5.897755593429559795e+00 -5.757072866302127778e+01 1.589323921064020340e+02 -3.063244887890691004e+01 1.139498049668815867e+02 -6.567154568927938385e+01 3.598020147924402323e+01 -3.377225273033826625e+01 8.389764612036985625e+01 2.198985058464070619e+01 1.083584821710860666e+02 -1.088061814743261095e+02 6.970738359393187977e+01 1.157425632013721213e+02 -4.188490671027280854e+01 7.219289800332682638e+00 -1.206003556361936013e+01 1.095901185798332307e+02 3.499094497729744013e+00 1.581085124224603646e+02 -1.326539256332544596e+02 1.093985361896811384e+02 -8.558229226937876888e+01 8.992873230266832252e+01 -1.286132787157418988e+02 2.768193391167339001e+01 2.324482272451950138e+01 1.643752499322408633e+00 3.408653232948934431e+01 4.324829466705691772e+01 -1.158688724024977645e+01 1.029498646858087518e+01 1.014919027235506945e+02 1.194530276138089846e+02 -8.145358628417825742e+01 -5.083362785209735080e+01 4.441452825708000063e+01 1.405730234011945745e+00 -1.286949932459444028e+02 -5.183607260399200811e+01 -3.322794147827608668e+01 4.591374780864298089e+01 -6.153064724609887293e+01 2.151267784372235781e+01 1.507369608873090385e+02 -7.466209265403576012e+01 7.603234942783826966e+01 7.901260737758141772e+01 1.064206727875832748e+01 1.161129236723211733e+02 5.915056820603349763e+01 1.580970001491377275e+02 -3.262261557421411595e+01 1.058023916114851488e+02 5.231819116798408942e+01 -1.510956732441277239e+01 1.922393721342488107e+02 -1.306985115421706496e+02 4.607663467298184656e+01 -1.767719195107357564e+02 -7.932146394690553848e+01 3.871169246320078372e+01 -6.810072678991284079e+01 -1.469028259915364174e+02 1.880276445385540001e+02 -8.091901441095390624e+01 -4.481428686232190728e+01 -4.365948899503250402e+01 1.148902112571356469e+02 1.837936816906540400e+02 6.110020480123900910e+01 1.380275330027064058e+02 2.071725537588040709e+02 -1.486004609587458170e+00 1.537143042857218234e+02 6.690609474625325959e+01 1.797281434009566397e+02 -1.187861338496011285e+02 -1.114364594056636371e+01 6.017905000001273486e+00 1.792825011916219751e+02 -8.572906251117062482e+01 -5.718107933760575179e+01 -4.995453795075161452e+01 -1.265776929449560555e+02 4.417962191681587214e+00 -9.526581497093869189e+01 1.456014211581272946e+02 2.220627286459627925e+01 1.130115818206378187e+01 6.825434955861817343e+01 -4.616025026583975510e+00 1.104989784000205475e+02 -1.500187608649919184e+02 4.290612689637021049e+01 -1.611862725869980295e+02 1.108548395988111110e+02 9.078732938277410369e+01 -6.349294097334320952e+01 4.421443395344137173e+01 2.248272451105092955e+02 -2.878765882705198109e+01 3.931223990641331056e+01 -3.085957222645578923e+01 5.471054500209463356e+01 6.064429739683683351e+01 -5.945555813687567692e+00 9.616039709954209513e+01 9.571946363723074569e+01 -1.829943706081105290e+02 -1.446373059139977784e+02 -1.131484710161273881e+02 -8.876058499758590514e+00 -1.413296987707399524e+02 1.090670504353342949e+02 1.041066007613018627e+02 5.571842221046041033e+01 1.054138815104471938e+01 1.487947016328774339e+02 7.923395056081116650e+01 6.372814363247715619e+01 -9.583851251798608928e+01 1.439105651651469771e+02 -3.425344108620724803e+00 1.032239459215788315e+02 8.330097037241676716e+00 3.466711405950496072e+01 -7.138502459383261112e+01 -8.558840833861712838e+01 6.754062185117122397e+01 -3.672644979007544830e+00 1.378503890579936240e+02 -1.182741760366847750e+01 -2.670742809367379955e+00 4.324718282998597374e+01 2.132088626807239962e+01 1.333467230763521343e+02 1.390145492476317202e+01 3.381634346143842151e+01 -1.457928259034572704e+02 6.201075776799301309e+01 1.259351176479743231e+02 -1.651169541825762721e+01 -2.147898346197374906e+02 7.948855007229954595e+01 1.281788550210818869e+02 1.921723318719602247e+01 1.777910245865034540e+02 -4.094912880892399798e+00 4.026506825632527153e+01 -4.100865918399230736e+01 -1.301111064505976742e+02 5.261487948744544241e+01 -4.456521812956156481e+01 -7.592551752962469891e+01 3.867387283204131165e+01 -1.732171137101949228e+02 6.710807046441058787e+01 1.541761614197768324e+02 -9.484047596547176795e+01 1.621285671633740435e+02 -9.137482668563632160e+01 -5.567075805717991877e+00 -9.896888648647436781e+00 7.179530168841574778e+01 -4.367982503843540343e+01 -1.008385691648774269e+02 -8.294078854237832843e+01 1.364094789956530747e+02 5.529788347452858233e+01 -1.233506192048004380e+02 4.113211576182487228e+00 4.056046460872563131e+01 7.715299017996221664e+01 -3.768444505961110025e+01 5.598644252608338689e+01 -6.444304012412453631e+01 -1.515963423149783296e+02 -3.233511802202905017e+01 1.316382123240981343e+02 -1.059476760095648729e+02 -5.937273600967511555e+00 -1.520112905179570646e+02 -4.575633908386549820e+00 -1.361945755515700682e+02 3.078872903798995253e+01 5.627116700480585365e+01 -4.696188368018346893e+01 -7.683859283859889899e+01 5.273083960798725656e+00 6.942351587715867822e+01 -6.321876432402651602e+01 1.255892857175045236e+02 9.849442664595494534e+01 -1.190183704618104343e+02 -9.833821746011801679e+01 1.259164923631068689e+02 6.643254292987904819e+01 1.399912996672070449e+02 9.304183806233935172e+01 7.555546140956303702e+01 -5.615547022918629949e+01 -7.609589688204702895e+01 -7.171866698958035613e+01 1.903509813514594669e+02 2.853630126750173801e+01 -2.320327180391941013e+01 -6.368367299192540543e+01 -4.637938666522695286e+01 -1.220789809575661451e+02 -1.528228807655032462e+01 -1.626489871398419211e+02 1.158688809742621686e+02 4.257929350876878516e+01 -1.067509998525612644e+02 -4.487538720648099400e+01 1.109489834694050927e+02 -8.976185988927650783e+01 9.530722919832942353e+01 -1.098089234207402427e+02 -1.092463951514644727e+01 -8.849801392046093440e+01 8.318555993717848196e+01 -3.934513031284168250e+01 9.458411671897534845e+00 2.721704238541379794e+01 -1.173089346984912709e+02 1.157454463883567541e+01 4.484446234659864672e+01 -2.065512924640865577e+01 -6.367446755215206622e+01 1.877205265701024928e+02 8.009416059999068693e+01 4.359758422828445390e+01 -2.908217013705215237e+01 7.425283248073266407e+01 1.552359388515356500e+02 -8.536987076151540066e+01 1.940211742196130444e+02 -1.232733911863119687e+02 -1.702823477156599665e+02 1.404994568531275831e+02 -2.166806851925484523e+02 -8.392279298807175936e-01 -2.268191489771365070e+02 -1.415342608226482071e+02 6.647802628337863950e+01 -1.347879964133416024e+02 5.403372899378509686e+01 1.018757476425571866e+02 -1.484182449851878118e+02 -2.782621292607791830e+01 6.985046930193895776e+01 1.239816732521445886e+02 -1.723820818194793958e+02 8.105423757973980514e+01 -9.073289813141872173e+01 -9.097817560913949109e+00 -1.279681859198236893e+01 -7.365619477891867461e+01 -8.357885011866021330e+01 1.679523767727298207e+02 -2.013719507333896530e+01 1.268090458704697721e+00 1.206405091165089658e+02 -8.039115552689423794e+01 -3.189872698894075498e+01 -9.981711510254282871e+01 -4.522859366591161745e+01 4.742076304311548363e+00 5.499416745350666247e+01 -1.252789342974513005e+02 2.200973770723353766e+02 -5.000031329312746919e+01 1.138136603494341159e+02 -4.534342233089667928e+01 1.112328412002477194e+02 1.293734118649474567e+02 4.450427660162839061e+01 1.134243074067144477e+02 -4.018462128733716554e+01 1.301329395038924872e+02 -1.455643956765546534e+02 -6.082423809139891802e+01 -5.856585370191421447e+01 2.383015592807325334e+01 -1.509499719881239628e+02 6.746609637445979502e+01 -2.869749389616540824e+01 -7.688080929166248723e+01 8.331450244677718331e+01 -1.405915534199496904e+02 -8.490010812159059128e+01 -4.903512420160684826e+01 3.076112700883986406e+01 1.207577487440198212e+02 1.086620617650510070e+02 6.424870534052713822e+01 -1.408144425512265263e+00 1.627941451457553512e+02 1.140057020117929909e+02 -8.796038196434625434e+01 -7.263379966518968445e+01 5.108731675980536835e+01 9.216170891069806359e+00 9.116329490869327401e+01 1.552187626610986229e+02 6.570361252994446488e+01 2.279811755584009703e+01 -9.514176482064594609e+01 1.597831741052169150e+02 -1.057334073999656141e+02 -1.537413756142032923e+02 6.115661153627935676e+01 1.037411580664611677e+02 1.830101249653548834e+01 -1.291446180006364557e+02 2.760503251928047419e+01 3.941339140677579422e+01 -3.809830465262735166e-01 1.217617569128510837e+02 9.105315032882216997e+01 1.591583293250082676e+01 7.282473127341081920e+01 -9.933227956392495628e+01 -5.970003357217935402e+00 9.142178135998247512e+01 2.760623522549978404e+01 -6.042147025737266830e+01 1.840771047007631012e+02 2.147554885273840739e+02 -1.165118043833526542e+02 -2.569635801720638213e+01 -1.951715574961555433e+02 -6.704093378302349038e+01 1.453463397990137764e+02 3.085073133768254650e+00 -6.592379389916611387e+01 1.520201398500426819e+02 -5.798298140825461644e+01 -1.491279327849659637e+02 1.267849245994009806e+02 -6.232949724861776275e+01 3.209797721959468220e+01 8.009846838432278560e+01 1.281570445895471799e+01 -2.211368425951413030e+02 3.931292638164470787e+01 -5.770945864934297731e+00 8.366478184412365238e+01 -2.187403619185536030e+01 9.375330061902376144e+01 1.580377018445906856e+01 -7.850635639496499607e+01 -1.901955657646443143e+01 -1.626252107585292208e+02 1.066660277088079880e+02 2.347334365389068012e+01 -3.859579025121374229e+01 -4.804301419264054118e+01 -5.842463403889897222e+01 3.818772175371913846e+01 1.491047360759379501e+02 1.231007944730048962e+02 3.990520048226629513e+01 -1.835809398565420167e+02 -3.599567829608493241e+01 4.067104937149410659e+01 1.088185480314987927e+02 8.084276848089574230e+01 1.430087473366206297e+01 -1.725442973059407166e+02 1.220976581654286264e+02 -2.075452605667681212e+02 -1.909232566118857619e+02 -1.673980693401120323e+00 -6.842165503252473968e+01 -2.242333874963972207e+01 8.080034036850074131e+01 5.186756051525620848e+01 -1.031131283361435464e+02 -1.405347358003186002e+02 1.350986462648894637e+01 1.147320041779163518e+02 1.913387950571385687e+01 -5.260338370655696139e+01 -4.796024873240559572e+01 -1.078857429010607483e+01 1.496958021818346083e+02 2.073165983453373684e+01 -1.641258172870521719e+02 1.212838552467224531e+02 -6.316660641263223397e+01 -3.938926186772879312e+00 1.454414389821539828e+02 -4.934328483920008068e+01 -1.852024387774256198e+01 -1.037530103427643127e+02 -5.656540467093941871e+00 -2.250821128981338148e+01 1.243199620575704074e+02 1.133608527950850942e+02 6.382682961883048733e+01 6.185367888495117228e+01 -1.766034955991164068e+01 1.275962495610940977e+02 -1.065310297592840527e+02 -4.007133925875717928e+00 -8.598952354474670301e+01 1.482924614211424057e+02 6.886046491407203973e+01 4.876097007134625727e+01 7.762326682575952042e+00 -5.037013260599847797e+01 3.246443274230506404e+01 6.320852272095391911e+00 3.513797265949672788e+00 2.273673636589236935e+01 5.644329173832162638e+01 1.607799126137750534e+02 -3.673645763715143886e+01 -4.905746110518328607e+01 6.308006082253520219e+01 1.092056238552462872e+02 -1.210917395251135531e+01 8.686433339952996846e+01 9.836668734464839758e+01 1.990885254788266252e+02 -8.170272838730986109e+01 -1.158018703827504368e+02 -2.705863136561249149e+01 5.872728688290305143e+01 -9.584296847780533923e+00 1.014059349499086125e+02 3.518593526498817425e+01 -1.535208478854017358e+02 4.252379649152528884e+01 -8.444502805981035465e+01 -1.276979439193810748e+02 1.269589499578544149e+02 -7.181035946599487829e+01 5.589407781643247120e+01 1.048560660144286771e+02 -9.336234061495838432e+01 2.220811847666513472e+01 -6.805116909366914513e+01 3.803663293311944216e+01 -1.082104919039072684e+02 5.814110595597670539e+01 5.160129707460084347e+01 3.597935709908194113e+00 7.920255724695876154e+01 -1.441072431005189571e+02 7.199276538236178169e+01 -2.770487930442076063e+01 -1.581515529058418394e+02 8.851279025239576015e+01 2.301418599304538759e+01 -1.835348406142714452e+02 2.202978241444315302e+02 -5.122362891700412701e-01 9.842829861492234045e+01 -1.128791699742482706e+02 -1.817774303931981592e+02 -8.735720532857985177e+01 2.367551450036194272e+00 1.337029355776184332e+02 3.666819573383202524e+00 -8.947907277364380718e+01 4.707903121467456486e+01 1.282780201160861964e+02 6.078711683504605645e+01 -4.838799242686572910e+01 -5.537432967439408316e+01 7.909599391348984909e+01 2.871884613471230097e+01 -1.831244145803163690e+02 -1.940142525025555287e+01 1.582015496742048697e+02 9.243691060152808348e+01 -5.369379641599945785e+01 -1.046542458653607639e+02 -3.993135591621292235e+01 -4.500836343128018058e+01 -1.071253447261257037e+02 -1.721127237618992467e+01 -4.273301945786590750e+01 -1.063593054549764219e+02 -1.235365571781289304e+02 -2.526626609894510267e+01 -1.176629423809176558e+02 -1.253394664953518856e+02 -3.588141630928553383e+01 -5.176343858699411271e+01 -1.039664423664751638e+02 1.804926418728626345e+02 1.019214866185630974e+01 -2.726404923273731384e+01 -1.646955843725393720e+01 7.627824101301555970e+01 1.518467368536962070e+01 2.428456460078253443e+01 -2.054710389424120720e+01 -4.493418907437052923e+01 2.026342607724393119e+01 -1.409805576544329995e+02 -1.543242607664908519e+02 -8.757506961238343024e+01 -1.850362548415232595e+02 -8.686341011837333781e+01 8.310842817692626738e+01 5.952850161057293121e+01 -2.524219693974388079e+01 5.891260129553462122e+01 -1.518454355175525734e+02 -3.969826562686105120e+01 -1.126277124687448605e+02 -6.470696552064201512e+01 2.046252092719456925e+02 -1.990331075531274223e+02 1.990046534689963948e+02 2.417028087050435659e+01 -5.469667185543212895e+01 8.934783777299192309e+01 1.202940526848302625e+02 -5.030048664313574847e+01 -1.975986964275914488e+02 -1.445484946357467777e+02 9.918450957162667692e+01 8.120202873644855401e+01 -1.314146272034261074e+02 3.093636684145629090e+01 -3.850513341060580075e+01 -7.504649569297419021e+01 -2.756525345295989737e+01 -5.312811873143376573e+01 -8.376620121989361678e+01 -3.305069119861389737e+01 4.431062482664057889e+00 -3.162005790866519206e+01 -3.328968973501681416e-01 -1.384045184924815963e+01 8.909881320873877542e+01 1.232790193737754834e+02 1.274862425149099288e+01 1.630506374650729384e+01 -6.125809822359176593e+01 -1.901415303577596205e+02 3.281186113738081644e+01 -8.890367184043499549e+01 2.506858312010502132e+01 -7.822889256790768187e+00 1.065623646395251312e+00 7.026359187704890985e+01 1.181976450892510542e+02 -6.836794382034726425e+01 3.684364137557093244e+01 -1.870993855863107740e+02 9.409594452843450085e+00 6.662665252007608174e+00 -1.188528404243465246e+02 -3.266893647839055603e+01 -4.298233848479568309e+01 4.610194869539781415e+00 -9.912379057974131058e+01 2.622236848592028480e+01 -9.466368750205776905e+01 5.429309810801962755e+01 6.583409433567628355e+01 3.579432483219266459e+01 -2.812957219989531055e+01 1.042366391600452289e+02 5.926603225175152545e+01 7.758133470419841160e+01 -6.498529154887089021e+01 1.959590821985336717e+01 1.239612787559477454e+02 -5.672832998827907147e+01 -6.712025817713643150e+00 3.099936987211178163e+01 -1.245121806180825814e+02 9.478586012328918287e+01 8.682117092360606136e+01 -9.809994315871279014e+01 -7.980110286551703780e+01 -5.383715491060635117e+01 -4.428572077124565709e+01 -1.552111950053276814e+02 -1.316566073635212888e+02 -1.283823283154470118e+02 1.023711988077121475e+02 5.796992439018515597e+01 1.545617325789259269e+02 6.991186282836155286e+00 -8.294706842455578055e+01 1.819031139062318303e+01 1.338576289868968061e+01 -6.159759767371564720e+01 7.170173278019116481e+01 1.142974732326958645e+02 9.613440625446084908e+00 1.387235696008193599e+02 2.174976124097285179e+01 1.073657116043628577e+02 1.456065340655741025e+01 -2.010805304196908310e+02 2.113119036286148855e+02 -4.734775235588180209e+01 -1.441741789066120418e+02 -6.499819070247772856e+01 -4.140286083975752263e+01 3.992034784436210515e+01 2.466094284203050790e+01 4.408450562504259551e+01 -7.127115122967985883e+01 1.177620233384515274e+02 -8.298570954937760291e+01 -6.747080668725011776e+00 1.368804875253101727e+02 1.052849680886108814e+02 5.578523958137938621e+01 -1.700289472140452460e+02 2.441777041581125829e+01 1.347233744114602132e+02 2.246778608822755174e+01 9.359572959502638412e+01 1.020122758604035909e+02 -2.027246039789753809e+02 7.369077574635900874e+01 -5.530738640912503712e+01 -2.153646105669047586e+02 8.468184819231076688e+01 2.347350407010112860e+01 -1.161334769089241377e+02 -5.564812820304835839e+01 1.316781220679990270e+02 1.398919466195495147e+02 -7.185756333855378841e+01 -1.208744914668737636e+02 -7.880426708399424740e+01 -1.564982810336185253e+02 1.846487381964996999e+01 3.577902063404402355e+01 -1.604128191110745050e+01 -1.165438687716743438e+01 -8.415758175752222314e+01 -8.285945241174351850e+01 -2.314574513104528819e+01 1.252348267490027212e+02 1.271695459322959039e+02 7.568075646414784785e+01 9.056772497991829596e+01 -7.309578238266477967e+01 -1.681359963961630228e+02 -1.224119486646889676e+01 -2.144113962159016396e+01 -6.600264191972730998e+01 1.367884877586553749e+00 6.781370145946671357e+01 -4.911560619794747140e+01 2.298498459541593775e+01 7.353083158401483388e+01 6.509745314613729761e+01 1.026601397303596883e+02 -1.384691595575142458e+02 3.679106677143675341e+01 7.734947840208131709e+01 8.797350297519560058e+01 5.480140172754047256e+01 -9.583975452103948101e+01 1.271082546194305394e+02 1.183758296391666676e+02 8.900066355929065764e+01 9.427264181978021895e+01 -7.816792508236390802e+01 -1.378472468068353152e+01 -1.203981251068513103e+01 7.150452154223836487e+01 6.032690713654429260e+01 5.204429974042452045e+01 9.055833473388420884e+01 1.081906886797428626e+02 1.151360422902001091e+02 -6.014416992406308538e+01 7.485410273207374132e+01 6.054626397255105275e+01 -1.092451448454285412e+02 1.221935105647233684e+02 -9.295518311352825691e+00 -2.594420068327444540e+01 1.851531112745244059e+02 8.225136239151376571e+01 1.153583361178401248e+02 -1.341801274027016575e+02 -1.467013223917735161e+02 -1.428279871670548005e+02 -1.135679432560613122e+02 -4.118611430679227681e+01 1.020663638424463500e+02 -1.569584584735582666e+02 3.022929228133027379e+01 1.343536141967662161e+02 -5.527315101632844119e+01 -8.504634581556662454e+01 -3.274140778933382023e+01 1.265300419182387230e+02 2.117494862593134712e+02 -6.220215993840094626e+01 1.848548262648526475e+01 -2.578592810280617798e+01 6.387109744721895765e+01 5.615182154017620775e+01 -1.988843407999461590e+02 -8.272195554650760130e+01 1.283838785560520535e+02 1.304340015112099991e+02 8.821748725864046037e+01 -4.654380226202146531e+01 -7.072506780850477526e+01 -4.233446573477159092e+01 -1.648961432903443267e+02 6.639635835631932537e+01 -2.393200892208436414e+01 1.553628912783667602e+02 -2.611217243624469475e+01 -2.939162847834487593e+02 1.353133103840540343e+02 4.686001348012571555e+01 -1.101726663745868962e+02 -2.075337228060098482e+01 3.297199181462617190e+01 -1.940861660264546629e+02 -1.067569070240161437e+02 -1.025075521559459730e+02 -5.266858077805067495e+01 5.865865240356857413e+01 -1.541105750260821878e+02 1.008167926588498489e+02 -5.078381374478006194e+01 2.750341842293807293e+00 -1.247276515056478985e+02 -9.697795543917965233e+01 1.643989355467633686e+02 8.103828667048760792e+01 -3.948797015199402693e+01 3.471164517035072805e+01 -2.621639661560168122e+01 4.055647196668182630e+01 -9.785612571916406921e+01 9.259022154097424107e+01 4.721401632861729780e+01 -1.112100776577578785e+02 1.092098235876700869e+02 -4.591764770100918014e+01 9.345318562238071536e+01 -4.620367546519935331e+01 8.266155832939574566e+01 -1.435112458504935375e+02 1.335765508134086588e+02 2.316186646493348178e+01 9.422619359600194855e+01 1.220799577903423199e+02 -1.372803217383147683e+02 -8.041782732956792756e+01 -9.889243324838530214e+01 6.258638340501286024e+01 -1.604279513036180731e+02 1.419410048775907569e+02 1.332519446165474903e+02 4.959180103408859708e+01 -7.950004721334597946e+01 5.344980188181182257e+01 -1.005536674973993740e+02 -1.020937336398270467e+01 3.273361780640436081e+01 -1.720901999081952454e+02 -7.637383145939899975e+01 -1.267645475605974958e+01 9.569900353062470799e+01 -4.705460168807837817e+01 1.019222130297811617e+02 -6.024721536030215674e+01 -1.974802833025904931e+02 -1.003458063917485532e+02 -3.185105789177271518e+01 -5.638415711021433907e+01 2.818238285558808087e+01 4.823851144013160308e+01 5.925373322384792196e+00 2.386920524980506286e+01 -1.100880283945126337e+02 5.057092597099876485e+01 3.061637769865252778e+01 -6.764518488124794260e+01 8.727962503580778630e+00 5.294912358319965762e+01 -8.949869830428860951e+01 -5.172020677981929282e+01 -2.271200786987665410e+01 9.154875668800671917e+01 -1.608223301526767557e+01 3.940711767137193622e+00 -2.142137914187161130e+02 -8.918891075236486188e+01 9.290965874161999238e+01 -8.366493662090391581e+01 2.941827349122131352e+01 2.915510392589181876e+01 3.556072987408251151e+01 6.204995994920791702e+01 -1.666529364699242421e+02 1.352430014682478259e+02 7.665461932464742745e+01 -7.102549674718228623e+00 -7.589452796722160599e+01 1.050321170983250028e+02 5.833582344832309019e+01 -1.889688296312766056e+02 -4.730945503128531016e+01 -7.678661325914112012e+01 -4.863543971912405084e+01 -5.812935939732798118e+01 -9.297305530825394726e+01 -5.669488971361700891e+01 1.799839693284409634e+02 -1.603871526544263020e+02 6.149424000921341360e+01 2.607429813918909645e+01 -7.066380951842012337e+01 9.783743587767553151e+00 -3.707654813774401248e+01 3.241632032035994371e+00 -9.037283975131936131e+01 -1.856904047882943871e+02 1.728934228159275577e+01 3.935457741068809412e+01 -1.202103320101726425e+01 -8.372188547456945074e+00 -3.738233199440436039e+01 -1.784498400827488638e+02 -2.877305649206265414e+01 -6.141522435423350856e+01 1.307126921207994386e+01 -1.468432971501966477e+01 8.518973233783292187e+01 -5.925687063065388571e+01 -9.744640918865563606e+01 -3.351228889974427005e+01 -8.408953180347046086e+00 4.265654640544043730e+01 -2.077010737636844695e+01 -6.946417619725767167e+01 -1.493821327581106395e+01 1.882143488302456547e+01 4.465600701152826701e+01 -1.071354896994452872e+02 -1.306920152739895684e+02 2.165897810240051342e+02 -2.052628377367747703e+02 -7.136615313708722397e+01 -4.353144365881752265e+01 1.314871280952196173e+02 5.949367317581838677e+01 2.153365059393582328e+02 2.301878352155321465e+02 -5.867087987362922519e+01 1.217056520624003042e+02 -5.276380134014773660e+01 -3.840250618262593463e+01 -9.459725605610097432e+01 -7.508062861200768623e+01 -6.537462611867185558e+01 -8.375226438739571222e+01 -2.292892683362103696e+02 -2.546961142179174260e+02 1.266470050371957399e+02 -2.497578308502626854e+01 5.010789645418204685e+01 1.231735367656100806e+02
