# 
#                 ----------------------------------------------------
#                 Data from a 3D direct N-body simulation. 
# 
#                 rows are i-particle; 
#                 coumns are :mass, tag, x ,y, z, vx, vy, vz, ax, ay, az
# 
#                 NTHU, Computational Physics Lab
# 
#                 ----------------------------------------------------
#                 Time = 6.899999999999897
1.000000000000000000e+00 2.000000000000000000e+00 3.000000000000000000e+00 4.000000000000000000e+00 5.000000000000000000e+00 6.000000000000000000e+00 7.000000000000000000e+00 8.000000000000000000e+00 9.000000000000000000e+00 1.000000000000000000e+01 1.100000000000000000e+01 1.200000000000000000e+01 1.300000000000000000e+01 1.400000000000000000e+01 1.500000000000000000e+01 1.600000000000000000e+01 1.700000000000000000e+01 1.800000000000000000e+01 1.900000000000000000e+01 2.000000000000000000e+01 2.100000000000000000e+01 2.200000000000000000e+01 2.300000000000000000e+01 2.400000000000000000e+01 2.500000000000000000e+01 2.600000000000000000e+01 2.700000000000000000e+01 2.800000000000000000e+01 2.900000000000000000e+01 3.000000000000000000e+01 3.100000000000000000e+01 3.200000000000000000e+01 3.300000000000000000e+01 3.400000000000000000e+01 3.500000000000000000e+01 3.600000000000000000e+01 3.700000000000000000e+01 3.800000000000000000e+01 3.900000000000000000e+01 4.000000000000000000e+01 4.100000000000000000e+01 4.200000000000000000e+01 4.300000000000000000e+01 4.400000000000000000e+01 4.500000000000000000e+01 4.600000000000000000e+01 4.700000000000000000e+01 4.800000000000000000e+01 4.900000000000000000e+01 5.000000000000000000e+01 5.100000000000000000e+01 5.200000000000000000e+01 5.300000000000000000e+01 5.400000000000000000e+01 5.500000000000000000e+01 5.600000000000000000e+01 5.700000000000000000e+01 5.800000000000000000e+01 5.900000000000000000e+01 6.000000000000000000e+01 6.100000000000000000e+01 6.200000000000000000e+01 6.300000000000000000e+01 6.400000000000000000e+01 6.500000000000000000e+01 6.600000000000000000e+01 6.700000000000000000e+01 6.800000000000000000e+01 6.900000000000000000e+01 7.000000000000000000e+01 7.100000000000000000e+01 7.200000000000000000e+01 7.300000000000000000e+01 7.400000000000000000e+01 7.500000000000000000e+01 7.600000000000000000e+01 7.700000000000000000e+01 7.800000000000000000e+01 7.900000000000000000e+01 8.000000000000000000e+01 8.100000000000000000e+01 8.200000000000000000e+01 8.300000000000000000e+01 8.400000000000000000e+01 8.500000000000000000e+01 8.600000000000000000e+01 8.700000000000000000e+01 8.800000000000000000e+01 8.900000000000000000e+01 9.000000000000000000e+01 9.100000000000000000e+01 9.200000000000000000e+01 9.300000000000000000e+01 9.400000000000000000e+01 9.500000000000000000e+01 9.600000000000000000e+01 9.700000000000000000e+01 9.800000000000000000e+01 9.900000000000000000e+01 1.000000000000000000e+02 1.010000000000000000e+02 1.020000000000000000e+02 1.030000000000000000e+02 1.040000000000000000e+02 1.050000000000000000e+02 1.060000000000000000e+02 1.070000000000000000e+02 1.080000000000000000e+02 1.090000000000000000e+02 1.100000000000000000e+02 1.110000000000000000e+02 1.120000000000000000e+02 1.130000000000000000e+02 1.140000000000000000e+02 1.150000000000000000e+02 1.160000000000000000e+02 1.170000000000000000e+02 1.180000000000000000e+02 1.190000000000000000e+02 1.200000000000000000e+02 1.210000000000000000e+02 1.220000000000000000e+02 1.230000000000000000e+02 1.240000000000000000e+02 1.250000000000000000e+02 1.260000000000000000e+02 1.270000000000000000e+02 1.280000000000000000e+02 1.290000000000000000e+02 1.300000000000000000e+02 1.310000000000000000e+02 1.320000000000000000e+02 1.330000000000000000e+02 1.340000000000000000e+02 1.350000000000000000e+02 1.360000000000000000e+02 1.370000000000000000e+02 1.380000000000000000e+02 1.390000000000000000e+02 1.400000000000000000e+02 1.410000000000000000e+02 1.420000000000000000e+02 1.430000000000000000e+02 1.440000000000000000e+02 1.450000000000000000e+02 1.460000000000000000e+02 1.470000000000000000e+02 1.480000000000000000e+02 1.490000000000000000e+02 1.500000000000000000e+02 1.510000000000000000e+02 1.520000000000000000e+02 1.530000000000000000e+02 1.540000000000000000e+02 1.550000000000000000e+02 1.560000000000000000e+02 1.570000000000000000e+02 1.580000000000000000e+02 1.590000000000000000e+02 1.600000000000000000e+02 1.610000000000000000e+02 1.620000000000000000e+02 1.630000000000000000e+02 1.640000000000000000e+02 1.650000000000000000e+02 1.660000000000000000e+02 1.670000000000000000e+02 1.680000000000000000e+02 1.690000000000000000e+02 1.700000000000000000e+02 1.710000000000000000e+02 1.720000000000000000e+02 1.730000000000000000e+02 1.740000000000000000e+02 1.750000000000000000e+02 1.760000000000000000e+02 1.770000000000000000e+02 1.780000000000000000e+02 1.790000000000000000e+02 1.800000000000000000e+02 1.810000000000000000e+02 1.820000000000000000e+02 1.830000000000000000e+02 1.840000000000000000e+02 1.850000000000000000e+02 1.860000000000000000e+02 1.870000000000000000e+02 1.880000000000000000e+02 1.890000000000000000e+02 1.900000000000000000e+02 1.910000000000000000e+02 1.920000000000000000e+02 1.930000000000000000e+02 1.940000000000000000e+02 1.950000000000000000e+02 1.960000000000000000e+02 1.970000000000000000e+02 1.980000000000000000e+02 1.990000000000000000e+02 2.000000000000000000e+02 2.010000000000000000e+02 2.020000000000000000e+02 2.030000000000000000e+02 2.040000000000000000e+02 2.050000000000000000e+02 2.060000000000000000e+02 2.070000000000000000e+02 2.080000000000000000e+02 2.090000000000000000e+02 2.100000000000000000e+02 2.110000000000000000e+02 2.120000000000000000e+02 2.130000000000000000e+02 2.140000000000000000e+02 2.150000000000000000e+02 2.160000000000000000e+02 2.170000000000000000e+02 2.180000000000000000e+02 2.190000000000000000e+02 2.200000000000000000e+02 2.210000000000000000e+02 2.220000000000000000e+02 2.230000000000000000e+02 2.240000000000000000e+02 2.250000000000000000e+02 2.260000000000000000e+02 2.270000000000000000e+02 2.280000000000000000e+02 2.290000000000000000e+02 2.300000000000000000e+02 2.310000000000000000e+02 2.320000000000000000e+02 2.330000000000000000e+02 2.340000000000000000e+02 2.350000000000000000e+02 2.360000000000000000e+02 2.370000000000000000e+02 2.380000000000000000e+02 2.390000000000000000e+02 2.400000000000000000e+02 2.410000000000000000e+02 2.420000000000000000e+02 2.430000000000000000e+02 2.440000000000000000e+02 2.450000000000000000e+02 2.460000000000000000e+02 2.470000000000000000e+02 2.480000000000000000e+02 2.490000000000000000e+02 2.500000000000000000e+02 2.510000000000000000e+02 2.520000000000000000e+02 2.530000000000000000e+02 2.540000000000000000e+02 2.550000000000000000e+02 2.560000000000000000e+02 2.570000000000000000e+02 2.580000000000000000e+02 2.590000000000000000e+02 2.600000000000000000e+02 2.610000000000000000e+02 2.620000000000000000e+02 2.630000000000000000e+02 2.640000000000000000e+02 2.650000000000000000e+02 2.660000000000000000e+02 2.670000000000000000e+02 2.680000000000000000e+02 2.690000000000000000e+02 2.700000000000000000e+02 2.710000000000000000e+02 2.720000000000000000e+02 2.730000000000000000e+02 2.740000000000000000e+02 2.750000000000000000e+02 2.760000000000000000e+02 2.770000000000000000e+02 2.780000000000000000e+02 2.790000000000000000e+02 2.800000000000000000e+02 2.810000000000000000e+02 2.820000000000000000e+02 2.830000000000000000e+02 2.840000000000000000e+02 2.850000000000000000e+02 2.860000000000000000e+02 2.870000000000000000e+02 2.880000000000000000e+02 2.890000000000000000e+02 2.900000000000000000e+02 2.910000000000000000e+02 2.920000000000000000e+02 2.930000000000000000e+02 2.940000000000000000e+02 2.950000000000000000e+02 2.960000000000000000e+02 2.970000000000000000e+02 2.980000000000000000e+02 2.990000000000000000e+02 3.000000000000000000e+02 3.010000000000000000e+02 3.020000000000000000e+02 3.030000000000000000e+02 3.040000000000000000e+02 3.050000000000000000e+02 3.060000000000000000e+02 3.070000000000000000e+02 3.080000000000000000e+02 3.090000000000000000e+02 3.100000000000000000e+02 3.110000000000000000e+02 3.120000000000000000e+02 3.130000000000000000e+02 3.140000000000000000e+02 3.150000000000000000e+02 3.160000000000000000e+02 3.170000000000000000e+02 3.180000000000000000e+02 3.190000000000000000e+02 3.200000000000000000e+02 3.210000000000000000e+02 3.220000000000000000e+02 3.230000000000000000e+02 3.240000000000000000e+02 3.250000000000000000e+02 3.260000000000000000e+02 3.270000000000000000e+02 3.280000000000000000e+02 3.290000000000000000e+02 3.300000000000000000e+02 3.310000000000000000e+02 3.320000000000000000e+02 3.330000000000000000e+02 3.340000000000000000e+02 3.350000000000000000e+02 3.360000000000000000e+02 3.370000000000000000e+02 3.380000000000000000e+02 3.390000000000000000e+02 3.400000000000000000e+02 3.410000000000000000e+02 3.420000000000000000e+02 3.430000000000000000e+02 3.440000000000000000e+02 3.450000000000000000e+02 3.460000000000000000e+02 3.470000000000000000e+02 3.480000000000000000e+02 3.490000000000000000e+02 3.500000000000000000e+02 3.510000000000000000e+02 3.520000000000000000e+02 3.530000000000000000e+02 3.540000000000000000e+02 3.550000000000000000e+02 3.560000000000000000e+02 3.570000000000000000e+02 3.580000000000000000e+02 3.590000000000000000e+02 3.600000000000000000e+02 3.610000000000000000e+02 3.620000000000000000e+02 3.630000000000000000e+02 3.640000000000000000e+02 3.650000000000000000e+02 3.660000000000000000e+02 3.670000000000000000e+02 3.680000000000000000e+02 3.690000000000000000e+02 3.700000000000000000e+02 3.710000000000000000e+02 3.720000000000000000e+02 3.730000000000000000e+02 3.740000000000000000e+02 3.750000000000000000e+02 3.760000000000000000e+02 3.770000000000000000e+02 3.780000000000000000e+02 3.790000000000000000e+02 3.800000000000000000e+02 3.810000000000000000e+02 3.820000000000000000e+02 3.830000000000000000e+02 3.840000000000000000e+02 3.850000000000000000e+02 3.860000000000000000e+02 3.870000000000000000e+02 3.880000000000000000e+02 3.890000000000000000e+02 3.900000000000000000e+02 3.910000000000000000e+02 3.920000000000000000e+02 3.930000000000000000e+02 3.940000000000000000e+02 3.950000000000000000e+02 3.960000000000000000e+02 3.970000000000000000e+02 3.980000000000000000e+02 3.990000000000000000e+02 4.000000000000000000e+02 4.010000000000000000e+02 4.020000000000000000e+02 4.030000000000000000e+02 4.040000000000000000e+02 4.050000000000000000e+02 4.060000000000000000e+02 4.070000000000000000e+02 4.080000000000000000e+02 4.090000000000000000e+02 4.100000000000000000e+02 4.110000000000000000e+02 4.120000000000000000e+02 4.130000000000000000e+02 4.140000000000000000e+02 4.150000000000000000e+02 4.160000000000000000e+02 4.170000000000000000e+02 4.180000000000000000e+02 4.190000000000000000e+02 4.200000000000000000e+02 4.210000000000000000e+02 4.220000000000000000e+02 4.230000000000000000e+02 4.240000000000000000e+02 4.250000000000000000e+02 4.260000000000000000e+02 4.270000000000000000e+02 4.280000000000000000e+02 4.290000000000000000e+02 4.300000000000000000e+02 4.310000000000000000e+02 4.320000000000000000e+02 4.330000000000000000e+02 4.340000000000000000e+02 4.350000000000000000e+02 4.360000000000000000e+02 4.370000000000000000e+02 4.380000000000000000e+02 4.390000000000000000e+02 4.400000000000000000e+02 4.410000000000000000e+02 4.420000000000000000e+02 4.430000000000000000e+02 4.440000000000000000e+02 4.450000000000000000e+02 4.460000000000000000e+02 4.470000000000000000e+02 4.480000000000000000e+02 4.490000000000000000e+02 4.500000000000000000e+02 4.510000000000000000e+02 4.520000000000000000e+02 4.530000000000000000e+02 4.540000000000000000e+02 4.550000000000000000e+02 4.560000000000000000e+02 4.570000000000000000e+02 4.580000000000000000e+02 4.590000000000000000e+02 4.600000000000000000e+02 4.610000000000000000e+02 4.620000000000000000e+02 4.630000000000000000e+02 4.640000000000000000e+02 4.650000000000000000e+02 4.660000000000000000e+02 4.670000000000000000e+02 4.680000000000000000e+02 4.690000000000000000e+02 4.700000000000000000e+02 4.710000000000000000e+02 4.720000000000000000e+02 4.730000000000000000e+02 4.740000000000000000e+02 4.750000000000000000e+02 4.760000000000000000e+02 4.770000000000000000e+02 4.780000000000000000e+02 4.790000000000000000e+02 4.800000000000000000e+02 4.810000000000000000e+02 4.820000000000000000e+02 4.830000000000000000e+02 4.840000000000000000e+02 4.850000000000000000e+02 4.860000000000000000e+02 4.870000000000000000e+02 4.880000000000000000e+02 4.890000000000000000e+02 4.900000000000000000e+02 4.910000000000000000e+02 4.920000000000000000e+02 4.930000000000000000e+02 4.940000000000000000e+02 4.950000000000000000e+02 4.960000000000000000e+02 4.970000000000000000e+02 4.980000000000000000e+02 4.990000000000000000e+02 5.000000000000000000e+02 5.010000000000000000e+02 5.020000000000000000e+02 5.030000000000000000e+02 5.040000000000000000e+02 5.050000000000000000e+02 5.060000000000000000e+02 5.070000000000000000e+02 5.080000000000000000e+02 5.090000000000000000e+02 5.100000000000000000e+02 5.110000000000000000e+02 5.120000000000000000e+02 5.130000000000000000e+02 5.140000000000000000e+02 5.150000000000000000e+02 5.160000000000000000e+02 5.170000000000000000e+02 5.180000000000000000e+02 5.190000000000000000e+02 5.200000000000000000e+02 5.210000000000000000e+02 5.220000000000000000e+02 5.230000000000000000e+02 5.240000000000000000e+02 5.250000000000000000e+02 5.260000000000000000e+02 5.270000000000000000e+02 5.280000000000000000e+02 5.290000000000000000e+02 5.300000000000000000e+02 5.310000000000000000e+02 5.320000000000000000e+02 5.330000000000000000e+02 5.340000000000000000e+02 5.350000000000000000e+02 5.360000000000000000e+02 5.370000000000000000e+02 5.380000000000000000e+02 5.390000000000000000e+02 5.400000000000000000e+02 5.410000000000000000e+02 5.420000000000000000e+02 5.430000000000000000e+02 5.440000000000000000e+02 5.450000000000000000e+02 5.460000000000000000e+02 5.470000000000000000e+02 5.480000000000000000e+02 5.490000000000000000e+02 5.500000000000000000e+02 5.510000000000000000e+02 5.520000000000000000e+02 5.530000000000000000e+02 5.540000000000000000e+02 5.550000000000000000e+02 5.560000000000000000e+02 5.570000000000000000e+02 5.580000000000000000e+02 5.590000000000000000e+02 5.600000000000000000e+02 5.610000000000000000e+02 5.620000000000000000e+02 5.630000000000000000e+02 5.640000000000000000e+02 5.650000000000000000e+02 5.660000000000000000e+02 5.670000000000000000e+02 5.680000000000000000e+02 5.690000000000000000e+02 5.700000000000000000e+02 5.710000000000000000e+02 5.720000000000000000e+02 5.730000000000000000e+02 5.740000000000000000e+02 5.750000000000000000e+02 5.760000000000000000e+02 5.770000000000000000e+02 5.780000000000000000e+02 5.790000000000000000e+02 5.800000000000000000e+02 5.810000000000000000e+02 5.820000000000000000e+02 5.830000000000000000e+02 5.840000000000000000e+02 5.850000000000000000e+02 5.860000000000000000e+02 5.870000000000000000e+02 5.880000000000000000e+02 5.890000000000000000e+02 5.900000000000000000e+02 5.910000000000000000e+02 5.920000000000000000e+02 5.930000000000000000e+02 5.940000000000000000e+02 5.950000000000000000e+02 5.960000000000000000e+02 5.970000000000000000e+02 5.980000000000000000e+02 5.990000000000000000e+02 6.000000000000000000e+02 6.010000000000000000e+02 6.020000000000000000e+02 6.030000000000000000e+02 6.040000000000000000e+02 6.050000000000000000e+02 6.060000000000000000e+02 6.070000000000000000e+02 6.080000000000000000e+02 6.090000000000000000e+02 6.100000000000000000e+02 6.110000000000000000e+02 6.120000000000000000e+02 6.130000000000000000e+02 6.140000000000000000e+02 6.150000000000000000e+02 6.160000000000000000e+02 6.170000000000000000e+02 6.180000000000000000e+02 6.190000000000000000e+02 6.200000000000000000e+02 6.210000000000000000e+02 6.220000000000000000e+02 6.230000000000000000e+02 6.240000000000000000e+02 6.250000000000000000e+02 6.260000000000000000e+02 6.270000000000000000e+02 6.280000000000000000e+02 6.290000000000000000e+02 6.300000000000000000e+02 6.310000000000000000e+02 6.320000000000000000e+02 6.330000000000000000e+02 6.340000000000000000e+02 6.350000000000000000e+02 6.360000000000000000e+02 6.370000000000000000e+02 6.380000000000000000e+02 6.390000000000000000e+02 6.400000000000000000e+02 6.410000000000000000e+02 6.420000000000000000e+02 6.430000000000000000e+02 6.440000000000000000e+02 6.450000000000000000e+02 6.460000000000000000e+02 6.470000000000000000e+02 6.480000000000000000e+02 6.490000000000000000e+02 6.500000000000000000e+02 6.510000000000000000e+02 6.520000000000000000e+02 6.530000000000000000e+02 6.540000000000000000e+02 6.550000000000000000e+02 6.560000000000000000e+02 6.570000000000000000e+02 6.580000000000000000e+02 6.590000000000000000e+02 6.600000000000000000e+02 6.610000000000000000e+02 6.620000000000000000e+02 6.630000000000000000e+02 6.640000000000000000e+02 6.650000000000000000e+02 6.660000000000000000e+02 6.670000000000000000e+02 6.680000000000000000e+02 6.690000000000000000e+02 6.700000000000000000e+02 6.710000000000000000e+02 6.720000000000000000e+02 6.730000000000000000e+02 6.740000000000000000e+02 6.750000000000000000e+02 6.760000000000000000e+02 6.770000000000000000e+02 6.780000000000000000e+02 6.790000000000000000e+02 6.800000000000000000e+02 6.810000000000000000e+02 6.820000000000000000e+02 6.830000000000000000e+02 6.840000000000000000e+02 6.850000000000000000e+02 6.860000000000000000e+02 6.870000000000000000e+02 6.880000000000000000e+02 6.890000000000000000e+02 6.900000000000000000e+02 6.910000000000000000e+02 6.920000000000000000e+02 6.930000000000000000e+02 6.940000000000000000e+02 6.950000000000000000e+02 6.960000000000000000e+02 6.970000000000000000e+02 6.980000000000000000e+02 6.990000000000000000e+02 7.000000000000000000e+02 7.010000000000000000e+02 7.020000000000000000e+02 7.030000000000000000e+02 7.040000000000000000e+02 7.050000000000000000e+02 7.060000000000000000e+02 7.070000000000000000e+02 7.080000000000000000e+02 7.090000000000000000e+02 7.100000000000000000e+02 7.110000000000000000e+02 7.120000000000000000e+02 7.130000000000000000e+02 7.140000000000000000e+02 7.150000000000000000e+02 7.160000000000000000e+02 7.170000000000000000e+02 7.180000000000000000e+02 7.190000000000000000e+02 7.200000000000000000e+02 7.210000000000000000e+02 7.220000000000000000e+02 7.230000000000000000e+02 7.240000000000000000e+02 7.250000000000000000e+02 7.260000000000000000e+02 7.270000000000000000e+02 7.280000000000000000e+02 7.290000000000000000e+02 7.300000000000000000e+02 7.310000000000000000e+02 7.320000000000000000e+02 7.330000000000000000e+02 7.340000000000000000e+02 7.350000000000000000e+02 7.360000000000000000e+02 7.370000000000000000e+02 7.380000000000000000e+02 7.390000000000000000e+02 7.400000000000000000e+02 7.410000000000000000e+02 7.420000000000000000e+02 7.430000000000000000e+02 7.440000000000000000e+02 7.450000000000000000e+02 7.460000000000000000e+02 7.470000000000000000e+02 7.480000000000000000e+02 7.490000000000000000e+02 7.500000000000000000e+02 7.510000000000000000e+02 7.520000000000000000e+02 7.530000000000000000e+02 7.540000000000000000e+02 7.550000000000000000e+02 7.560000000000000000e+02 7.570000000000000000e+02 7.580000000000000000e+02 7.590000000000000000e+02 7.600000000000000000e+02 7.610000000000000000e+02 7.620000000000000000e+02 7.630000000000000000e+02 7.640000000000000000e+02 7.650000000000000000e+02 7.660000000000000000e+02 7.670000000000000000e+02 7.680000000000000000e+02 7.690000000000000000e+02 7.700000000000000000e+02 7.710000000000000000e+02 7.720000000000000000e+02 7.730000000000000000e+02 7.740000000000000000e+02 7.750000000000000000e+02 7.760000000000000000e+02 7.770000000000000000e+02 7.780000000000000000e+02 7.790000000000000000e+02 7.800000000000000000e+02 7.810000000000000000e+02 7.820000000000000000e+02 7.830000000000000000e+02 7.840000000000000000e+02 7.850000000000000000e+02 7.860000000000000000e+02 7.870000000000000000e+02 7.880000000000000000e+02 7.890000000000000000e+02 7.900000000000000000e+02 7.910000000000000000e+02 7.920000000000000000e+02 7.930000000000000000e+02 7.940000000000000000e+02 7.950000000000000000e+02 7.960000000000000000e+02 7.970000000000000000e+02 7.980000000000000000e+02 7.990000000000000000e+02 8.000000000000000000e+02 8.010000000000000000e+02 8.020000000000000000e+02 8.030000000000000000e+02 8.040000000000000000e+02 8.050000000000000000e+02 8.060000000000000000e+02 8.070000000000000000e+02 8.080000000000000000e+02 8.090000000000000000e+02 8.100000000000000000e+02 8.110000000000000000e+02 8.120000000000000000e+02 8.130000000000000000e+02 8.140000000000000000e+02 8.150000000000000000e+02 8.160000000000000000e+02 8.170000000000000000e+02 8.180000000000000000e+02 8.190000000000000000e+02 8.200000000000000000e+02 8.210000000000000000e+02 8.220000000000000000e+02 8.230000000000000000e+02 8.240000000000000000e+02 8.250000000000000000e+02 8.260000000000000000e+02 8.270000000000000000e+02 8.280000000000000000e+02 8.290000000000000000e+02 8.300000000000000000e+02 8.310000000000000000e+02 8.320000000000000000e+02 8.330000000000000000e+02 8.340000000000000000e+02 8.350000000000000000e+02 8.360000000000000000e+02 8.370000000000000000e+02 8.380000000000000000e+02 8.390000000000000000e+02 8.400000000000000000e+02 8.410000000000000000e+02 8.420000000000000000e+02 8.430000000000000000e+02 8.440000000000000000e+02 8.450000000000000000e+02 8.460000000000000000e+02 8.470000000000000000e+02 8.480000000000000000e+02 8.490000000000000000e+02 8.500000000000000000e+02 8.510000000000000000e+02 8.520000000000000000e+02 8.530000000000000000e+02 8.540000000000000000e+02 8.550000000000000000e+02 8.560000000000000000e+02 8.570000000000000000e+02 8.580000000000000000e+02 8.590000000000000000e+02 8.600000000000000000e+02 8.610000000000000000e+02 8.620000000000000000e+02 8.630000000000000000e+02 8.640000000000000000e+02 8.650000000000000000e+02 8.660000000000000000e+02 8.670000000000000000e+02 8.680000000000000000e+02 8.690000000000000000e+02 8.700000000000000000e+02 8.710000000000000000e+02 8.720000000000000000e+02 8.730000000000000000e+02 8.740000000000000000e+02 8.750000000000000000e+02 8.760000000000000000e+02 8.770000000000000000e+02 8.780000000000000000e+02 8.790000000000000000e+02 8.800000000000000000e+02 8.810000000000000000e+02 8.820000000000000000e+02 8.830000000000000000e+02 8.840000000000000000e+02 8.850000000000000000e+02 8.860000000000000000e+02 8.870000000000000000e+02 8.880000000000000000e+02 8.890000000000000000e+02 8.900000000000000000e+02 8.910000000000000000e+02 8.920000000000000000e+02 8.930000000000000000e+02 8.940000000000000000e+02 8.950000000000000000e+02 8.960000000000000000e+02 8.970000000000000000e+02 8.980000000000000000e+02 8.990000000000000000e+02 9.000000000000000000e+02 9.010000000000000000e+02 9.020000000000000000e+02 9.030000000000000000e+02 9.040000000000000000e+02 9.050000000000000000e+02 9.060000000000000000e+02 9.070000000000000000e+02 9.080000000000000000e+02 9.090000000000000000e+02 9.100000000000000000e+02 9.110000000000000000e+02 9.120000000000000000e+02 9.130000000000000000e+02 9.140000000000000000e+02 9.150000000000000000e+02 9.160000000000000000e+02 9.170000000000000000e+02 9.180000000000000000e+02 9.190000000000000000e+02 9.200000000000000000e+02 9.210000000000000000e+02 9.220000000000000000e+02 9.230000000000000000e+02 9.240000000000000000e+02 9.250000000000000000e+02 9.260000000000000000e+02 9.270000000000000000e+02 9.280000000000000000e+02 9.290000000000000000e+02 9.300000000000000000e+02 9.310000000000000000e+02 9.320000000000000000e+02 9.330000000000000000e+02 9.340000000000000000e+02 9.350000000000000000e+02 9.360000000000000000e+02 9.370000000000000000e+02 9.380000000000000000e+02 9.390000000000000000e+02 9.400000000000000000e+02 9.410000000000000000e+02 9.420000000000000000e+02 9.430000000000000000e+02 9.440000000000000000e+02 9.450000000000000000e+02 9.460000000000000000e+02 9.470000000000000000e+02 9.480000000000000000e+02 9.490000000000000000e+02 9.500000000000000000e+02 9.510000000000000000e+02 9.520000000000000000e+02 9.530000000000000000e+02 9.540000000000000000e+02 9.550000000000000000e+02 9.560000000000000000e+02 9.570000000000000000e+02 9.580000000000000000e+02 9.590000000000000000e+02 9.600000000000000000e+02 9.610000000000000000e+02 9.620000000000000000e+02 9.630000000000000000e+02 9.640000000000000000e+02 9.650000000000000000e+02 9.660000000000000000e+02 9.670000000000000000e+02 9.680000000000000000e+02 9.690000000000000000e+02 9.700000000000000000e+02 9.710000000000000000e+02 9.720000000000000000e+02 9.730000000000000000e+02 9.740000000000000000e+02 9.750000000000000000e+02 9.760000000000000000e+02 9.770000000000000000e+02 9.780000000000000000e+02 9.790000000000000000e+02 9.800000000000000000e+02 9.810000000000000000e+02 9.820000000000000000e+02 9.830000000000000000e+02 9.840000000000000000e+02 9.850000000000000000e+02 9.860000000000000000e+02 9.870000000000000000e+02 9.880000000000000000e+02 9.890000000000000000e+02 9.900000000000000000e+02 9.910000000000000000e+02 9.920000000000000000e+02 9.930000000000000000e+02 9.940000000000000000e+02 9.950000000000000000e+02 9.960000000000000000e+02 9.970000000000000000e+02 9.980000000000000000e+02 9.990000000000000000e+02 1.000000000000000000e+03
1.000000000000000021e-02 1.000000000000000021e-02 1.000000000000000021e-02 1.000000000000000021e-02 1.000000000000000021e-02 1.000000000000000021e-02 1.000000000000000021e-02 1.000000000000000021e-02 1.000000000000000021e-02 1.000000000000000021e-02 1.000000000000000021e-02 1.000000000000000021e-02 1.000000000000000021e-02 1.000000000000000021e-02 1.000000000000000021e-02 1.000000000000000021e-02 1.000000000000000021e-02 1.000000000000000021e-02 1.000000000000000021e-02 1.000000000000000021e-02 1.000000000000000021e-02 1.000000000000000021e-02 1.000000000000000021e-02 1.000000000000000021e-02 1.000000000000000021e-02 1.000000000000000021e-02 1.000000000000000021e-02 1.000000000000000021e-02 1.000000000000000021e-02 1.000000000000000021e-02 1.000000000000000021e-02 1.000000000000000021e-02 1.000000000000000021e-02 1.000000000000000021e-02 1.000000000000000021e-02 1.000000000000000021e-02 1.000000000000000021e-02 1.000000000000000021e-02 1.000000000000000021e-02 1.000000000000000021e-02 1.000000000000000021e-02 1.000000000000000021e-02 1.000000000000000021e-02 1.000000000000000021e-02 1.000000000000000021e-02 1.000000000000000021e-02 1.000000000000000021e-02 1.000000000000000021e-02 1.000000000000000021e-02 1.000000000000000021e-02 1.000000000000000021e-02 1.000000000000000021e-02 1.000000000000000021e-02 1.000000000000000021e-02 1.000000000000000021e-02 1.000000000000000021e-02 1.000000000000000021e-02 1.000000000000000021e-02 1.000000000000000021e-02 1.000000000000000021e-02 1.000000000000000021e-02 1.000000000000000021e-02 1.000000000000000021e-02 1.000000000000000021e-02 1.000000000000000021e-02 1.000000000000000021e-02 1.000000000000000021e-02 1.000000000000000021e-02 1.000000000000000021e-02 1.000000000000000021e-02 1.000000000000000021e-02 1.000000000000000021e-02 1.000000000000000021e-02 1.000000000000000021e-02 1.000000000000000021e-02 1.000000000000000021e-02 1.000000000000000021e-02 1.000000000000000021e-02 1.000000000000000021e-02 1.000000000000000021e-02 1.000000000000000021e-02 1.000000000000000021e-02 1.000000000000000021e-02 1.000000000000000021e-02 1.000000000000000021e-02 1.000000000000000021e-02 1.000000000000000021e-02 1.000000000000000021e-02 1.000000000000000021e-02 1.000000000000000021e-02 1.000000000000000021e-02 1.000000000000000021e-02 1.000000000000000021e-02 1.000000000000000021e-02 1.000000000000000021e-02 1.000000000000000021e-02 1.000000000000000021e-02 1.000000000000000021e-02 1.000000000000000021e-02 1.000000000000000021e-02 1.000000000000000021e-02 1.000000000000000021e-02 1.000000000000000021e-02 1.000000000000000021e-02 1.000000000000000021e-02 1.000000000000000021e-02 1.000000000000000021e-02 1.000000000000000021e-02 1.000000000000000021e-02 1.000000000000000021e-02 1.000000000000000021e-02 1.000000000000000021e-02 1.000000000000000021e-02 1.000000000000000021e-02 1.000000000000000021e-02 1.000000000000000021e-02 1.000000000000000021e-02 1.000000000000000021e-02 1.000000000000000021e-02 1.000000000000000021e-02 1.000000000000000021e-02 1.000000000000000021e-02 1.000000000000000021e-02 1.000000000000000021e-02 1.000000000000000021e-02 1.000000000000000021e-02 1.000000000000000021e-02 1.000000000000000021e-02 1.000000000000000021e-02 1.000000000000000021e-02 1.000000000000000021e-02 1.000000000000000021e-02 1.000000000000000021e-02 1.000000000000000021e-02 1.000000000000000021e-02 1.000000000000000021e-02 1.000000000000000021e-02 1.000000000000000021e-02 1.000000000000000021e-02 1.000000000000000021e-02 1.000000000000000021e-02 1.000000000000000021e-02 1.000000000000000021e-02 1.000000000000000021e-02 1.000000000000000021e-02 1.000000000000000021e-02 1.000000000000000021e-02 1.000000000000000021e-02 1.000000000000000021e-02 1.000000000000000021e-02 1.000000000000000021e-02 1.000000000000000021e-02 1.000000000000000021e-02 1.000000000000000021e-02 1.000000000000000021e-02 1.000000000000000021e-02 1.000000000000000021e-02 1.000000000000000021e-02 1.000000000000000021e-02 1.000000000000000021e-02 1.000000000000000021e-02 1.000000000000000021e-02 1.000000000000000021e-02 1.000000000000000021e-02 1.000000000000000021e-02 1.000000000000000021e-02 1.000000000000000021e-02 1.000000000000000021e-02 1.000000000000000021e-02 1.000000000000000021e-02 1.000000000000000021e-02 1.000000000000000021e-02 1.000000000000000021e-02 1.000000000000000021e-02 1.000000000000000021e-02 1.000000000000000021e-02 1.000000000000000021e-02 1.000000000000000021e-02 1.000000000000000021e-02 1.000000000000000021e-02 1.000000000000000021e-02 1.000000000000000021e-02 1.000000000000000021e-02 1.000000000000000021e-02 1.000000000000000021e-02 1.000000000000000021e-02 1.000000000000000021e-02 1.000000000000000021e-02 1.000000000000000021e-02 1.000000000000000021e-02 1.000000000000000021e-02 1.000000000000000021e-02 1.000000000000000021e-02 1.000000000000000021e-02 1.000000000000000021e-02 1.000000000000000021e-02 1.000000000000000021e-02 1.000000000000000021e-02 1.000000000000000021e-02 1.000000000000000021e-02 1.000000000000000021e-02 1.000000000000000021e-02 1.000000000000000021e-02 1.000000000000000021e-02 1.000000000000000021e-02 1.000000000000000021e-02 1.000000000000000021e-02 1.000000000000000021e-02 1.000000000000000021e-02 1.000000000000000021e-02 1.000000000000000021e-02 1.000000000000000021e-02 1.000000000000000021e-02 1.000000000000000021e-02 1.000000000000000021e-02 1.000000000000000021e-02 1.000000000000000021e-02 1.000000000000000021e-02 1.000000000000000021e-02 1.000000000000000021e-02 1.000000000000000021e-02 1.000000000000000021e-02 1.000000000000000021e-02 1.000000000000000021e-02 1.000000000000000021e-02 1.000000000000000021e-02 1.000000000000000021e-02 1.000000000000000021e-02 1.000000000000000021e-02 1.000000000000000021e-02 1.000000000000000021e-02 1.000000000000000021e-02 1.000000000000000021e-02 1.000000000000000021e-02 1.000000000000000021e-02 1.000000000000000021e-02 1.000000000000000021e-02 1.000000000000000021e-02 1.000000000000000021e-02 1.000000000000000021e-02 1.000000000000000021e-02 1.000000000000000021e-02 1.000000000000000021e-02 1.000000000000000021e-02 1.000000000000000021e-02 1.000000000000000021e-02 1.000000000000000021e-02 1.000000000000000021e-02 1.000000000000000021e-02 1.000000000000000021e-02 1.000000000000000021e-02 1.000000000000000021e-02 1.000000000000000021e-02 1.000000000000000021e-02 1.000000000000000021e-02 1.000000000000000021e-02 1.000000000000000021e-02 1.000000000000000021e-02 1.000000000000000021e-02 1.000000000000000021e-02 1.000000000000000021e-02 1.000000000000000021e-02 1.000000000000000021e-02 1.000000000000000021e-02 1.000000000000000021e-02 1.000000000000000021e-02 1.000000000000000021e-02 1.000000000000000021e-02 1.000000000000000021e-02 1.000000000000000021e-02 1.000000000000000021e-02 1.000000000000000021e-02 1.000000000000000021e-02 1.000000000000000021e-02 1.000000000000000021e-02 1.000000000000000021e-02 1.000000000000000021e-02 1.000000000000000021e-02 1.000000000000000021e-02 1.000000000000000021e-02 1.000000000000000021e-02 1.000000000000000021e-02 1.000000000000000021e-02 1.000000000000000021e-02 1.000000000000000021e-02 1.000000000000000021e-02 1.000000000000000021e-02 1.000000000000000021e-02 1.000000000000000021e-02 1.000000000000000021e-02 1.000000000000000021e-02 1.000000000000000021e-02 1.000000000000000021e-02 1.000000000000000021e-02 1.000000000000000021e-02 1.000000000000000021e-02 1.000000000000000021e-02 1.000000000000000021e-02 1.000000000000000021e-02 1.000000000000000021e-02 1.000000000000000021e-02 1.000000000000000021e-02 1.000000000000000021e-02 1.000000000000000021e-02 1.000000000000000021e-02 1.000000000000000021e-02 1.000000000000000021e-02 1.000000000000000021e-02 1.000000000000000021e-02 1.000000000000000021e-02 1.000000000000000021e-02 1.000000000000000021e-02 1.000000000000000021e-02 1.000000000000000021e-02 1.000000000000000021e-02 1.000000000000000021e-02 1.000000000000000021e-02 1.000000000000000021e-02 1.000000000000000021e-02 1.000000000000000021e-02 1.000000000000000021e-02 1.000000000000000021e-02 1.000000000000000021e-02 1.000000000000000021e-02 1.000000000000000021e-02 1.000000000000000021e-02 1.000000000000000021e-02 1.000000000000000021e-02 1.000000000000000021e-02 1.000000000000000021e-02 1.000000000000000021e-02 1.000000000000000021e-02 1.000000000000000021e-02 1.000000000000000021e-02 1.000000000000000021e-02 1.000000000000000021e-02 1.000000000000000021e-02 1.000000000000000021e-02 1.000000000000000021e-02 1.000000000000000021e-02 1.000000000000000021e-02 1.000000000000000021e-02 1.000000000000000021e-02 1.000000000000000021e-02 1.000000000000000021e-02 1.000000000000000021e-02 1.000000000000000021e-02 1.000000000000000021e-02 1.000000000000000021e-02 1.000000000000000021e-02 1.000000000000000021e-02 1.000000000000000021e-02 1.000000000000000021e-02 1.000000000000000021e-02 1.000000000000000021e-02 1.000000000000000021e-02 1.000000000000000021e-02 1.000000000000000021e-02 1.000000000000000021e-02 1.000000000000000021e-02 1.000000000000000021e-02 1.000000000000000021e-02 1.000000000000000021e-02 1.000000000000000021e-02 1.000000000000000021e-02 1.000000000000000021e-02 1.000000000000000021e-02 1.000000000000000021e-02 1.000000000000000021e-02 1.000000000000000021e-02 1.000000000000000021e-02 1.000000000000000021e-02 1.000000000000000021e-02 1.000000000000000021e-02 1.000000000000000021e-02 1.000000000000000021e-02 1.000000000000000021e-02 1.000000000000000021e-02 1.000000000000000021e-02 1.000000000000000021e-02 1.000000000000000021e-02 1.000000000000000021e-02 1.000000000000000021e-02 1.000000000000000021e-02 1.000000000000000021e-02 1.000000000000000021e-02 1.000000000000000021e-02 1.000000000000000021e-02 1.000000000000000021e-02 1.000000000000000021e-02 1.000000000000000021e-02 1.000000000000000021e-02 1.000000000000000021e-02 1.000000000000000021e-02 1.000000000000000021e-02 1.000000000000000021e-02 1.000000000000000021e-02 1.000000000000000021e-02 1.000000000000000021e-02 1.000000000000000021e-02 1.000000000000000021e-02 1.000000000000000021e-02 1.000000000000000021e-02 1.000000000000000021e-02 1.000000000000000021e-02 1.000000000000000021e-02 1.000000000000000021e-02 1.000000000000000021e-02 1.000000000000000021e-02 1.000000000000000021e-02 1.000000000000000021e-02 1.000000000000000021e-02 1.000000000000000021e-02 1.000000000000000021e-02 1.000000000000000021e-02 1.000000000000000021e-02 1.000000000000000021e-02 1.000000000000000021e-02 1.000000000000000021e-02 1.000000000000000021e-02 1.000000000000000021e-02 1.000000000000000021e-02 1.000000000000000021e-02 1.000000000000000021e-02 1.000000000000000021e-02 1.000000000000000021e-02 1.000000000000000021e-02 1.000000000000000021e-02 1.000000000000000021e-02 1.000000000000000021e-02 1.000000000000000021e-02 1.000000000000000021e-02 1.000000000000000021e-02 1.000000000000000021e-02 1.000000000000000021e-02 1.000000000000000021e-02 1.000000000000000021e-02 1.000000000000000021e-02 1.000000000000000021e-02 1.000000000000000021e-02 1.000000000000000021e-02 1.000000000000000021e-02 1.000000000000000021e-02 1.000000000000000021e-02 1.000000000000000021e-02 1.000000000000000021e-02 1.000000000000000021e-02 1.000000000000000021e-02 1.000000000000000021e-02 1.000000000000000021e-02 1.000000000000000021e-02 1.000000000000000021e-02 1.000000000000000021e-02 1.000000000000000021e-02 1.000000000000000021e-02 1.000000000000000021e-02 1.000000000000000021e-02 1.000000000000000021e-02 1.000000000000000021e-02 1.000000000000000021e-02 1.000000000000000021e-02 1.000000000000000021e-02 1.000000000000000021e-02 1.000000000000000021e-02 1.000000000000000021e-02 1.000000000000000021e-02 1.000000000000000021e-02 1.000000000000000021e-02 1.000000000000000021e-02 1.000000000000000021e-02 1.000000000000000021e-02 1.000000000000000021e-02 1.000000000000000021e-02 1.000000000000000021e-02 1.000000000000000021e-02 1.000000000000000021e-02 1.000000000000000021e-02 1.000000000000000021e-02 1.000000000000000021e-02 1.000000000000000021e-02 1.000000000000000021e-02 1.000000000000000021e-02 1.000000000000000021e-02 1.000000000000000021e-02 1.000000000000000021e-02 1.000000000000000021e-02 1.000000000000000021e-02 1.000000000000000021e-02 1.000000000000000021e-02 1.000000000000000021e-02 1.000000000000000021e-02 1.000000000000000021e-02 1.000000000000000021e-02 1.000000000000000021e-02 1.000000000000000021e-02 1.000000000000000021e-02 1.000000000000000021e-02 1.000000000000000021e-02 1.000000000000000021e-02 1.000000000000000021e-02 1.000000000000000021e-02 1.000000000000000021e-02 1.000000000000000021e-02 1.000000000000000021e-02 1.000000000000000021e-02 1.000000000000000021e-02 1.000000000000000021e-02 1.000000000000000021e-02 1.000000000000000021e-02 1.000000000000000021e-02 1.000000000000000021e-02 1.000000000000000021e-02 1.000000000000000021e-02 1.000000000000000021e-02 1.000000000000000021e-02 1.000000000000000021e-02 1.000000000000000021e-02 1.000000000000000021e-02 1.000000000000000021e-02 1.000000000000000021e-02 1.000000000000000021e-02 1.000000000000000021e-02 1.000000000000000021e-02 1.000000000000000021e-02 1.000000000000000021e-02 1.000000000000000021e-02 1.000000000000000021e-02 1.000000000000000021e-02 1.000000000000000021e-02 1.000000000000000021e-02 1.000000000000000021e-02 1.000000000000000021e-02 1.000000000000000021e-02 1.000000000000000021e-02 1.000000000000000021e-02 1.000000000000000021e-02 1.000000000000000021e-02 1.000000000000000021e-02 1.000000000000000021e-02 1.000000000000000021e-02 1.000000000000000021e-02 1.000000000000000021e-02 1.000000000000000021e-02 1.000000000000000021e-02 1.000000000000000021e-02 1.000000000000000021e-02 1.000000000000000021e-02 1.000000000000000021e-02 1.000000000000000021e-02 1.000000000000000021e-02 1.000000000000000021e-02 1.000000000000000021e-02 1.000000000000000021e-02 1.000000000000000021e-02 1.000000000000000021e-02 1.000000000000000021e-02 1.000000000000000021e-02 1.000000000000000021e-02 1.000000000000000021e-02 1.000000000000000021e-02 1.000000000000000021e-02 1.000000000000000021e-02 1.000000000000000021e-02 1.000000000000000021e-02 1.000000000000000021e-02 1.000000000000000021e-02 1.000000000000000021e-02 1.000000000000000021e-02 1.000000000000000021e-02 1.000000000000000021e-02 1.000000000000000021e-02 1.000000000000000021e-02 1.000000000000000021e-02 1.000000000000000021e-02 1.000000000000000021e-02 1.000000000000000021e-02 1.000000000000000021e-02 1.000000000000000021e-02 1.000000000000000021e-02 1.000000000000000021e-02 1.000000000000000021e-02 1.000000000000000021e-02 1.000000000000000021e-02 1.000000000000000021e-02 1.000000000000000021e-02 1.000000000000000021e-02 1.000000000000000021e-02 1.000000000000000021e-02 1.000000000000000021e-02 1.000000000000000021e-02 1.000000000000000021e-02 1.000000000000000021e-02 1.000000000000000021e-02 1.000000000000000021e-02 1.000000000000000021e-02 1.000000000000000021e-02 1.000000000000000021e-02 1.000000000000000021e-02 1.000000000000000021e-02 1.000000000000000021e-02 1.000000000000000021e-02 1.000000000000000021e-02 1.000000000000000021e-02 1.000000000000000021e-02 1.000000000000000021e-02 1.000000000000000021e-02 1.000000000000000021e-02 1.000000000000000021e-02 1.000000000000000021e-02 1.000000000000000021e-02 1.000000000000000021e-02 1.000000000000000021e-02 1.000000000000000021e-02 1.000000000000000021e-02 1.000000000000000021e-02 1.000000000000000021e-02 1.000000000000000021e-02 1.000000000000000021e-02 1.000000000000000021e-02 1.000000000000000021e-02 1.000000000000000021e-02 1.000000000000000021e-02 1.000000000000000021e-02 1.000000000000000021e-02 1.000000000000000021e-02 1.000000000000000021e-02 1.000000000000000021e-02 1.000000000000000021e-02 1.000000000000000021e-02 1.000000000000000021e-02 1.000000000000000021e-02 1.000000000000000021e-02 1.000000000000000021e-02 1.000000000000000021e-02 1.000000000000000021e-02 1.000000000000000021e-02 1.000000000000000021e-02 1.000000000000000021e-02 1.000000000000000021e-02 1.000000000000000021e-02 1.000000000000000021e-02 1.000000000000000021e-02 1.000000000000000021e-02 1.000000000000000021e-02 1.000000000000000021e-02 1.000000000000000021e-02 1.000000000000000021e-02 1.000000000000000021e-02 1.000000000000000021e-02 1.000000000000000021e-02 1.000000000000000021e-02 1.000000000000000021e-02 1.000000000000000021e-02 1.000000000000000021e-02 1.000000000000000021e-02 1.000000000000000021e-02 1.000000000000000021e-02 1.000000000000000021e-02 1.000000000000000021e-02 1.000000000000000021e-02 1.000000000000000021e-02 1.000000000000000021e-02 1.000000000000000021e-02 1.000000000000000021e-02 1.000000000000000021e-02 1.000000000000000021e-02 1.000000000000000021e-02 1.000000000000000021e-02 1.000000000000000021e-02 1.000000000000000021e-02 1.000000000000000021e-02 1.000000000000000021e-02 1.000000000000000021e-02 1.000000000000000021e-02 1.000000000000000021e-02 1.000000000000000021e-02 1.000000000000000021e-02 1.000000000000000021e-02 1.000000000000000021e-02 1.000000000000000021e-02 1.000000000000000021e-02 1.000000000000000021e-02 1.000000000000000021e-02 1.000000000000000021e-02 1.000000000000000021e-02 1.000000000000000021e-02 1.000000000000000021e-02 1.000000000000000021e-02 1.000000000000000021e-02 1.000000000000000021e-02 1.000000000000000021e-02 1.000000000000000021e-02 1.000000000000000021e-02 1.000000000000000021e-02 1.000000000000000021e-02 1.000000000000000021e-02 1.000000000000000021e-02 1.000000000000000021e-02 1.000000000000000021e-02 1.000000000000000021e-02 1.000000000000000021e-02 1.000000000000000021e-02 1.000000000000000021e-02 1.000000000000000021e-02 1.000000000000000021e-02 1.000000000000000021e-02 1.000000000000000021e-02 1.000000000000000021e-02 1.000000000000000021e-02 1.000000000000000021e-02 1.000000000000000021e-02 1.000000000000000021e-02 1.000000000000000021e-02 1.000000000000000021e-02 1.000000000000000021e-02 1.000000000000000021e-02 1.000000000000000021e-02 1.000000000000000021e-02 1.000000000000000021e-02 1.000000000000000021e-02 1.000000000000000021e-02 1.000000000000000021e-02 1.000000000000000021e-02 1.000000000000000021e-02 1.000000000000000021e-02 1.000000000000000021e-02 1.000000000000000021e-02 1.000000000000000021e-02 1.000000000000000021e-02 1.000000000000000021e-02 1.000000000000000021e-02 1.000000000000000021e-02 1.000000000000000021e-02 1.000000000000000021e-02 1.000000000000000021e-02 1.000000000000000021e-02 1.000000000000000021e-02 1.000000000000000021e-02 1.000000000000000021e-02 1.000000000000000021e-02 1.000000000000000021e-02 1.000000000000000021e-02 1.000000000000000021e-02 1.000000000000000021e-02 1.000000000000000021e-02 1.000000000000000021e-02 1.000000000000000021e-02 1.000000000000000021e-02 1.000000000000000021e-02 1.000000000000000021e-02 1.000000000000000021e-02 1.000000000000000021e-02 1.000000000000000021e-02 1.000000000000000021e-02 1.000000000000000021e-02 1.000000000000000021e-02 1.000000000000000021e-02 1.000000000000000021e-02 1.000000000000000021e-02 1.000000000000000021e-02 1.000000000000000021e-02 1.000000000000000021e-02 1.000000000000000021e-02 1.000000000000000021e-02 1.000000000000000021e-02 1.000000000000000021e-02 1.000000000000000021e-02 1.000000000000000021e-02 1.000000000000000021e-02 1.000000000000000021e-02 1.000000000000000021e-02 1.000000000000000021e-02 1.000000000000000021e-02 1.000000000000000021e-02 1.000000000000000021e-02 1.000000000000000021e-02 1.000000000000000021e-02 1.000000000000000021e-02 1.000000000000000021e-02 1.000000000000000021e-02 1.000000000000000021e-02 1.000000000000000021e-02 1.000000000000000021e-02 1.000000000000000021e-02 1.000000000000000021e-02 1.000000000000000021e-02 1.000000000000000021e-02 1.000000000000000021e-02 1.000000000000000021e-02 1.000000000000000021e-02 1.000000000000000021e-02 1.000000000000000021e-02 1.000000000000000021e-02 1.000000000000000021e-02 1.000000000000000021e-02 1.000000000000000021e-02 1.000000000000000021e-02 1.000000000000000021e-02 1.000000000000000021e-02 1.000000000000000021e-02 1.000000000000000021e-02 1.000000000000000021e-02 1.000000000000000021e-02 1.000000000000000021e-02 1.000000000000000021e-02 1.000000000000000021e-02 1.000000000000000021e-02 1.000000000000000021e-02 1.000000000000000021e-02 1.000000000000000021e-02 1.000000000000000021e-02 1.000000000000000021e-02 1.000000000000000021e-02 1.000000000000000021e-02 1.000000000000000021e-02 1.000000000000000021e-02 1.000000000000000021e-02 1.000000000000000021e-02 1.000000000000000021e-02 1.000000000000000021e-02 1.000000000000000021e-02 1.000000000000000021e-02 1.000000000000000021e-02 1.000000000000000021e-02 1.000000000000000021e-02 1.000000000000000021e-02 1.000000000000000021e-02 1.000000000000000021e-02 1.000000000000000021e-02 1.000000000000000021e-02 1.000000000000000021e-02 1.000000000000000021e-02 1.000000000000000021e-02 1.000000000000000021e-02 1.000000000000000021e-02 1.000000000000000021e-02 1.000000000000000021e-02 1.000000000000000021e-02 1.000000000000000021e-02 1.000000000000000021e-02 1.000000000000000021e-02 1.000000000000000021e-02 1.000000000000000021e-02 1.000000000000000021e-02 1.000000000000000021e-02 1.000000000000000021e-02 1.000000000000000021e-02 1.000000000000000021e-02 1.000000000000000021e-02 1.000000000000000021e-02 1.000000000000000021e-02 1.000000000000000021e-02 1.000000000000000021e-02 1.000000000000000021e-02 1.000000000000000021e-02 1.000000000000000021e-02 1.000000000000000021e-02 1.000000000000000021e-02 1.000000000000000021e-02 1.000000000000000021e-02 1.000000000000000021e-02 1.000000000000000021e-02 1.000000000000000021e-02 1.000000000000000021e-02 1.000000000000000021e-02 1.000000000000000021e-02 1.000000000000000021e-02 1.000000000000000021e-02 1.000000000000000021e-02 1.000000000000000021e-02 1.000000000000000021e-02 1.000000000000000021e-02 1.000000000000000021e-02 1.000000000000000021e-02 1.000000000000000021e-02 1.000000000000000021e-02 1.000000000000000021e-02 1.000000000000000021e-02 1.000000000000000021e-02 1.000000000000000021e-02 1.000000000000000021e-02 1.000000000000000021e-02 1.000000000000000021e-02 1.000000000000000021e-02 1.000000000000000021e-02 1.000000000000000021e-02 1.000000000000000021e-02 1.000000000000000021e-02 1.000000000000000021e-02 1.000000000000000021e-02 1.000000000000000021e-02 1.000000000000000021e-02 1.000000000000000021e-02 1.000000000000000021e-02 1.000000000000000021e-02 1.000000000000000021e-02 1.000000000000000021e-02 1.000000000000000021e-02 1.000000000000000021e-02 1.000000000000000021e-02 1.000000000000000021e-02 1.000000000000000021e-02 1.000000000000000021e-02 1.000000000000000021e-02 1.000000000000000021e-02 1.000000000000000021e-02 1.000000000000000021e-02 1.000000000000000021e-02 1.000000000000000021e-02 1.000000000000000021e-02 1.000000000000000021e-02 1.000000000000000021e-02 1.000000000000000021e-02 1.000000000000000021e-02 1.000000000000000021e-02 1.000000000000000021e-02 1.000000000000000021e-02 1.000000000000000021e-02 1.000000000000000021e-02 1.000000000000000021e-02 1.000000000000000021e-02 1.000000000000000021e-02 1.000000000000000021e-02 1.000000000000000021e-02 1.000000000000000021e-02 1.000000000000000021e-02 1.000000000000000021e-02 1.000000000000000021e-02 1.000000000000000021e-02 1.000000000000000021e-02 1.000000000000000021e-02 1.000000000000000021e-02 1.000000000000000021e-02 1.000000000000000021e-02 1.000000000000000021e-02 1.000000000000000021e-02 1.000000000000000021e-02 1.000000000000000021e-02 1.000000000000000021e-02 1.000000000000000021e-02 1.000000000000000021e-02 1.000000000000000021e-02 1.000000000000000021e-02 1.000000000000000021e-02 1.000000000000000021e-02 1.000000000000000021e-02 1.000000000000000021e-02 1.000000000000000021e-02 1.000000000000000021e-02 1.000000000000000021e-02 1.000000000000000021e-02 1.000000000000000021e-02 1.000000000000000021e-02 1.000000000000000021e-02 1.000000000000000021e-02 1.000000000000000021e-02 1.000000000000000021e-02 1.000000000000000021e-02 1.000000000000000021e-02 1.000000000000000021e-02 1.000000000000000021e-02 1.000000000000000021e-02 1.000000000000000021e-02 1.000000000000000021e-02 1.000000000000000021e-02 1.000000000000000021e-02 1.000000000000000021e-02 1.000000000000000021e-02 1.000000000000000021e-02 1.000000000000000021e-02 1.000000000000000021e-02 1.000000000000000021e-02 1.000000000000000021e-02 1.000000000000000021e-02 1.000000000000000021e-02 1.000000000000000021e-02 1.000000000000000021e-02 1.000000000000000021e-02 1.000000000000000021e-02 1.000000000000000021e-02 1.000000000000000021e-02 1.000000000000000021e-02 1.000000000000000021e-02 1.000000000000000021e-02 1.000000000000000021e-02 1.000000000000000021e-02 1.000000000000000021e-02 1.000000000000000021e-02 1.000000000000000021e-02 1.000000000000000021e-02 1.000000000000000021e-02 1.000000000000000021e-02 1.000000000000000021e-02 1.000000000000000021e-02 1.000000000000000021e-02 1.000000000000000021e-02 1.000000000000000021e-02 1.000000000000000021e-02 1.000000000000000021e-02 1.000000000000000021e-02
-1.128813325421847082e+02 1.715411616465212887e+02 3.980668341200968996e+01 -8.949111978335579920e+00 -8.890149876445022414e+01 -1.354760589868586251e+01 -2.103057970123379334e+02 6.892832127922461360e-01 -8.571859617026207445e+01 -1.417152796456512043e+01 -2.005757239720327334e+01 6.584599645951377589e+00 -1.801662263541404796e+00 1.697442984352147732e+02 8.560232810260740166e+01 -3.921989218993155646e+01 -5.339237588142387381e+01 8.014088473002846058e+01 3.320182543166065869e+01 -2.566132718226959852e+01 -7.977501560184073526e+01 -7.467764083378966689e+01 -1.397169927435961689e+01 2.927093662712327671e+01 -1.971997929173184332e+02 -9.989382539486274482e+01 -2.639099503685507031e+01 2.039958881180125445e+02 7.159016438109949831e+01 7.760589044922410551e+01 8.122864441009484437e+01 1.200185826716864801e+00 -8.013112653987533918e+01 2.098385971179865521e+02 -2.476841925531211928e+02 5.949800631960681585e+01 -1.215711626213346790e+02 -3.508345919554325576e+01 4.079298548498626609e+00 1.281941472957041981e+02 -1.243476696457185682e+02 -1.381840992912494137e+01 7.827518162661863244e+01 1.756265445983304687e+02 7.220227730616905149e+01 -6.923551751259331866e+01 4.172491624228506879e+01 -2.870899074103872195e+01 -6.683996932854680040e+01 1.584326586950265323e+02 -7.142090849891224025e+01 -5.273421660279482381e+01 -1.409409103571899777e+02 5.798160079105782572e+00 -5.113924231398119957e+01 3.911672405838580602e+01 -8.977099905696327653e+01 -5.065528655697922034e+01 -1.026040705068285774e+02 -1.572755182136993426e+02 1.969876810280883106e+01 4.587739823442791476e+01 -1.245763416330273117e+02 1.301270636139330072e+01 -8.024488174238877036e+01 4.969926329145638988e+01 1.685813062494464418e+02 -1.459668711565855972e+02 -4.383088806602724219e+01 7.272076438521144048e+00 2.960509791779785793e+00 4.288110670738184638e+01 8.498114891509821689e+01 9.145580391931420472e-01 -8.893819218906816815e+00 -7.086772212271350213e+01 7.919902812955741922e+01 -3.317392484374401818e+01 2.660257001375157770e+01 1.052495606562093968e+02 8.928687302094311917e+01 -4.325923536431671579e+01 5.850859929670488668e+01 1.491981509801553614e+02 1.175918277769811766e+02 -4.080597096960601355e+00 1.762977035550252651e+02 -1.128445671591546784e+02 4.260556334924598509e+00 -4.243916452888902313e+01 2.093162919435543756e+02 -2.147689879761889742e+01 2.910036628386697632e+00 -7.770120308590097125e+01 -7.217167294015312429e+00 -6.461882569915130148e+01 6.857660636757783834e+01 -9.567831304570702855e+01 6.937428203791544945e+01 -4.831241371412228602e+01 -5.036332586935979805e+01 -9.275473616317721337e+01 5.373736304132320640e+01 -5.538326215562852894e+01 -1.511247555956547615e+02 -8.042867624490185108e+01 -1.058725378744527035e+02 -1.591167495720117415e+02 1.375780731970672548e+02 -2.784113543554234838e+01 3.241085334863728917e+01 9.074437451404270405e+01 -1.053318784828313426e+02 5.765995558588331704e+01 -4.384313665494227052e+01 -7.014477840415409560e+01 -9.115386180943887950e+01 2.057331053625323136e+02 -5.742625421176505540e+01 -5.007899363219081579e+01 -4.779290648880250814e+01 8.137073402411350287e+01 -4.190199806738309007e+01 1.396553240640321576e+02 -5.045937653049404048e+01 5.574507732616395828e+01 4.596676354176201684e+00 -8.212947499064033252e+01 6.965501351191021229e+01 2.807213788997872257e+02 -9.312217648936469061e+01 4.807200941013005746e+01 -7.714808208886444163e+01 4.578280349863127441e+01 1.327795451502427397e+02 -5.199422182197994857e+01 1.476175804384928369e+01 -2.724819135055478370e+01 -1.031787625575474010e+02 -1.749606738259370431e+01 4.321777460034784468e+00 -7.918915020997772558e+00 -1.514061556316690194e+01 1.197030810682372248e+02 1.319532222878782761e+02 1.887601508543260707e+02 -3.080917229342487644e+02 3.869076543296435489e+01 -1.594445638298814671e+01 -6.313764173160092952e+01 1.826132795701620921e+02 7.718563698644501869e+01 -2.606812815417538065e+00 -1.174488737269991532e+02 -1.104769448250048391e+01 1.013775168384591439e+02 -1.361432284209759018e+02 -1.708264349123767829e+02 1.087561898262788240e+01 4.299321694975190411e+01 -6.181818552828401891e+01 4.259086501519149692e+01 -1.085075361378839602e+02 -1.533497354747314887e+02 2.140091404322001978e+01 4.923694132034848536e+01 4.865841490551862769e+00 -8.463631326816803835e+01 -9.488170667832049787e+01 -8.550006843177261828e+01 -8.876920707320851989e+01 1.280280171639376263e+01 5.764692525764240116e+01 1.181691723101943552e+02 8.058518146344106015e+01 9.080939179609420364e+01 1.090249632875890740e+02 -7.590679287735652281e+01 -8.375452213865995077e+01 7.158811570523040757e+01 6.950112286080729973e+01 6.014587015734881703e+01 -9.540077118233806885e+00 -9.251418776026419266e+01 5.484370414789606230e+01 -1.818557700172894158e+02 6.825105628419225923e+01 -4.528360817669197047e+01 -9.805432982685829302e+01 7.545702732737197493e+01 -1.742190426857678887e+01 -7.846879507791449271e+01 -5.847574626905543482e+01 -9.306460125605914513e+00 2.469992000357109418e+02 7.821120466942139160e+01 5.583461906483483972e+01 -1.058223092961960106e+02 1.510283263283996860e+02 1.060711579364794321e+00 -9.211477623691995120e+01 1.587987589980993448e+02 -1.571477934877332814e+02 1.608434411980676870e+01 -3.319741588168946578e+01 -2.265932560198828867e+02 -1.375685878711340990e+02 -8.995927527391255296e+01 -3.019516766996200730e+01 -1.229645216180503837e+02 5.946171970792884309e+01 6.700985966742959477e+01 -2.842711808935747086e+01 -1.028284624748288252e+02 1.166254684022228645e+02 1.219125148276778248e+02 4.766206051951188272e+01 1.800812734342078514e+01 2.695881490012862969e+02 4.505330870228383588e+01 -1.232003725118437529e+02 -4.647865917077727005e+01 -1.742450038318738734e+02 3.288853325760955215e+01 1.582383440005750970e+02 -1.531575447245730572e+02 1.359782437664738666e+02 -9.390229045004267050e+01 -1.951077018343157476e+01 -7.724755268932712582e-01 5.457485921283857522e+01 -1.198260598072270611e+01 -2.353145619352942219e+01 -1.953182789578129785e+01 -1.308306361629629748e+02 4.794746559116902773e+01 -3.136015894783297497e+01 -1.341155693669851701e+01 -1.106592538822715177e+01 2.334143951039118861e+02 1.799508238018564725e+02 2.403175785064204888e+02 1.361614080095000929e+02 -8.944047239609523103e+01 7.769023763321787612e+01 2.181385291549332806e+01 4.917839459015566916e+01 -4.105449650788459337e+01 2.639292535987201518e+02 -2.407295754951761779e+01 -1.412927752972853739e+02 -1.545748438768768729e+01 -4.735691720744710409e+01 -7.999830190839502109e+01 4.460744982312161255e+01 -1.210635926299136145e+01 1.880252365128334020e+02 9.552235227919815941e+01 4.226382077215316002e+01 1.013408673356122733e+02 9.767953812538962666e+01 -2.376519363889181236e+01 1.443576444228352216e+02 2.738215980299935381e+01 9.260538857598470486e+01 4.926505998403064268e+01 7.171243476060645605e+00 -1.196994662304679764e+02 -1.197634920172930180e+02 -9.307419562456934159e+01 -1.610400270953589086e+01 8.963115956887089908e+01 -3.170573215146007229e+01 1.022564812953761617e+02 4.529756154268417845e+01 -7.520065493959253899e+01 -3.098930827969789092e+01 -6.059333025439456577e+01 1.816074084487205909e+01 -4.791329143274717239e+01 -1.158617997359222471e+02 1.256779742396485773e+02 1.254682902709091223e+02 -8.163480609385855757e+01 5.640393649239547891e+00 -4.685302922415388593e+01 -3.372676656934867623e+01 -1.172874128745235645e+01 -3.228206367969321633e+01 4.596034034488838671e+01 -1.453018836327423173e+02 -5.462671449356560061e+01 -1.570304412313032856e+02 1.800010482510013787e+02 -2.091912429015496500e+01 6.092869181000926915e+01 1.233122378579884071e+01 1.492262567554628845e+02 4.613795602842212418e+01 3.692652413539159539e+01 1.594597787505873043e+02 -5.089184220737568154e+01 -1.008041504144398175e+02 2.805458565257506365e+01 -1.631851235834077158e+02 -5.514124842859268938e+01 1.056264838498059078e+02 -1.318647769139713262e+02 -3.754496612500629027e+01 9.425085213526953964e+01 -9.754650538233272528e+01 -9.239325455548659249e+01 -8.531442050210087302e+01 -6.588748789725570987e+01 2.570268089579982984e+02 2.045314019588749090e+02 1.062968387437115183e+02 -1.054563346340969332e+02 7.724078449160602133e+01 -6.822718262760118080e+01 -3.222428434112496376e+01 1.712421854101109631e+01 -3.319893450302826210e+01 -9.667758574784579650e+01 -2.806851206848121727e+00 1.525525592848326006e+01 1.121141109803438667e+02 -1.324090432189268256e+02 4.315786815385057196e+01 6.568204676346746851e+01 3.559080224896361244e+01 -9.331973927955381498e+01 -1.529162405318654407e+02 1.989316865982946752e+02 -1.834119973627397471e+01 2.593008434218842595e+01 1.610933892125273417e+02 2.744425445028013755e+01 2.854804955596409854e+01 -4.581378111215931881e+01 9.113227455491355045e+01 -1.402416409316812178e+02 -3.168586118461877987e+01 -6.308718584685398589e+00 -5.492741563647669523e+01 6.364650124985248958e+00 2.190431123740099650e+01 -3.679189297044840146e+01 1.404860251441656516e+01 2.196701771122073978e+02 -2.814926033746176159e+01 -2.874277449531557593e+01 -1.044707457404725801e+02 -1.699531084111964185e+00 -8.298163983285108714e+01 6.581911092421584897e+00 1.151441420567102085e+02 -5.345641734769007059e+01 6.215635418702847304e+00 -5.580876725105360947e+01 3.424171970268856668e+00 8.958815291186012075e+01 -1.190095922764542991e+02 -9.943951901531330861e+01 -1.053395719210908368e+02 7.333015438512106243e+01 8.890691772714272645e+01 -9.480049185822620927e+01 6.429673841460521544e+01 2.651107325488742461e+01 3.973244854221297828e+01 -1.823624849909790058e+01 9.379984895254894184e+01 8.188175936136764221e+01 -7.936104442826533045e+01 1.217448522198232119e+01 8.307579867983675115e+01 7.482215003584346391e+01 -2.041431945974542828e+01 2.565647466064084270e+01 -1.361452239558550446e+02 4.981370845020740745e+01 -3.364552273494097534e+01 -3.352142275290831464e+01 1.778233394837868104e+02 4.871126582841895925e+01 1.234357908569860030e+02 1.960533212611291560e+02 -1.413788899126116405e+02 1.530489266268309052e+02 -6.507948058761080290e+01 -1.387410706647482073e+02 8.452155189045609518e+01 -1.376646282365678928e+02 -2.947007721255615209e+01 5.792865476363795096e+01 8.304003891254696512e+00 -1.725926277757982916e+02 8.647089911241418747e+01 2.588691905408590799e+01 7.094302400277290133e+01 3.724078741423676320e+01 9.729140847939397929e+00 -6.890926160643665810e+01 1.188291885604685802e+02 5.593875004008821605e+01 -6.378340996702106480e+01 -1.039389048725792861e+02 3.999150057243907241e+01 2.634871816773262054e+01 8.457825169642849517e+01 1.886242878338254343e+02 -2.529598949302696909e+01 -1.130764944130918508e+02 -8.700018721420224210e+01 -5.268772109294700101e+01 -4.556767587453693125e+01 -1.506401283876411981e+02 -2.309581945603486730e+01 1.329272541927183227e+02 7.652804609932836399e+01 -1.256229302115919495e+02 -1.538075090065114523e+02 -6.991890734174573652e+01 -7.840220271321837231e+01 1.506331564763583799e+02 -1.749732708122358531e+02 8.882083741416852263e+01 -4.730273021351379725e+00 -4.415882960418432646e+01 1.366072257550513847e+01 9.359486211898195052e+01 5.091587626353666707e+01 1.418614394091839301e+02 -1.633351446945844430e+02 -8.311115005011973267e+01 2.600136361766145754e+01 4.304476690873750755e+01 2.115957023443093306e+02 1.492844448023077462e+02 6.724692507657444196e+01 7.400690206120839321e+01 -3.512712431403792124e+01 1.558382414325625689e+02 -1.840418191718409560e+02 -6.506152373758197882e+01 -5.510142422329379741e+01 -5.315789005796207078e+01 -1.060115504604854095e+02 -1.537547266765270848e+01 -7.045100707442577459e+01 7.305893982124675290e+01 -9.406347417837375602e+00 -5.963781903469118362e+01 -6.395256276785407579e+01 1.849253030755953375e+02 6.053288528574805838e+01 -1.405673380327434607e+01 2.143519883026858963e+02 -1.111593669192260450e+02 -3.626485895010081606e+01 6.870833328928176797e+01 -1.318046487709458869e-01 1.532369278290184056e+01 -1.283166701102142611e+02 1.807789806053840493e+02 -5.027776638713638846e+01 -2.765464541454062797e+01 -1.125507394637266145e+02 1.290980087263087057e+02 9.836690480668156056e+01 -7.951786679520949974e+01 -3.851778454918157024e+01 3.992950074726638832e+01 -1.552600211985738952e+02 -1.423728601676637617e-01 -7.659525133905208349e+01 7.903636209198888096e+00 -1.108535322306884723e+02 -1.625210674441201775e+02 -7.244708611732444581e+01 1.518645673842755457e+02 5.800255185982667427e+01 -9.183388885725098305e+01 9.139508192939925380e+01 3.509175230500436982e+01 9.046222526840733735e+01 -4.314501040389029640e+01 -8.615202613041947188e+01 1.751710838024808368e+02 4.267567051132139255e+01 2.965551591631402317e+01 -7.476873692804464611e+01 -4.332222335299081806e+01 9.792363098535945554e+00 -7.326973561040698080e+00 -1.769196683826134233e+02 -3.541755879684858854e+01 6.593747210987866936e+01 1.142389267034765652e+02 1.593340822865809798e+02 -1.357341374583540095e+01 9.168931241632292028e+01 1.613332150663887887e+02 6.487724586147609784e+01 1.511578588501659794e+02 1.642550817142064901e+01 1.342462964170777298e+02 -8.581194390470683686e+01 5.455224342767041890e+01 2.999197456426641395e+01 7.752236065285099187e+01 -1.084952616784187853e+02 2.022433903603547094e+02 -1.315299129852563738e+02 9.014514802321464515e+01 -1.096856368394681311e+02 4.708856824240166361e+01 1.407975998372578985e+01 9.256025333193511528e+01 -7.516823340133325360e+01 -7.702513359677541871e+01 -1.139303212306008817e+01 9.084972659622675906e+01 -3.016343720530073824e+01 -1.662994951193750737e+01 -2.001132367705540460e+01 4.828197296053035714e+00 9.999034740058287696e+01 -6.373614449725376829e+01 -2.766671678186090055e+00 -1.971807316213433126e+02 1.239330691418968655e+02 -1.268547030770052118e+02 -7.505727717767135232e+01 -2.392044017560656144e+01 -1.096317323038072402e+02 -5.400376864686051448e+01 -5.948858863598997715e+01 -1.997496410556583513e+01 1.384150525960397715e+02 5.490900344561784152e+01 1.020131182984935805e+02 -1.382295742474540816e+02 -1.407562191703053429e+02 -2.910147543795656588e+02 1.037425692191875584e+02 1.059154198288942865e+02 4.293483930350503641e+01 -4.307903219022201569e+01 -3.780825293708028312e+01 -1.865174500511724318e+02 1.484413101571035156e+02 -1.091143027959268039e+02 1.086457892461957897e+02 -1.617424771966314268e+02 -1.453277278207069578e+01 -5.625125963269167784e+01 -1.211356715372300528e+02 -4.682576743750376380e+01 -1.268201989518117045e+01 -9.412540290919827157e+01 -1.051514713022479839e+02 -1.255011046631904748e+01 7.234072446191834160e+01 -1.266278054228473167e+02 -1.592237200140011311e+01 -7.494090859018240280e+01 -1.335279376267830571e+02 6.787921145362030728e+00 9.672444244222107557e+01 1.681856570822072570e+02 -1.938485236803449396e+01 -4.680893454814676602e+01 -1.261669992750195632e+02 -1.662520326957451857e+02 1.054713918134614232e+02 -7.394858448218285218e+01 8.033240187478070027e+01 9.561329559582789628e+00 2.974352512635758217e+01 7.508790589002897775e+01 -8.614561080572357810e+01 8.405369971554134167e+01 1.172157174543080487e+02 1.600778445952571190e+02 -1.185694906989886590e+02 1.057038663135749204e+02 -4.857164693217227125e+01 -9.233878413734068147e+01 2.182096110303587295e+02 5.010033502743328881e+01 8.488982709097091117e+01 2.165878257425515230e+01 -6.425222856894289691e+01 -3.553392660653290847e+01 -2.139613021386667526e+02 1.074313064538646927e+02 8.290270404447723251e+01 -7.699433477040946627e+01 -7.441000695374350471e+01 1.476793344716774641e+02 1.027936197333114308e+02 5.198641077430287538e+01 7.738874899756623904e+01 -8.039372935600818337e+00 1.049645695267270753e+02 -1.053013172943624340e+02 1.896062725988479087e+02 -4.015888737190379487e+01 -1.240763102163475509e+02 -3.830499284587231301e+01 7.297634748882373401e+01 1.498722048766742034e+02 1.315363244484112926e+01 1.768055699647266295e+02 5.310579382506306700e+01 3.418934188941615560e+01 -1.132345937678810088e+02 4.558811012290695430e+01 -1.271944838218114597e+02 4.850861018653322532e+01 3.931407182341857975e+01 -1.254566232099940351e+02 -8.649716893902184722e+01 4.051645651121304326e+01 8.876366432222519975e+00 -2.363997306035658852e+01 4.256977238380809325e+01 -2.176638868999148357e+01 -6.417891870276316979e+01 -2.658507449883435569e+01 -2.284875553077501209e+01 -4.051675113599689837e+01 1.910500053117302954e+01 -8.187305468498425398e+01 1.210016199649698052e+02 -7.561567726593740701e+01 -4.370377804164157887e+00 6.663654038874562957e+01 3.969500883130656188e+00 1.621553538659664184e+01 1.622978236949999342e+01 -1.191564531178412096e+02 -4.496615819814418380e+00 6.617326505304214379e+01 -2.354199154310624635e+02 -8.630470253743379772e+01 -1.146672858993929509e+02 4.454017308367225070e+01 9.787713875056084589e+01 -9.331947373207113117e+01 -1.707689563212772725e+02 -1.883075347915305997e+02 2.031766284601866346e+01 -1.474122209739144580e+02 -6.424287113030842100e+00 1.500532746411523988e+02 -7.232048747353517548e+00 3.774985750798195028e+01 -1.004818798372991466e+02 8.105045229747878466e+01 -1.202912225610384382e+02 -1.562444127437724362e+01 -3.074272083590459204e+01 5.835715695717975393e+01 -9.006648249427289699e+00 1.070728066412969355e+02 -1.236158969794958011e+02 -5.070944266268694633e+01 8.759570595245889990e+01 6.694198647249015721e+01 -8.332890893113483344e+01 -5.501992232300404595e+01 -4.990718610429561863e+01 -2.925377187173766629e+02 1.956034247850396355e+02 7.691922203272305580e+01 -2.384987973493552715e+01 -2.996222572990977895e+01 4.194183923724261831e+01 -8.498597222484900726e+01 1.004916140856772415e+02 6.100744637071849752e+01 8.277532586384630520e+01 -8.484638886401434377e+01 -2.681171143682714941e+01 3.364338634156757735e+01 1.753002213427676992e+01 -4.316879966167338978e+01 1.591967862885166767e+02 -1.743668977492448136e+01 3.566484357221912660e+01 -2.316199537623567721e+02 -8.535341142819797255e+01 -7.373186121670299542e+01 2.319140841200507452e+01 1.100126541547167847e+02 -2.333941023365569265e+02 -1.884227645596121192e+02 2.233182167424873228e+02 -1.064849613635184333e+01 9.678566377082074723e+01 6.319100405825534494e+01 -5.578131911563353640e+01 -1.319654219678851348e+02 -9.586063201396709132e+01 -5.063388915815608726e+01 -3.771685735509769444e+01 -3.944160652973216230e+01 1.629629873035784016e+01 3.740744293958879751e+01 1.680272860693807786e+02 1.240909276263066374e+02 6.973687014782868232e+00 -4.414469212855121505e+00 -1.599626230929210635e+02 1.205223024706065047e+02 1.604895095911909095e+02 -1.041633405003250630e+02 7.427115303745988228e+01 1.792327955041595144e+00 5.528663037569351957e+01 1.263612292953539225e+02 7.146040301537617268e+01 -1.350022532216553941e+02 1.627015990105532595e+01 -2.960189820436437813e+01 1.122156507222328692e+01 -2.334920181081909263e+01 4.570010719111003539e+01 -2.625159848749980824e+02 1.826215986906868807e+02 7.377456837838269443e+00 1.607147723056218638e+02 -1.065292456641999408e+01 1.070803324187144625e+02 7.224342621993271507e+01 -4.237680133606094302e+01 3.015444756508811253e+01 -7.343756226473369964e+01 -8.977314943236439149e+01 -7.274838794011265009e+01 -3.234784425001416963e+01 4.561487879995625860e+01 1.112401553902160884e+02 2.878020936422445430e+01 6.270280293652997017e+01 -1.058634791575748579e+02 -1.385236473742355372e+02 -1.362185258994244030e+01 4.688511472078614162e+01 -4.599701945197595165e+01 9.552070351349495070e+01 5.609870015880814975e+01 -2.794721938482700807e+01 3.027297268629025595e+01 6.202511003404819689e+01 -7.289999426181857700e+01 -1.351808370006594373e+02 1.436530126603141184e+02 7.902921426608069844e+00 5.071045357328031145e+01 -1.509943998962181126e+02 -5.402386026917694295e+01 -4.725969484933452702e-01 -6.649200441580444476e+01 4.325262475226304026e+00 5.696281000176373510e+01 1.887236186948759382e+02 3.961008704316375173e+01 -1.110236084280256819e+01 7.310832391638766126e+01 -4.607044205345025034e+01 -1.103912559465874921e+02 -1.400131623958615421e+02 9.500051332415244687e+00 2.544969733528433053e+01 2.411186414167799796e+01 -5.765657230336323380e+01 1.225057435752714667e+02 -8.197304695751782333e+01 1.301441110443996081e+02 8.854814390495995724e+01 -6.598225395728819365e+01 -8.591398361695208052e+01 8.542801272056425432e+01 2.079063150283106154e+01 -5.326766694828353366e+01 -5.466084625258868357e+01 1.387425772959173571e+02 5.817504047384377230e+01 8.110872020394481297e+01 2.655251634633346924e+01 -4.274689636166549889e+01 1.091733128652698355e+02 -5.543377226257265988e+01 5.400035977944105392e-01 7.781745167335147073e+01 1.012075957476973116e+02 2.596649522745907461e+02 -1.780485301984566888e+02 1.636436738043747710e+02 -6.874741592966213943e+01 -1.548271632499617567e+01 -2.547703213028569635e+01 -2.109338211424418930e+01 -5.615070943977115547e+01 9.457525913597645228e+01 1.873943514172333664e+02 -1.209773101131762019e+02 3.150446209310930712e+01 -1.292899079361814358e+02 7.152931304111207567e+01 -4.536419984895209723e+01 -8.256916871556916249e+01 -5.495247874325048798e+01 4.200461334659269141e+01 1.979163821703104276e+01 -8.349931881045704074e+01 -1.440425671300891111e+02 2.121815579945344155e+01 1.610305555511703801e+02 1.459878021784007274e+01 1.865315559027985159e+02 7.634263520252138058e+00 1.376666157336972844e+02 -3.539357647413800834e+01 9.280644591307252256e+01 -7.311691795080281508e+01 -1.155788634079801938e+02 5.061588667566301325e+01 -5.942208139269017408e+01 -8.043020928160923688e+01 7.470837876156173252e+01 6.598185594390628239e+00 -9.667228836203450726e+01 -1.543586572929963268e+02 1.516833535348371242e+02 -9.148226772147863528e+01 -2.397872561640563394e+00 1.232390990573170058e+02 5.958311352123225646e+01 -1.008262950224465442e+02 1.090152401888500222e+01 2.897142568835203633e+02 5.479396304055859446e+01 -1.621123218723992920e+02 -4.904203012846318188e+01 -6.326679511175121462e+01 9.908721028241135542e+00 1.106250832668626600e+02 -1.064319797894808772e+02 2.217978341444995039e+01 1.342866195826840965e+02 1.932673934139658911e+01 -2.174429888757445326e+02 4.977825738961446689e+01 7.770503241568762576e+01 -1.397256685853865577e+01 3.377710387803583103e+01 1.335774850543581249e-01 2.315459579709559179e+01 2.856015416189528366e+01 1.192547217020079273e+02 1.009252445257715465e+02 1.599277032113180219e+01 1.534670295363737011e+02 -6.592942498003237972e+01 2.540038901919455441e+02 6.696485134831378616e+01 1.459201333898696191e+02 -2.263461262908209548e+01 9.275973139370879039e+01 -5.052832400044596994e+01 -1.507765031933420232e+02 2.698693487338051966e+01 9.796275390214445622e+01 -9.026760960495217034e+01 -1.079038212041638900e+02 -6.855030425756214640e+01 3.769371367823912777e+01 -1.177065859069488596e+02 7.700303722982363297e+01 2.893368576003956250e+01 -1.005783066983182579e+02 1.957261227428983261e+02 -1.212203384210413226e+01 -1.048373811637108304e+02 -1.377995291539965983e+01 -2.105721841080193002e+01 -1.445101483306025898e+02 -4.126176260348986347e+01 6.337573703179248952e+01 1.357876233240763213e+02 2.989779943299522103e+01 2.758966412959324188e+01 4.615814114413088731e+01 -3.685909740902688014e+01 -1.500335446607476229e+02 1.632754587140447811e+01 3.195155240099288108e+01 1.371591998045978471e+02 -1.025457574408810046e+01 -7.847817348217853350e+01 7.545420106890652789e+01 1.033086543687407710e+00 3.293728263937798317e+01 1.435727613269879441e+02 -1.830075007594362830e+02 -9.569947380180136065e+01 1.285586782383737727e+02 -2.160762163151517825e+02 -1.841965318732499668e+02 9.112099614002411840e+01 1.542347005886953468e+02 6.347157727537745586e+01 -4.449385883233428984e+00 1.560283462662079046e+02 -2.198157643305146109e+02 1.073229782643594490e+02 4.244772226282531591e+01 1.272765311662368646e+02 -1.888852860969584242e+02 1.067532488249401013e+02 -2.833864231599791950e+01 -1.339096794439723226e+02 -5.335684199202267664e+00 -9.255474526237456701e+01 -1.635666214719505973e+01 -4.277951970577633212e+00 -1.233822776704365367e+02 -1.235095965054197933e+02 -6.267587140039719884e+01 -1.291322480335890930e+02 2.013142291338416499e+02 -1.612559950593682174e+02 -5.024248029086765399e+01 1.728031059376839949e+02 3.397639937446872693e+01 -2.964394635325531340e+02 -1.272679167849839672e+02 3.558374732372470817e+01 5.472657212217374223e+01 8.628808929951743423e+00 -1.548781156691513274e+02 3.574322719377102686e+01 7.470613783559607590e+00 -7.444177940417891648e+01 2.030155937174428686e+02 2.029167354197291786e+02 4.333692258120814600e+00 -2.088434672832119077e+02 1.261879659670659777e+02 3.082409158065524579e+01 3.747059354533929465e+00 7.675733139399352467e+01 -2.077790799502591881e+02 -1.382537529928800666e+02 1.412667033260889582e+02 1.098063324309770366e+02 5.302024669520734790e+01 1.434583033646879358e+02 -1.785339123943286097e+02 -2.045773113348692362e+01 -1.306387804814526135e+02 4.363785404671580181e+01 -1.040189863588333452e+02 8.717162833705428682e+01 -3.391848313071911747e+01 1.240025723669493374e+01 1.776914491119526929e+02 2.852540985542286478e+01 -2.639633578061080357e+02 -1.265392007058017896e+02 -8.348204148658777513e+01 1.583401926124078329e+02 1.255226271509333991e+01 -5.387966876337712563e+01 3.044115350244367235e+01 6.261932712254909461e+01 -3.964920337265326111e+01 1.076747271442846028e+02 -1.008831264867001494e+02 4.928572972351015835e+01 1.120916832163986356e+02 -3.548135732316581681e+01 -9.826824058711741827e+01 -1.135729112764625768e+02 1.199347499159687800e+02 -4.972709932043781578e+01 1.968414133385099660e+02 5.728882084130926700e+01 1.111227159979922590e+02 1.846635448531680481e+02 8.575339287687310019e+00 -1.244516737209002599e+02 -1.660193282636196841e+02 -1.143646013610034089e+02 4.252761270365592594e+01
-1.333145933491822710e+01 -4.703283051021677430e+00 1.013152045455901344e+02 -2.240274225830225419e+02 1.520308643511655475e+02 6.214600653619331894e+01 1.488198151718469546e+02 -1.263377074230072026e+02 -2.726321307235051172e+00 -2.355421017818765606e+01 -2.146918376882919404e+02 3.202936838266570874e+01 -1.792737242143330434e+01 1.196242581367710329e+02 -1.223209249761621322e+02 6.036129976978511280e+01 1.225743956810797926e+02 -4.493762536352474513e+01 -4.858907675788616132e+01 -2.647024739464530541e+01 6.034963161541435284e+01 6.174417772804100935e+01 3.170374798113100212e+01 -2.274517131415799440e+02 -5.050550585298319106e+01 8.948589409360424440e+01 9.685075290610486221e+00 -1.012108500680285950e+01 -6.508188831650217310e+01 -1.511338582971756495e+01 7.173319501222999861e+01 -1.422239616657766419e+02 -6.054363616538009296e+01 8.800777088974646389e+00 2.029542016012485988e+02 2.073906655608201390e+02 -3.135912465437603558e+01 5.466175217238135531e+01 -2.720010901153420702e-01 -1.366037304340555636e+02 9.388128282531245361e+01 1.048932795486176559e+02 1.061408880832928645e+02 1.143883930187006648e+01 6.054225695396006302e+01 4.707048238661472084e+01 3.803416524627813544e+01 2.867733873821935831e+01 1.078693072728443809e+02 8.775509655648602347e+01 6.416770950539695662e+01 1.593965601731293020e+02 2.422202774234862090e+02 1.912741686223692739e+02 -5.782892519159150169e+01 4.818361280137833091e+01 -6.288476201350078298e+01 5.518296948924827205e+01 -1.879216405788378665e+02 5.526046626594752809e+01 -2.002825383745641261e+02 -1.650040941303909676e+02 1.265724770300324131e+01 -9.032366240089809040e+00 1.658205877390744831e+02 -2.033627295995061388e+02 7.363423791975009181e+01 2.247636433885980409e+02 -7.163199575897410298e+00 -1.904365867160356061e+02 3.481291534254010855e+01 1.929070256013166045e+02 -5.976329306799624419e+01 -2.606503420979842645e+02 -1.003246461643327336e+02 8.637756359135030593e+00 -2.250797978937674486e+02 3.131999074914596193e+01 -1.755707871329252896e+02 -1.815876152081514761e+02 -5.587120695430954953e+01 1.492197015764471644e+02 6.802918853350146833e+01 1.037767387793503815e+01 -8.674219705757741394e+01 -4.170756115106500062e+01 6.241519031341351109e+01 -2.272214301318150262e+02 5.297838039983032843e+01 -7.345926872396063345e+01 -7.648091254273018080e+01 -1.731440186195830506e+02 6.375060082175571807e+01 9.085466063380215473e+01 -1.590054469411954869e+02 1.692302607808706796e+02 -3.909015376658502561e+01 -1.657205419614174957e+01 8.578220537889464481e+01 1.531420131427583442e+02 2.124347111801030508e+01 1.483889065772704328e+02 -1.809159681214947923e+01 -8.888551988480425337e+01 -1.922672897267776548e+01 9.906338325094417030e+01 4.530940845380587945e+01 9.856188349765511703e+01 9.511400299651702994e+01 -8.367457866976852188e+01 -1.711987601961084238e+02 1.239920869267083248e+02 5.466992601309209476e+01 1.628173486611461129e+01 3.081508942304462195e+01 -6.844925732064416479e+01 9.678369381227230406e+01 9.053435896822395534e+01 -1.377614028433438165e+01 -7.180081207947148414e+01 3.101685103749847983e+01 6.322945428139813195e+00 -6.203303475043983184e+01 1.709117355222961976e+02 -3.325201797865542375e+01 1.226093512956221048e+02 -7.069910117243166781e+01 3.870766727222768111e+01 -3.642415894456312486e+01 9.022207142508216293e+01 2.368974720890453867e+01 1.165778364357676367e+02 -1.170064935524209204e+02 7.500045139436633690e+01 1.245936153267468001e+02 -4.512168474767504023e+01 7.650094364602587405e+00 -1.277619763140622133e+01 1.178453085038955521e+02 3.570538383563234497e+00 1.702657518909832106e+02 -1.427530414901900429e+02 1.178037202401170873e+02 -9.223266124458517368e+01 9.668779158876589008e+01 -1.384061804191662759e+02 2.981698458113274341e+01 2.498802415489238982e+01 1.839452984576468886e+00 3.668387410992378506e+01 4.637151278430268775e+01 -1.256308168002699510e+01 1.090839290287567387e+01 1.092242431434684846e+02 1.286143901450950011e+02 -8.759372503677009547e+01 -5.480883828799709789e+01 4.788373775911303198e+01 1.560304177700167161e+00 -1.384521925387487897e+02 -5.569266427228256333e+01 -3.586059699111962829e+01 4.947267842481386424e+01 -6.630906977136766045e+01 2.319603612819126326e+01 1.622238689249588788e+02 -8.040521509373911613e+01 8.174237949845088735e+01 8.510416264156846466e+01 1.135877449758089774e+01 1.249474991069768635e+02 6.366736529273822498e+01 1.701632930170345048e+02 -3.498367339982325319e+01 1.139223775066497524e+02 5.626699944867082337e+01 -1.629220902303976004e+01 2.068606203436918065e+02 -1.406962796182472744e+02 4.955015413849050532e+01 -1.901841568951547856e+02 -8.537223811222358449e+01 4.160628266807225373e+01 -7.324667313855985640e+01 -1.581206073200258686e+02 2.022572508761599863e+02 -8.705683643414860740e+01 -4.820172292515911749e+01 -4.697996957573798937e+01 1.235920320862867925e+02 1.977525369368172221e+02 6.574797912071269934e+01 1.484996970098396218e+02 2.228377607418807997e+02 -1.654816975762339437e+00 1.654446907257284920e+02 7.199386091109111874e+01 1.933617967625257563e+02 -1.277342534342955958e+02 -1.206074519058906702e+01 6.433053808731301615e+00 1.929267919758498238e+02 -9.232764543326594264e+01 -6.140547329428950718e+01 -5.378252018325901673e+01 -1.360438454353066788e+02 4.735157728502854546e+00 -1.025211079736838968e+02 1.565077468231719706e+02 2.394343948339018269e+01 1.220199112258748464e+01 7.344267226432809537e+01 -5.018722982225058082e+00 1.187751213302748710e+02 -1.613300734653304005e+02 4.611207090138393738e+01 -1.735394899363540731e+02 1.192659676270155131e+02 9.751785562066348234e+01 -6.837667839162870109e+01 4.749149115042493463e+01 2.418707082012516025e+02 -3.092904512436160047e+01 4.231496351523529853e+01 -3.318327690613373449e+01 5.884364918841772862e+01 6.529966166541271377e+01 -6.367560415640303617e+00 1.035261969263865325e+02 1.031096796196645755e+02 -1.969008553841478317e+02 -1.556316992811391628e+02 -1.216725451697228948e+02 -9.604778644971343482e+00 -1.521262770286735986e+02 1.173386691324575111e+02 1.120704328370837146e+02 5.987955170933997806e+01 1.133257961776960698e+01 1.601253604816577649e+02 8.525717647500616181e+01 6.853099976937288318e+01 -1.032100494915490003e+02 1.546686006505303510e+02 -3.626628815342488377e+00 1.109935857844565703e+02 8.949195671929595974e+00 3.730571054354401639e+01 -7.686210704143415740e+01 -9.213141007328511023e+01 7.266084493621343654e+01 -3.886159315892733446e+00 1.484526017933183937e+02 -1.276558203605657660e+01 -2.901758856274352372e+00 4.653193152576906044e+01 2.297886092828764859e+01 1.434833234493013094e+02 1.483759328428034152e+01 3.635609194972028746e+01 -1.569345305722028456e+02 6.679390774267393738e+01 1.355549235989637111e+02 -1.793231839469626721e+01 -2.311658085982365947e+02 8.555681028991754999e+01 1.378849301016057325e+02 2.055643060557615343e+01 1.912068488184620207e+02 -4.188878499712591186e+00 4.337594470664818402e+01 -4.404492938038978878e+01 -1.400877578400486527e+02 5.654020110223817142e+01 -4.792281115054660035e+01 -8.182649203654828796e+01 4.158692122584783135e+01 -1.864406109133472853e+02 7.235535913726917556e+01 1.657616812835881888e+02 -1.020663860223777561e+02 1.743514472634957144e+02 -9.844294122384729917e+01 -6.034558608142424951e+00 -1.059443915411105230e+01 7.716626353028966889e+01 -4.690589433769309125e+01 -1.085724719083525827e+02 -8.913523020610924164e+01 1.467293387567234220e+02 5.947971690395925748e+01 -1.325392049186708903e+02 4.471034362807122520e+00 4.369689320292197010e+01 8.304023508852195334e+01 -4.055964349369129707e+01 6.032073139291112085e+01 -6.933929313165724295e+01 -1.632224115774809547e+02 -3.481503075884201337e+01 1.416940902669871605e+02 -1.139220264698481202e+02 -6.455402094299556026e+00 -1.637068870942042338e+02 -4.790842821563574994e+00 -1.465473774955875399e+02 3.303927608940575311e+01 6.040585097721249497e+01 -5.054873467610294568e+01 -8.274602653783206563e+01 5.652665854799055367e+00 7.468832290485639192e+01 -6.803430060922721623e+01 1.352177669396695876e+02 1.058856824489250954e+02 -1.280942310515423515e+02 -1.058080425617912397e+02 1.355225440595066857e+02 7.156928953770844259e+01 1.506387356440252745e+02 1.005136479947375250e+02 8.139462838899633823e+01 -6.041402436397049058e+01 -8.197496421638567199e+01 -7.724727187726865907e+01 2.049226729939624647e+02 3.058401074962154809e+01 -2.493946002752473490e+01 -6.865000362546609836e+01 -5.009443596236032903e+01 -1.313595471105978731e+02 -1.652100868857184679e+01 -1.750118973928004493e+02 1.247292369275398727e+02 4.590858885473509332e+01 -1.149553284306594350e+02 -4.826003137575091984e+01 1.194436325428814598e+02 -9.673432266811899183e+01 1.025541158936073458e+02 -1.181370744205143097e+02 -1.173307187982025468e+01 -9.524486279133196831e+01 8.946100711175198228e+01 -4.236545228958858189e+01 1.030622564093669524e+01 2.924094690917086581e+01 -1.262920808080662169e+02 1.246615656821939311e+01 4.818472279963886962e+01 -2.234430840578660238e+01 -6.853625871630075039e+01 2.018729174536618984e+02 8.617390471896348458e+01 4.698687468880537921e+01 -3.132007046623938251e+01 7.998153936391219077e+01 1.670475376460667292e+02 -9.198618714371535532e+01 2.087532574560653984e+02 -1.326536985126180923e+02 -1.833149263449469686e+02 1.513458972402519294e+02 -2.331548537402137811e+02 -9.948405859168641951e-01 -2.440815072315064072e+02 -1.524013909963651656e+02 7.150685104982595419e+01 -1.451404953244715728e+02 5.818324653998922003e+01 1.095054649476301165e+02 -1.598270170140360449e+02 -3.003686065685685236e+01 7.513795059547102539e+01 1.334648997345156545e+02 -1.854328084774606111e+02 8.715198026436466705e+01 -9.760903565135286897e+01 -9.843272567971382614e+00 -1.384191134170994886e+01 -7.930621285536389564e+01 -9.000080377235921958e+01 1.807298828723252484e+02 -2.159666544279712497e+01 1.325654972298245138e+00 1.297814120186937146e+02 -8.639042568811234446e+01 -3.431469821768781259e+01 -1.073204203874814908e+02 -4.870098807423399734e+01 5.169975694213466255e+00 5.923643751968801041e+01 -1.348111393162214711e+02 2.368223827282548939e+02 -5.385081942293125934e+01 1.225977239922986826e+02 -4.880955197644642851e+01 1.197861209346055489e+02 1.390926050178624394e+02 4.802170481468510133e+01 1.221614980942966469e+02 -4.324886714728690862e+01 1.400592885832558068e+02 -1.565604572699457151e+02 -6.544874210273158610e+01 -6.303280384854864593e+01 2.555283911825709353e+01 -1.624828326824383282e+02 7.263696033013967224e+01 -3.087261143995338486e+01 -8.274209655402164287e+01 8.972235259885397340e+01 -1.512913085486660520e+02 -9.132701119856515959e+01 -5.266612253840220603e+01 3.312760864968755925e+01 1.299966980674174124e+02 1.170315517258774491e+02 6.922728369770469214e+01 -1.615050966120749276e+00 1.750836424056369651e+02 1.226864586398641279e+02 -9.455256421148503421e+01 -7.826359499108708917e+01 5.550316389354545521e+01 1.000266850192801371e+01 9.810025797973989370e+01 1.668651025613604304e+02 7.066565285949128850e+01 2.441151241624413970e+01 -1.023030192271506706e+02 1.719989503235773043e+02 -1.137999850699446114e+02 -1.654397742965239786e+02 6.577517702637466357e+01 1.115696700947116824e+02 1.964140412712846384e+01 -1.389361360167647774e+02 2.975677790251434729e+01 4.245296789380180513e+01 -3.121097297481639221e-01 1.309637662702488115e+02 9.760458680211019100e+01 1.710849373008816698e+01 7.835447446796514726e+01 -1.070358811563244359e+02 -6.303678093894543366e+00 9.831840092053471380e+01 2.967828534125278495e+01 -6.502299835173818110e+01 1.979699313897316415e+02 2.310191348746168956e+02 -1.254768623767239148e+02 -2.758902043710607543e+01 -2.100988699927170273e+02 -7.213594603193961063e+01 1.565144682289125058e+02 3.409008906020396523e+00 -7.092793086676505254e+01 1.636625071174369168e+02 -6.246221851124131774e+01 -1.604399371444513349e+02 1.364074463467930229e+02 -6.715088484561080406e+01 3.441062603786226504e+01 8.625700976299117428e+01 1.375959992691804068e+01 -2.379021945774301514e+02 4.222565790826574528e+01 -6.117895461921336597e+00 8.994531587381398197e+01 -2.352582108039623066e+01 1.010149202672286322e+02 1.693708188933241487e+01 -8.463562836350021712e+01 -2.044187494240969372e+01 -1.749372321438089557e+02 1.148083986924310551e+02 2.522704032249844630e+01 -4.156272378216217334e+01 -5.172877110132998979e+01 -6.276158863444485547e+01 4.102923488738763780e+01 1.604160119886929294e+02 1.324795367723604897e+02 4.300085105852585343e+01 -1.975223323684331831e+02 -3.872636079678488841e+01 4.373472270465846634e+01 1.171466360982381616e+02 8.708511532046829018e+01 1.543130801666405283e+01 -1.857263273361902804e+02 1.315003096017277926e+02 -2.233814834766340311e+02 -2.054623274255803835e+02 -1.847634854220739031e+00 -7.365324614406765136e+01 -2.403460784576992282e+01 8.698594339632163042e+01 5.582881345062355649e+01 -1.110281228280243226e+02 -1.511885503768013734e+02 1.457250020404857338e+01 1.234847891222106995e+02 2.067584971687173478e+01 -5.661534487527787718e+01 -5.152271179966641057e+01 -1.176617839698751844e+01 1.611040088857783132e+02 2.234028654740604836e+01 -1.764762520937902934e+02 1.303603282665605434e+02 -6.787793753012479669e+01 -4.244666381285757240e+00 1.565035982132916672e+02 -5.316564717424949293e+01 -1.989872335597432595e+01 -1.116413104361633515e+02 -6.108872706162816080e+00 -2.425039857001530663e+01 1.338685472389966549e+02 1.220605193976043807e+02 6.868454598988515158e+01 6.647577157361094180e+01 -1.901973880443678411e+01 1.374385751399543096e+02 -1.145847884829550196e+02 -4.334826809265034164e+00 -9.254033465293642280e+01 1.597182809755348671e+02 7.413881074073097466e+01 5.254632731921566347e+01 8.418971372765403416e+00 -5.414331648131295793e+01 3.494505537051920641e+01 6.866776705287785276e+00 3.648318713125271007e+00 2.451421135606659973e+01 6.074895089575039719e+01 1.730187672866166793e+02 -3.945057831375992663e+01 -5.283685838509486388e+01 6.786521963112257083e+01 1.175494217974733857e+02 -1.301465802721226162e+01 9.340316764840009967e+01 1.056976528764592871e+02 2.141423625554654677e+02 -8.794414206925304711e+01 -1.246725597144042581e+02 -2.909465058805909266e+01 6.313068059478565175e+01 -1.030873901240408230e+01 1.091337020631746668e+02 3.782308561551831616e+01 -1.652134909306415693e+02 4.577626183272827376e+01 -9.087255148989355291e+01 -1.374292599020899104e+02 1.366068957548311005e+02 -7.720137943861830365e+01 6.005347703185955766e+01 1.129320791174163077e+02 -1.005643507040757072e+02 2.382621875676892031e+01 -7.324756300804510545e+01 4.086336248073774158e+01 -1.162953283395838042e+02 6.248199774609647505e+01 5.547291571602044513e+01 3.990874520941153580e+00 8.531219406863543497e+01 -1.551789150702329607e+02 7.749224516569522336e+01 -2.966090557021550822e+01 -1.701624920210027483e+02 9.515088413712270210e+01 2.469125079134225587e+01 -1.975923166731749916e+02 2.369351053078541156e+02 -5.330555639610536911e-01 1.059345235911463732e+02 -1.214733949785443201e+02 -1.956061620515935715e+02 -9.398933572125304181e+01 2.488139824412401335e+00 1.439428948618848096e+02 4.047022845899364007e+00 -9.625557717967545557e+01 5.078394655272955305e+01 1.380362121806944629e+02 6.546185442350638084e+01 -5.212629328886563229e+01 -5.956511536934846163e+01 8.511980817675240019e+01 3.098244530541844100e+01 -1.969494320593671262e+02 -2.088428429884742954e+01 1.702618587219405981e+02 9.955699301287185676e+01 -5.772993452953802063e+01 -1.126121426907443777e+02 -4.299215107856198159e+01 -4.842766231043282232e+01 -1.152798095169965222e+02 -1.862933740824708195e+01 -4.599461120998595476e+01 -1.144348061539203343e+02 -1.328233868425544983e+02 -2.711435020933034679e+01 -1.265639244570167961e+02 -1.347344051685134332e+02 -3.860817437715394362e+01 -5.575893097394259712e+01 -1.117914474544810730e+02 1.942783956242974739e+02 1.099285252936315693e+01 -2.936548314670336879e+01 -1.775546728036912825e+01 8.210200286615287268e+01 1.631752403175905641e+01 2.614199464701714959e+01 -2.223110478252689859e+01 -4.823562587974074489e+01 2.183671817152071881e+01 -1.517056610992138417e+02 -1.661550177218497311e+02 -9.439838645127260008e+01 -1.991801616536124016e+02 -9.354359015583011683e+01 8.956644684836440717e+01 6.406106916394298878e+01 -2.720536167564823415e+01 6.342532268088993419e+01 -1.633836746808457008e+02 -4.258535738734477150e+01 -1.211944652356696537e+02 -6.967141490814695715e+01 2.201348589992733764e+02 -2.142543535492576154e+02 2.142360664692525347e+02 2.609908589971967530e+01 -5.895190546079489025e+01 9.629540153014278303e+01 1.295071773070347660e+02 -5.415954700850974035e+01 -2.126168682597659085e+02 -1.556150344203475697e+02 1.067307489253451820e+02 8.742344795030703608e+01 -1.415172935110363142e+02 3.336328433917092440e+01 -4.138952469700105752e+01 -8.078196765491590270e+01 -2.966519073558979969e+01 -5.723061661813963497e+01 -9.022665160327890987e+01 -3.551515882231814913e+01 4.658157672994371445e+00 -3.415321784982750586e+01 -4.220149304551288894e-01 -1.500136284485072125e+01 9.601349512703026789e+01 1.326253177508371834e+02 1.374794745766760151e+01 1.751815211675462791e+01 -6.585366799513097646e+01 -2.045751401008670314e+02 3.533561923109812142e+01 -9.575231218533082256e+01 2.695297301908794196e+01 -8.558599497002568057e+00 1.048674028291723737e+00 7.539733055457752187e+01 1.272013052787536651e+02 -7.353289712760965813e+01 3.965947383338387766e+01 -2.012461945277920563e+02 1.008551544742028128e+01 7.326829135476913279e+00 -1.278983375253622512e+02 -3.520711799950525744e+01 -4.626387355654813405e+01 4.983795813377788875e+00 -1.067249036561247237e+02 2.824036486673527691e+01 -1.019224446375048103e+02 5.859089701269926564e+01 7.080172826225930294e+01 3.848501260766368404e+01 -3.028696229755349734e+01 1.121288688128918523e+02 6.372135590204933919e+01 8.347430709418668471e+01 -6.989898895268292733e+01 2.119500919119574078e+01 1.334453898809644556e+02 -6.099689695484429564e+01 -7.210234106663202525e+00 3.337735251532250658e+01 -1.339356321866860640e+02 1.020442109918823803e+02 9.342864515655516300e+01 -1.054639488048035787e+02 -8.588824825138659946e+01 -5.789241103868797467e+01 -4.748187270354411282e+01 -1.671310832363682550e+02 -1.417268244810935585e+02 -1.381006887704693611e+02 1.101459484382143472e+02 6.229153237246075747e+01 1.662510189569330805e+02 7.495735792375286977e+00 -8.937223602072373296e+01 1.950845596514914604e+01 1.441453179316792266e+01 -6.614830535792414423e+01 7.713943184661090413e+01 1.229793665481891480e+02 1.041947793129961752e+01 1.493800229823649488e+02 2.345165514628681436e+01 1.155533371614282601e+02 1.572946647214482674e+01 -2.163368406543519882e+02 2.273545319011573724e+02 -5.094622408830883131e+01 -1.552518445063444972e+02 -6.993814537864471959e+01 -4.469617387078042725e+01 4.282863149802599878e+01 2.649777859525562462e+01 4.734627468607150291e+01 -7.672672269701337200e+01 1.266327726091443822e+02 -8.924077052396583554e+01 -7.250350828443406392e+00 1.473341558881628544e+02 1.133505902312579394e+02 5.993182953588694772e+01 -1.829074365589649176e+02 2.627192584613790061e+01 1.450136294227134215e+02 2.419921624642892866e+01 1.007071940889603354e+02 1.097971399530669743e+02 -2.179697299813649352e+02 7.929609669549829221e+01 -5.951959594682608667e+01 -2.316890569069282151e+02 9.111446631967885423e+01 2.529027284729964720e+01 -1.250008734665521075e+02 -5.990964980429086495e+01 1.418228527320696628e+02 1.504969747091531076e+02 -7.723479129883450867e+01 -1.300592184281534287e+02 -8.483354465879600070e+01 -1.684622245282714914e+02 1.984540610139320549e+01 3.843526751246665896e+01 -1.714728197276173560e+01 -1.252063246691846743e+01 -9.046194584525510152e+01 -8.927217066558529268e+01 -2.486599885104057606e+01 1.347407432640074205e+02 1.369739551008310912e+02 8.149309673396977871e+01 9.742470181891691539e+01 -7.882345236915726616e+01 -1.808492450934796523e+02 -1.325746169575413269e+01 -2.318870962349540932e+01 -7.097594118521256235e+01 1.501867393176995691e+00 7.304505613183748380e+01 -5.290583142967646069e+01 2.461125128984808086e+01 7.913812310901974456e+01 7.005930750647647187e+01 1.104602286602948311e+02 -1.491135146523852768e+02 3.962390565446823132e+01 8.326866627613993899e+01 9.471007729679612908e+01 5.904789702205200541e+01 -1.031869188444945564e+02 1.368699498783785771e+02 1.273857389792806742e+02 9.578100403769374793e+01 1.014754816379223712e+02 -8.418647103464805070e+01 -1.486914944094405477e+01 -1.291308863617429736e+01 7.702716784838612796e+01 6.493187725347402761e+01 5.592379859726509039e+01 9.754086008529998253e+01 1.164056898705430712e+02 1.237909895778083893e+02 -6.489238619525637830e+01 8.054839466272190407e+01 6.521869933276975928e+01 -1.175959929745187793e+02 1.315353044580585902e+02 -1.003902935795527362e+01 -2.790435039970302711e+01 1.992102575608054451e+02 8.844573521326508114e+01 1.240857273928659055e+02 -1.443425369729560259e+02 -1.578183958114716461e+02 -1.538317121238018501e+02 -1.222499937777849368e+02 -4.431706112529324315e+01 1.099336347736599890e+02 -1.688414091771448682e+02 3.258155898579384058e+01 1.445776273837564645e+02 -5.944132678610606035e+01 -9.153157723331780460e+01 -3.518112759691138791e+01 1.362074000164653569e+02 2.278799107819580172e+02 -6.680710251433247038e+01 1.986767609394265577e+01 -2.778649933232903635e+01 6.870093663316211519e+01 6.046453959501420883e+01 -2.139541152164673292e+02 -8.897427600728917696e+01 1.380764304184851028e+02 1.403339443143638050e+02 9.490821805730158189e+01 -4.999779953169922919e+01 -7.612993904275333534e+01 -4.561358276216378016e+01 -1.772864601951901307e+02 7.148575382735518247e+01 -2.579486408143651488e+01 1.671635363316539440e+02 -2.805413398799883495e+01 -3.160712723913155742e+02 1.456009857119186108e+02 5.057375146023557022e+01 -1.185788805813942588e+02 -2.224870744058576832e+01 3.550273544230691414e+01 -2.087736952846024963e+02 -1.149090326359255414e+02 -1.101822472481750879e+02 -5.676153004002080138e+01 6.316693799855505631e+01 -1.657450253323908669e+02 1.085619955496140818e+02 -5.462788027968509397e+01 2.921859976636607126e+00 -1.342021348552134725e+02 -1.041943971152115722e+02 1.769179877149646529e+02 8.718730576850819602e+01 -4.249605696027254709e+01 3.741554619044338637e+01 -2.823932762523518392e+01 4.348751668954377436e+01 -1.052886213325492548e+02 9.946311329827759096e+01 5.084840283781363013e+01 -1.196981521984136378e+02 1.175401430872194766e+02 -4.948006602851791769e+01 1.005963722548949733e+02 -4.975273870774812934e+01 8.900651130547633727e+01 -1.544892523805708606e+02 1.436997798692115964e+02 2.495129900087631114e+01 1.013603773829051136e+02 1.313565141393407885e+02 -1.477194925481083203e+02 -8.652993613744055779e+01 -1.064156167758978029e+02 6.738527395762292826e+01 -1.726440537266661011e+02 1.526253151712232068e+02 1.435050724878843766e+02 5.339938890693309759e+01 -8.555981014704097731e+01 5.750084597647920504e+01 -1.081393705962398144e+02 -1.104890057015795257e+01 3.527274465452140362e+01 -1.852263633595069621e+02 -8.226426839320131990e+01 -1.364631599184554922e+01 1.030630598342261095e+02 -5.062255085235266705e+01 1.096061805848643900e+02 -6.489116161823156403e+01 -2.126306762314079037e+02 -1.080259358709801774e+02 -3.438613855814304543e+01 -6.072486748970973025e+01 3.037132632463544013e+01 5.182638148842763570e+01 6.411549414037319927e+00 2.551816090267814374e+01 -1.183649735799930625e+02 5.432088935267806562e+01 3.293144138165828139e+01 -7.287653250900774538e+01 9.342251528970647811e+00 5.684315762879191425e+01 -9.633904796748952037e+01 -5.560592410006643860e+01 -2.437064206802758903e+01 9.857072765819708593e+01 -1.729876504147516769e+01 4.234601063754094952e+00 -2.303408756885161779e+02 -9.601188430660144491e+01 9.993612821972294569e+01 -9.016724598714918670e+01 3.166556921790898116e+01 3.139032370053602250e+01 3.834386042060818767e+01 6.677709857472898136e+01 -1.793205384567829128e+02 1.454812473026127577e+02 8.231857501015954881e+01 -7.588431444428553441e+00 -8.166808747614182096e+01 1.131288274496169919e+02 6.275908188710236857e+01 -2.032394092323856967e+02 -5.093276601322141772e+01 -8.256256323477086312e+01 -5.241393183605832462e+01 -6.262185125358798388e+01 -1.001468119881242131e+02 -6.103286266685906725e+01 1.935686707519955121e+02 -1.726651000744724342e+02 6.620701553054283295e+01 2.804517131111515482e+01 -7.599930653298434891e+01 1.049240250712869660e+01 -3.984447459626031929e+01 3.462013915103464345e+00 -9.718770964584652461e+01 -1.997351162586992928e+02 1.859679941713197948e+01 4.238504275733156135e+01 -1.294280878475422014e+01 -9.138656519062086758e+00 -4.022612213478330290e+01 -1.920673001064989478e+02 -3.100001885073654506e+01 -6.610550289989238593e+01 1.413483436766128243e+01 -1.578434609016280099e+01 9.156095121036750584e+01 -6.374682728392544107e+01 -1.048822656683239387e+02 -3.616446956231553855e+01 -9.126960320109084535e+00 4.604475936781502554e+01 -2.240243620134615554e+01 -7.456051800106710914e+01 -1.605295508811297722e+01 2.030415012759086579e+01 4.805092327654541862e+01 -1.153409460238328563e+02 -1.406504490812331198e+02 2.330193704894144844e+02 -2.208182711860091274e+02 -7.685008203040496255e+01 -4.689520004322142910e+01 1.415108869775735059e+02 6.402967749679719134e+01 2.315498779331649644e+02 2.476383098086307371e+02 -6.306522041552440783e+01 1.310168384387167180e+02 -5.659713364206532304e+01 -4.129195137254686188e+01 -1.018557489456476475e+02 -8.079582807587098614e+01 -7.041018351389648444e+01 -9.004786751633544384e+01 -2.466806280553698798e+02 -2.741189144425766813e+02 1.363140602257403202e+02 -2.684231322291358524e+01 5.390092267149750427e+01 1.324208720182183754e+02
