# 
#                 ----------------------------------------------------
#                 Data from a 3D direct N-body simulation. 
# 
#                 rows are i-particle; 
#                 coumns are :mass, tag, x ,y, z, vx, vy, vz, ax, ay, az
# 
#                 NTHU, Computational Physics Lab
# 
#                 ----------------------------------------------------
#                 Time = 9.59999999999984
1.000000000000000000e+00 2.000000000000000000e+00 3.000000000000000000e+00 4.000000000000000000e+00 5.000000000000000000e+00 6.000000000000000000e+00 7.000000000000000000e+00 8.000000000000000000e+00 9.000000000000000000e+00 1.000000000000000000e+01 1.100000000000000000e+01 1.200000000000000000e+01 1.300000000000000000e+01 1.400000000000000000e+01 1.500000000000000000e+01 1.600000000000000000e+01 1.700000000000000000e+01 1.800000000000000000e+01 1.900000000000000000e+01 2.000000000000000000e+01 2.100000000000000000e+01 2.200000000000000000e+01 2.300000000000000000e+01 2.400000000000000000e+01 2.500000000000000000e+01 2.600000000000000000e+01 2.700000000000000000e+01 2.800000000000000000e+01 2.900000000000000000e+01 3.000000000000000000e+01 3.100000000000000000e+01 3.200000000000000000e+01 3.300000000000000000e+01 3.400000000000000000e+01 3.500000000000000000e+01 3.600000000000000000e+01 3.700000000000000000e+01 3.800000000000000000e+01 3.900000000000000000e+01 4.000000000000000000e+01 4.100000000000000000e+01 4.200000000000000000e+01 4.300000000000000000e+01 4.400000000000000000e+01 4.500000000000000000e+01 4.600000000000000000e+01 4.700000000000000000e+01 4.800000000000000000e+01 4.900000000000000000e+01 5.000000000000000000e+01 5.100000000000000000e+01 5.200000000000000000e+01 5.300000000000000000e+01 5.400000000000000000e+01 5.500000000000000000e+01 5.600000000000000000e+01 5.700000000000000000e+01 5.800000000000000000e+01 5.900000000000000000e+01 6.000000000000000000e+01 6.100000000000000000e+01 6.200000000000000000e+01 6.300000000000000000e+01 6.400000000000000000e+01 6.500000000000000000e+01 6.600000000000000000e+01 6.700000000000000000e+01 6.800000000000000000e+01 6.900000000000000000e+01 7.000000000000000000e+01 7.100000000000000000e+01 7.200000000000000000e+01 7.300000000000000000e+01 7.400000000000000000e+01 7.500000000000000000e+01 7.600000000000000000e+01 7.700000000000000000e+01 7.800000000000000000e+01 7.900000000000000000e+01 8.000000000000000000e+01 8.100000000000000000e+01 8.200000000000000000e+01 8.300000000000000000e+01 8.400000000000000000e+01 8.500000000000000000e+01 8.600000000000000000e+01 8.700000000000000000e+01 8.800000000000000000e+01 8.900000000000000000e+01 9.000000000000000000e+01 9.100000000000000000e+01 9.200000000000000000e+01 9.300000000000000000e+01 9.400000000000000000e+01 9.500000000000000000e+01 9.600000000000000000e+01 9.700000000000000000e+01 9.800000000000000000e+01 9.900000000000000000e+01 1.000000000000000000e+02 1.010000000000000000e+02 1.020000000000000000e+02 1.030000000000000000e+02 1.040000000000000000e+02 1.050000000000000000e+02 1.060000000000000000e+02 1.070000000000000000e+02 1.080000000000000000e+02 1.090000000000000000e+02 1.100000000000000000e+02 1.110000000000000000e+02 1.120000000000000000e+02 1.130000000000000000e+02 1.140000000000000000e+02 1.150000000000000000e+02 1.160000000000000000e+02 1.170000000000000000e+02 1.180000000000000000e+02 1.190000000000000000e+02 1.200000000000000000e+02 1.210000000000000000e+02 1.220000000000000000e+02 1.230000000000000000e+02 1.240000000000000000e+02 1.250000000000000000e+02 1.260000000000000000e+02 1.270000000000000000e+02 1.280000000000000000e+02 1.290000000000000000e+02 1.300000000000000000e+02 1.310000000000000000e+02 1.320000000000000000e+02 1.330000000000000000e+02 1.340000000000000000e+02 1.350000000000000000e+02 1.360000000000000000e+02 1.370000000000000000e+02 1.380000000000000000e+02 1.390000000000000000e+02 1.400000000000000000e+02 1.410000000000000000e+02 1.420000000000000000e+02 1.430000000000000000e+02 1.440000000000000000e+02 1.450000000000000000e+02 1.460000000000000000e+02 1.470000000000000000e+02 1.480000000000000000e+02 1.490000000000000000e+02 1.500000000000000000e+02 1.510000000000000000e+02 1.520000000000000000e+02 1.530000000000000000e+02 1.540000000000000000e+02 1.550000000000000000e+02 1.560000000000000000e+02 1.570000000000000000e+02 1.580000000000000000e+02 1.590000000000000000e+02 1.600000000000000000e+02 1.610000000000000000e+02 1.620000000000000000e+02 1.630000000000000000e+02 1.640000000000000000e+02 1.650000000000000000e+02 1.660000000000000000e+02 1.670000000000000000e+02 1.680000000000000000e+02 1.690000000000000000e+02 1.700000000000000000e+02 1.710000000000000000e+02 1.720000000000000000e+02 1.730000000000000000e+02 1.740000000000000000e+02 1.750000000000000000e+02 1.760000000000000000e+02 1.770000000000000000e+02 1.780000000000000000e+02 1.790000000000000000e+02 1.800000000000000000e+02 1.810000000000000000e+02 1.820000000000000000e+02 1.830000000000000000e+02 1.840000000000000000e+02 1.850000000000000000e+02 1.860000000000000000e+02 1.870000000000000000e+02 1.880000000000000000e+02 1.890000000000000000e+02 1.900000000000000000e+02 1.910000000000000000e+02 1.920000000000000000e+02 1.930000000000000000e+02 1.940000000000000000e+02 1.950000000000000000e+02 1.960000000000000000e+02 1.970000000000000000e+02 1.980000000000000000e+02 1.990000000000000000e+02 2.000000000000000000e+02 2.010000000000000000e+02 2.020000000000000000e+02 2.030000000000000000e+02 2.040000000000000000e+02 2.050000000000000000e+02 2.060000000000000000e+02 2.070000000000000000e+02 2.080000000000000000e+02 2.090000000000000000e+02 2.100000000000000000e+02 2.110000000000000000e+02 2.120000000000000000e+02 2.130000000000000000e+02 2.140000000000000000e+02 2.150000000000000000e+02 2.160000000000000000e+02 2.170000000000000000e+02 2.180000000000000000e+02 2.190000000000000000e+02 2.200000000000000000e+02 2.210000000000000000e+02 2.220000000000000000e+02 2.230000000000000000e+02 2.240000000000000000e+02 2.250000000000000000e+02 2.260000000000000000e+02 2.270000000000000000e+02 2.280000000000000000e+02 2.290000000000000000e+02 2.300000000000000000e+02 2.310000000000000000e+02 2.320000000000000000e+02 2.330000000000000000e+02 2.340000000000000000e+02 2.350000000000000000e+02 2.360000000000000000e+02 2.370000000000000000e+02 2.380000000000000000e+02 2.390000000000000000e+02 2.400000000000000000e+02 2.410000000000000000e+02 2.420000000000000000e+02 2.430000000000000000e+02 2.440000000000000000e+02 2.450000000000000000e+02 2.460000000000000000e+02 2.470000000000000000e+02 2.480000000000000000e+02 2.490000000000000000e+02 2.500000000000000000e+02 2.510000000000000000e+02 2.520000000000000000e+02 2.530000000000000000e+02 2.540000000000000000e+02 2.550000000000000000e+02 2.560000000000000000e+02 2.570000000000000000e+02 2.580000000000000000e+02 2.590000000000000000e+02 2.600000000000000000e+02 2.610000000000000000e+02 2.620000000000000000e+02 2.630000000000000000e+02 2.640000000000000000e+02 2.650000000000000000e+02 2.660000000000000000e+02 2.670000000000000000e+02 2.680000000000000000e+02 2.690000000000000000e+02 2.700000000000000000e+02 2.710000000000000000e+02 2.720000000000000000e+02 2.730000000000000000e+02 2.740000000000000000e+02 2.750000000000000000e+02 2.760000000000000000e+02 2.770000000000000000e+02 2.780000000000000000e+02 2.790000000000000000e+02 2.800000000000000000e+02 2.810000000000000000e+02 2.820000000000000000e+02 2.830000000000000000e+02 2.840000000000000000e+02 2.850000000000000000e+02 2.860000000000000000e+02 2.870000000000000000e+02 2.880000000000000000e+02 2.890000000000000000e+02 2.900000000000000000e+02 2.910000000000000000e+02 2.920000000000000000e+02 2.930000000000000000e+02 2.940000000000000000e+02 2.950000000000000000e+02 2.960000000000000000e+02 2.970000000000000000e+02 2.980000000000000000e+02 2.990000000000000000e+02 3.000000000000000000e+02 3.010000000000000000e+02 3.020000000000000000e+02 3.030000000000000000e+02 3.040000000000000000e+02 3.050000000000000000e+02 3.060000000000000000e+02 3.070000000000000000e+02 3.080000000000000000e+02 3.090000000000000000e+02 3.100000000000000000e+02 3.110000000000000000e+02 3.120000000000000000e+02 3.130000000000000000e+02 3.140000000000000000e+02 3.150000000000000000e+02 3.160000000000000000e+02 3.170000000000000000e+02 3.180000000000000000e+02 3.190000000000000000e+02 3.200000000000000000e+02 3.210000000000000000e+02 3.220000000000000000e+02 3.230000000000000000e+02 3.240000000000000000e+02 3.250000000000000000e+02 3.260000000000000000e+02 3.270000000000000000e+02 3.280000000000000000e+02 3.290000000000000000e+02 3.300000000000000000e+02 3.310000000000000000e+02 3.320000000000000000e+02 3.330000000000000000e+02 3.340000000000000000e+02 3.350000000000000000e+02 3.360000000000000000e+02 3.370000000000000000e+02 3.380000000000000000e+02 3.390000000000000000e+02 3.400000000000000000e+02 3.410000000000000000e+02 3.420000000000000000e+02 3.430000000000000000e+02 3.440000000000000000e+02 3.450000000000000000e+02 3.460000000000000000e+02 3.470000000000000000e+02 3.480000000000000000e+02 3.490000000000000000e+02 3.500000000000000000e+02 3.510000000000000000e+02 3.520000000000000000e+02 3.530000000000000000e+02 3.540000000000000000e+02 3.550000000000000000e+02 3.560000000000000000e+02 3.570000000000000000e+02 3.580000000000000000e+02 3.590000000000000000e+02 3.600000000000000000e+02 3.610000000000000000e+02 3.620000000000000000e+02 3.630000000000000000e+02 3.640000000000000000e+02 3.650000000000000000e+02 3.660000000000000000e+02 3.670000000000000000e+02 3.680000000000000000e+02 3.690000000000000000e+02 3.700000000000000000e+02 3.710000000000000000e+02 3.720000000000000000e+02 3.730000000000000000e+02 3.740000000000000000e+02 3.750000000000000000e+02 3.760000000000000000e+02 3.770000000000000000e+02 3.780000000000000000e+02 3.790000000000000000e+02 3.800000000000000000e+02 3.810000000000000000e+02 3.820000000000000000e+02 3.830000000000000000e+02 3.840000000000000000e+02 3.850000000000000000e+02 3.860000000000000000e+02 3.870000000000000000e+02 3.880000000000000000e+02 3.890000000000000000e+02 3.900000000000000000e+02 3.910000000000000000e+02 3.920000000000000000e+02 3.930000000000000000e+02 3.940000000000000000e+02 3.950000000000000000e+02 3.960000000000000000e+02 3.970000000000000000e+02 3.980000000000000000e+02 3.990000000000000000e+02 4.000000000000000000e+02 4.010000000000000000e+02 4.020000000000000000e+02 4.030000000000000000e+02 4.040000000000000000e+02 4.050000000000000000e+02 4.060000000000000000e+02 4.070000000000000000e+02 4.080000000000000000e+02 4.090000000000000000e+02 4.100000000000000000e+02 4.110000000000000000e+02 4.120000000000000000e+02 4.130000000000000000e+02 4.140000000000000000e+02 4.150000000000000000e+02 4.160000000000000000e+02 4.170000000000000000e+02 4.180000000000000000e+02 4.190000000000000000e+02 4.200000000000000000e+02 4.210000000000000000e+02 4.220000000000000000e+02 4.230000000000000000e+02 4.240000000000000000e+02 4.250000000000000000e+02 4.260000000000000000e+02 4.270000000000000000e+02 4.280000000000000000e+02 4.290000000000000000e+02 4.300000000000000000e+02 4.310000000000000000e+02 4.320000000000000000e+02 4.330000000000000000e+02 4.340000000000000000e+02 4.350000000000000000e+02 4.360000000000000000e+02 4.370000000000000000e+02 4.380000000000000000e+02 4.390000000000000000e+02 4.400000000000000000e+02 4.410000000000000000e+02 4.420000000000000000e+02 4.430000000000000000e+02 4.440000000000000000e+02 4.450000000000000000e+02 4.460000000000000000e+02 4.470000000000000000e+02 4.480000000000000000e+02 4.490000000000000000e+02 4.500000000000000000e+02 4.510000000000000000e+02 4.520000000000000000e+02 4.530000000000000000e+02 4.540000000000000000e+02 4.550000000000000000e+02 4.560000000000000000e+02 4.570000000000000000e+02 4.580000000000000000e+02 4.590000000000000000e+02 4.600000000000000000e+02 4.610000000000000000e+02 4.620000000000000000e+02 4.630000000000000000e+02 4.640000000000000000e+02 4.650000000000000000e+02 4.660000000000000000e+02 4.670000000000000000e+02 4.680000000000000000e+02 4.690000000000000000e+02 4.700000000000000000e+02 4.710000000000000000e+02 4.720000000000000000e+02 4.730000000000000000e+02 4.740000000000000000e+02 4.750000000000000000e+02 4.760000000000000000e+02 4.770000000000000000e+02 4.780000000000000000e+02 4.790000000000000000e+02 4.800000000000000000e+02 4.810000000000000000e+02 4.820000000000000000e+02 4.830000000000000000e+02 4.840000000000000000e+02 4.850000000000000000e+02 4.860000000000000000e+02 4.870000000000000000e+02 4.880000000000000000e+02 4.890000000000000000e+02 4.900000000000000000e+02 4.910000000000000000e+02 4.920000000000000000e+02 4.930000000000000000e+02 4.940000000000000000e+02 4.950000000000000000e+02 4.960000000000000000e+02 4.970000000000000000e+02 4.980000000000000000e+02 4.990000000000000000e+02 5.000000000000000000e+02 5.010000000000000000e+02 5.020000000000000000e+02 5.030000000000000000e+02 5.040000000000000000e+02 5.050000000000000000e+02 5.060000000000000000e+02 5.070000000000000000e+02 5.080000000000000000e+02 5.090000000000000000e+02 5.100000000000000000e+02 5.110000000000000000e+02 5.120000000000000000e+02 5.130000000000000000e+02 5.140000000000000000e+02 5.150000000000000000e+02 5.160000000000000000e+02 5.170000000000000000e+02 5.180000000000000000e+02 5.190000000000000000e+02 5.200000000000000000e+02 5.210000000000000000e+02 5.220000000000000000e+02 5.230000000000000000e+02 5.240000000000000000e+02 5.250000000000000000e+02 5.260000000000000000e+02 5.270000000000000000e+02 5.280000000000000000e+02 5.290000000000000000e+02 5.300000000000000000e+02 5.310000000000000000e+02 5.320000000000000000e+02 5.330000000000000000e+02 5.340000000000000000e+02 5.350000000000000000e+02 5.360000000000000000e+02 5.370000000000000000e+02 5.380000000000000000e+02 5.390000000000000000e+02 5.400000000000000000e+02 5.410000000000000000e+02 5.420000000000000000e+02 5.430000000000000000e+02 5.440000000000000000e+02 5.450000000000000000e+02 5.460000000000000000e+02 5.470000000000000000e+02 5.480000000000000000e+02 5.490000000000000000e+02 5.500000000000000000e+02 5.510000000000000000e+02 5.520000000000000000e+02 5.530000000000000000e+02 5.540000000000000000e+02 5.550000000000000000e+02 5.560000000000000000e+02 5.570000000000000000e+02 5.580000000000000000e+02 5.590000000000000000e+02 5.600000000000000000e+02 5.610000000000000000e+02 5.620000000000000000e+02 5.630000000000000000e+02 5.640000000000000000e+02 5.650000000000000000e+02 5.660000000000000000e+02 5.670000000000000000e+02 5.680000000000000000e+02 5.690000000000000000e+02 5.700000000000000000e+02 5.710000000000000000e+02 5.720000000000000000e+02 5.730000000000000000e+02 5.740000000000000000e+02 5.750000000000000000e+02 5.760000000000000000e+02 5.770000000000000000e+02 5.780000000000000000e+02 5.790000000000000000e+02 5.800000000000000000e+02 5.810000000000000000e+02 5.820000000000000000e+02 5.830000000000000000e+02 5.840000000000000000e+02 5.850000000000000000e+02 5.860000000000000000e+02 5.870000000000000000e+02 5.880000000000000000e+02 5.890000000000000000e+02 5.900000000000000000e+02 5.910000000000000000e+02 5.920000000000000000e+02 5.930000000000000000e+02 5.940000000000000000e+02 5.950000000000000000e+02 5.960000000000000000e+02 5.970000000000000000e+02 5.980000000000000000e+02 5.990000000000000000e+02 6.000000000000000000e+02 6.010000000000000000e+02 6.020000000000000000e+02 6.030000000000000000e+02 6.040000000000000000e+02 6.050000000000000000e+02 6.060000000000000000e+02 6.070000000000000000e+02 6.080000000000000000e+02 6.090000000000000000e+02 6.100000000000000000e+02 6.110000000000000000e+02 6.120000000000000000e+02 6.130000000000000000e+02 6.140000000000000000e+02 6.150000000000000000e+02 6.160000000000000000e+02 6.170000000000000000e+02 6.180000000000000000e+02 6.190000000000000000e+02 6.200000000000000000e+02 6.210000000000000000e+02 6.220000000000000000e+02 6.230000000000000000e+02 6.240000000000000000e+02 6.250000000000000000e+02 6.260000000000000000e+02 6.270000000000000000e+02 6.280000000000000000e+02 6.290000000000000000e+02 6.300000000000000000e+02 6.310000000000000000e+02 6.320000000000000000e+02 6.330000000000000000e+02 6.340000000000000000e+02 6.350000000000000000e+02 6.360000000000000000e+02 6.370000000000000000e+02 6.380000000000000000e+02 6.390000000000000000e+02 6.400000000000000000e+02 6.410000000000000000e+02 6.420000000000000000e+02 6.430000000000000000e+02 6.440000000000000000e+02 6.450000000000000000e+02 6.460000000000000000e+02 6.470000000000000000e+02 6.480000000000000000e+02 6.490000000000000000e+02 6.500000000000000000e+02 6.510000000000000000e+02 6.520000000000000000e+02 6.530000000000000000e+02 6.540000000000000000e+02 6.550000000000000000e+02 6.560000000000000000e+02 6.570000000000000000e+02 6.580000000000000000e+02 6.590000000000000000e+02 6.600000000000000000e+02 6.610000000000000000e+02 6.620000000000000000e+02 6.630000000000000000e+02 6.640000000000000000e+02 6.650000000000000000e+02 6.660000000000000000e+02 6.670000000000000000e+02 6.680000000000000000e+02 6.690000000000000000e+02 6.700000000000000000e+02 6.710000000000000000e+02 6.720000000000000000e+02 6.730000000000000000e+02 6.740000000000000000e+02 6.750000000000000000e+02 6.760000000000000000e+02 6.770000000000000000e+02 6.780000000000000000e+02 6.790000000000000000e+02 6.800000000000000000e+02 6.810000000000000000e+02 6.820000000000000000e+02 6.830000000000000000e+02 6.840000000000000000e+02 6.850000000000000000e+02 6.860000000000000000e+02 6.870000000000000000e+02 6.880000000000000000e+02 6.890000000000000000e+02 6.900000000000000000e+02 6.910000000000000000e+02 6.920000000000000000e+02 6.930000000000000000e+02 6.940000000000000000e+02 6.950000000000000000e+02 6.960000000000000000e+02 6.970000000000000000e+02 6.980000000000000000e+02 6.990000000000000000e+02 7.000000000000000000e+02 7.010000000000000000e+02 7.020000000000000000e+02 7.030000000000000000e+02 7.040000000000000000e+02 7.050000000000000000e+02 7.060000000000000000e+02 7.070000000000000000e+02 7.080000000000000000e+02 7.090000000000000000e+02 7.100000000000000000e+02 7.110000000000000000e+02 7.120000000000000000e+02 7.130000000000000000e+02 7.140000000000000000e+02 7.150000000000000000e+02 7.160000000000000000e+02 7.170000000000000000e+02 7.180000000000000000e+02 7.190000000000000000e+02 7.200000000000000000e+02 7.210000000000000000e+02 7.220000000000000000e+02 7.230000000000000000e+02 7.240000000000000000e+02 7.250000000000000000e+02 7.260000000000000000e+02 7.270000000000000000e+02 7.280000000000000000e+02 7.290000000000000000e+02 7.300000000000000000e+02 7.310000000000000000e+02 7.320000000000000000e+02 7.330000000000000000e+02 7.340000000000000000e+02 7.350000000000000000e+02 7.360000000000000000e+02 7.370000000000000000e+02 7.380000000000000000e+02 7.390000000000000000e+02 7.400000000000000000e+02 7.410000000000000000e+02 7.420000000000000000e+02 7.430000000000000000e+02 7.440000000000000000e+02 7.450000000000000000e+02 7.460000000000000000e+02 7.470000000000000000e+02 7.480000000000000000e+02 7.490000000000000000e+02 7.500000000000000000e+02 7.510000000000000000e+02 7.520000000000000000e+02 7.530000000000000000e+02 7.540000000000000000e+02 7.550000000000000000e+02 7.560000000000000000e+02 7.570000000000000000e+02 7.580000000000000000e+02 7.590000000000000000e+02 7.600000000000000000e+02 7.610000000000000000e+02 7.620000000000000000e+02 7.630000000000000000e+02 7.640000000000000000e+02 7.650000000000000000e+02 7.660000000000000000e+02 7.670000000000000000e+02 7.680000000000000000e+02 7.690000000000000000e+02 7.700000000000000000e+02 7.710000000000000000e+02 7.720000000000000000e+02 7.730000000000000000e+02 7.740000000000000000e+02 7.750000000000000000e+02 7.760000000000000000e+02 7.770000000000000000e+02 7.780000000000000000e+02 7.790000000000000000e+02 7.800000000000000000e+02 7.810000000000000000e+02 7.820000000000000000e+02 7.830000000000000000e+02 7.840000000000000000e+02 7.850000000000000000e+02 7.860000000000000000e+02 7.870000000000000000e+02 7.880000000000000000e+02 7.890000000000000000e+02 7.900000000000000000e+02 7.910000000000000000e+02 7.920000000000000000e+02 7.930000000000000000e+02 7.940000000000000000e+02 7.950000000000000000e+02 7.960000000000000000e+02 7.970000000000000000e+02 7.980000000000000000e+02 7.990000000000000000e+02 8.000000000000000000e+02 8.010000000000000000e+02 8.020000000000000000e+02 8.030000000000000000e+02 8.040000000000000000e+02 8.050000000000000000e+02 8.060000000000000000e+02 8.070000000000000000e+02 8.080000000000000000e+02 8.090000000000000000e+02 8.100000000000000000e+02 8.110000000000000000e+02 8.120000000000000000e+02 8.130000000000000000e+02 8.140000000000000000e+02 8.150000000000000000e+02 8.160000000000000000e+02 8.170000000000000000e+02 8.180000000000000000e+02 8.190000000000000000e+02 8.200000000000000000e+02 8.210000000000000000e+02 8.220000000000000000e+02 8.230000000000000000e+02 8.240000000000000000e+02 8.250000000000000000e+02 8.260000000000000000e+02 8.270000000000000000e+02 8.280000000000000000e+02 8.290000000000000000e+02 8.300000000000000000e+02 8.310000000000000000e+02 8.320000000000000000e+02 8.330000000000000000e+02 8.340000000000000000e+02 8.350000000000000000e+02 8.360000000000000000e+02 8.370000000000000000e+02 8.380000000000000000e+02 8.390000000000000000e+02 8.400000000000000000e+02 8.410000000000000000e+02 8.420000000000000000e+02 8.430000000000000000e+02 8.440000000000000000e+02 8.450000000000000000e+02 8.460000000000000000e+02 8.470000000000000000e+02 8.480000000000000000e+02 8.490000000000000000e+02 8.500000000000000000e+02 8.510000000000000000e+02 8.520000000000000000e+02 8.530000000000000000e+02 8.540000000000000000e+02 8.550000000000000000e+02 8.560000000000000000e+02 8.570000000000000000e+02 8.580000000000000000e+02 8.590000000000000000e+02 8.600000000000000000e+02 8.610000000000000000e+02 8.620000000000000000e+02 8.630000000000000000e+02 8.640000000000000000e+02 8.650000000000000000e+02 8.660000000000000000e+02 8.670000000000000000e+02 8.680000000000000000e+02 8.690000000000000000e+02 8.700000000000000000e+02 8.710000000000000000e+02 8.720000000000000000e+02 8.730000000000000000e+02 8.740000000000000000e+02 8.750000000000000000e+02 8.760000000000000000e+02 8.770000000000000000e+02 8.780000000000000000e+02 8.790000000000000000e+02 8.800000000000000000e+02 8.810000000000000000e+02 8.820000000000000000e+02 8.830000000000000000e+02 8.840000000000000000e+02 8.850000000000000000e+02 8.860000000000000000e+02 8.870000000000000000e+02 8.880000000000000000e+02 8.890000000000000000e+02 8.900000000000000000e+02 8.910000000000000000e+02 8.920000000000000000e+02 8.930000000000000000e+02 8.940000000000000000e+02 8.950000000000000000e+02 8.960000000000000000e+02 8.970000000000000000e+02 8.980000000000000000e+02 8.990000000000000000e+02 9.000000000000000000e+02 9.010000000000000000e+02 9.020000000000000000e+02 9.030000000000000000e+02 9.040000000000000000e+02 9.050000000000000000e+02 9.060000000000000000e+02 9.070000000000000000e+02 9.080000000000000000e+02 9.090000000000000000e+02 9.100000000000000000e+02 9.110000000000000000e+02 9.120000000000000000e+02 9.130000000000000000e+02 9.140000000000000000e+02 9.150000000000000000e+02 9.160000000000000000e+02 9.170000000000000000e+02 9.180000000000000000e+02 9.190000000000000000e+02 9.200000000000000000e+02 9.210000000000000000e+02 9.220000000000000000e+02 9.230000000000000000e+02 9.240000000000000000e+02 9.250000000000000000e+02 9.260000000000000000e+02 9.270000000000000000e+02 9.280000000000000000e+02 9.290000000000000000e+02 9.300000000000000000e+02 9.310000000000000000e+02 9.320000000000000000e+02 9.330000000000000000e+02 9.340000000000000000e+02 9.350000000000000000e+02 9.360000000000000000e+02 9.370000000000000000e+02 9.380000000000000000e+02 9.390000000000000000e+02 9.400000000000000000e+02 9.410000000000000000e+02 9.420000000000000000e+02 9.430000000000000000e+02 9.440000000000000000e+02 9.450000000000000000e+02 9.460000000000000000e+02 9.470000000000000000e+02 9.480000000000000000e+02 9.490000000000000000e+02 9.500000000000000000e+02 9.510000000000000000e+02 9.520000000000000000e+02 9.530000000000000000e+02 9.540000000000000000e+02 9.550000000000000000e+02 9.560000000000000000e+02 9.570000000000000000e+02 9.580000000000000000e+02 9.590000000000000000e+02 9.600000000000000000e+02 9.610000000000000000e+02 9.620000000000000000e+02 9.630000000000000000e+02 9.640000000000000000e+02 9.650000000000000000e+02 9.660000000000000000e+02 9.670000000000000000e+02 9.680000000000000000e+02 9.690000000000000000e+02 9.700000000000000000e+02 9.710000000000000000e+02 9.720000000000000000e+02 9.730000000000000000e+02 9.740000000000000000e+02 9.750000000000000000e+02 9.760000000000000000e+02 9.770000000000000000e+02 9.780000000000000000e+02 9.790000000000000000e+02 9.800000000000000000e+02 9.810000000000000000e+02 9.820000000000000000e+02 9.830000000000000000e+02 9.840000000000000000e+02 9.850000000000000000e+02 9.860000000000000000e+02 9.870000000000000000e+02 9.880000000000000000e+02 9.890000000000000000e+02 9.900000000000000000e+02 9.910000000000000000e+02 9.920000000000000000e+02 9.930000000000000000e+02 9.940000000000000000e+02 9.950000000000000000e+02 9.960000000000000000e+02 9.970000000000000000e+02 9.980000000000000000e+02 9.990000000000000000e+02 1.000000000000000000e+03
1.000000000000000021e-02 1.000000000000000021e-02 1.000000000000000021e-02 1.000000000000000021e-02 1.000000000000000021e-02 1.000000000000000021e-02 1.000000000000000021e-02 1.000000000000000021e-02 1.000000000000000021e-02 1.000000000000000021e-02 1.000000000000000021e-02 1.000000000000000021e-02 1.000000000000000021e-02 1.000000000000000021e-02 1.000000000000000021e-02 1.000000000000000021e-02 1.000000000000000021e-02 1.000000000000000021e-02 1.000000000000000021e-02 1.000000000000000021e-02 1.000000000000000021e-02 1.000000000000000021e-02 1.000000000000000021e-02 1.000000000000000021e-02 1.000000000000000021e-02 1.000000000000000021e-02 1.000000000000000021e-02 1.000000000000000021e-02 1.000000000000000021e-02 1.000000000000000021e-02 1.000000000000000021e-02 1.000000000000000021e-02 1.000000000000000021e-02 1.000000000000000021e-02 1.000000000000000021e-02 1.000000000000000021e-02 1.000000000000000021e-02 1.000000000000000021e-02 1.000000000000000021e-02 1.000000000000000021e-02 1.000000000000000021e-02 1.000000000000000021e-02 1.000000000000000021e-02 1.000000000000000021e-02 1.000000000000000021e-02 1.000000000000000021e-02 1.000000000000000021e-02 1.000000000000000021e-02 1.000000000000000021e-02 1.000000000000000021e-02 1.000000000000000021e-02 1.000000000000000021e-02 1.000000000000000021e-02 1.000000000000000021e-02 1.000000000000000021e-02 1.000000000000000021e-02 1.000000000000000021e-02 1.000000000000000021e-02 1.000000000000000021e-02 1.000000000000000021e-02 1.000000000000000021e-02 1.000000000000000021e-02 1.000000000000000021e-02 1.000000000000000021e-02 1.000000000000000021e-02 1.000000000000000021e-02 1.000000000000000021e-02 1.000000000000000021e-02 1.000000000000000021e-02 1.000000000000000021e-02 1.000000000000000021e-02 1.000000000000000021e-02 1.000000000000000021e-02 1.000000000000000021e-02 1.000000000000000021e-02 1.000000000000000021e-02 1.000000000000000021e-02 1.000000000000000021e-02 1.000000000000000021e-02 1.000000000000000021e-02 1.000000000000000021e-02 1.000000000000000021e-02 1.000000000000000021e-02 1.000000000000000021e-02 1.000000000000000021e-02 1.000000000000000021e-02 1.000000000000000021e-02 1.000000000000000021e-02 1.000000000000000021e-02 1.000000000000000021e-02 1.000000000000000021e-02 1.000000000000000021e-02 1.000000000000000021e-02 1.000000000000000021e-02 1.000000000000000021e-02 1.000000000000000021e-02 1.000000000000000021e-02 1.000000000000000021e-02 1.000000000000000021e-02 1.000000000000000021e-02 1.000000000000000021e-02 1.000000000000000021e-02 1.000000000000000021e-02 1.000000000000000021e-02 1.000000000000000021e-02 1.000000000000000021e-02 1.000000000000000021e-02 1.000000000000000021e-02 1.000000000000000021e-02 1.000000000000000021e-02 1.000000000000000021e-02 1.000000000000000021e-02 1.000000000000000021e-02 1.000000000000000021e-02 1.000000000000000021e-02 1.000000000000000021e-02 1.000000000000000021e-02 1.000000000000000021e-02 1.000000000000000021e-02 1.000000000000000021e-02 1.000000000000000021e-02 1.000000000000000021e-02 1.000000000000000021e-02 1.000000000000000021e-02 1.000000000000000021e-02 1.000000000000000021e-02 1.000000000000000021e-02 1.000000000000000021e-02 1.000000000000000021e-02 1.000000000000000021e-02 1.000000000000000021e-02 1.000000000000000021e-02 1.000000000000000021e-02 1.000000000000000021e-02 1.000000000000000021e-02 1.000000000000000021e-02 1.000000000000000021e-02 1.000000000000000021e-02 1.000000000000000021e-02 1.000000000000000021e-02 1.000000000000000021e-02 1.000000000000000021e-02 1.000000000000000021e-02 1.000000000000000021e-02 1.000000000000000021e-02 1.000000000000000021e-02 1.000000000000000021e-02 1.000000000000000021e-02 1.000000000000000021e-02 1.000000000000000021e-02 1.000000000000000021e-02 1.000000000000000021e-02 1.000000000000000021e-02 1.000000000000000021e-02 1.000000000000000021e-02 1.000000000000000021e-02 1.000000000000000021e-02 1.000000000000000021e-02 1.000000000000000021e-02 1.000000000000000021e-02 1.000000000000000021e-02 1.000000000000000021e-02 1.000000000000000021e-02 1.000000000000000021e-02 1.000000000000000021e-02 1.000000000000000021e-02 1.000000000000000021e-02 1.000000000000000021e-02 1.000000000000000021e-02 1.000000000000000021e-02 1.000000000000000021e-02 1.000000000000000021e-02 1.000000000000000021e-02 1.000000000000000021e-02 1.000000000000000021e-02 1.000000000000000021e-02 1.000000000000000021e-02 1.000000000000000021e-02 1.000000000000000021e-02 1.000000000000000021e-02 1.000000000000000021e-02 1.000000000000000021e-02 1.000000000000000021e-02 1.000000000000000021e-02 1.000000000000000021e-02 1.000000000000000021e-02 1.000000000000000021e-02 1.000000000000000021e-02 1.000000000000000021e-02 1.000000000000000021e-02 1.000000000000000021e-02 1.000000000000000021e-02 1.000000000000000021e-02 1.000000000000000021e-02 1.000000000000000021e-02 1.000000000000000021e-02 1.000000000000000021e-02 1.000000000000000021e-02 1.000000000000000021e-02 1.000000000000000021e-02 1.000000000000000021e-02 1.000000000000000021e-02 1.000000000000000021e-02 1.000000000000000021e-02 1.000000000000000021e-02 1.000000000000000021e-02 1.000000000000000021e-02 1.000000000000000021e-02 1.000000000000000021e-02 1.000000000000000021e-02 1.000000000000000021e-02 1.000000000000000021e-02 1.000000000000000021e-02 1.000000000000000021e-02 1.000000000000000021e-02 1.000000000000000021e-02 1.000000000000000021e-02 1.000000000000000021e-02 1.000000000000000021e-02 1.000000000000000021e-02 1.000000000000000021e-02 1.000000000000000021e-02 1.000000000000000021e-02 1.000000000000000021e-02 1.000000000000000021e-02 1.000000000000000021e-02 1.000000000000000021e-02 1.000000000000000021e-02 1.000000000000000021e-02 1.000000000000000021e-02 1.000000000000000021e-02 1.000000000000000021e-02 1.000000000000000021e-02 1.000000000000000021e-02 1.000000000000000021e-02 1.000000000000000021e-02 1.000000000000000021e-02 1.000000000000000021e-02 1.000000000000000021e-02 1.000000000000000021e-02 1.000000000000000021e-02 1.000000000000000021e-02 1.000000000000000021e-02 1.000000000000000021e-02 1.000000000000000021e-02 1.000000000000000021e-02 1.000000000000000021e-02 1.000000000000000021e-02 1.000000000000000021e-02 1.000000000000000021e-02 1.000000000000000021e-02 1.000000000000000021e-02 1.000000000000000021e-02 1.000000000000000021e-02 1.000000000000000021e-02 1.000000000000000021e-02 1.000000000000000021e-02 1.000000000000000021e-02 1.000000000000000021e-02 1.000000000000000021e-02 1.000000000000000021e-02 1.000000000000000021e-02 1.000000000000000021e-02 1.000000000000000021e-02 1.000000000000000021e-02 1.000000000000000021e-02 1.000000000000000021e-02 1.000000000000000021e-02 1.000000000000000021e-02 1.000000000000000021e-02 1.000000000000000021e-02 1.000000000000000021e-02 1.000000000000000021e-02 1.000000000000000021e-02 1.000000000000000021e-02 1.000000000000000021e-02 1.000000000000000021e-02 1.000000000000000021e-02 1.000000000000000021e-02 1.000000000000000021e-02 1.000000000000000021e-02 1.000000000000000021e-02 1.000000000000000021e-02 1.000000000000000021e-02 1.000000000000000021e-02 1.000000000000000021e-02 1.000000000000000021e-02 1.000000000000000021e-02 1.000000000000000021e-02 1.000000000000000021e-02 1.000000000000000021e-02 1.000000000000000021e-02 1.000000000000000021e-02 1.000000000000000021e-02 1.000000000000000021e-02 1.000000000000000021e-02 1.000000000000000021e-02 1.000000000000000021e-02 1.000000000000000021e-02 1.000000000000000021e-02 1.000000000000000021e-02 1.000000000000000021e-02 1.000000000000000021e-02 1.000000000000000021e-02 1.000000000000000021e-02 1.000000000000000021e-02 1.000000000000000021e-02 1.000000000000000021e-02 1.000000000000000021e-02 1.000000000000000021e-02 1.000000000000000021e-02 1.000000000000000021e-02 1.000000000000000021e-02 1.000000000000000021e-02 1.000000000000000021e-02 1.000000000000000021e-02 1.000000000000000021e-02 1.000000000000000021e-02 1.000000000000000021e-02 1.000000000000000021e-02 1.000000000000000021e-02 1.000000000000000021e-02 1.000000000000000021e-02 1.000000000000000021e-02 1.000000000000000021e-02 1.000000000000000021e-02 1.000000000000000021e-02 1.000000000000000021e-02 1.000000000000000021e-02 1.000000000000000021e-02 1.000000000000000021e-02 1.000000000000000021e-02 1.000000000000000021e-02 1.000000000000000021e-02 1.000000000000000021e-02 1.000000000000000021e-02 1.000000000000000021e-02 1.000000000000000021e-02 1.000000000000000021e-02 1.000000000000000021e-02 1.000000000000000021e-02 1.000000000000000021e-02 1.000000000000000021e-02 1.000000000000000021e-02 1.000000000000000021e-02 1.000000000000000021e-02 1.000000000000000021e-02 1.000000000000000021e-02 1.000000000000000021e-02 1.000000000000000021e-02 1.000000000000000021e-02 1.000000000000000021e-02 1.000000000000000021e-02 1.000000000000000021e-02 1.000000000000000021e-02 1.000000000000000021e-02 1.000000000000000021e-02 1.000000000000000021e-02 1.000000000000000021e-02 1.000000000000000021e-02 1.000000000000000021e-02 1.000000000000000021e-02 1.000000000000000021e-02 1.000000000000000021e-02 1.000000000000000021e-02 1.000000000000000021e-02 1.000000000000000021e-02 1.000000000000000021e-02 1.000000000000000021e-02 1.000000000000000021e-02 1.000000000000000021e-02 1.000000000000000021e-02 1.000000000000000021e-02 1.000000000000000021e-02 1.000000000000000021e-02 1.000000000000000021e-02 1.000000000000000021e-02 1.000000000000000021e-02 1.000000000000000021e-02 1.000000000000000021e-02 1.000000000000000021e-02 1.000000000000000021e-02 1.000000000000000021e-02 1.000000000000000021e-02 1.000000000000000021e-02 1.000000000000000021e-02 1.000000000000000021e-02 1.000000000000000021e-02 1.000000000000000021e-02 1.000000000000000021e-02 1.000000000000000021e-02 1.000000000000000021e-02 1.000000000000000021e-02 1.000000000000000021e-02 1.000000000000000021e-02 1.000000000000000021e-02 1.000000000000000021e-02 1.000000000000000021e-02 1.000000000000000021e-02 1.000000000000000021e-02 1.000000000000000021e-02 1.000000000000000021e-02 1.000000000000000021e-02 1.000000000000000021e-02 1.000000000000000021e-02 1.000000000000000021e-02 1.000000000000000021e-02 1.000000000000000021e-02 1.000000000000000021e-02 1.000000000000000021e-02 1.000000000000000021e-02 1.000000000000000021e-02 1.000000000000000021e-02 1.000000000000000021e-02 1.000000000000000021e-02 1.000000000000000021e-02 1.000000000000000021e-02 1.000000000000000021e-02 1.000000000000000021e-02 1.000000000000000021e-02 1.000000000000000021e-02 1.000000000000000021e-02 1.000000000000000021e-02 1.000000000000000021e-02 1.000000000000000021e-02 1.000000000000000021e-02 1.000000000000000021e-02 1.000000000000000021e-02 1.000000000000000021e-02 1.000000000000000021e-02 1.000000000000000021e-02 1.000000000000000021e-02 1.000000000000000021e-02 1.000000000000000021e-02 1.000000000000000021e-02 1.000000000000000021e-02 1.000000000000000021e-02 1.000000000000000021e-02 1.000000000000000021e-02 1.000000000000000021e-02 1.000000000000000021e-02 1.000000000000000021e-02 1.000000000000000021e-02 1.000000000000000021e-02 1.000000000000000021e-02 1.000000000000000021e-02 1.000000000000000021e-02 1.000000000000000021e-02 1.000000000000000021e-02 1.000000000000000021e-02 1.000000000000000021e-02 1.000000000000000021e-02 1.000000000000000021e-02 1.000000000000000021e-02 1.000000000000000021e-02 1.000000000000000021e-02 1.000000000000000021e-02 1.000000000000000021e-02 1.000000000000000021e-02 1.000000000000000021e-02 1.000000000000000021e-02 1.000000000000000021e-02 1.000000000000000021e-02 1.000000000000000021e-02 1.000000000000000021e-02 1.000000000000000021e-02 1.000000000000000021e-02 1.000000000000000021e-02 1.000000000000000021e-02 1.000000000000000021e-02 1.000000000000000021e-02 1.000000000000000021e-02 1.000000000000000021e-02 1.000000000000000021e-02 1.000000000000000021e-02 1.000000000000000021e-02 1.000000000000000021e-02 1.000000000000000021e-02 1.000000000000000021e-02 1.000000000000000021e-02 1.000000000000000021e-02 1.000000000000000021e-02 1.000000000000000021e-02 1.000000000000000021e-02 1.000000000000000021e-02 1.000000000000000021e-02 1.000000000000000021e-02 1.000000000000000021e-02 1.000000000000000021e-02 1.000000000000000021e-02 1.000000000000000021e-02 1.000000000000000021e-02 1.000000000000000021e-02 1.000000000000000021e-02 1.000000000000000021e-02 1.000000000000000021e-02 1.000000000000000021e-02 1.000000000000000021e-02 1.000000000000000021e-02 1.000000000000000021e-02 1.000000000000000021e-02 1.000000000000000021e-02 1.000000000000000021e-02 1.000000000000000021e-02 1.000000000000000021e-02 1.000000000000000021e-02 1.000000000000000021e-02 1.000000000000000021e-02 1.000000000000000021e-02 1.000000000000000021e-02 1.000000000000000021e-02 1.000000000000000021e-02 1.000000000000000021e-02 1.000000000000000021e-02 1.000000000000000021e-02 1.000000000000000021e-02 1.000000000000000021e-02 1.000000000000000021e-02 1.000000000000000021e-02 1.000000000000000021e-02 1.000000000000000021e-02 1.000000000000000021e-02 1.000000000000000021e-02 1.000000000000000021e-02 1.000000000000000021e-02 1.000000000000000021e-02 1.000000000000000021e-02 1.000000000000000021e-02 1.000000000000000021e-02 1.000000000000000021e-02 1.000000000000000021e-02 1.000000000000000021e-02 1.000000000000000021e-02 1.000000000000000021e-02 1.000000000000000021e-02 1.000000000000000021e-02 1.000000000000000021e-02 1.000000000000000021e-02 1.000000000000000021e-02 1.000000000000000021e-02 1.000000000000000021e-02 1.000000000000000021e-02 1.000000000000000021e-02 1.000000000000000021e-02 1.000000000000000021e-02 1.000000000000000021e-02 1.000000000000000021e-02 1.000000000000000021e-02 1.000000000000000021e-02 1.000000000000000021e-02 1.000000000000000021e-02 1.000000000000000021e-02 1.000000000000000021e-02 1.000000000000000021e-02 1.000000000000000021e-02 1.000000000000000021e-02 1.000000000000000021e-02 1.000000000000000021e-02 1.000000000000000021e-02 1.000000000000000021e-02 1.000000000000000021e-02 1.000000000000000021e-02 1.000000000000000021e-02 1.000000000000000021e-02 1.000000000000000021e-02 1.000000000000000021e-02 1.000000000000000021e-02 1.000000000000000021e-02 1.000000000000000021e-02 1.000000000000000021e-02 1.000000000000000021e-02 1.000000000000000021e-02 1.000000000000000021e-02 1.000000000000000021e-02 1.000000000000000021e-02 1.000000000000000021e-02 1.000000000000000021e-02 1.000000000000000021e-02 1.000000000000000021e-02 1.000000000000000021e-02 1.000000000000000021e-02 1.000000000000000021e-02 1.000000000000000021e-02 1.000000000000000021e-02 1.000000000000000021e-02 1.000000000000000021e-02 1.000000000000000021e-02 1.000000000000000021e-02 1.000000000000000021e-02 1.000000000000000021e-02 1.000000000000000021e-02 1.000000000000000021e-02 1.000000000000000021e-02 1.000000000000000021e-02 1.000000000000000021e-02 1.000000000000000021e-02 1.000000000000000021e-02 1.000000000000000021e-02 1.000000000000000021e-02 1.000000000000000021e-02 1.000000000000000021e-02 1.000000000000000021e-02 1.000000000000000021e-02 1.000000000000000021e-02 1.000000000000000021e-02 1.000000000000000021e-02 1.000000000000000021e-02 1.000000000000000021e-02 1.000000000000000021e-02 1.000000000000000021e-02 1.000000000000000021e-02 1.000000000000000021e-02 1.000000000000000021e-02 1.000000000000000021e-02 1.000000000000000021e-02 1.000000000000000021e-02 1.000000000000000021e-02 1.000000000000000021e-02 1.000000000000000021e-02 1.000000000000000021e-02 1.000000000000000021e-02 1.000000000000000021e-02 1.000000000000000021e-02 1.000000000000000021e-02 1.000000000000000021e-02 1.000000000000000021e-02 1.000000000000000021e-02 1.000000000000000021e-02 1.000000000000000021e-02 1.000000000000000021e-02 1.000000000000000021e-02 1.000000000000000021e-02 1.000000000000000021e-02 1.000000000000000021e-02 1.000000000000000021e-02 1.000000000000000021e-02 1.000000000000000021e-02 1.000000000000000021e-02 1.000000000000000021e-02 1.000000000000000021e-02 1.000000000000000021e-02 1.000000000000000021e-02 1.000000000000000021e-02 1.000000000000000021e-02 1.000000000000000021e-02 1.000000000000000021e-02 1.000000000000000021e-02 1.000000000000000021e-02 1.000000000000000021e-02 1.000000000000000021e-02 1.000000000000000021e-02 1.000000000000000021e-02 1.000000000000000021e-02 1.000000000000000021e-02 1.000000000000000021e-02 1.000000000000000021e-02 1.000000000000000021e-02 1.000000000000000021e-02 1.000000000000000021e-02 1.000000000000000021e-02 1.000000000000000021e-02 1.000000000000000021e-02 1.000000000000000021e-02 1.000000000000000021e-02 1.000000000000000021e-02 1.000000000000000021e-02 1.000000000000000021e-02 1.000000000000000021e-02 1.000000000000000021e-02 1.000000000000000021e-02 1.000000000000000021e-02 1.000000000000000021e-02 1.000000000000000021e-02 1.000000000000000021e-02 1.000000000000000021e-02 1.000000000000000021e-02 1.000000000000000021e-02 1.000000000000000021e-02 1.000000000000000021e-02 1.000000000000000021e-02 1.000000000000000021e-02 1.000000000000000021e-02 1.000000000000000021e-02 1.000000000000000021e-02 1.000000000000000021e-02 1.000000000000000021e-02 1.000000000000000021e-02 1.000000000000000021e-02 1.000000000000000021e-02 1.000000000000000021e-02 1.000000000000000021e-02 1.000000000000000021e-02 1.000000000000000021e-02 1.000000000000000021e-02 1.000000000000000021e-02 1.000000000000000021e-02 1.000000000000000021e-02 1.000000000000000021e-02 1.000000000000000021e-02 1.000000000000000021e-02 1.000000000000000021e-02 1.000000000000000021e-02 1.000000000000000021e-02 1.000000000000000021e-02 1.000000000000000021e-02 1.000000000000000021e-02 1.000000000000000021e-02 1.000000000000000021e-02 1.000000000000000021e-02 1.000000000000000021e-02 1.000000000000000021e-02 1.000000000000000021e-02 1.000000000000000021e-02 1.000000000000000021e-02 1.000000000000000021e-02 1.000000000000000021e-02 1.000000000000000021e-02 1.000000000000000021e-02 1.000000000000000021e-02 1.000000000000000021e-02 1.000000000000000021e-02 1.000000000000000021e-02 1.000000000000000021e-02 1.000000000000000021e-02 1.000000000000000021e-02 1.000000000000000021e-02 1.000000000000000021e-02 1.000000000000000021e-02 1.000000000000000021e-02 1.000000000000000021e-02 1.000000000000000021e-02 1.000000000000000021e-02 1.000000000000000021e-02 1.000000000000000021e-02 1.000000000000000021e-02 1.000000000000000021e-02 1.000000000000000021e-02 1.000000000000000021e-02 1.000000000000000021e-02 1.000000000000000021e-02 1.000000000000000021e-02 1.000000000000000021e-02 1.000000000000000021e-02 1.000000000000000021e-02 1.000000000000000021e-02 1.000000000000000021e-02 1.000000000000000021e-02 1.000000000000000021e-02 1.000000000000000021e-02 1.000000000000000021e-02 1.000000000000000021e-02 1.000000000000000021e-02 1.000000000000000021e-02 1.000000000000000021e-02 1.000000000000000021e-02 1.000000000000000021e-02 1.000000000000000021e-02 1.000000000000000021e-02 1.000000000000000021e-02 1.000000000000000021e-02 1.000000000000000021e-02 1.000000000000000021e-02 1.000000000000000021e-02 1.000000000000000021e-02 1.000000000000000021e-02 1.000000000000000021e-02 1.000000000000000021e-02 1.000000000000000021e-02 1.000000000000000021e-02 1.000000000000000021e-02 1.000000000000000021e-02 1.000000000000000021e-02 1.000000000000000021e-02 1.000000000000000021e-02 1.000000000000000021e-02 1.000000000000000021e-02 1.000000000000000021e-02 1.000000000000000021e-02 1.000000000000000021e-02 1.000000000000000021e-02 1.000000000000000021e-02 1.000000000000000021e-02 1.000000000000000021e-02 1.000000000000000021e-02 1.000000000000000021e-02 1.000000000000000021e-02 1.000000000000000021e-02 1.000000000000000021e-02 1.000000000000000021e-02 1.000000000000000021e-02 1.000000000000000021e-02 1.000000000000000021e-02 1.000000000000000021e-02 1.000000000000000021e-02 1.000000000000000021e-02 1.000000000000000021e-02 1.000000000000000021e-02 1.000000000000000021e-02 1.000000000000000021e-02 1.000000000000000021e-02 1.000000000000000021e-02 1.000000000000000021e-02 1.000000000000000021e-02 1.000000000000000021e-02 1.000000000000000021e-02 1.000000000000000021e-02 1.000000000000000021e-02 1.000000000000000021e-02 1.000000000000000021e-02 1.000000000000000021e-02 1.000000000000000021e-02 1.000000000000000021e-02 1.000000000000000021e-02 1.000000000000000021e-02 1.000000000000000021e-02 1.000000000000000021e-02 1.000000000000000021e-02 1.000000000000000021e-02 1.000000000000000021e-02 1.000000000000000021e-02 1.000000000000000021e-02 1.000000000000000021e-02 1.000000000000000021e-02 1.000000000000000021e-02 1.000000000000000021e-02 1.000000000000000021e-02 1.000000000000000021e-02 1.000000000000000021e-02 1.000000000000000021e-02 1.000000000000000021e-02 1.000000000000000021e-02 1.000000000000000021e-02 1.000000000000000021e-02 1.000000000000000021e-02 1.000000000000000021e-02 1.000000000000000021e-02 1.000000000000000021e-02 1.000000000000000021e-02 1.000000000000000021e-02 1.000000000000000021e-02 1.000000000000000021e-02 1.000000000000000021e-02 1.000000000000000021e-02 1.000000000000000021e-02 1.000000000000000021e-02 1.000000000000000021e-02 1.000000000000000021e-02 1.000000000000000021e-02 1.000000000000000021e-02 1.000000000000000021e-02 1.000000000000000021e-02 1.000000000000000021e-02 1.000000000000000021e-02 1.000000000000000021e-02 1.000000000000000021e-02 1.000000000000000021e-02 1.000000000000000021e-02 1.000000000000000021e-02 1.000000000000000021e-02 1.000000000000000021e-02 1.000000000000000021e-02 1.000000000000000021e-02 1.000000000000000021e-02 1.000000000000000021e-02 1.000000000000000021e-02 1.000000000000000021e-02 1.000000000000000021e-02 1.000000000000000021e-02 1.000000000000000021e-02 1.000000000000000021e-02 1.000000000000000021e-02 1.000000000000000021e-02 1.000000000000000021e-02 1.000000000000000021e-02 1.000000000000000021e-02 1.000000000000000021e-02 1.000000000000000021e-02 1.000000000000000021e-02 1.000000000000000021e-02 1.000000000000000021e-02 1.000000000000000021e-02 1.000000000000000021e-02 1.000000000000000021e-02 1.000000000000000021e-02 1.000000000000000021e-02 1.000000000000000021e-02 1.000000000000000021e-02 1.000000000000000021e-02 1.000000000000000021e-02 1.000000000000000021e-02 1.000000000000000021e-02 1.000000000000000021e-02 1.000000000000000021e-02 1.000000000000000021e-02 1.000000000000000021e-02 1.000000000000000021e-02 1.000000000000000021e-02 1.000000000000000021e-02 1.000000000000000021e-02 1.000000000000000021e-02 1.000000000000000021e-02 1.000000000000000021e-02 1.000000000000000021e-02 1.000000000000000021e-02 1.000000000000000021e-02 1.000000000000000021e-02 1.000000000000000021e-02 1.000000000000000021e-02 1.000000000000000021e-02 1.000000000000000021e-02 1.000000000000000021e-02 1.000000000000000021e-02 1.000000000000000021e-02 1.000000000000000021e-02 1.000000000000000021e-02 1.000000000000000021e-02 1.000000000000000021e-02 1.000000000000000021e-02 1.000000000000000021e-02 1.000000000000000021e-02 1.000000000000000021e-02 1.000000000000000021e-02 1.000000000000000021e-02 1.000000000000000021e-02 1.000000000000000021e-02 1.000000000000000021e-02 1.000000000000000021e-02 1.000000000000000021e-02 1.000000000000000021e-02 1.000000000000000021e-02 1.000000000000000021e-02 1.000000000000000021e-02 1.000000000000000021e-02 1.000000000000000021e-02 1.000000000000000021e-02 1.000000000000000021e-02 1.000000000000000021e-02 1.000000000000000021e-02 1.000000000000000021e-02 1.000000000000000021e-02 1.000000000000000021e-02 1.000000000000000021e-02 1.000000000000000021e-02 1.000000000000000021e-02 1.000000000000000021e-02 1.000000000000000021e-02 1.000000000000000021e-02 1.000000000000000021e-02 1.000000000000000021e-02 1.000000000000000021e-02 1.000000000000000021e-02 1.000000000000000021e-02 1.000000000000000021e-02 1.000000000000000021e-02 1.000000000000000021e-02 1.000000000000000021e-02 1.000000000000000021e-02 1.000000000000000021e-02 1.000000000000000021e-02 1.000000000000000021e-02 1.000000000000000021e-02 1.000000000000000021e-02 1.000000000000000021e-02 1.000000000000000021e-02 1.000000000000000021e-02 1.000000000000000021e-02 1.000000000000000021e-02 1.000000000000000021e-02 1.000000000000000021e-02 1.000000000000000021e-02 1.000000000000000021e-02 1.000000000000000021e-02 1.000000000000000021e-02 1.000000000000000021e-02 1.000000000000000021e-02 1.000000000000000021e-02 1.000000000000000021e-02 1.000000000000000021e-02 1.000000000000000021e-02 1.000000000000000021e-02 1.000000000000000021e-02 1.000000000000000021e-02 1.000000000000000021e-02 1.000000000000000021e-02 1.000000000000000021e-02 1.000000000000000021e-02 1.000000000000000021e-02 1.000000000000000021e-02 1.000000000000000021e-02 1.000000000000000021e-02 1.000000000000000021e-02 1.000000000000000021e-02 1.000000000000000021e-02 1.000000000000000021e-02 1.000000000000000021e-02 1.000000000000000021e-02 1.000000000000000021e-02 1.000000000000000021e-02 1.000000000000000021e-02 1.000000000000000021e-02
-1.164505293794526892e+02 1.768538440093387862e+02 4.109140063935260656e+01 -9.244220551465279101e+00 -9.169554869119572516e+01 -1.397526294085136023e+01 -2.168527781765200473e+02 6.922081516355796937e-01 -8.843159043546749842e+01 -1.451478007728675657e+01 -2.066944493905487334e+01 6.762030773497227365e+00 -1.856659711718624983e+00 1.750624128126619610e+02 8.827478480933613980e+01 -4.041143915306164303e+01 -5.501726596553015014e+01 8.265073951424979271e+01 3.423232491105887476e+01 -2.645121828884280646e+01 -8.228893417213437544e+01 -7.703829467605002890e+01 -1.442272346278419271e+01 3.018726306792162006e+01 -2.033844141967352925e+02 -1.030428746754310509e+02 -2.721121674023570236e+01 2.104033843026214754e+02 7.383235435501282495e+01 7.999949547410496109e+01 8.376254805000937154e+01 1.242213316370970988e+00 -8.255511053974056779e+01 2.163406275457753054e+02 -2.553769934743269800e+02 6.130687307867286506e+01 -1.254265154355643261e+02 -3.617037706517342599e+01 4.202249745449289975e+00 1.322001271495785772e+02 -1.282545321219823506e+02 -1.427695544633309943e+01 8.075062935363162353e+01 1.811028530609549989e+02 7.448769879032985841e+01 -7.144453501924023442e+01 4.308033539177275628e+01 -2.959032601401274931e+01 -6.893176850026848967e+01 1.633972697039562831e+02 -7.372592332768537915e+01 -5.440676800217912756e+01 -1.452898059585871806e+02 5.915640240958795815e+00 -5.275927003022992068e+01 4.032732443073714990e+01 -9.257403099458186091e+01 -5.225230684900442668e+01 -1.058121137871935815e+02 -1.621810957285962616e+02 2.035160539589980999e+01 4.726671203459788018e+01 -1.284631258484224645e+02 1.342778630270455231e+01 -8.278801953028890637e+01 5.124808010968717298e+01 1.738006157379220724e+02 -1.505140629912367842e+02 -4.521987979019004200e+01 7.474629558836795695e+00 3.042852577821331117e+00 4.421117376284331613e+01 8.763930457384316242e+01 1.016973605086879839e+00 -9.138159043836477480e+00 -7.310313926882651003e+01 8.169175664827929495e+01 -3.425796457173278498e+01 2.741992653413983305e+01 1.085286243860833366e+02 9.210840875007562545e+01 -4.459562995310626832e+01 6.038344867531814941e+01 1.538728419722869205e+02 1.212595273004687044e+02 -4.235404726554410360e+00 1.818367026567443929e+02 -1.163612340603488775e+02 4.424881354627252961e+00 -4.376603069269043544e+01 2.158848546324584845e+02 -2.214839510451458793e+01 2.982903493994638833e+00 -8.013123050373158662e+01 -7.428976557260043023e+00 -6.666984066471883352e+01 7.070625792466653081e+01 -9.866112593401813058e+01 7.148517919906751672e+01 -4.980148712737923944e+01 -5.195582749725807048e+01 -9.564856423776451777e+01 5.544944196526936508e+01 -5.715132960295274955e+01 -1.558598094634738800e+02 -8.296486492043659666e+01 -1.091976548368144648e+02 -1.641011065868287631e+02 1.419019119732332967e+02 -2.876007068029471725e+01 3.341152897298462676e+01 9.358703773341410681e+01 -1.086632028176573357e+02 5.948761078270803182e+01 -4.522149453274049336e+01 -7.227090505709750801e+01 -9.396052178175263236e+01 2.122398013106377448e+02 -5.923031920733524203e+01 -5.161926338671266024e+01 -4.933319280488834835e+01 8.392694474624185830e+01 -4.320030187165731661e+01 1.440571763525229017e+02 -5.198783437332930646e+01 5.745088973803936483e+01 4.739682487674282463e+00 -8.475539012055324406e+01 7.187176019821190209e+01 2.894965940218290257e+02 -9.599652184007153721e+01 4.959908076237491770e+01 -7.952478131663650629e+01 4.720812399678125360e+01 1.369209093059648410e+02 -5.357546974563764053e+01 1.519736750919022583e+01 -2.807881633585133940e+01 -1.063835571528686046e+02 -1.798822876294241624e+01 4.427259047456871599e+00 -8.177012423514685935e+00 -1.562697606316400645e+01 1.234801683766492744e+02 1.360325054416925354e+02 1.946273512292542591e+02 -3.176548874975040917e+02 3.990751443488414907e+01 -1.642112267416710480e+01 -6.511802615443799880e+01 1.882951914758415342e+02 7.964989114835300654e+01 -2.654170548788739925e+00 -1.211359827100003912e+02 -1.141589206116250921e+01 1.045347361847366017e+02 -1.404237896326799557e+02 -1.761775701819438780e+02 1.121349286761373065e+01 4.435199294886368193e+01 -6.373092465960630904e+01 4.391638091127794752e+01 -1.119034529363395478e+02 -1.581612174472926142e+02 2.209324543050049883e+01 5.077941632142940875e+01 4.999432808154373298e+00 -8.732920755534037482e+01 -9.785896037003266201e+01 -8.821790799452679721e+01 -9.154307555180047018e+01 1.317346294798717032e+01 5.946940357901650742e+01 1.218578109794005826e+02 8.312449978908973947e+01 9.364023973538746759e+01 1.124026087727451682e+02 -7.829537389929797087e+01 -8.638926404069822240e+01 7.382920929833275636e+01 7.160209225099669084e+01 6.203128477571905819e+01 -9.848007059110111427e+00 -9.541461144091013580e+01 5.655005240384335252e+01 -1.874538588875556968e+02 7.036407642291773357e+01 -4.672849327658224183e+01 -1.011381031838197799e+02 7.781207165305971785e+01 -1.793953543018023922e+01 -8.095239540358994645e+01 -6.033252477487686605e+01 -9.575851782937876422e+00 2.546882509202411597e+02 8.057342744758445008e+01 5.756959743922054429e+01 -1.091592773639058294e+02 1.557294704759736703e+02 1.071147225768556144e+00 -9.501229787413133465e+01 1.637276897747038618e+02 -1.620616251832277328e+02 1.658292323173477456e+01 -3.426142244407928672e+01 -2.336461057145716609e+02 -1.419229119137473845e+02 -9.278959897259235845e+01 -3.105989434337962862e+01 -1.268451708423688729e+02 6.134350694439901019e+01 6.909446581439358681e+01 -2.928829243115047376e+01 -1.059979738823863471e+02 1.202786863668197128e+02 1.257700732139059312e+02 4.915938734414154254e+01 1.853610029551524363e+01 2.779755380265959275e+02 4.647989218868728756e+01 -1.269808846195028167e+02 -4.790355957425295941e+01 -1.797239754400072513e+02 3.391485161838472351e+01 1.632209922259891357e+02 -1.580276848622678472e+02 1.402326510526540062e+02 -9.683979577329068889e+01 -2.009308944496021709e+01 -7.504290141834943917e-01 5.626366601572433268e+01 -1.238172934945478154e+01 -2.423860526715252561e+01 -2.021686299512071017e+01 -1.348510742921768326e+02 4.946881899382341174e+01 -3.236012935947846358e+01 -1.387823149464266415e+01 -1.140374708462252684e+01 2.406940868588817750e+02 1.855198656492991915e+02 2.478161452772798157e+02 1.404111158858914621e+02 -9.223055275060696090e+01 8.014803508846128466e+01 2.246792854213608592e+01 5.077064542642349920e+01 -4.238700570260171929e+01 2.721856335783078862e+02 -2.480689853971898629e+01 -1.457004153567143874e+02 -1.595354735934031432e+01 -4.882195955526950826e+01 -8.252005945934945430e+01 4.600693851852497573e+01 -1.248577857364691113e+01 1.939053339438191017e+02 9.856948757152763108e+01 4.359530677704928792e+01 1.045513766772850630e+02 1.006354453786320846e+02 -2.451124549790758067e+01 1.488787269190268319e+02 2.820336387619099128e+01 9.547211764590123551e+01 5.077629887586688540e+01 7.404908099373479935e+00 -1.234581391441191300e+02 -1.234766285581381453e+02 -9.596175712198576946e+01 -1.661606273929215760e+01 9.241996266195820908e+01 -3.272515296894160031e+01 1.054566438547346365e+02 4.669785607114424408e+01 -7.755118878650169734e+01 -3.197729832566770014e+01 -6.249619467106944626e+01 1.872317593245592704e+01 -4.944262619308885576e+01 -1.194830546659747910e+02 1.296277630872129407e+02 1.293779399849997844e+02 -8.416026700621323187e+01 5.860113388068776352e+00 -4.830135835063344274e+01 -3.482175690703779480e+01 -1.209602192156423150e+01 -3.327105639512485880e+01 4.735707644100548919e+01 -1.497971843784879127e+02 -5.631149345080921620e+01 -1.619615731456258345e+02 1.856299134115196807e+02 -2.161535120588321846e+01 6.286708480863173776e+01 1.273613414887002726e+01 1.539045251675948975e+02 4.761695853680875956e+01 3.811343702666766120e+01 1.644241277798127214e+02 -5.248704769257257396e+01 -1.039257624737350483e+02 2.888916446871897037e+01 -1.682897367187310067e+02 -5.685761104384011588e+01 1.089011118381292107e+02 -1.361091575948018146e+02 -3.872695702280591945e+01 9.721163388056166355e+01 -1.006446953926407559e+02 -9.532789643285470049e+01 -8.800657017033898910e+01 -6.799550860968774657e+01 2.650441658018603448e+02 2.109381745751634014e+02 1.096597475736588905e+02 -1.087692545524027281e+02 7.968580137818329945e+01 -7.030786688402673690e+01 -3.309870288164837859e+01 1.764901913758707508e+01 -3.417705480352001501e+01 -9.972553839646143103e+01 -2.830266957448453358e+00 1.576864603136593423e+01 1.155955625329118277e+02 -1.365415624233602898e+02 4.444075928809571963e+01 6.772257929148857158e+01 3.673527045142014913e+01 -9.622791901452332297e+01 -1.576602028884633455e+02 2.051907274641921788e+02 -1.892483516277822631e+01 2.674271376741310036e+01 1.660728867845397758e+02 2.830782020992239012e+01 2.945194986618601973e+01 -4.723077645427689930e+01 9.396284098313419975e+01 -1.446350261515224531e+02 -3.268627448253361933e+01 -6.503185549917982478e+00 -5.666517563617422582e+01 6.477238969019041726e+00 2.263016753432877692e+01 -3.794265381971290196e+01 1.448842585754012902e+01 2.265346301657425840e+02 -2.901824308375039863e+01 -2.961131822572382788e+01 -1.077389482958986662e+02 -1.766780707909672898e+00 -8.559341727561982793e+01 6.812220952220757297e+00 1.187333201957329436e+02 -5.513882214357137457e+01 6.417173273852854187e+00 -5.757228463171646382e+01 3.546826169280970831e+00 9.241054436863774413e+01 -1.227466554137127446e+02 -1.025311636593746130e+02 -1.086182018267621743e+02 7.566401886920925790e+01 9.169792204945326830e+01 -9.782841082506234898e+01 6.628007744066513851e+01 2.732296990186315711e+01 4.097780672063446161e+01 -1.881947571717100587e+01 9.672398742723402165e+01 8.447875370912032622e+01 -8.187384519396161409e+01 1.260250447029941157e+01 8.570414140820732030e+01 7.718871134329459949e+01 -2.103194746258956371e+01 2.647959171282468915e+01 -1.404118248352128546e+02 5.135618202376437580e+01 -3.469046441930215252e+01 -3.454358957425444032e+01 1.834052154216626320e+02 5.025861276596241112e+01 1.273261595484181328e+02 2.021833298076006145e+02 -1.458320939545783972e+02 1.578257368114807377e+02 -6.707061791258841765e+01 -1.430811185445894864e+02 8.717963425145867973e+01 -1.420095910678442124e+02 -3.038539890541995092e+01 5.976459415060083558e+01 8.596286344282265901e+00 -1.779507836208121887e+02 8.914705765222394973e+01 2.667989556568571885e+01 7.317783922489209658e+01 3.838262934290181505e+01 1.004221380575399714e+01 -7.107457163154968782e+01 1.225851111434978691e+02 5.768757537873555918e+01 -6.579264908859602201e+01 -1.071965390406853231e+02 4.127950531856744476e+01 2.712627087383500424e+01 8.721415307092721036e+01 1.944869622298839147e+02 -2.610755821230750939e+01 -1.166098332776466862e+02 -8.977887657442376224e+01 -5.434466924633836982e+01 -4.704316486472700376e+01 -1.553800406702147541e+02 -2.379831352407995482e+01 1.370652449918771651e+02 7.894368931645077225e+01 -1.295674986171447074e+02 -1.585571405824403541e+02 -7.213541853297597584e+01 -8.090981106762235697e+01 1.552975865250335517e+02 -1.804489057837035091e+02 9.157337033678638250e+01 -4.879721329183894341e+00 -4.552876357325319390e+01 1.410534748973867281e+01 9.655989873612490726e+01 5.255090626881050753e+01 1.463107390476553178e+02 -1.684469909139103549e+02 -8.571828774121335925e+01 2.678368463228451546e+01 4.440183609055222291e+01 2.182606873420329237e+02 1.539494253033507505e+02 6.933114900524439861e+01 7.632824638662214056e+01 -3.635179430200474826e+01 1.607539342383121834e+02 -1.897676083944760705e+02 -6.707473030059674102e+01 -5.683446161721047218e+01 -5.482581016681652386e+01 -1.093641282604680640e+02 -1.584549750186908668e+01 -7.267123645922885089e+01 7.536941154477563032e+01 -9.718574811856528939e+00 -6.154915242633249761e+01 -6.602549046028259738e+01 1.907294969080575413e+02 6.238787116005271116e+01 -1.446738726441888367e+01 2.210614681439672893e+02 -1.146181766944167748e+02 -3.741190931322465474e+01 7.085524014119037872e+01 -1.294005693758396580e-01 1.577133945797161019e+01 -1.322827490902303680e+02 1.864365691213322407e+02 -5.189286357046285048e+01 -2.856157505640262428e+01 -1.160877234651552357e+02 1.331469406432503320e+02 1.014929001918303442e+02 -8.202745969485408750e+01 -3.967332130047764593e+01 4.115940552834801736e+01 -1.601469441989364100e+02 -1.063583246993280301e-01 -7.899652398522242436e+01 8.169739136489647890e+00 -1.143546064837335194e+02 -1.676200445852585972e+02 -7.470906764860073679e+01 1.566100050260664887e+02 5.985648237010291695e+01 -9.469078848927532022e+01 9.428330574829983846e+01 3.622011183754817409e+01 9.325457371750468383e+01 -4.449320087110966426e+01 -8.887364617130104705e+01 1.806425660868677312e+02 4.403817061787345466e+01 3.059328871263743466e+01 -7.713205610677449897e+01 -4.467625334200669585e+01 1.013448494718111448e+01 -7.544007751692867636e+00 -1.824467454327712232e+02 -3.651143111882407055e+01 6.801366338785751964e+01 1.178458500798046629e+02 1.642945061054283826e+02 -1.398247936768130018e+01 9.455437380925704360e+01 1.663541562503355067e+02 6.692021218809969696e+01 1.559663224678812412e+02 1.693640420224662790e+01 1.384357304489615501e+02 -8.849322478569999362e+01 5.628489439118683180e+01 3.096151761213660691e+01 7.996081448903532873e+01 -1.118847530227250076e+02 2.085337409935831374e+02 -1.357213874644333202e+02 9.294239570907905090e+01 -1.131726104506191746e+02 4.853981732707640617e+01 1.451247124009831069e+01 9.547989910134809577e+01 -7.755023711396015074e+01 -7.944420227862680406e+01 -1.177601114440456875e+01 9.370318455553076831e+01 -3.110553688780701265e+01 -1.716410540424963926e+01 -2.064179136698923855e+01 4.981577393487593319e+00 1.031489260934337011e+02 -6.576822044748431040e+01 -2.862893436094060995e+00 -2.033669096063749748e+02 1.277606018310947462e+02 -1.308251857093787862e+02 -7.742580379006167846e+01 -2.468859885930523035e+01 -1.130526298684616222e+02 -5.571020675748496842e+01 -6.133810686746957686e+01 -2.058149567512986877e+01 1.427902437138691027e+02 5.663238582214774652e+01 1.052338370807882484e+02 -1.425699610269670643e+02 -1.451885216906124469e+02 -3.000484520945980762e+02 1.069670021639228423e+02 1.092812570373883716e+02 4.424778780137676648e+01 -4.439061869148955708e+01 -3.903611309361406967e+01 -1.923492743103488465e+02 1.531483652435449301e+02 -1.125571395806626498e+02 1.120623995753270918e+02 -1.668609299604554224e+02 -1.498025957088310989e+01 -5.802043393893189460e+01 -1.249369237387390115e+02 -4.829189563259205187e+01 -1.303881512967912570e+01 -9.706994871879869891e+01 -1.084901453564905296e+02 -1.293926700059470747e+01 7.463264960731740416e+01 -1.306332235697501005e+02 -1.644019056387287847e+01 -7.730792917034969491e+01 -1.377391280321134559e+02 7.061171554253208527e+00 9.983553108450148272e+01 1.734574407875782356e+02 -2.000840370818398029e+01 -4.829085652686423202e+01 -1.301101739138674702e+02 -1.714330835561064248e+02 1.087564410508746846e+02 -7.627957957382926679e+01 8.288105825905887514e+01 9.866804572079342250e+00 3.070772354665569992e+01 7.745365264844618025e+01 -8.881987717471032795e+01 8.667357463136418971e+01 1.208817165106551386e+02 1.650303734651056402e+02 -1.223358771427046605e+02 1.089996644901410008e+02 -5.007271843554961777e+01 -9.522307493486134433e+01 2.250023092543156338e+02 5.170293811234621728e+01 8.754258635491721918e+01 2.239472882670677123e+01 -6.618912039530469826e+01 -3.664758335463587713e+01 -2.206389272465143279e+02 1.107815484208922499e+02 8.551457771433349819e+01 -7.940561112731116111e+01 -7.677108494041530662e+01 1.523060860249901509e+02 1.060102814697658005e+02 5.360721128329668517e+01 7.982663636865072476e+01 -8.329800800396927940e+00 1.082561201421427768e+02 -1.085584401703364250e+02 1.955863962096289868e+02 -4.141564672992038965e+01 -1.279446382948907228e+02 -3.946932444728670930e+01 7.526522595385034720e+01 1.545759486206953852e+02 1.362197013574373550e+01 1.823425993262716531e+02 5.478661287420657544e+01 3.524331369596919217e+01 -1.167945501433388955e+02 4.704318271095345239e+01 -1.312206485969822154e+02 5.000843192550745897e+01 4.059677931339270884e+01 -1.293577326707565760e+02 -8.920441200205105758e+01 4.176674366646420111e+01 9.155425588951587201e+00 -2.440329749077751842e+01 4.387894655209297667e+01 -2.244551649724436970e+01 -6.619364563929178757e+01 -2.734802098813406346e+01 -2.359536232329481820e+01 -4.179573194227995714e+01 1.971684080452882881e+01 -8.440932283085869869e+01 1.248053380796384175e+02 -7.802983394313163501e+01 -4.570446669160528330e+00 6.864727681177849661e+01 4.113368175413004479e+00 1.670706007461353337e+01 1.672767044526340996e+01 -1.229143240693716592e+02 -4.647266152668462880e+00 6.825628410492400633e+01 -2.428176754729605307e+02 -8.898315150782680405e+01 -1.182934991788639678e+02 4.592979956266862729e+01 1.009590403951048359e+02 -9.623442959203366343e+01 -1.761353208331355518e+02 -1.941819294928859279e+02 2.097054756792526931e+01 -1.520605113740477918e+02 -6.618548640121960425e+00 1.547637915862507043e+02 -7.489112391534122892e+00 3.895478924345994187e+01 -1.036846969685612976e+02 8.359434558524569070e+01 -1.240871977675797950e+02 -1.609477369064521923e+01 -3.173664616444175834e+01 6.017409434854641148e+01 -9.323803917193620450e+00 1.104464185380691248e+02 -1.274715540109982612e+02 -5.229777308314387341e+01 9.025432634428361212e+01 6.903880892837796068e+01 -8.597210153672362765e+01 -5.672740833434114194e+01 -5.144692225364551774e+01 -3.016644204711584507e+02 2.017184830603120815e+02 7.936298825406740320e+01 -2.462302796867899346e+01 -3.089408329387060803e+01 4.325495760467986628e+01 -8.769834877748446900e+01 1.036748994487926296e+02 6.289323225650192484e+01 8.544925633422218425e+01 -8.751364301495306108e+01 -2.771076476559099788e+01 3.472935384631243494e+01 1.808172708356548597e+01 -4.449638283425827723e+01 1.641417128022252996e+02 -1.799476058637755571e+01 3.676021924027452314e+01 -2.388322947651432173e+02 -8.805348937671551823e+01 -7.606230141182138027e+01 2.390946681488988901e+01 1.134650401413157823e+02 -2.406300081406135121e+02 -1.943100217278819173e+02 2.303392820464910358e+02 -1.098590288866001963e+01 9.984052835111104685e+01 6.523058010988253841e+01 -5.755216535910807352e+01 -1.361014983477717237e+02 -9.886442611880957543e+01 -5.223178784217581949e+01 -3.892027481079033890e+01 -4.067206378859683724e+01 1.683794222768010584e+01 3.852759281776449996e+01 1.732472935381701404e+02 1.279326258287580202e+02 7.143790010484941000e+00 -4.534078939627238292e+00 -1.650112150929032282e+02 1.242925302344454508e+02 1.655338666673595469e+02 -1.073861144972127875e+02 7.660411646837759747e+01 1.905540250161802618e+00 5.698033361939182129e+01 1.303635788174390768e+02 7.369619182868777330e+01 -1.392047074557470694e+02 1.680341219504739669e+01 -3.052594808992999020e+01 1.156685462347983062e+01 -2.413241948907936418e+01 4.714674484110561536e+01 -2.706441311678557895e+02 1.883691807671550293e+02 7.647331199789181078e+00 1.657639569797443926e+02 -1.101850979354581206e+01 1.104640701719987135e+02 7.451288642308307431e+01 -4.373645597914936189e+01 3.106082391391380071e+01 -7.570779841120582887e+01 -9.256047047449591503e+01 -7.505528574492069538e+01 -3.335366085724057683e+01 4.705821172269342156e+01 1.147447512507584975e+02 2.970864222437181823e+01 6.461387908191058216e+01 -1.091715087939095383e+02 -1.428684077003467507e+02 -1.404989628123718504e+01 4.837566578443317411e+01 -4.749808351047435195e+01 9.847150698012102055e+01 5.783353589030851793e+01 -2.883390080555374269e+01 3.122966676152083210e+01 6.394931127665068971e+01 -7.520480978557013430e+01 -1.394237436883203145e+02 1.481833504486413631e+02 8.153655526101422524e+00 5.230725840124001991e+01 -1.557111072052190082e+02 -5.571411975137758077e+01 -5.096601711029896675e-01 -6.850919845335147329e+01 4.470435379357971861e+00 5.873217449736080908e+01 1.946188294415252358e+02 4.084380596049909684e+01 -1.145464110679463055e+01 7.535211057542944957e+01 -4.752583687413324753e+01 -1.138468095309128074e+02 -1.444095763385803082e+02 9.806621982542745641e+00 2.624712693997167179e+01 2.483489792523804240e+01 -5.945660799451196965e+01 1.263514360567205586e+02 -8.454989812995863474e+01 1.342211479314998144e+02 9.132674926882928901e+01 -6.805112360983926578e+01 -8.854465172408096407e+01 8.808304822673341050e+01 2.148702589826257281e+01 -5.490441920782218688e+01 -5.637857748659725132e+01 1.430162209545509029e+02 5.996507771821563892e+01 8.360653050492931015e+01 2.737993957587827154e+01 -4.410863023442101394e+01 1.126198651217128912e+02 -5.715770123466010233e+01 5.308204715986029054e-01 8.027214200031379221e+01 1.043517883956386925e+02 2.677060095693414041e+02 -1.835519686549847904e+02 1.687611180963613151e+02 -7.093030513108786295e+01 -1.595835232864202879e+01 -2.621708374087036475e+01 -2.175328797930545832e+01 -5.794917270524089048e+01 9.747497035631648998e+01 1.932751186348579893e+02 -1.247787925692999238e+02 3.248807197759518317e+01 -1.333308980972335860e+02 7.376224753118589206e+01 -4.680720339164347621e+01 -8.511301091694210186e+01 -5.664548956843006522e+01 4.329729122689661835e+01 2.042878046747028975e+01 -8.613624464015333615e+01 -1.485647130552354156e+02 2.189015004837218115e+01 1.660726586248375156e+02 1.505423370597182142e+01 1.923728032950630791e+02 7.880974528775830379e+00 1.419661109413431177e+02 -3.651087794293916033e+01 9.567784800856635741e+01 -7.541188297784539429e+01 -1.192010532694621787e+02 5.220062148394596591e+01 -6.129841136818361491e+01 -8.293507075660855321e+01 7.708767042995563656e+01 6.780606241435952697e+00 -9.972585478074680054e+01 -1.591664239786831274e+02 1.564116443690342635e+02 -9.434790911071462460e+01 -2.449848158233508766e+00 1.270824536404312539e+02 6.147023482028917840e+01 -1.039674170734009380e+02 1.121635873585703003e+01 2.987759076525388195e+02 5.653143053147860542e+01 -1.672072032855969894e+02 -5.056532339253210750e+01 -6.527816248292580781e+01 1.023305947869986632e+01 1.140856468355336943e+02 -1.097403522502745830e+02 2.285109230013343762e+01 1.385075089046341930e+02 1.993640722939350951e+01 -2.242349173518575469e+02 5.137966547148964480e+01 8.013063064187878126e+01 -1.439400507188476119e+01 3.484719200125596927e+01 1.086908990314700979e-01 2.383042214703205275e+01 2.945361870169464780e+01 1.229607238211195295e+02 1.040488595825277969e+02 1.642644120964566312e+01 1.582643402491856932e+02 -6.798781342951907902e+01 2.619252481523956817e+02 6.904083211419197141e+01 1.504336258172282896e+02 -2.334919399448011745e+01 9.563874770121950064e+01 -5.218459752230656790e+01 -1.554758346896118439e+02 2.785316459407895806e+01 1.010908344130503451e+02 -9.312131783879877389e+01 -1.112669850169124572e+02 -7.068742804663368418e+01 3.884806748827656264e+01 -1.214181911666005220e+02 7.943173778337930457e+01 2.986491592970649833e+01 -1.037197570950499710e+02 2.018644221342133562e+02 -1.250292379844381863e+01 -1.080893191800392117e+02 -1.418277162747267717e+01 -2.171432930815710449e+01 -1.490369623924833036e+02 -4.256584476495245895e+01 6.534680254864494486e+01 1.400103144675377393e+02 3.081056688396476062e+01 2.847195969484733524e+01 4.760238600824430932e+01 -3.804523162487000576e+01 -1.546990370170915412e+02 1.680520273665774056e+01 3.298321558233430295e+01 1.414226861028978419e+02 -1.061573323059848839e+01 -8.094552739920594320e+01 7.782086146622307865e+01 1.083342216673030878e+00 3.406194133780248734e+01 1.481194488773865601e+02 -1.887839321973551705e+02 -9.868367076796290860e+01 1.325730708585950026e+02 -2.228367389038020292e+02 -1.899592336495689722e+02 9.393823199208526376e+01 1.590581364564916953e+02 6.542480032624133912e+01 -4.566082875310274680e+00 1.609476646744747939e+02 -2.266514642988307173e+02 1.106799121381293247e+02 4.377839814237719906e+01 1.312607060477448329e+02 -1.947930678716649311e+02 1.101533398695602841e+02 -2.926818974152112673e+01 -1.381054705503786124e+02 -5.506299197867304152e+00 -9.546400630442447266e+01 -1.693924504264964881e+01 -4.362371850973002729e+00 -1.272384910199373138e+02 -1.273717798472043654e+02 -6.464496710454059780e+01 -1.331884875911642609e+02 2.076254023635213173e+02 -1.662264477994769436e+02 -5.180271914332849548e+01 1.782024812782464096e+02 3.503356739758078930e+01 -3.056993172565335044e+02 -1.312070440075288786e+02 3.671483172187984678e+01 5.642388404093767917e+01 8.947201402174101759e+00 -1.597519959223889146e+02 3.686261875276967714e+01 7.673648318204238983e+00 -7.676757339903680588e+01 2.093405109928172294e+02 2.092841530742485645e+02 4.455233573246930590e+00 -2.153543674860828219e+02 1.301440490294051813e+02 3.180588876219382755e+01 3.818015289495565234e+00 7.919371949652587261e+01 -2.142561628706525880e+02 -1.425926826203142070e+02 1.457068922675320266e+02 1.132288999336870461e+02 5.470235706027325762e+01 1.479840577286812788e+02 -1.841146990015590461e+02 -2.107186192398811642e+01 -1.347495410665742952e+02 4.494080262719747765e+01 -1.072622271973030621e+02 8.987546390907357363e+01 -3.494317197971609090e+01 1.278539492372357778e+01 1.832337578574368990e+02 2.937358558883865811e+01 -2.722102935924984308e+02 -1.304663885491632129e+02 -8.610139581209985238e+01 1.632849409703934214e+02 1.294015375094238607e+01 -5.550474578026289407e+01 3.144087308234782796e+01 6.460322379394779091e+01 -4.091671154475108807e+01 1.110418791005725581e+02 -1.040268175459546427e+02 5.082522187275110781e+01 1.155891238872940505e+02 -3.652937874520075212e+01 -1.013366572343184799e+02 -1.170843180040352962e+02 1.236789199518070603e+02 -5.126069884432263279e+01 2.029912742192055362e+02 5.907803967049082416e+01 1.146044391112388467e+02 1.903559813803630902e+02 8.847832154451625186e+00 -1.283105602546885393e+02 -1.712388667688952921e+02 -1.179584559471396261e+02 4.382669859044064253e+01
-1.377255128727593103e+01 -4.825496367201862036e+00 1.045012319053166863e+02 -2.310106746634435808e+02 1.567790997156057244e+02 6.411579188230072646e+01 1.534625840065168347e+02 -1.302754976156089413e+02 -2.825744338145228962e+00 -2.430336299677945888e+01 -2.213906380875707214e+02 3.305497016327587545e+01 -1.849414910959634639e+01 1.233497195484547291e+02 -1.261040717627527528e+02 6.224377013705662876e+01 1.264293148959166189e+02 -4.633179779235360485e+01 -5.016688301134125538e+01 -2.735165994680205870e+01 6.221302863736482891e+01 6.371429893415556478e+01 3.267829414390659082e+01 -2.345864716496348024e+02 -5.213545293487866417e+01 9.223898909036444138e+01 9.979644695801987098e+00 -1.041548218281126026e+01 -6.712985484029252348e+01 -1.555242812172403077e+01 7.397818965147206427e+01 -1.466787021490125369e+02 -6.239967126198971670e+01 9.095562745300279417e+00 2.092497019876644515e+02 2.138653684300273881e+02 -3.228479410571763708e+01 5.637455588154344355e+01 -2.932948247439999823e-01 -1.408970717704760034e+02 9.683383463050357420e+01 1.081973877921017362e+02 1.094731925685085514e+02 1.181115818198013301e+01 6.245360639090834809e+01 4.855157265253642862e+01 3.923371889760601761e+01 2.954662933541210279e+01 1.112579167911740825e+02 9.051915940120007065e+01 6.620130702761206010e+01 1.643761383770196858e+02 2.497036719180503894e+02 1.972538440969535998e+02 -5.963236396886436097e+01 4.969193272306443276e+01 -6.487899604772670159e+01 5.693718949885594327e+01 -1.937689204257851543e+02 5.699410962948218184e+01 -2.065842225619178976e+02 -1.701671775816043350e+02 1.304573443763351470e+01 -9.294136838127990075e+00 1.710341791386843511e+02 -2.096957051967862640e+02 7.595099222922856086e+01 2.317702073379312537e+02 -7.340218927442402119e+00 -1.963294115935536013e+02 3.594690664235565691e+01 1.989788260246318430e+02 -6.162627907199120614e+01 -2.687446637517937802e+02 -1.034638853928287574e+02 8.853562527603548560e+00 -2.321252799306574843e+02 3.224818457384220949e+01 -1.810684222721943115e+02 -1.872978417494946655e+02 -5.756457815996049021e+01 1.539320164502986472e+02 7.020344524550722554e+01 1.069203671529429123e+01 -8.942017863054208249e+01 -4.301946435846166850e+01 6.438675195016207908e+01 -2.342910103426742126e+02 5.464309452740373985e+01 -7.581676454875560012e+01 -7.884535366007513346e+01 -1.785676995038221548e+02 6.579139029810905015e+01 9.374578175780018796e+01 -1.640051530890673348e+02 1.745109181355639976e+02 -4.033479056498294568e+01 -1.708822235723567218e+01 8.840921572969313047e+01 1.579147381699067694e+02 2.186366627363869597e+01 1.530250491618754438e+02 -1.862676426718156364e+01 -9.167139166294947472e+01 -1.983902316432346780e+01 1.021824707054086900e+02 4.672161824236761163e+01 1.016326105362859806e+02 9.809433583282971369e+01 -8.624894202884348715e+01 -1.765343763178682366e+02 1.278644188458955000e+02 5.638510040753614305e+01 1.673400638452337574e+01 3.178255789317123714e+01 -7.058459172648566948e+01 9.981080803675855861e+01 9.333588907786661082e+01 -1.416378476012176080e+01 -7.402718428691069619e+01 3.203569393331068227e+01 6.511132124523868470e+00 -6.400827403813809724e+01 1.762144293562010944e+02 -3.441145159080196692e+01 1.264426320007108018e+02 -7.292454214199679541e+01 3.991483107843870926e+01 -3.759831766608476045e+01 9.302150194538631922e+01 2.444227690134356479e+01 1.202166788123795413e+02 -1.206366999143621257e+02 7.734340090795667777e+01 1.285116399610066082e+02 -4.655460473208142247e+01 7.840652139878870663e+00 -1.309297351748907801e+01 1.214995790991439719e+02 3.600837441128760918e+00 1.756473421283421317e+02 -1.472236853580819229e+02 1.215244781056538841e+02 -9.517648510700404074e+01 9.967976714165983765e+01 -1.427410295377298439e+02 3.076203028078446522e+01 2.575944610099573495e+01 1.927372376033432699e+00 3.783361782747076063e+01 4.775293227053854395e+01 -1.299529906098172027e+01 1.117955072119030113e+01 1.126470832489392535e+02 1.326699852597262748e+02 -9.031165473847032388e+01 -5.656860353410590392e+01 4.941944765562826092e+01 1.628688431009908344e+00 -1.427715876225212241e+02 -5.739987297902757035e+01 -3.702605916135144781e+01 5.104821160928396040e+01 -6.842431154410577676e+01 2.394114887805064384e+01 1.673087611385579976e+02 -8.294748568757174212e+01 8.427001878431941861e+01 8.780081759408798803e+01 1.167609067627310182e+01 1.288583038823524873e+02 6.566649818677744577e+01 1.755045019055378646e+02 -3.602876495177955718e+01 1.175168843455239767e+02 5.801498769827693280e+01 -1.681580948730638170e+01 2.133328153332112151e+02 -1.451219422383452127e+02 5.108767782525380596e+01 -1.961210985054494529e+02 -8.805075547233931843e+01 4.288744290350063437e+01 -7.552466479002822553e+01 -1.630861218514479845e+02 2.085559034109803065e+02 -8.977381281486142939e+01 -4.970162303285443528e+01 -4.844992867289825256e+01 1.274440774565382810e+02 2.039316058578698971e+02 6.780537500484183511e+01 1.531356244890612004e+02 2.297721923505323502e+02 -1.729568943159033978e+00 1.706372387570418425e+02 7.424596789727189616e+01 1.993968093306674234e+02 -1.316952122746375835e+02 -1.246662238075534113e+01 6.616809845126685019e+00 1.989664681334992338e+02 -9.524870301599825950e+01 -6.327537467067224952e+01 -5.547686338133682682e+01 -1.402339907255662581e+02 4.875661431450058814e+00 -1.057328655757913793e+02 1.613356408749400259e+02 2.471235493846702980e+01 1.260088598431514662e+01 7.573934502505929345e+01 -5.197291122859190260e+00 1.224386936101488317e+02 -1.663370304284933354e+02 4.753116617821648759e+01 -1.790076501320803573e+02 1.229892952905412784e+02 1.004970225181816943e+02 -7.053861128621402088e+01 4.894208483545979504e+01 2.494150183066544173e+02 -3.187695654960214142e+01 4.364415815867636894e+01 -3.421165913854414953e+01 6.067330697514501026e+01 6.736047168943184715e+01 -6.554329937898217828e+00 1.067871470927531306e+02 1.063813824697756587e+02 -2.030566111048218829e+02 -1.604985584842021922e+02 -1.254459159852677601e+02 -9.927199535290576193e+00 -1.569054921159134892e+02 1.210001870695116253e+02 1.155957678354339606e+02 6.172162300395245182e+01 1.168271836555473975e+01 1.651408202508720535e+02 8.792312197016336484e+01 7.065696231314637998e+01 -1.064731544504197274e+02 1.594308373894021429e+02 -3.715921369975500266e+00 1.144330391241172720e+02 9.223055833223474664e+00 3.847402371767295648e+01 -7.928648165000517167e+01 -9.502796007380921139e+01 7.492734661693251041e+01 -3.980725898798288309e+00 1.531459802784513045e+02 -1.318093220344503536e+01 -3.004062658365801219e+00 4.798669546871529690e+01 2.371276059326480734e+01 1.479706597537596053e+02 1.525184975051572778e+01 3.748014789044910344e+01 -1.618667315748573969e+02 6.891122243208243958e+01 1.398132777101328656e+02 -1.856243983041131074e+01 -2.384146155582193956e+02 8.824337273110691626e+01 1.421818493082107580e+02 2.114925148028817148e+01 1.971454180631647262e+02 -4.230428521286491161e+00 4.475287967201440864e+01 -4.538900440428728444e+01 -1.445040016102060179e+02 5.827783382154668601e+01 -4.940928529083020493e+01 -8.443899016365959653e+01 4.287635511450103110e+01 -1.922938732664831605e+02 7.467864064627218568e+01 1.708904402012430239e+02 -1.052651783815724684e+02 1.797620472292987870e+02 -1.015722070400621817e+02 -6.241760513918428011e+00 -1.090319573602860004e+01 7.954376925994887415e+01 -4.833404494339721680e+01 -1.119963711428757307e+02 -9.187731442413139860e+01 1.512977956911898332e+02 6.133099342425293088e+01 -1.366064121278498078e+02 4.629361016928474903e+00 4.508632448826678285e+01 8.564634226187412480e+01 -4.183219682757258795e+01 6.223942984440274984e+01 -7.150669381885711573e+01 -1.683690001203299289e+02 -3.591295130839710481e+01 1.461453325803597068e+02 -1.174523667637879640e+02 -6.684360373765942498e+00 -1.688842537362458813e+02 -4.886096739711535797e+00 -1.511303240294799082e+02 3.403553674878541102e+01 6.223641201496692332e+01 -5.213673276968580694e+01 -8.536129875601430683e+01 5.820734224113219391e+00 7.701921056651998754e+01 -7.016623481618178459e+01 1.394800566642722686e+02 1.091574018039363665e+02 -1.321116536450068395e+02 -1.091148905697690168e+02 1.397747521658777146e+02 7.384343713996562997e+01 1.553519920007153416e+02 1.038221298715017724e+02 8.397976746373880985e+01 -6.229956395964080684e+01 -8.457753996992620671e+01 -7.969495263479868186e+01 2.113730681887764717e+02 3.149042942935338374e+01 -2.570797186017807689e+01 -7.084854495940685126e+01 -5.173920629547777139e+01 -1.354676501932950146e+02 -1.706948237515245026e+01 -1.804842258389549272e+02 1.286512778758599609e+02 4.738276454598207010e+01 -1.185871768397198736e+02 -4.975844248357403643e+01 1.232040887203022095e+02 -9.982092713782004978e+01 1.057622856867528327e+02 -1.218237149379537243e+02 -1.209106084125123459e+01 -9.823224239846261696e+01 9.223893488878985636e+01 -4.370278245055137489e+01 1.068147223060167228e+01 3.013643333229066812e+01 -1.302686236698794460e+02 1.286084464154584595e+01 4.966326414311146209e+01 -2.309234687471774450e+01 -7.068893448541349755e+01 2.081376551692385988e+02 8.886559163796925986e+01 4.848717042891448870e+01 -3.231091963451834914e+01 8.251744211483848801e+01 1.722758866410504766e+02 -9.491517659971432863e+01 2.152747543432797102e+02 -1.368063616254671615e+02 -1.890839087501381073e+02 1.561473680288382866e+02 -2.404471954709656814e+02 -1.064270250137133056e+00 -2.517225211441630677e+02 -1.572120841427000357e+02 7.373317000803861276e+01 -1.497230803136005477e+02 6.002020214281248656e+01 1.128828226345356569e+02 -1.648774086733808986e+02 -3.101555073318790434e+01 7.747857657552789590e+01 1.376629083901969182e+02 -1.912099297158096078e+02 8.985110677114953148e+01 -1.006530588912557675e+02 -1.017299750955974247e+01 -1.430379636948433841e+01 -8.180729769953144626e+01 -9.284394063674307063e+01 1.863861712646050819e+02 -2.224280401367031956e+01 1.351051747896749200e+00 1.338277925298893933e+02 -8.904591404262248489e+01 -3.538409496035905022e+01 -1.106420704411201541e+02 -5.023825586057223802e+01 5.359469195303749878e+00 6.111446472004855224e+01 -1.390307694267425802e+02 2.442256338293629199e+02 -5.555528010488248469e+01 1.264863710799147611e+02 -5.034406865172083911e+01 1.235722623251799064e+02 1.433949510415688735e+02 4.957902253351313249e+01 1.260293326426269687e+02 -4.460551702968810162e+01 1.444535083193713092e+02 -1.614281949510643130e+02 -6.749594247998426511e+01 -6.501025152655040529e+01 2.631549515693513541e+01 -1.675880600910004432e+02 7.492610625776848110e+01 -3.183519060308204374e+01 -8.533686585831607374e+01 9.255883428796978762e+01 -1.560275760518830737e+02 -9.417211560742725851e+01 -5.427358014159828770e+01 3.417524911502978568e+01 1.340867495034381989e+02 1.207364268606492885e+02 7.143129524179090595e+01 -1.707514571264618475e+00 1.805240604991718385e+02 1.265292673189662764e+02 -9.747070742772933727e+01 -8.075594614840018437e+01 5.745805766954247673e+01 1.035072260186259996e+01 1.011711167767922319e+02 1.720204622781350281e+02 7.286228929646540564e+01 2.512600656730788629e+01 -1.054732509326651382e+02 1.774067393326374145e+02 -1.173707727818979834e+02 -1.706182193624402998e+02 6.781972116750586110e+01 1.150351223578724671e+02 2.023487496353455839e+01 -1.432707396172848746e+02 3.070927638003125182e+01 4.379847281541756843e+01 -2.816287053342221847e-01 1.350373649726407450e+02 1.005041788259455728e+02 1.763640791893192272e+01 8.080228648707280570e+01 -1.104461727171497358e+02 -6.451369976909079540e+00 1.013715757515008846e+02 3.059503032476929363e+01 -6.705993207130234168e+01 2.041197835878058413e+02 2.382182234277915711e+02 -1.294455132399530441e+02 -2.842692670189162385e+01 -2.167066965430755090e+02 -7.439130856398541880e+01 1.614589524070824496e+02 3.552503881072835323e+00 -7.314311284973800298e+01 1.688163135094470420e+02 -6.444526907721893849e+01 -1.654476849710443389e+02 1.406670200843738598e+02 -6.928509707628745673e+01 3.543422847891508098e+01 8.898348756175066399e+01 1.417783512406520252e+01 -2.453235375511362122e+02 4.351500910849879489e+01 -6.270579002581635031e+00 9.272560971594604950e+01 -2.425698518377792823e+01 1.042296919874668077e+02 1.743876928884202471e+01 -8.734881166301187250e+01 -2.107146356487399075e+01 -1.803874042699179370e+02 1.184131311675490110e+02 2.600399597377962024e+01 -4.287617332179798524e+01 -5.335881086936063866e+01 -6.468146930189429611e+01 4.228724887718265535e+01 1.654232659183189185e+02 1.366314108273063255e+02 4.437148813696249761e+01 -2.036936946641208124e+02 -3.993523407798558367e+01 4.509096989123685972e+01 1.208330507342318185e+02 8.984848837124243914e+01 1.593184373511198082e+01 -1.915615630733159378e+02 1.356628538417336074e+02 -2.303916849095343480e+02 -2.118983838860842468e+02 -1.924604272722495679e+00 -7.596949435628926039e+01 -2.474793348200897114e+01 8.972420617431339451e+01 5.758253740226621886e+01 -1.145320893391295414e+02 -1.559046780184128238e+02 1.504276921473823592e+01 1.273595632887045923e+02 2.135850613624456784e+01 -5.839177566237206918e+01 -5.309968871140821278e+01 -1.219930945327750749e+01 1.661540310797201982e+02 2.305225381615671765e+01 -1.819429580932643660e+02 1.343781692937382672e+02 -6.996342991982849924e+01 -4.380192429919646635e+00 1.614006227818454704e+02 -5.485781767104978712e+01 -2.050908051373953001e+01 -1.151334799377052320e+02 -6.309046787081229901e+00 -2.502173586165506336e+01 1.380956608667584646e+02 1.259120761672029687e+02 7.083474714080310264e+01 6.852213239204463946e+01 -1.962166652782283549e+01 1.417955608617088785e+02 -1.181501157649542080e+02 -4.479922993762834871e+00 -9.544025883115980946e+01 1.647764608707664138e+02 7.647530096260750554e+01 5.422196458230443739e+01 8.709719370382845938e+00 -5.581518386444127344e+01 3.604324347500694614e+01 7.108215446191470832e+00 3.707726036810051085e+00 2.530106804200255866e+01 6.265487550808080641e+01 1.784365983714314723e+02 -4.065221399790510759e+01 -5.450999160407457822e+01 6.998355346254484743e+01 1.212430052047895970e+02 -1.341547517021441394e+01 9.629706867647620072e+01 1.089420937405303391e+02 2.208061273168976300e+02 -9.070708637880559877e+01 -1.285996689504781330e+02 -2.999591346083598964e+01 6.507996514120026177e+01 -1.062957670288968615e+01 1.125557149259590375e+02 3.899013563515639191e+01 -1.703894956673111949e+02 4.721610416298761237e+01 -9.371807240001309935e+01 -1.417369961161975311e+02 1.408778879423955175e+02 -7.958782173449915831e+01 6.189471574685077826e+01 1.165073926734011138e+02 -1.037528236599551548e+02 2.454235627557726218e+01 -7.554829090070617781e+01 4.211484439098072841e+01 -1.198742737277658392e+02 6.440364440573515026e+01 5.718698514034583980e+01 4.164706955835715263e+00 8.801707535040205244e+01 -1.600801945551694985e+02 7.992634297810712951e+01 -3.052684085993802299e+01 -1.754793255432805381e+02 9.808953871059316043e+01 2.543376887796893371e+01 -2.038149827599643515e+02 2.442995644246629467e+02 -5.420885443145280203e-01 1.092573291184567950e+02 -1.252776929489739075e+02 -2.017276160431773349e+02 -9.692528750095765133e+01 2.541598494884795834e+00 1.484759914526445357e+02 4.214963565851391536e+00 -9.925543130845414908e+01 5.242381086219267416e+01 1.423558115067812082e+02 6.753118277729579688e+01 -5.378113442526787225e+01 -6.142044947013664569e+01 8.778688912548595624e+01 3.198443183444462434e+01 -2.030691418224013489e+02 -2.154078662684765177e+01 1.756006223205627634e+02 1.027089430445087146e+02 -5.951645694170171197e+01 -1.161350592543739424e+02 -4.434715723144890376e+01 -4.994137336238764391e+01 -1.188895474385666944e+02 -1.925725723312072546e+01 -4.743841437692488228e+01 -1.180095986245466548e+02 -1.369339608290594867e+02 -2.793252159285797731e+01 -1.305041053208335313e+02 -1.388933595111197974e+02 -3.981516496418856121e+01 -5.752766864039933381e+01 -1.152552149088301690e+02 2.003810981901151820e+02 1.134707153420146142e+01 -3.029596775919398510e+01 -1.832487943946955511e+01 8.468008353510501252e+01 1.681976157891916657e+01 2.696432883562579619e+01 -2.297649201606095914e+01 -4.969731773488319249e+01 2.253355664533953728e+01 -1.564535027150502344e+02 -1.713923662380859980e+02 -9.741874940897564272e+01 -2.054415047555055480e+02 -9.650097517881093268e+01 9.242510823702296818e+01 6.606773937453812096e+01 -2.807473906266366370e+01 6.542313640931929797e+01 -1.684909026344579956e+02 -4.386326919354939946e+01 -1.249868855523198903e+02 -7.186935958227809351e+01 2.270003885306188067e+02 -2.209922773075157352e+02 2.209785849602055521e+02 2.695323336412362281e+01 -6.083575536048309118e+01 9.937103687673074148e+01 1.335858757578734526e+02 -5.586786093514902518e+01 -2.192648433735438118e+02 -1.605138031741085456e+02 1.100713455420393103e+02 9.017781620972094458e+01 -1.459894590630713367e+02 3.443761156971991255e+01 -4.266643173995807814e+01 -8.332117750424139047e+01 -3.059500044432922294e+01 -5.904674203269683375e+01 -9.308654211871602513e+01 -3.660604708863995427e+01 4.759373114347241973e+00 -3.527463219217113988e+01 -4.613964624586646690e-01 -1.551512851245935742e+01 9.907437560982982916e+01 1.367628247546233808e+02 1.419031784137335883e+01 1.805516289854590184e+01 -6.788808082604131755e+01 -2.109642105967774341e+02 3.645291099871609219e+01 -9.878420335587325951e+01 2.778717120262790274e+01 -8.884335156867319228e+00 1.040984611251106529e+00 7.766983741024424148e+01 1.311866336287817205e+02 -7.581920719534983277e+01 4.090604333023089367e+01 -2.075081991639092962e+02 1.038478351123805510e+01 7.619387769656848164e+00 -1.319023691902906990e+02 -3.633052251611231043e+01 -4.771666204539224054e+01 5.149104116789138708e+00 -1.100898469586040704e+02 2.913325387941951305e+01 -1.051360120188126217e+02 6.049347004011384143e+01 7.300080560439045030e+01 3.967667661577775107e+01 -3.124210251879834743e+01 1.156225950542511072e+02 6.569345932043262337e+01 8.608302429274863243e+01 -7.207408247625977538e+01 2.190285999360283142e+01 1.376435437515442857e+02 -6.288626055761123723e+01 -7.430822566262136775e+00 3.443003411420765048e+01 -1.381069990948422515e+02 1.052572623264913290e+02 9.635401075661432913e+01 -1.087234787064926280e+02 -8.858272847827872454e+01 -5.968778632708481524e+01 -4.889676954095001804e+01 -1.724076025143797040e+02 -1.461850247354836654e+02 -1.424028519521773717e+02 1.135873447780765986e+02 6.420450120288117546e+01 1.714252798750047759e+02 7.719409370415644567e+00 -9.221674367536985528e+01 2.009210613109627630e+01 1.486997654372207833e+01 -6.816283416044431931e+01 7.954665076551771108e+01 1.268225865151456446e+02 1.077611222887354181e+01 1.540974585419856169e+02 2.420498801232473340e+01 1.191776510636428981e+02 1.624685079645535524e+01 -2.230901831425543662e+02 2.344559065115469707e+02 -5.253937286422704034e+01 -1.601557711615179187e+02 -7.212503302018536999e+01 -4.615395168862818309e+01 4.411598729007257447e+01 2.731109359607239639e+01 4.878962998311930477e+01 -7.914167873524445440e+01 1.305597293779156871e+02 -9.200993943665781671e+01 -7.473152743239461770e+00 1.519617768090420782e+02 1.169209890356603410e+02 6.176746824328840546e+01 -1.886081772937229744e+02 2.709324023714223628e+01 1.495690336312814281e+02 2.496574156524165744e+01 1.038554407463826408e+02 1.132432252712259952e+02 -2.247180554807856936e+02 8.177729542687033870e+01 -6.138436930040584372e+01 -2.389151538113736422e+02 9.396207843857708042e+01 2.609454816642143626e+01 -1.289265092306934832e+02 -6.179611119626817128e+01 1.463138483732051327e+02 1.551913009603871387e+02 -7.961532109892540632e+01 -1.341249561084700304e+02 -8.750245807264113296e+01 -1.737584018205561733e+02 2.045654640907995869e+01 3.961110088056017275e+01 -1.763697399107472918e+01 -1.290416891929075405e+01 -9.325266869304309125e+01 -9.211108134024428296e+01 -2.562731149087838389e+01 1.389485320836264179e+02 1.413138883108711070e+02 8.406610305493344981e+01 1.004601768857123147e+02 -8.135894049796499417e+01 -1.864767750122216796e+02 -1.370726083573726939e+01 -2.396228232901273003e+01 -7.317776607462785421e+01 1.560961656653223395e+00 7.536094068390630696e+01 -5.458376967794882972e+01 2.533102942814590364e+01 8.162019989325474967e+01 7.225576459281924713e+01 1.139134164819770660e+02 -1.538257943759512045e+02 4.087790318640558951e+01 8.588850125126731427e+01 9.769234650702401268e+01 6.092762219605146612e+01 -1.064392839897253111e+02 1.411912142627943183e+02 1.313744140168241188e+02 9.878243239522224428e+01 1.046640106160089942e+02 -8.685076377537311032e+01 -1.534909420754376441e+01 -1.329960920477093822e+01 7.947195482413590639e+01 6.697037971872997275e+01 5.764105394896324697e+01 1.006316368769484910e+02 1.200421925018653866e+02 1.276222839528562645e+02 -6.699444244256991965e+01 8.306916873856960137e+01 6.728671066585393135e+01 -1.212930595463095216e+02 1.356707453039799134e+02 -1.036819888842394022e+01 -2.877203880511872924e+01 2.054326915246496128e+02 9.118806031171686755e+01 1.279488775310099555e+02 -1.488411922887220555e+02 -1.627395137235648122e+02 -1.587027234006210676e+02 -1.260932887011615549e+02 -4.570258423074855614e+01 1.134162543007872301e+02 -1.741014152399349086e+02 3.362283205746415149e+01 1.491033679271904191e+02 -6.128660789133938636e+01 -9.440227611268163344e+01 -3.626097426119405753e+01 1.404912546577787964e+02 2.350199970710926891e+02 -6.884545848100756871e+01 2.047959173092327134e+01 -2.867213723153549765e+01 7.083895430032846718e+01 6.237355156776634146e+01 -2.206247426149843989e+02 -9.174191149421051250e+01 1.423671079623433684e+02 1.447163148468991949e+02 9.786998913232574182e+01 -5.152678046485921470e+01 -7.852246055635824007e+01 -4.706519553004508793e+01 -1.827710136536083212e+02 7.373859721536665290e+01 -2.661949026778950866e+01 1.723871776922015044e+02 -2.891370482768923722e+01 -3.258778752664888430e+02 1.501548354039707931e+02 5.221781031221022573e+01 -1.223000038089882366e+02 -2.291114469857025071e+01 3.662313776864274928e+01 -2.152751727240697051e+02 -1.185176753583004228e+02 -1.135795519760375072e+02 -5.857352343755066926e+01 6.516262183979011979e+01 -1.708950525643631977e+02 1.119907149784548750e+02 -5.632955625948036982e+01 2.997679913821823305e+00 -1.383961475535131456e+02 -1.073891717535989869e+02 1.824598571835901453e+02 8.990924607649814959e+01 -4.382783662311378947e+01 3.861231409545254678e+01 -2.913478483797890206e+01 4.478501309257797658e+01 -1.085785308128929074e+02 1.025048763116702162e+02 5.245911067702229502e+01 -1.234553860178392455e+02 1.212275511100727385e+02 -5.105700169268737909e+01 1.037585722628723346e+02 -5.132445951072049439e+01 9.181510350355462435e+01 -1.593487149380179915e+02 1.481810427504993015e+02 2.574344366325859923e+01 1.045184267984388811e+02 1.354632246052247808e+02 -1.523405410064514172e+02 -8.923552236199896015e+01 -1.097458038645999920e+02 6.950959664616831901e+01 -1.780516939080899874e+02 1.573545148905115809e+02 1.480439350036373298e+02 5.508533421781133654e+01 -8.824227993273920845e+01 5.929422772149543874e+01 -1.114975109038853134e+02 -1.142049570770796763e+01 3.639666945395897812e+01 -1.910410388218338937e+02 -8.487197319239682258e+01 -1.407577461365780103e+01 1.063229184583215385e+02 -5.220191896229982831e+01 1.130076705011099989e+02 -6.694683556291512616e+01 -2.193369949881472110e+02 -1.114255488537288699e+02 -3.550833275895249841e+01 -6.264627430142503783e+01 3.134065418122847291e+01 5.341250416562871095e+01 6.626746931296781717e+00 2.624804302454472094e+01 -1.220290144853955638e+02 5.598074518369146091e+01 3.395618444865618812e+01 -7.519247921264860679e+01 9.614258710173441358e+00 5.856706917728768502e+01 -9.936680586803163351e+01 -5.732595003384724208e+01 -2.510491494107468569e+01 1.016790978190045536e+02 -1.783725916615786744e+01 4.364693105804795970e+00 -2.374793382669371908e+02 -9.903230641234057430e+01 1.030467100837385175e+02 -9.304541809142020270e+01 3.266045089869476925e+01 3.237985659011019379e+01 3.957584263007673542e+01 6.886967793420809869e+01 -1.849278197046638468e+02 1.500134476919841973e+02 8.482594236273567390e+01 -7.803501790598022403e+00 -8.422372291590896509e+01 1.167127990229505343e+02 6.471715964492447881e+01 -2.095562033897721790e+02 -5.253668093344250423e+01 -8.511922971794355419e+01 -5.408673886036468303e+01 -6.461056556311363863e+01 -1.033224025967707007e+02 -6.295295641738672998e+01 1.995818638742035773e+02 -1.780999999022372720e+02 6.829320631665514441e+01 2.891754874915698181e+01 -7.836112879394234199e+01 1.080606818050674711e+01 -4.106968120701308322e+01 3.559590361299851846e+00 -1.002044693761247061e+02 -2.059521837027184858e+02 1.917536012319751748e+01 4.372646009167692682e+01 -1.335075230596349982e+01 -9.477920649711556678e+00 -4.148487354707686592e+01 -1.980951123869896264e+02 -3.198586216481410460e+01 -6.818174462835823135e+01 1.460560996366351816e+01 -1.627119590568443641e+01 9.438134231139540020e+01 -6.573420583625743063e+01 -1.081737571915117400e+02 -3.733851304817580541e+01 -9.444801485995446555e+00 4.754471418521635684e+01 -2.312505053063257066e+01 -7.681633856430086382e+01 -1.654637118059017453e+01 2.096048611064761147e+01 4.955373913053468726e+01 -1.189731149622318611e+02 -1.450587112415066713e+02 2.402918163176498751e+02 -2.277039521936797541e+02 -7.927758489632303451e+01 -4.838424663832037709e+01 1.459480591454240823e+02 6.603759062546781422e+01 2.387266587024178648e+02 2.553626219382994691e+02 -6.501036546973170971e+01 1.351385163526213375e+02 -5.829405980591087655e+01 -4.257103875375025837e+01 -1.050688817314425307e+02 -8.332566600224652120e+01 -7.263922522896136513e+01 -9.283450183767786257e+01 -2.543786100314134444e+02 -2.827162835150334104e+02 1.405928363865384370e+02 -2.766855234698552124e+01 5.557997272514955256e+01 1.365143852769487864e+02
