# 
#                 ----------------------------------------------------
#                 Data from a 3D direct N-body simulation. 
# 
#                 rows are i-particle; 
#                 coumns are :mass, tag, x ,y, z, vx, vy, vz, ax, ay, az
# 
#                 NTHU, Computational Physics Lab
# 
#                 ----------------------------------------------------
#                 Time = 4.89999999999994
1.000000000000000000e+00 2.000000000000000000e+00 3.000000000000000000e+00 4.000000000000000000e+00 5.000000000000000000e+00 6.000000000000000000e+00 7.000000000000000000e+00 8.000000000000000000e+00 9.000000000000000000e+00 1.000000000000000000e+01 1.100000000000000000e+01 1.200000000000000000e+01 1.300000000000000000e+01 1.400000000000000000e+01 1.500000000000000000e+01 1.600000000000000000e+01 1.700000000000000000e+01 1.800000000000000000e+01 1.900000000000000000e+01 2.000000000000000000e+01 2.100000000000000000e+01 2.200000000000000000e+01 2.300000000000000000e+01 2.400000000000000000e+01 2.500000000000000000e+01 2.600000000000000000e+01 2.700000000000000000e+01 2.800000000000000000e+01 2.900000000000000000e+01 3.000000000000000000e+01 3.100000000000000000e+01 3.200000000000000000e+01 3.300000000000000000e+01 3.400000000000000000e+01 3.500000000000000000e+01 3.600000000000000000e+01 3.700000000000000000e+01 3.800000000000000000e+01 3.900000000000000000e+01 4.000000000000000000e+01 4.100000000000000000e+01 4.200000000000000000e+01 4.300000000000000000e+01 4.400000000000000000e+01 4.500000000000000000e+01 4.600000000000000000e+01 4.700000000000000000e+01 4.800000000000000000e+01 4.900000000000000000e+01 5.000000000000000000e+01 5.100000000000000000e+01 5.200000000000000000e+01 5.300000000000000000e+01 5.400000000000000000e+01 5.500000000000000000e+01 5.600000000000000000e+01 5.700000000000000000e+01 5.800000000000000000e+01 5.900000000000000000e+01 6.000000000000000000e+01 6.100000000000000000e+01 6.200000000000000000e+01 6.300000000000000000e+01 6.400000000000000000e+01 6.500000000000000000e+01 6.600000000000000000e+01 6.700000000000000000e+01 6.800000000000000000e+01 6.900000000000000000e+01 7.000000000000000000e+01 7.100000000000000000e+01 7.200000000000000000e+01 7.300000000000000000e+01 7.400000000000000000e+01 7.500000000000000000e+01 7.600000000000000000e+01 7.700000000000000000e+01 7.800000000000000000e+01 7.900000000000000000e+01 8.000000000000000000e+01 8.100000000000000000e+01 8.200000000000000000e+01 8.300000000000000000e+01 8.400000000000000000e+01 8.500000000000000000e+01 8.600000000000000000e+01 8.700000000000000000e+01 8.800000000000000000e+01 8.900000000000000000e+01 9.000000000000000000e+01 9.100000000000000000e+01 9.200000000000000000e+01 9.300000000000000000e+01 9.400000000000000000e+01 9.500000000000000000e+01 9.600000000000000000e+01 9.700000000000000000e+01 9.800000000000000000e+01 9.900000000000000000e+01 1.000000000000000000e+02 1.010000000000000000e+02 1.020000000000000000e+02 1.030000000000000000e+02 1.040000000000000000e+02 1.050000000000000000e+02 1.060000000000000000e+02 1.070000000000000000e+02 1.080000000000000000e+02 1.090000000000000000e+02 1.100000000000000000e+02 1.110000000000000000e+02 1.120000000000000000e+02 1.130000000000000000e+02 1.140000000000000000e+02 1.150000000000000000e+02 1.160000000000000000e+02 1.170000000000000000e+02 1.180000000000000000e+02 1.190000000000000000e+02 1.200000000000000000e+02 1.210000000000000000e+02 1.220000000000000000e+02 1.230000000000000000e+02 1.240000000000000000e+02 1.250000000000000000e+02 1.260000000000000000e+02 1.270000000000000000e+02 1.280000000000000000e+02 1.290000000000000000e+02 1.300000000000000000e+02 1.310000000000000000e+02 1.320000000000000000e+02 1.330000000000000000e+02 1.340000000000000000e+02 1.350000000000000000e+02 1.360000000000000000e+02 1.370000000000000000e+02 1.380000000000000000e+02 1.390000000000000000e+02 1.400000000000000000e+02 1.410000000000000000e+02 1.420000000000000000e+02 1.430000000000000000e+02 1.440000000000000000e+02 1.450000000000000000e+02 1.460000000000000000e+02 1.470000000000000000e+02 1.480000000000000000e+02 1.490000000000000000e+02 1.500000000000000000e+02 1.510000000000000000e+02 1.520000000000000000e+02 1.530000000000000000e+02 1.540000000000000000e+02 1.550000000000000000e+02 1.560000000000000000e+02 1.570000000000000000e+02 1.580000000000000000e+02 1.590000000000000000e+02 1.600000000000000000e+02 1.610000000000000000e+02 1.620000000000000000e+02 1.630000000000000000e+02 1.640000000000000000e+02 1.650000000000000000e+02 1.660000000000000000e+02 1.670000000000000000e+02 1.680000000000000000e+02 1.690000000000000000e+02 1.700000000000000000e+02 1.710000000000000000e+02 1.720000000000000000e+02 1.730000000000000000e+02 1.740000000000000000e+02 1.750000000000000000e+02 1.760000000000000000e+02 1.770000000000000000e+02 1.780000000000000000e+02 1.790000000000000000e+02 1.800000000000000000e+02 1.810000000000000000e+02 1.820000000000000000e+02 1.830000000000000000e+02 1.840000000000000000e+02 1.850000000000000000e+02 1.860000000000000000e+02 1.870000000000000000e+02 1.880000000000000000e+02 1.890000000000000000e+02 1.900000000000000000e+02 1.910000000000000000e+02 1.920000000000000000e+02 1.930000000000000000e+02 1.940000000000000000e+02 1.950000000000000000e+02 1.960000000000000000e+02 1.970000000000000000e+02 1.980000000000000000e+02 1.990000000000000000e+02 2.000000000000000000e+02 2.010000000000000000e+02 2.020000000000000000e+02 2.030000000000000000e+02 2.040000000000000000e+02 2.050000000000000000e+02 2.060000000000000000e+02 2.070000000000000000e+02 2.080000000000000000e+02 2.090000000000000000e+02 2.100000000000000000e+02 2.110000000000000000e+02 2.120000000000000000e+02 2.130000000000000000e+02 2.140000000000000000e+02 2.150000000000000000e+02 2.160000000000000000e+02 2.170000000000000000e+02 2.180000000000000000e+02 2.190000000000000000e+02 2.200000000000000000e+02 2.210000000000000000e+02 2.220000000000000000e+02 2.230000000000000000e+02 2.240000000000000000e+02 2.250000000000000000e+02 2.260000000000000000e+02 2.270000000000000000e+02 2.280000000000000000e+02 2.290000000000000000e+02 2.300000000000000000e+02 2.310000000000000000e+02 2.320000000000000000e+02 2.330000000000000000e+02 2.340000000000000000e+02 2.350000000000000000e+02 2.360000000000000000e+02 2.370000000000000000e+02 2.380000000000000000e+02 2.390000000000000000e+02 2.400000000000000000e+02 2.410000000000000000e+02 2.420000000000000000e+02 2.430000000000000000e+02 2.440000000000000000e+02 2.450000000000000000e+02 2.460000000000000000e+02 2.470000000000000000e+02 2.480000000000000000e+02 2.490000000000000000e+02 2.500000000000000000e+02 2.510000000000000000e+02 2.520000000000000000e+02 2.530000000000000000e+02 2.540000000000000000e+02 2.550000000000000000e+02 2.560000000000000000e+02 2.570000000000000000e+02 2.580000000000000000e+02 2.590000000000000000e+02 2.600000000000000000e+02 2.610000000000000000e+02 2.620000000000000000e+02 2.630000000000000000e+02 2.640000000000000000e+02 2.650000000000000000e+02 2.660000000000000000e+02 2.670000000000000000e+02 2.680000000000000000e+02 2.690000000000000000e+02 2.700000000000000000e+02 2.710000000000000000e+02 2.720000000000000000e+02 2.730000000000000000e+02 2.740000000000000000e+02 2.750000000000000000e+02 2.760000000000000000e+02 2.770000000000000000e+02 2.780000000000000000e+02 2.790000000000000000e+02 2.800000000000000000e+02 2.810000000000000000e+02 2.820000000000000000e+02 2.830000000000000000e+02 2.840000000000000000e+02 2.850000000000000000e+02 2.860000000000000000e+02 2.870000000000000000e+02 2.880000000000000000e+02 2.890000000000000000e+02 2.900000000000000000e+02 2.910000000000000000e+02 2.920000000000000000e+02 2.930000000000000000e+02 2.940000000000000000e+02 2.950000000000000000e+02 2.960000000000000000e+02 2.970000000000000000e+02 2.980000000000000000e+02 2.990000000000000000e+02 3.000000000000000000e+02 3.010000000000000000e+02 3.020000000000000000e+02 3.030000000000000000e+02 3.040000000000000000e+02 3.050000000000000000e+02 3.060000000000000000e+02 3.070000000000000000e+02 3.080000000000000000e+02 3.090000000000000000e+02 3.100000000000000000e+02 3.110000000000000000e+02 3.120000000000000000e+02 3.130000000000000000e+02 3.140000000000000000e+02 3.150000000000000000e+02 3.160000000000000000e+02 3.170000000000000000e+02 3.180000000000000000e+02 3.190000000000000000e+02 3.200000000000000000e+02 3.210000000000000000e+02 3.220000000000000000e+02 3.230000000000000000e+02 3.240000000000000000e+02 3.250000000000000000e+02 3.260000000000000000e+02 3.270000000000000000e+02 3.280000000000000000e+02 3.290000000000000000e+02 3.300000000000000000e+02 3.310000000000000000e+02 3.320000000000000000e+02 3.330000000000000000e+02 3.340000000000000000e+02 3.350000000000000000e+02 3.360000000000000000e+02 3.370000000000000000e+02 3.380000000000000000e+02 3.390000000000000000e+02 3.400000000000000000e+02 3.410000000000000000e+02 3.420000000000000000e+02 3.430000000000000000e+02 3.440000000000000000e+02 3.450000000000000000e+02 3.460000000000000000e+02 3.470000000000000000e+02 3.480000000000000000e+02 3.490000000000000000e+02 3.500000000000000000e+02 3.510000000000000000e+02 3.520000000000000000e+02 3.530000000000000000e+02 3.540000000000000000e+02 3.550000000000000000e+02 3.560000000000000000e+02 3.570000000000000000e+02 3.580000000000000000e+02 3.590000000000000000e+02 3.600000000000000000e+02 3.610000000000000000e+02 3.620000000000000000e+02 3.630000000000000000e+02 3.640000000000000000e+02 3.650000000000000000e+02 3.660000000000000000e+02 3.670000000000000000e+02 3.680000000000000000e+02 3.690000000000000000e+02 3.700000000000000000e+02 3.710000000000000000e+02 3.720000000000000000e+02 3.730000000000000000e+02 3.740000000000000000e+02 3.750000000000000000e+02 3.760000000000000000e+02 3.770000000000000000e+02 3.780000000000000000e+02 3.790000000000000000e+02 3.800000000000000000e+02 3.810000000000000000e+02 3.820000000000000000e+02 3.830000000000000000e+02 3.840000000000000000e+02 3.850000000000000000e+02 3.860000000000000000e+02 3.870000000000000000e+02 3.880000000000000000e+02 3.890000000000000000e+02 3.900000000000000000e+02 3.910000000000000000e+02 3.920000000000000000e+02 3.930000000000000000e+02 3.940000000000000000e+02 3.950000000000000000e+02 3.960000000000000000e+02 3.970000000000000000e+02 3.980000000000000000e+02 3.990000000000000000e+02 4.000000000000000000e+02 4.010000000000000000e+02 4.020000000000000000e+02 4.030000000000000000e+02 4.040000000000000000e+02 4.050000000000000000e+02 4.060000000000000000e+02 4.070000000000000000e+02 4.080000000000000000e+02 4.090000000000000000e+02 4.100000000000000000e+02 4.110000000000000000e+02 4.120000000000000000e+02 4.130000000000000000e+02 4.140000000000000000e+02 4.150000000000000000e+02 4.160000000000000000e+02 4.170000000000000000e+02 4.180000000000000000e+02 4.190000000000000000e+02 4.200000000000000000e+02 4.210000000000000000e+02 4.220000000000000000e+02 4.230000000000000000e+02 4.240000000000000000e+02 4.250000000000000000e+02 4.260000000000000000e+02 4.270000000000000000e+02 4.280000000000000000e+02 4.290000000000000000e+02 4.300000000000000000e+02 4.310000000000000000e+02 4.320000000000000000e+02 4.330000000000000000e+02 4.340000000000000000e+02 4.350000000000000000e+02 4.360000000000000000e+02 4.370000000000000000e+02 4.380000000000000000e+02 4.390000000000000000e+02 4.400000000000000000e+02 4.410000000000000000e+02 4.420000000000000000e+02 4.430000000000000000e+02 4.440000000000000000e+02 4.450000000000000000e+02 4.460000000000000000e+02 4.470000000000000000e+02 4.480000000000000000e+02 4.490000000000000000e+02 4.500000000000000000e+02 4.510000000000000000e+02 4.520000000000000000e+02 4.530000000000000000e+02 4.540000000000000000e+02 4.550000000000000000e+02 4.560000000000000000e+02 4.570000000000000000e+02 4.580000000000000000e+02 4.590000000000000000e+02 4.600000000000000000e+02 4.610000000000000000e+02 4.620000000000000000e+02 4.630000000000000000e+02 4.640000000000000000e+02 4.650000000000000000e+02 4.660000000000000000e+02 4.670000000000000000e+02 4.680000000000000000e+02 4.690000000000000000e+02 4.700000000000000000e+02 4.710000000000000000e+02 4.720000000000000000e+02 4.730000000000000000e+02 4.740000000000000000e+02 4.750000000000000000e+02 4.760000000000000000e+02 4.770000000000000000e+02 4.780000000000000000e+02 4.790000000000000000e+02 4.800000000000000000e+02 4.810000000000000000e+02 4.820000000000000000e+02 4.830000000000000000e+02 4.840000000000000000e+02 4.850000000000000000e+02 4.860000000000000000e+02 4.870000000000000000e+02 4.880000000000000000e+02 4.890000000000000000e+02 4.900000000000000000e+02 4.910000000000000000e+02 4.920000000000000000e+02 4.930000000000000000e+02 4.940000000000000000e+02 4.950000000000000000e+02 4.960000000000000000e+02 4.970000000000000000e+02 4.980000000000000000e+02 4.990000000000000000e+02 5.000000000000000000e+02 5.010000000000000000e+02 5.020000000000000000e+02 5.030000000000000000e+02 5.040000000000000000e+02 5.050000000000000000e+02 5.060000000000000000e+02 5.070000000000000000e+02 5.080000000000000000e+02 5.090000000000000000e+02 5.100000000000000000e+02 5.110000000000000000e+02 5.120000000000000000e+02 5.130000000000000000e+02 5.140000000000000000e+02 5.150000000000000000e+02 5.160000000000000000e+02 5.170000000000000000e+02 5.180000000000000000e+02 5.190000000000000000e+02 5.200000000000000000e+02 5.210000000000000000e+02 5.220000000000000000e+02 5.230000000000000000e+02 5.240000000000000000e+02 5.250000000000000000e+02 5.260000000000000000e+02 5.270000000000000000e+02 5.280000000000000000e+02 5.290000000000000000e+02 5.300000000000000000e+02 5.310000000000000000e+02 5.320000000000000000e+02 5.330000000000000000e+02 5.340000000000000000e+02 5.350000000000000000e+02 5.360000000000000000e+02 5.370000000000000000e+02 5.380000000000000000e+02 5.390000000000000000e+02 5.400000000000000000e+02 5.410000000000000000e+02 5.420000000000000000e+02 5.430000000000000000e+02 5.440000000000000000e+02 5.450000000000000000e+02 5.460000000000000000e+02 5.470000000000000000e+02 5.480000000000000000e+02 5.490000000000000000e+02 5.500000000000000000e+02 5.510000000000000000e+02 5.520000000000000000e+02 5.530000000000000000e+02 5.540000000000000000e+02 5.550000000000000000e+02 5.560000000000000000e+02 5.570000000000000000e+02 5.580000000000000000e+02 5.590000000000000000e+02 5.600000000000000000e+02 5.610000000000000000e+02 5.620000000000000000e+02 5.630000000000000000e+02 5.640000000000000000e+02 5.650000000000000000e+02 5.660000000000000000e+02 5.670000000000000000e+02 5.680000000000000000e+02 5.690000000000000000e+02 5.700000000000000000e+02 5.710000000000000000e+02 5.720000000000000000e+02 5.730000000000000000e+02 5.740000000000000000e+02 5.750000000000000000e+02 5.760000000000000000e+02 5.770000000000000000e+02 5.780000000000000000e+02 5.790000000000000000e+02 5.800000000000000000e+02 5.810000000000000000e+02 5.820000000000000000e+02 5.830000000000000000e+02 5.840000000000000000e+02 5.850000000000000000e+02 5.860000000000000000e+02 5.870000000000000000e+02 5.880000000000000000e+02 5.890000000000000000e+02 5.900000000000000000e+02 5.910000000000000000e+02 5.920000000000000000e+02 5.930000000000000000e+02 5.940000000000000000e+02 5.950000000000000000e+02 5.960000000000000000e+02 5.970000000000000000e+02 5.980000000000000000e+02 5.990000000000000000e+02 6.000000000000000000e+02 6.010000000000000000e+02 6.020000000000000000e+02 6.030000000000000000e+02 6.040000000000000000e+02 6.050000000000000000e+02 6.060000000000000000e+02 6.070000000000000000e+02 6.080000000000000000e+02 6.090000000000000000e+02 6.100000000000000000e+02 6.110000000000000000e+02 6.120000000000000000e+02 6.130000000000000000e+02 6.140000000000000000e+02 6.150000000000000000e+02 6.160000000000000000e+02 6.170000000000000000e+02 6.180000000000000000e+02 6.190000000000000000e+02 6.200000000000000000e+02 6.210000000000000000e+02 6.220000000000000000e+02 6.230000000000000000e+02 6.240000000000000000e+02 6.250000000000000000e+02 6.260000000000000000e+02 6.270000000000000000e+02 6.280000000000000000e+02 6.290000000000000000e+02 6.300000000000000000e+02 6.310000000000000000e+02 6.320000000000000000e+02 6.330000000000000000e+02 6.340000000000000000e+02 6.350000000000000000e+02 6.360000000000000000e+02 6.370000000000000000e+02 6.380000000000000000e+02 6.390000000000000000e+02 6.400000000000000000e+02 6.410000000000000000e+02 6.420000000000000000e+02 6.430000000000000000e+02 6.440000000000000000e+02 6.450000000000000000e+02 6.460000000000000000e+02 6.470000000000000000e+02 6.480000000000000000e+02 6.490000000000000000e+02 6.500000000000000000e+02 6.510000000000000000e+02 6.520000000000000000e+02 6.530000000000000000e+02 6.540000000000000000e+02 6.550000000000000000e+02 6.560000000000000000e+02 6.570000000000000000e+02 6.580000000000000000e+02 6.590000000000000000e+02 6.600000000000000000e+02 6.610000000000000000e+02 6.620000000000000000e+02 6.630000000000000000e+02 6.640000000000000000e+02 6.650000000000000000e+02 6.660000000000000000e+02 6.670000000000000000e+02 6.680000000000000000e+02 6.690000000000000000e+02 6.700000000000000000e+02 6.710000000000000000e+02 6.720000000000000000e+02 6.730000000000000000e+02 6.740000000000000000e+02 6.750000000000000000e+02 6.760000000000000000e+02 6.770000000000000000e+02 6.780000000000000000e+02 6.790000000000000000e+02 6.800000000000000000e+02 6.810000000000000000e+02 6.820000000000000000e+02 6.830000000000000000e+02 6.840000000000000000e+02 6.850000000000000000e+02 6.860000000000000000e+02 6.870000000000000000e+02 6.880000000000000000e+02 6.890000000000000000e+02 6.900000000000000000e+02 6.910000000000000000e+02 6.920000000000000000e+02 6.930000000000000000e+02 6.940000000000000000e+02 6.950000000000000000e+02 6.960000000000000000e+02 6.970000000000000000e+02 6.980000000000000000e+02 6.990000000000000000e+02 7.000000000000000000e+02 7.010000000000000000e+02 7.020000000000000000e+02 7.030000000000000000e+02 7.040000000000000000e+02 7.050000000000000000e+02 7.060000000000000000e+02 7.070000000000000000e+02 7.080000000000000000e+02 7.090000000000000000e+02 7.100000000000000000e+02 7.110000000000000000e+02 7.120000000000000000e+02 7.130000000000000000e+02 7.140000000000000000e+02 7.150000000000000000e+02 7.160000000000000000e+02 7.170000000000000000e+02 7.180000000000000000e+02 7.190000000000000000e+02 7.200000000000000000e+02 7.210000000000000000e+02 7.220000000000000000e+02 7.230000000000000000e+02 7.240000000000000000e+02 7.250000000000000000e+02 7.260000000000000000e+02 7.270000000000000000e+02 7.280000000000000000e+02 7.290000000000000000e+02 7.300000000000000000e+02 7.310000000000000000e+02 7.320000000000000000e+02 7.330000000000000000e+02 7.340000000000000000e+02 7.350000000000000000e+02 7.360000000000000000e+02 7.370000000000000000e+02 7.380000000000000000e+02 7.390000000000000000e+02 7.400000000000000000e+02 7.410000000000000000e+02 7.420000000000000000e+02 7.430000000000000000e+02 7.440000000000000000e+02 7.450000000000000000e+02 7.460000000000000000e+02 7.470000000000000000e+02 7.480000000000000000e+02 7.490000000000000000e+02 7.500000000000000000e+02 7.510000000000000000e+02 7.520000000000000000e+02 7.530000000000000000e+02 7.540000000000000000e+02 7.550000000000000000e+02 7.560000000000000000e+02 7.570000000000000000e+02 7.580000000000000000e+02 7.590000000000000000e+02 7.600000000000000000e+02 7.610000000000000000e+02 7.620000000000000000e+02 7.630000000000000000e+02 7.640000000000000000e+02 7.650000000000000000e+02 7.660000000000000000e+02 7.670000000000000000e+02 7.680000000000000000e+02 7.690000000000000000e+02 7.700000000000000000e+02 7.710000000000000000e+02 7.720000000000000000e+02 7.730000000000000000e+02 7.740000000000000000e+02 7.750000000000000000e+02 7.760000000000000000e+02 7.770000000000000000e+02 7.780000000000000000e+02 7.790000000000000000e+02 7.800000000000000000e+02 7.810000000000000000e+02 7.820000000000000000e+02 7.830000000000000000e+02 7.840000000000000000e+02 7.850000000000000000e+02 7.860000000000000000e+02 7.870000000000000000e+02 7.880000000000000000e+02 7.890000000000000000e+02 7.900000000000000000e+02 7.910000000000000000e+02 7.920000000000000000e+02 7.930000000000000000e+02 7.940000000000000000e+02 7.950000000000000000e+02 7.960000000000000000e+02 7.970000000000000000e+02 7.980000000000000000e+02 7.990000000000000000e+02 8.000000000000000000e+02 8.010000000000000000e+02 8.020000000000000000e+02 8.030000000000000000e+02 8.040000000000000000e+02 8.050000000000000000e+02 8.060000000000000000e+02 8.070000000000000000e+02 8.080000000000000000e+02 8.090000000000000000e+02 8.100000000000000000e+02 8.110000000000000000e+02 8.120000000000000000e+02 8.130000000000000000e+02 8.140000000000000000e+02 8.150000000000000000e+02 8.160000000000000000e+02 8.170000000000000000e+02 8.180000000000000000e+02 8.190000000000000000e+02 8.200000000000000000e+02 8.210000000000000000e+02 8.220000000000000000e+02 8.230000000000000000e+02 8.240000000000000000e+02 8.250000000000000000e+02 8.260000000000000000e+02 8.270000000000000000e+02 8.280000000000000000e+02 8.290000000000000000e+02 8.300000000000000000e+02 8.310000000000000000e+02 8.320000000000000000e+02 8.330000000000000000e+02 8.340000000000000000e+02 8.350000000000000000e+02 8.360000000000000000e+02 8.370000000000000000e+02 8.380000000000000000e+02 8.390000000000000000e+02 8.400000000000000000e+02 8.410000000000000000e+02 8.420000000000000000e+02 8.430000000000000000e+02 8.440000000000000000e+02 8.450000000000000000e+02 8.460000000000000000e+02 8.470000000000000000e+02 8.480000000000000000e+02 8.490000000000000000e+02 8.500000000000000000e+02 8.510000000000000000e+02 8.520000000000000000e+02 8.530000000000000000e+02 8.540000000000000000e+02 8.550000000000000000e+02 8.560000000000000000e+02 8.570000000000000000e+02 8.580000000000000000e+02 8.590000000000000000e+02 8.600000000000000000e+02 8.610000000000000000e+02 8.620000000000000000e+02 8.630000000000000000e+02 8.640000000000000000e+02 8.650000000000000000e+02 8.660000000000000000e+02 8.670000000000000000e+02 8.680000000000000000e+02 8.690000000000000000e+02 8.700000000000000000e+02 8.710000000000000000e+02 8.720000000000000000e+02 8.730000000000000000e+02 8.740000000000000000e+02 8.750000000000000000e+02 8.760000000000000000e+02 8.770000000000000000e+02 8.780000000000000000e+02 8.790000000000000000e+02 8.800000000000000000e+02 8.810000000000000000e+02 8.820000000000000000e+02 8.830000000000000000e+02 8.840000000000000000e+02 8.850000000000000000e+02 8.860000000000000000e+02 8.870000000000000000e+02 8.880000000000000000e+02 8.890000000000000000e+02 8.900000000000000000e+02 8.910000000000000000e+02 8.920000000000000000e+02 8.930000000000000000e+02 8.940000000000000000e+02 8.950000000000000000e+02 8.960000000000000000e+02 8.970000000000000000e+02 8.980000000000000000e+02 8.990000000000000000e+02 9.000000000000000000e+02 9.010000000000000000e+02 9.020000000000000000e+02 9.030000000000000000e+02 9.040000000000000000e+02 9.050000000000000000e+02 9.060000000000000000e+02 9.070000000000000000e+02 9.080000000000000000e+02 9.090000000000000000e+02 9.100000000000000000e+02 9.110000000000000000e+02 9.120000000000000000e+02 9.130000000000000000e+02 9.140000000000000000e+02 9.150000000000000000e+02 9.160000000000000000e+02 9.170000000000000000e+02 9.180000000000000000e+02 9.190000000000000000e+02 9.200000000000000000e+02 9.210000000000000000e+02 9.220000000000000000e+02 9.230000000000000000e+02 9.240000000000000000e+02 9.250000000000000000e+02 9.260000000000000000e+02 9.270000000000000000e+02 9.280000000000000000e+02 9.290000000000000000e+02 9.300000000000000000e+02 9.310000000000000000e+02 9.320000000000000000e+02 9.330000000000000000e+02 9.340000000000000000e+02 9.350000000000000000e+02 9.360000000000000000e+02 9.370000000000000000e+02 9.380000000000000000e+02 9.390000000000000000e+02 9.400000000000000000e+02 9.410000000000000000e+02 9.420000000000000000e+02 9.430000000000000000e+02 9.440000000000000000e+02 9.450000000000000000e+02 9.460000000000000000e+02 9.470000000000000000e+02 9.480000000000000000e+02 9.490000000000000000e+02 9.500000000000000000e+02 9.510000000000000000e+02 9.520000000000000000e+02 9.530000000000000000e+02 9.540000000000000000e+02 9.550000000000000000e+02 9.560000000000000000e+02 9.570000000000000000e+02 9.580000000000000000e+02 9.590000000000000000e+02 9.600000000000000000e+02 9.610000000000000000e+02 9.620000000000000000e+02 9.630000000000000000e+02 9.640000000000000000e+02 9.650000000000000000e+02 9.660000000000000000e+02 9.670000000000000000e+02 9.680000000000000000e+02 9.690000000000000000e+02 9.700000000000000000e+02 9.710000000000000000e+02 9.720000000000000000e+02 9.730000000000000000e+02 9.740000000000000000e+02 9.750000000000000000e+02 9.760000000000000000e+02 9.770000000000000000e+02 9.780000000000000000e+02 9.790000000000000000e+02 9.800000000000000000e+02 9.810000000000000000e+02 9.820000000000000000e+02 9.830000000000000000e+02 9.840000000000000000e+02 9.850000000000000000e+02 9.860000000000000000e+02 9.870000000000000000e+02 9.880000000000000000e+02 9.890000000000000000e+02 9.900000000000000000e+02 9.910000000000000000e+02 9.920000000000000000e+02 9.930000000000000000e+02 9.940000000000000000e+02 9.950000000000000000e+02 9.960000000000000000e+02 9.970000000000000000e+02 9.980000000000000000e+02 9.990000000000000000e+02 1.000000000000000000e+03
1.000000000000000021e-02 1.000000000000000021e-02 1.000000000000000021e-02 1.000000000000000021e-02 1.000000000000000021e-02 1.000000000000000021e-02 1.000000000000000021e-02 1.000000000000000021e-02 1.000000000000000021e-02 1.000000000000000021e-02 1.000000000000000021e-02 1.000000000000000021e-02 1.000000000000000021e-02 1.000000000000000021e-02 1.000000000000000021e-02 1.000000000000000021e-02 1.000000000000000021e-02 1.000000000000000021e-02 1.000000000000000021e-02 1.000000000000000021e-02 1.000000000000000021e-02 1.000000000000000021e-02 1.000000000000000021e-02 1.000000000000000021e-02 1.000000000000000021e-02 1.000000000000000021e-02 1.000000000000000021e-02 1.000000000000000021e-02 1.000000000000000021e-02 1.000000000000000021e-02 1.000000000000000021e-02 1.000000000000000021e-02 1.000000000000000021e-02 1.000000000000000021e-02 1.000000000000000021e-02 1.000000000000000021e-02 1.000000000000000021e-02 1.000000000000000021e-02 1.000000000000000021e-02 1.000000000000000021e-02 1.000000000000000021e-02 1.000000000000000021e-02 1.000000000000000021e-02 1.000000000000000021e-02 1.000000000000000021e-02 1.000000000000000021e-02 1.000000000000000021e-02 1.000000000000000021e-02 1.000000000000000021e-02 1.000000000000000021e-02 1.000000000000000021e-02 1.000000000000000021e-02 1.000000000000000021e-02 1.000000000000000021e-02 1.000000000000000021e-02 1.000000000000000021e-02 1.000000000000000021e-02 1.000000000000000021e-02 1.000000000000000021e-02 1.000000000000000021e-02 1.000000000000000021e-02 1.000000000000000021e-02 1.000000000000000021e-02 1.000000000000000021e-02 1.000000000000000021e-02 1.000000000000000021e-02 1.000000000000000021e-02 1.000000000000000021e-02 1.000000000000000021e-02 1.000000000000000021e-02 1.000000000000000021e-02 1.000000000000000021e-02 1.000000000000000021e-02 1.000000000000000021e-02 1.000000000000000021e-02 1.000000000000000021e-02 1.000000000000000021e-02 1.000000000000000021e-02 1.000000000000000021e-02 1.000000000000000021e-02 1.000000000000000021e-02 1.000000000000000021e-02 1.000000000000000021e-02 1.000000000000000021e-02 1.000000000000000021e-02 1.000000000000000021e-02 1.000000000000000021e-02 1.000000000000000021e-02 1.000000000000000021e-02 1.000000000000000021e-02 1.000000000000000021e-02 1.000000000000000021e-02 1.000000000000000021e-02 1.000000000000000021e-02 1.000000000000000021e-02 1.000000000000000021e-02 1.000000000000000021e-02 1.000000000000000021e-02 1.000000000000000021e-02 1.000000000000000021e-02 1.000000000000000021e-02 1.000000000000000021e-02 1.000000000000000021e-02 1.000000000000000021e-02 1.000000000000000021e-02 1.000000000000000021e-02 1.000000000000000021e-02 1.000000000000000021e-02 1.000000000000000021e-02 1.000000000000000021e-02 1.000000000000000021e-02 1.000000000000000021e-02 1.000000000000000021e-02 1.000000000000000021e-02 1.000000000000000021e-02 1.000000000000000021e-02 1.000000000000000021e-02 1.000000000000000021e-02 1.000000000000000021e-02 1.000000000000000021e-02 1.000000000000000021e-02 1.000000000000000021e-02 1.000000000000000021e-02 1.000000000000000021e-02 1.000000000000000021e-02 1.000000000000000021e-02 1.000000000000000021e-02 1.000000000000000021e-02 1.000000000000000021e-02 1.000000000000000021e-02 1.000000000000000021e-02 1.000000000000000021e-02 1.000000000000000021e-02 1.000000000000000021e-02 1.000000000000000021e-02 1.000000000000000021e-02 1.000000000000000021e-02 1.000000000000000021e-02 1.000000000000000021e-02 1.000000000000000021e-02 1.000000000000000021e-02 1.000000000000000021e-02 1.000000000000000021e-02 1.000000000000000021e-02 1.000000000000000021e-02 1.000000000000000021e-02 1.000000000000000021e-02 1.000000000000000021e-02 1.000000000000000021e-02 1.000000000000000021e-02 1.000000000000000021e-02 1.000000000000000021e-02 1.000000000000000021e-02 1.000000000000000021e-02 1.000000000000000021e-02 1.000000000000000021e-02 1.000000000000000021e-02 1.000000000000000021e-02 1.000000000000000021e-02 1.000000000000000021e-02 1.000000000000000021e-02 1.000000000000000021e-02 1.000000000000000021e-02 1.000000000000000021e-02 1.000000000000000021e-02 1.000000000000000021e-02 1.000000000000000021e-02 1.000000000000000021e-02 1.000000000000000021e-02 1.000000000000000021e-02 1.000000000000000021e-02 1.000000000000000021e-02 1.000000000000000021e-02 1.000000000000000021e-02 1.000000000000000021e-02 1.000000000000000021e-02 1.000000000000000021e-02 1.000000000000000021e-02 1.000000000000000021e-02 1.000000000000000021e-02 1.000000000000000021e-02 1.000000000000000021e-02 1.000000000000000021e-02 1.000000000000000021e-02 1.000000000000000021e-02 1.000000000000000021e-02 1.000000000000000021e-02 1.000000000000000021e-02 1.000000000000000021e-02 1.000000000000000021e-02 1.000000000000000021e-02 1.000000000000000021e-02 1.000000000000000021e-02 1.000000000000000021e-02 1.000000000000000021e-02 1.000000000000000021e-02 1.000000000000000021e-02 1.000000000000000021e-02 1.000000000000000021e-02 1.000000000000000021e-02 1.000000000000000021e-02 1.000000000000000021e-02 1.000000000000000021e-02 1.000000000000000021e-02 1.000000000000000021e-02 1.000000000000000021e-02 1.000000000000000021e-02 1.000000000000000021e-02 1.000000000000000021e-02 1.000000000000000021e-02 1.000000000000000021e-02 1.000000000000000021e-02 1.000000000000000021e-02 1.000000000000000021e-02 1.000000000000000021e-02 1.000000000000000021e-02 1.000000000000000021e-02 1.000000000000000021e-02 1.000000000000000021e-02 1.000000000000000021e-02 1.000000000000000021e-02 1.000000000000000021e-02 1.000000000000000021e-02 1.000000000000000021e-02 1.000000000000000021e-02 1.000000000000000021e-02 1.000000000000000021e-02 1.000000000000000021e-02 1.000000000000000021e-02 1.000000000000000021e-02 1.000000000000000021e-02 1.000000000000000021e-02 1.000000000000000021e-02 1.000000000000000021e-02 1.000000000000000021e-02 1.000000000000000021e-02 1.000000000000000021e-02 1.000000000000000021e-02 1.000000000000000021e-02 1.000000000000000021e-02 1.000000000000000021e-02 1.000000000000000021e-02 1.000000000000000021e-02 1.000000000000000021e-02 1.000000000000000021e-02 1.000000000000000021e-02 1.000000000000000021e-02 1.000000000000000021e-02 1.000000000000000021e-02 1.000000000000000021e-02 1.000000000000000021e-02 1.000000000000000021e-02 1.000000000000000021e-02 1.000000000000000021e-02 1.000000000000000021e-02 1.000000000000000021e-02 1.000000000000000021e-02 1.000000000000000021e-02 1.000000000000000021e-02 1.000000000000000021e-02 1.000000000000000021e-02 1.000000000000000021e-02 1.000000000000000021e-02 1.000000000000000021e-02 1.000000000000000021e-02 1.000000000000000021e-02 1.000000000000000021e-02 1.000000000000000021e-02 1.000000000000000021e-02 1.000000000000000021e-02 1.000000000000000021e-02 1.000000000000000021e-02 1.000000000000000021e-02 1.000000000000000021e-02 1.000000000000000021e-02 1.000000000000000021e-02 1.000000000000000021e-02 1.000000000000000021e-02 1.000000000000000021e-02 1.000000000000000021e-02 1.000000000000000021e-02 1.000000000000000021e-02 1.000000000000000021e-02 1.000000000000000021e-02 1.000000000000000021e-02 1.000000000000000021e-02 1.000000000000000021e-02 1.000000000000000021e-02 1.000000000000000021e-02 1.000000000000000021e-02 1.000000000000000021e-02 1.000000000000000021e-02 1.000000000000000021e-02 1.000000000000000021e-02 1.000000000000000021e-02 1.000000000000000021e-02 1.000000000000000021e-02 1.000000000000000021e-02 1.000000000000000021e-02 1.000000000000000021e-02 1.000000000000000021e-02 1.000000000000000021e-02 1.000000000000000021e-02 1.000000000000000021e-02 1.000000000000000021e-02 1.000000000000000021e-02 1.000000000000000021e-02 1.000000000000000021e-02 1.000000000000000021e-02 1.000000000000000021e-02 1.000000000000000021e-02 1.000000000000000021e-02 1.000000000000000021e-02 1.000000000000000021e-02 1.000000000000000021e-02 1.000000000000000021e-02 1.000000000000000021e-02 1.000000000000000021e-02 1.000000000000000021e-02 1.000000000000000021e-02 1.000000000000000021e-02 1.000000000000000021e-02 1.000000000000000021e-02 1.000000000000000021e-02 1.000000000000000021e-02 1.000000000000000021e-02 1.000000000000000021e-02 1.000000000000000021e-02 1.000000000000000021e-02 1.000000000000000021e-02 1.000000000000000021e-02 1.000000000000000021e-02 1.000000000000000021e-02 1.000000000000000021e-02 1.000000000000000021e-02 1.000000000000000021e-02 1.000000000000000021e-02 1.000000000000000021e-02 1.000000000000000021e-02 1.000000000000000021e-02 1.000000000000000021e-02 1.000000000000000021e-02 1.000000000000000021e-02 1.000000000000000021e-02 1.000000000000000021e-02 1.000000000000000021e-02 1.000000000000000021e-02 1.000000000000000021e-02 1.000000000000000021e-02 1.000000000000000021e-02 1.000000000000000021e-02 1.000000000000000021e-02 1.000000000000000021e-02 1.000000000000000021e-02 1.000000000000000021e-02 1.000000000000000021e-02 1.000000000000000021e-02 1.000000000000000021e-02 1.000000000000000021e-02 1.000000000000000021e-02 1.000000000000000021e-02 1.000000000000000021e-02 1.000000000000000021e-02 1.000000000000000021e-02 1.000000000000000021e-02 1.000000000000000021e-02 1.000000000000000021e-02 1.000000000000000021e-02 1.000000000000000021e-02 1.000000000000000021e-02 1.000000000000000021e-02 1.000000000000000021e-02 1.000000000000000021e-02 1.000000000000000021e-02 1.000000000000000021e-02 1.000000000000000021e-02 1.000000000000000021e-02 1.000000000000000021e-02 1.000000000000000021e-02 1.000000000000000021e-02 1.000000000000000021e-02 1.000000000000000021e-02 1.000000000000000021e-02 1.000000000000000021e-02 1.000000000000000021e-02 1.000000000000000021e-02 1.000000000000000021e-02 1.000000000000000021e-02 1.000000000000000021e-02 1.000000000000000021e-02 1.000000000000000021e-02 1.000000000000000021e-02 1.000000000000000021e-02 1.000000000000000021e-02 1.000000000000000021e-02 1.000000000000000021e-02 1.000000000000000021e-02 1.000000000000000021e-02 1.000000000000000021e-02 1.000000000000000021e-02 1.000000000000000021e-02 1.000000000000000021e-02 1.000000000000000021e-02 1.000000000000000021e-02 1.000000000000000021e-02 1.000000000000000021e-02 1.000000000000000021e-02 1.000000000000000021e-02 1.000000000000000021e-02 1.000000000000000021e-02 1.000000000000000021e-02 1.000000000000000021e-02 1.000000000000000021e-02 1.000000000000000021e-02 1.000000000000000021e-02 1.000000000000000021e-02 1.000000000000000021e-02 1.000000000000000021e-02 1.000000000000000021e-02 1.000000000000000021e-02 1.000000000000000021e-02 1.000000000000000021e-02 1.000000000000000021e-02 1.000000000000000021e-02 1.000000000000000021e-02 1.000000000000000021e-02 1.000000000000000021e-02 1.000000000000000021e-02 1.000000000000000021e-02 1.000000000000000021e-02 1.000000000000000021e-02 1.000000000000000021e-02 1.000000000000000021e-02 1.000000000000000021e-02 1.000000000000000021e-02 1.000000000000000021e-02 1.000000000000000021e-02 1.000000000000000021e-02 1.000000000000000021e-02 1.000000000000000021e-02 1.000000000000000021e-02 1.000000000000000021e-02 1.000000000000000021e-02 1.000000000000000021e-02 1.000000000000000021e-02 1.000000000000000021e-02 1.000000000000000021e-02 1.000000000000000021e-02 1.000000000000000021e-02 1.000000000000000021e-02 1.000000000000000021e-02 1.000000000000000021e-02 1.000000000000000021e-02 1.000000000000000021e-02 1.000000000000000021e-02 1.000000000000000021e-02 1.000000000000000021e-02 1.000000000000000021e-02 1.000000000000000021e-02 1.000000000000000021e-02 1.000000000000000021e-02 1.000000000000000021e-02 1.000000000000000021e-02 1.000000000000000021e-02 1.000000000000000021e-02 1.000000000000000021e-02 1.000000000000000021e-02 1.000000000000000021e-02 1.000000000000000021e-02 1.000000000000000021e-02 1.000000000000000021e-02 1.000000000000000021e-02 1.000000000000000021e-02 1.000000000000000021e-02 1.000000000000000021e-02 1.000000000000000021e-02 1.000000000000000021e-02 1.000000000000000021e-02 1.000000000000000021e-02 1.000000000000000021e-02 1.000000000000000021e-02 1.000000000000000021e-02 1.000000000000000021e-02 1.000000000000000021e-02 1.000000000000000021e-02 1.000000000000000021e-02 1.000000000000000021e-02 1.000000000000000021e-02 1.000000000000000021e-02 1.000000000000000021e-02 1.000000000000000021e-02 1.000000000000000021e-02 1.000000000000000021e-02 1.000000000000000021e-02 1.000000000000000021e-02 1.000000000000000021e-02 1.000000000000000021e-02 1.000000000000000021e-02 1.000000000000000021e-02 1.000000000000000021e-02 1.000000000000000021e-02 1.000000000000000021e-02 1.000000000000000021e-02 1.000000000000000021e-02 1.000000000000000021e-02 1.000000000000000021e-02 1.000000000000000021e-02 1.000000000000000021e-02 1.000000000000000021e-02 1.000000000000000021e-02 1.000000000000000021e-02 1.000000000000000021e-02 1.000000000000000021e-02 1.000000000000000021e-02 1.000000000000000021e-02 1.000000000000000021e-02 1.000000000000000021e-02 1.000000000000000021e-02 1.000000000000000021e-02 1.000000000000000021e-02 1.000000000000000021e-02 1.000000000000000021e-02 1.000000000000000021e-02 1.000000000000000021e-02 1.000000000000000021e-02 1.000000000000000021e-02 1.000000000000000021e-02 1.000000000000000021e-02 1.000000000000000021e-02 1.000000000000000021e-02 1.000000000000000021e-02 1.000000000000000021e-02 1.000000000000000021e-02 1.000000000000000021e-02 1.000000000000000021e-02 1.000000000000000021e-02 1.000000000000000021e-02 1.000000000000000021e-02 1.000000000000000021e-02 1.000000000000000021e-02 1.000000000000000021e-02 1.000000000000000021e-02 1.000000000000000021e-02 1.000000000000000021e-02 1.000000000000000021e-02 1.000000000000000021e-02 1.000000000000000021e-02 1.000000000000000021e-02 1.000000000000000021e-02 1.000000000000000021e-02 1.000000000000000021e-02 1.000000000000000021e-02 1.000000000000000021e-02 1.000000000000000021e-02 1.000000000000000021e-02 1.000000000000000021e-02 1.000000000000000021e-02 1.000000000000000021e-02 1.000000000000000021e-02 1.000000000000000021e-02 1.000000000000000021e-02 1.000000000000000021e-02 1.000000000000000021e-02 1.000000000000000021e-02 1.000000000000000021e-02 1.000000000000000021e-02 1.000000000000000021e-02 1.000000000000000021e-02 1.000000000000000021e-02 1.000000000000000021e-02 1.000000000000000021e-02 1.000000000000000021e-02 1.000000000000000021e-02 1.000000000000000021e-02 1.000000000000000021e-02 1.000000000000000021e-02 1.000000000000000021e-02 1.000000000000000021e-02 1.000000000000000021e-02 1.000000000000000021e-02 1.000000000000000021e-02 1.000000000000000021e-02 1.000000000000000021e-02 1.000000000000000021e-02 1.000000000000000021e-02 1.000000000000000021e-02 1.000000000000000021e-02 1.000000000000000021e-02 1.000000000000000021e-02 1.000000000000000021e-02 1.000000000000000021e-02 1.000000000000000021e-02 1.000000000000000021e-02 1.000000000000000021e-02 1.000000000000000021e-02 1.000000000000000021e-02 1.000000000000000021e-02 1.000000000000000021e-02 1.000000000000000021e-02 1.000000000000000021e-02 1.000000000000000021e-02 1.000000000000000021e-02 1.000000000000000021e-02 1.000000000000000021e-02 1.000000000000000021e-02 1.000000000000000021e-02 1.000000000000000021e-02 1.000000000000000021e-02 1.000000000000000021e-02 1.000000000000000021e-02 1.000000000000000021e-02 1.000000000000000021e-02 1.000000000000000021e-02 1.000000000000000021e-02 1.000000000000000021e-02 1.000000000000000021e-02 1.000000000000000021e-02 1.000000000000000021e-02 1.000000000000000021e-02 1.000000000000000021e-02 1.000000000000000021e-02 1.000000000000000021e-02 1.000000000000000021e-02 1.000000000000000021e-02 1.000000000000000021e-02 1.000000000000000021e-02 1.000000000000000021e-02 1.000000000000000021e-02 1.000000000000000021e-02 1.000000000000000021e-02 1.000000000000000021e-02 1.000000000000000021e-02 1.000000000000000021e-02 1.000000000000000021e-02 1.000000000000000021e-02 1.000000000000000021e-02 1.000000000000000021e-02 1.000000000000000021e-02 1.000000000000000021e-02 1.000000000000000021e-02 1.000000000000000021e-02 1.000000000000000021e-02 1.000000000000000021e-02 1.000000000000000021e-02 1.000000000000000021e-02 1.000000000000000021e-02 1.000000000000000021e-02 1.000000000000000021e-02 1.000000000000000021e-02 1.000000000000000021e-02 1.000000000000000021e-02 1.000000000000000021e-02 1.000000000000000021e-02 1.000000000000000021e-02 1.000000000000000021e-02 1.000000000000000021e-02 1.000000000000000021e-02 1.000000000000000021e-02 1.000000000000000021e-02 1.000000000000000021e-02 1.000000000000000021e-02 1.000000000000000021e-02 1.000000000000000021e-02 1.000000000000000021e-02 1.000000000000000021e-02 1.000000000000000021e-02 1.000000000000000021e-02 1.000000000000000021e-02 1.000000000000000021e-02 1.000000000000000021e-02 1.000000000000000021e-02 1.000000000000000021e-02 1.000000000000000021e-02 1.000000000000000021e-02 1.000000000000000021e-02 1.000000000000000021e-02 1.000000000000000021e-02 1.000000000000000021e-02 1.000000000000000021e-02 1.000000000000000021e-02 1.000000000000000021e-02 1.000000000000000021e-02 1.000000000000000021e-02 1.000000000000000021e-02 1.000000000000000021e-02 1.000000000000000021e-02 1.000000000000000021e-02 1.000000000000000021e-02 1.000000000000000021e-02 1.000000000000000021e-02 1.000000000000000021e-02 1.000000000000000021e-02 1.000000000000000021e-02 1.000000000000000021e-02 1.000000000000000021e-02 1.000000000000000021e-02 1.000000000000000021e-02 1.000000000000000021e-02 1.000000000000000021e-02 1.000000000000000021e-02 1.000000000000000021e-02 1.000000000000000021e-02 1.000000000000000021e-02 1.000000000000000021e-02 1.000000000000000021e-02 1.000000000000000021e-02 1.000000000000000021e-02 1.000000000000000021e-02 1.000000000000000021e-02 1.000000000000000021e-02 1.000000000000000021e-02 1.000000000000000021e-02 1.000000000000000021e-02 1.000000000000000021e-02 1.000000000000000021e-02 1.000000000000000021e-02 1.000000000000000021e-02 1.000000000000000021e-02 1.000000000000000021e-02 1.000000000000000021e-02 1.000000000000000021e-02 1.000000000000000021e-02 1.000000000000000021e-02 1.000000000000000021e-02 1.000000000000000021e-02 1.000000000000000021e-02 1.000000000000000021e-02 1.000000000000000021e-02 1.000000000000000021e-02 1.000000000000000021e-02 1.000000000000000021e-02 1.000000000000000021e-02 1.000000000000000021e-02 1.000000000000000021e-02 1.000000000000000021e-02 1.000000000000000021e-02 1.000000000000000021e-02 1.000000000000000021e-02 1.000000000000000021e-02 1.000000000000000021e-02 1.000000000000000021e-02 1.000000000000000021e-02 1.000000000000000021e-02 1.000000000000000021e-02 1.000000000000000021e-02 1.000000000000000021e-02 1.000000000000000021e-02 1.000000000000000021e-02 1.000000000000000021e-02 1.000000000000000021e-02 1.000000000000000021e-02 1.000000000000000021e-02 1.000000000000000021e-02 1.000000000000000021e-02 1.000000000000000021e-02 1.000000000000000021e-02 1.000000000000000021e-02 1.000000000000000021e-02 1.000000000000000021e-02 1.000000000000000021e-02 1.000000000000000021e-02 1.000000000000000021e-02 1.000000000000000021e-02 1.000000000000000021e-02 1.000000000000000021e-02 1.000000000000000021e-02 1.000000000000000021e-02 1.000000000000000021e-02 1.000000000000000021e-02 1.000000000000000021e-02 1.000000000000000021e-02 1.000000000000000021e-02 1.000000000000000021e-02 1.000000000000000021e-02 1.000000000000000021e-02 1.000000000000000021e-02 1.000000000000000021e-02 1.000000000000000021e-02 1.000000000000000021e-02 1.000000000000000021e-02 1.000000000000000021e-02 1.000000000000000021e-02 1.000000000000000021e-02 1.000000000000000021e-02 1.000000000000000021e-02 1.000000000000000021e-02 1.000000000000000021e-02 1.000000000000000021e-02 1.000000000000000021e-02 1.000000000000000021e-02 1.000000000000000021e-02 1.000000000000000021e-02 1.000000000000000021e-02 1.000000000000000021e-02 1.000000000000000021e-02 1.000000000000000021e-02 1.000000000000000021e-02 1.000000000000000021e-02 1.000000000000000021e-02 1.000000000000000021e-02 1.000000000000000021e-02 1.000000000000000021e-02 1.000000000000000021e-02 1.000000000000000021e-02 1.000000000000000021e-02 1.000000000000000021e-02 1.000000000000000021e-02 1.000000000000000021e-02 1.000000000000000021e-02 1.000000000000000021e-02 1.000000000000000021e-02 1.000000000000000021e-02 1.000000000000000021e-02 1.000000000000000021e-02 1.000000000000000021e-02 1.000000000000000021e-02 1.000000000000000021e-02 1.000000000000000021e-02 1.000000000000000021e-02 1.000000000000000021e-02 1.000000000000000021e-02 1.000000000000000021e-02 1.000000000000000021e-02 1.000000000000000021e-02 1.000000000000000021e-02 1.000000000000000021e-02 1.000000000000000021e-02 1.000000000000000021e-02 1.000000000000000021e-02 1.000000000000000021e-02 1.000000000000000021e-02 1.000000000000000021e-02 1.000000000000000021e-02 1.000000000000000021e-02 1.000000000000000021e-02 1.000000000000000021e-02 1.000000000000000021e-02 1.000000000000000021e-02 1.000000000000000021e-02 1.000000000000000021e-02 1.000000000000000021e-02 1.000000000000000021e-02 1.000000000000000021e-02 1.000000000000000021e-02 1.000000000000000021e-02 1.000000000000000021e-02 1.000000000000000021e-02 1.000000000000000021e-02 1.000000000000000021e-02 1.000000000000000021e-02 1.000000000000000021e-02 1.000000000000000021e-02 1.000000000000000021e-02 1.000000000000000021e-02 1.000000000000000021e-02 1.000000000000000021e-02 1.000000000000000021e-02 1.000000000000000021e-02 1.000000000000000021e-02 1.000000000000000021e-02 1.000000000000000021e-02 1.000000000000000021e-02 1.000000000000000021e-02 1.000000000000000021e-02 1.000000000000000021e-02 1.000000000000000021e-02 1.000000000000000021e-02 1.000000000000000021e-02 1.000000000000000021e-02 1.000000000000000021e-02 1.000000000000000021e-02 1.000000000000000021e-02 1.000000000000000021e-02 1.000000000000000021e-02 1.000000000000000021e-02 1.000000000000000021e-02 1.000000000000000021e-02 1.000000000000000021e-02 1.000000000000000021e-02 1.000000000000000021e-02 1.000000000000000021e-02 1.000000000000000021e-02 1.000000000000000021e-02 1.000000000000000021e-02 1.000000000000000021e-02 1.000000000000000021e-02 1.000000000000000021e-02 1.000000000000000021e-02 1.000000000000000021e-02 1.000000000000000021e-02 1.000000000000000021e-02 1.000000000000000021e-02 1.000000000000000021e-02 1.000000000000000021e-02 1.000000000000000021e-02 1.000000000000000021e-02 1.000000000000000021e-02 1.000000000000000021e-02 1.000000000000000021e-02 1.000000000000000021e-02 1.000000000000000021e-02 1.000000000000000021e-02 1.000000000000000021e-02 1.000000000000000021e-02 1.000000000000000021e-02 1.000000000000000021e-02 1.000000000000000021e-02 1.000000000000000021e-02 1.000000000000000021e-02 1.000000000000000021e-02 1.000000000000000021e-02 1.000000000000000021e-02 1.000000000000000021e-02 1.000000000000000021e-02 1.000000000000000021e-02 1.000000000000000021e-02 1.000000000000000021e-02 1.000000000000000021e-02 1.000000000000000021e-02 1.000000000000000021e-02 1.000000000000000021e-02 1.000000000000000021e-02 1.000000000000000021e-02 1.000000000000000021e-02 1.000000000000000021e-02 1.000000000000000021e-02 1.000000000000000021e-02 1.000000000000000021e-02 1.000000000000000021e-02 1.000000000000000021e-02 1.000000000000000021e-02 1.000000000000000021e-02 1.000000000000000021e-02 1.000000000000000021e-02 1.000000000000000021e-02 1.000000000000000021e-02 1.000000000000000021e-02 1.000000000000000021e-02 1.000000000000000021e-02 1.000000000000000021e-02 1.000000000000000021e-02 1.000000000000000021e-02 1.000000000000000021e-02 1.000000000000000021e-02 1.000000000000000021e-02 1.000000000000000021e-02 1.000000000000000021e-02 1.000000000000000021e-02 1.000000000000000021e-02 1.000000000000000021e-02 1.000000000000000021e-02 1.000000000000000021e-02 1.000000000000000021e-02 1.000000000000000021e-02 1.000000000000000021e-02 1.000000000000000021e-02 1.000000000000000021e-02 1.000000000000000021e-02 1.000000000000000021e-02 1.000000000000000021e-02 1.000000000000000021e-02 1.000000000000000021e-02 1.000000000000000021e-02 1.000000000000000021e-02 1.000000000000000021e-02 1.000000000000000021e-02 1.000000000000000021e-02 1.000000000000000021e-02 1.000000000000000021e-02 1.000000000000000021e-02 1.000000000000000021e-02 1.000000000000000021e-02 1.000000000000000021e-02 1.000000000000000021e-02 1.000000000000000021e-02 1.000000000000000021e-02 1.000000000000000021e-02 1.000000000000000021e-02 1.000000000000000021e-02 1.000000000000000021e-02 1.000000000000000021e-02 1.000000000000000021e-02 1.000000000000000021e-02 1.000000000000000021e-02 1.000000000000000021e-02 1.000000000000000021e-02 1.000000000000000021e-02 1.000000000000000021e-02 1.000000000000000021e-02 1.000000000000000021e-02 1.000000000000000021e-02 1.000000000000000021e-02 1.000000000000000021e-02 1.000000000000000021e-02 1.000000000000000021e-02 1.000000000000000021e-02 1.000000000000000021e-02 1.000000000000000021e-02 1.000000000000000021e-02 1.000000000000000021e-02
-1.102376399992966469e+02 1.676059946215137870e+02 3.885510583791337069e+01 -8.730527463141827482e+00 -8.683194671188377356e+01 -1.323084018816756569e+01 -2.054563008916437639e+02 6.871356795934262518e-01 -8.370906370488097537e+01 -1.391728166492407937e+01 -1.960435078885586790e+01 6.453172151885865127e+00 -1.760881025694921442e+00 1.658050970386825895e+02 8.362283393096335260e+01 -3.833735801421518374e+01 -5.218879695442905131e+01 7.828186846405202459e+01 3.243856733648892288e+01 -2.507623617065737065e+01 -7.791296208997844985e+01 -7.292908177642217993e+01 -1.363757868644580640e+01 2.859218674011424355e+01 -1.926187530297295325e+02 -9.756139062554336761e+01 -2.578347631647950777e+01 1.992497454704882784e+02 6.992937298071666419e+01 7.583289458141098294e+01 7.935184817212328312e+01 1.169065093170630343e+00 -7.833575311115194495e+01 2.050224132800466919e+02 -2.419859029926737719e+02 5.815813781703113960e+01 -1.187155104733959377e+02 -3.427835143548867336e+01 3.988241426104470744e+00 1.252268683339327708e+02 -1.214538251988187199e+02 -1.347873877755247563e+01 7.644165191555676131e+01 1.715701496231430383e+02 7.050944806703253676e+01 -6.759923268426568654e+01 4.072107854388193005e+01 -2.805622509171975665e+01 -6.529057833445213532e+01 1.547552726838835042e+02 -6.971353836336727738e+01 -5.149524080632477308e+01 -1.377195479395603570e+02 5.711148766683485256e+00 -4.993933964252978797e+01 3.822002177458885797e+01 -8.769476973026205258e+01 -4.947230471467763380e+01 -1.002278382449390648e+02 -1.536420241960244084e+02 1.921517007040028702e+01 4.484834044531980624e+01 -1.216974289536236427e+02 1.270525750776541862e+01 -7.836116102292641017e+01 4.855204545346384037e+01 1.647152904606767265e+02 -1.425986714578450858e+02 -4.280220986671628225e+01 7.122102653456435561e+00 2.899568319535189787e+00 4.189591535813238465e+01 8.301223548805778307e+01 8.386898340621715686e-01 -8.712829737973082800e+00 -6.921187067791694858e+01 7.735260580082126580e+01 -3.237114674145236393e+01 2.599711564482724668e+01 1.028207097988261438e+02 8.719689642940726060e+01 -4.226938371806726735e+01 5.711986073447547341e+01 1.457355697742466987e+02 1.148750867970090894e+02 -3.965908360012326384e+00 1.721949125271068795e+02 -1.102397004273767180e+02 4.138883293989998435e+00 -4.145642219677610285e+01 2.044508478802170828e+02 -2.097951128272228871e+01 2.856069408460994996e+00 -7.590120209752093672e+01 -7.060276542754351681e+00 -6.309968513208061580e+01 6.699921635847655921e+01 -9.346897360288407697e+01 6.781068895365105220e+01 -4.720942716899750025e+01 -4.918379284884922242e+01 -9.061128503544232160e+01 5.246925968592097433e+01 -5.407370169044406083e+01 -1.476174757959270778e+02 -7.855007172110035185e+01 -1.034096698611631098e+02 -1.554247526546964764e+02 1.343753290392535575e+02 -2.716055045161907699e+01 3.166959741699635345e+01 8.863889777047070595e+01 -1.028644731343339345e+02 5.630624554016371519e+01 -4.282216749278885715e+01 -6.856994984060769127e+01 -8.907494472405848285e+01 2.009135005684989608e+02 -5.608999238503167106e+01 -4.893801304504395944e+01 -4.665201035830899912e+01 7.947733822573427176e+01 -4.094034200383354261e+01 1.363947923659148955e+02 -4.932731393774136563e+01 5.448158953228777079e+01 4.490746385872561142e+00 -8.018448495137501197e+01 6.801296824720387235e+01 2.742213417506682163e+02 -9.099318452795243672e+01 4.694099162192665631e+01 -7.538769218676223716e+01 4.472709014726520849e+01 1.297119846247734642e+02 -5.082301732182165921e+01 1.443914036149612556e+01 -2.663289115663301132e+01 -1.008049197543533921e+02 -1.713098344698607534e+01 4.243663528088255532e+00 -7.727735298629609062e+00 -1.478037427428230188e+01 1.169054027326443190e+02 1.289316757200779477e+02 1.844142158628019388e+02 -3.010080183983845359e+02 3.778947197622724730e+01 -1.559180832911895642e+01 -6.167084803316404162e+01 1.784042368231739317e+02 7.536042081828574624e+01 -2.571845523930340160e+00 -1.147178407387768999e+02 -1.077492922591630631e+01 9.903896003361440137e+01 -1.329726260872291732e+02 -1.668627512859265209e+02 1.062539162683483873e+01 4.198690826070432536e+01 -6.040142024423965239e+01 4.160906382652248681e+01 -1.059921333901241098e+02 -1.497858835072774184e+02 2.088813470089409563e+01 4.809446545119894267e+01 4.766928982148170846e+00 -8.264167874404141401e+01 -9.267651109368320306e+01 -8.348711523042160820e+01 -8.671460739215446267e+01 1.252826021736523465e+01 5.629699234875072023e+01 1.154369864253755509e+02 7.870431064715667446e+01 8.871264806287466342e+01 1.065231855221206274e+02 -7.413752933105605791e+01 -8.180296772169705832e+01 6.992821393889745707e+01 6.794490372752593998e+01 5.874940272419109277e+01 -9.311864569013913240e+00 -9.036584945679184955e+01 5.357981568118933779e+01 -1.777091308323765873e+02 6.668593400539047877e+01 -4.421331960401774097e+01 -9.577022905907868733e+01 7.371258863545435247e+01 -1.703851979604654687e+01 -7.662926003095010685e+01 -5.710044543829491204e+01 -9.106931811702663637e+00 2.413037765641155090e+02 7.646146592680931064e+01 5.454959316494831256e+01 -1.033506111909033791e+02 1.475461381843932713e+02 1.053033883958768069e+00 -8.996850542627964842e+01 1.551478360561407612e+02 -1.535081350594817025e+02 1.571501177356261181e+01 -3.240937777113893503e+01 -2.213690520182662738e+02 -1.343434379076841481e+02 -8.786291994961169394e+01 -2.955465079756433866e+01 -1.200900983956365451e+02 5.806808619157212803e+01 6.546581760479169532e+01 -2.778894729312539980e+01 -1.004807534872145141e+02 1.139195139655579680e+02 1.190552174378089205e+02 4.655298199128522896e+01 1.761694955578746757e+01 2.633753336793993185e+02 4.399672964753965232e+01 -1.204001656403993223e+02 -4.542319339709632686e+01 -1.701867515638536190e+02 3.212840385354532202e+01 1.545477279639809751e+02 -1.495502496226285132e+02 1.328270256867656940e+02 -9.172655687106831124e+01 -1.907946398015514688e+01 -7.887140618456509600e-01 5.332395529372184484e+01 -1.168705359699469426e+01 -2.300764149052055529e+01 -1.902453216620498111e+01 -1.278526566165005818e+02 4.682067210790504674e+01 -3.061946649076322302e+01 -1.306590724576195939e+01 -1.081548636096666627e+01 2.280221638150230490e+02 1.758256932973751248e+02 2.347632595435232759e+02 1.330136827513163382e+02 -8.737386808910008540e+01 7.586984184337173076e+01 2.132934750601823026e+01 4.799900647938594744e+01 -4.006754451951081819e+01 2.578135666316395032e+02 -2.352931084762090919e+01 -1.380281149330593564e+02 -1.509004048994956371e+01 -4.627172251543783688e+01 -7.813060408606065721e+01 4.357092175390501154e+01 -1.182527059643723000e+01 1.836698754767059825e+02 9.326536107287984123e+01 4.127772774549595880e+01 9.896285958266024352e+01 9.549007374871710851e+01 -2.321258034226630684e+01 1.410089298219382101e+02 2.677394667596583133e+01 9.048194714472761291e+01 4.814574095834558420e+01 6.998271232234412942e+00 -1.169155854102353942e+02 -1.170131559251528444e+02 -9.093530102426363726e+01 -1.572485472222430047e+01 8.756553594543652252e+01 -3.095069055039453687e+01 9.988620007900766495e+01 4.426037801077201550e+01 -7.345972015421148171e+01 -3.025752579017284205e+01 -5.918382726619319101e+01 1.774428875257306970e+01 -4.678051532771698362e+01 -1.131795413721046799e+02 1.227523569289432857e+02 1.225724219788470606e+02 -7.976424007808991234e+01 5.477688732705653152e+00 -4.578036158690282775e+01 -3.291570104855114920e+01 -1.145673791932035357e+01 -3.154945333081565195e+01 4.492579150148405631e+01 -1.419723550749287142e+02 -5.337875217016983243e+01 -1.533779771675446852e+02 1.758321439741922063e+02 -2.040344778262916847e+01 5.949315310714590055e+01 1.203135532353723747e+01 1.457610817322028538e+02 4.504255181096385030e+01 3.604750340277865206e+01 1.557825663737589821e+02 -4.971023838091105773e+01 -9.849217079638398786e+01 2.743636618065391630e+01 -1.594040496067437118e+02 -5.386993130524735562e+01 1.032010518838950759e+02 -1.287210717597197061e+02 -3.666952052850081145e+01 9.205781337238602191e+01 -9.525176470393233785e+01 -9.021962991037457869e+01 -8.332046106798175344e+01 -6.432615436799262909e+01 2.510881934381663712e+02 1.997858054220856445e+02 1.038059239654919566e+02 -1.030024089949788220e+02 7.542986325609878406e+01 -6.668598530910750810e+01 -3.157641214255245998e+01 1.673558812943376495e+01 -3.247445978489847818e+01 -9.441995697717894132e+01 -2.789452400501256868e+00 1.487501008549493520e+01 1.095354623432328509e+02 -1.293480317553533041e+02 4.220758432990982811e+01 6.417072677836131334e+01 3.474301927262914802e+01 -9.116567091224990804e+01 -1.494022913831583423e+02 1.942955497702963896e+02 -1.790884801627280254e+01 2.532822038228589889e+01 1.574049893931550343e+02 2.680477651078810908e+01 2.787854357415179862e+01 -4.476429585308830639e+01 8.903574552962049893e+01 -1.369875701038780846e+02 -3.094482178972048914e+01 -6.164668701628152725e+00 -5.364035676564721200e+01 6.281228258708901002e+00 2.136669360446972732e+01 -3.593947520534039342e+01 1.372284471037539078e+01 2.145855512433901140e+02 -2.750558481705301972e+01 -2.809940986062934343e+01 -1.020499098126418858e+02 -1.649683691785493345e+00 -8.104708773649971931e+01 6.411432746060603094e+00 1.124857247082443195e+02 -5.221021160054534960e+01 6.066398793359872421e+00 -5.450248882212921586e+01 3.333362156467522652e+00 8.749762652308726274e+01 -1.162416341965911499e+02 -9.714950323382640818e+01 -1.029110247020921065e+02 7.160141432958889141e+01 8.683964828779042477e+01 -9.255781989259324405e+01 6.282765064058442306e+01 2.590976933726625120e+01 3.880992903336973399e+01 -1.780424379947151792e+01 9.163406157744928748e+01 7.995824157513483499e+01 -7.749989704439327909e+01 1.185743884638839774e+01 8.112900031187970740e+01 7.306935377290182032e+01 -1.995677001969324493e+01 2.504663341175722380e+01 -1.329850098544423247e+02 4.867122759331033421e+01 -3.287154832695131290e+01 -3.276433875725719957e+01 1.736888255342188643e+02 4.756523362250852927e+01 1.205543314002950126e+02 1.915127786446467439e+02 -1.380804146802381922e+02 1.495109318119854152e+02 -6.360476668937266709e+01 -1.355264020488399410e+02 8.255275548746870129e+01 -1.344462206682178760e+02 -2.879196878146008132e+01 5.656870737399053439e+01 8.087567887540645373e+00 -1.686238031522045731e+02 8.448879986713272672e+01 2.529957559875922257e+01 6.928773334422514552e+01 3.639508016805851298e+01 9.497193899487454516e+00 -6.730549238478658935e+01 1.160472409214283829e+02 5.464352565273930651e+01 -6.229522429858045740e+01 -1.015260187349355192e+02 3.903753437004579041e+01 2.577280010956387102e+01 8.262592687942364478e+01 1.842817524578173902e+02 -2.469476699153290511e+01 -1.104594284544153595e+02 -8.494210459801188051e+01 -5.146047286951959876e+01 -4.447483654392539165e+01 -1.471293392541585945e+02 -2.257545087019897068e+01 1.298620341354002505e+02 7.473884771864167931e+01 -1.227012320949290398e+02 -1.502895447165756480e+02 -6.827723451412003897e+01 -7.654482658356063496e+01 1.471782122325835189e+02 -1.709174176991935212e+02 8.678202376650341421e+01 -4.619616068705821199e+00 -4.314417338606207153e+01 1.333147795489041698e+01 9.139866825178906140e+01 4.970485646060243567e+01 1.385658346025329308e+02 -1.595489079272057893e+02 -8.118007290872799331e+01 2.542194740407730080e+01 4.203959736716443985e+01 2.066589357610829722e+02 1.458290823076136746e+02 6.570325047284124764e+01 7.228752997361998212e+01 -3.422049698256257955e+01 1.521972165676627924e+02 -1.798007522122476587e+02 -6.357048482227601482e+01 -5.381785727413944187e+01 -5.192241474873594598e+01 -1.035285838798090339e+02 -1.502724929581042268e+01 -6.880649477331826347e+01 7.134754183917652881e+01 -9.175118945239612245e+00 -5.822223081522795241e+01 -6.241711591618764032e+01 1.806261161318784048e+02 5.915872126225215055e+01 -1.375247432853893059e+01 2.093823262596563097e+02 -1.085974356515775696e+02 -3.541530101813456355e+01 6.711814184587893806e+01 -1.336500713262659401e-01 1.499211132529628721e+01 -1.253791489024122825e+02 1.765884806371797424e+02 -4.908153888286901179e+01 -2.698287380088681431e+01 -1.099309597381311931e+02 1.260993475060441114e+02 9.605159335569888412e+01 -7.765902376106571126e+01 -3.766192782275970785e+01 3.901845374684163659e+01 -1.516403557387332626e+02 -1.689216168615186586e-01 -7.481663985414287765e+01 7.706527658859299024e+00 -1.082602062208727887e+02 -1.587443402492656617e+02 -7.077123319358237552e+01 1.483496480580333809e+02 5.662953682341682793e+01 -8.971786008830234493e+01 8.925574715867740849e+01 3.425609572832276228e+01 8.839393841289520992e+01 -4.214651415447924876e+01 -8.413624640446026604e+01 1.711183415747763092e+02 4.166645528440612622e+01 2.896092409400593226e+01 -7.301824077171249883e+01 -4.231930336936304826e+01 9.538977474229286102e+00 -7.166247362021222145e+00 -1.728258299968887002e+02 -3.460742114603665698e+01 6.439972265345157609e+01 1.115673451807715679e+02 1.556599436262230256e+02 -1.327042979815277590e+01 8.956720941497353294e+01 1.576143626007673504e+02 6.336405217941426571e+01 1.475962376622995293e+02 1.604708439426962840e+01 1.311432095742997888e+02 -8.382599141021462685e+01 5.326905433011994262e+01 2.927381772945751592e+01 7.571611459038018666e+01 -1.059846549742955233e+02 1.975840305134168773e+02 -1.284254328894789126e+02 8.807323744517064767e+01 -1.071029245123223461e+02 4.601379242517576529e+01 1.375926064705459595e+01 9.039772295139007952e+01 -7.340400110976125347e+01 -7.523329305971152792e+01 -1.110939321552768888e+01 8.873622598452757870e+01 -2.946566353581863495e+01 -1.623430284379080746e+01 -1.954429921413422022e+01 4.714510528358275110e+00 9.765089090536237393e+01 -6.223104464662128521e+01 -2.695419845039507045e+00 -1.925986704203545514e+02 1.210980976898126187e+02 -1.239137745825034784e+02 -7.330368356135915064e+01 -2.335152318625383572e+01 -1.070979255647220612e+02 -5.273987701434921860e+01 -5.811874015840903240e+01 -1.952573824785503120e+01 1.351744195369483066e+02 5.363254119339742942e+01 9.962757294240738304e+01 -1.350147540651720135e+02 -1.374732906132970243e+02 -2.843232248801074888e+02 1.013541938858136007e+02 1.034220599783576517e+02 4.196232386846026685e+01 -4.210760635819905673e+01 -3.689881017884142267e+01 -1.821977499513748455e+02 1.449548338523917437e+02 -1.065642934376431157e+02 1.061155665729663582e+02 -1.579513883926694007e+02 -1.420131805067946829e+01 -5.494087182006503411e+01 -1.183200492065439136e+02 -4.573982718862634300e+01 -1.241779312306834981e+01 -9.194448041174281627e+01 -1.026785314003504084e+02 -1.226185197050447151e+01 7.064315592554503098e+01 -1.236610964534455377e+02 -1.553884508220817295e+01 -7.318778830552371062e+01 -1.304087439162037185e+02 6.585579362624999433e+00 9.442004256096961967e+01 1.642809261682250508e+02 -1.892298777499685158e+01 -4.571129219320643244e+01 -1.232463413991295909e+02 -1.624144671972684080e+02 1.030381644838472539e+02 -7.222209264686752306e+01 7.844469536978566282e+01 9.335113098745249971e+00 2.902930766722360900e+01 7.333574817173496285e+01 -8.416481297260085626e+01 8.211322946737091399e+01 1.145003125322427451e+02 1.564095436316881376e+02 -1.157799673398963591e+02 1.032627057005119724e+02 -4.745985903174198484e+01 -9.020248127461384513e+01 2.131780837240015671e+02 4.891323237145718394e+01 8.292504635913829247e+01 2.111371081059559529e+01 -6.281757212275306301e+01 -3.470904569812401519e+01 -2.090151156940600004e+02 1.049497247943780991e+02 8.096819522315337281e+01 -7.520832371020181029e+01 -7.266126846707753373e+01 1.442522467866309626e+02 1.004111051044563254e+02 5.078599388459551278e+01 7.558308246144481757e+01 -7.824277312845382859e+00 1.025267069018558459e+02 -1.028888834041373599e+02 1.851767611311232713e+02 -3.922805994338815339e+01 -1.212109849070365897e+02 -3.744256430640139399e+01 7.128101451392275578e+01 1.463881564960581727e+02 1.280668379177033422e+01 1.727042311294279671e+02 5.186082000179832363e+01 3.340868264567625090e+01 -1.105977719778477422e+02 4.451042610582663883e+01 -1.242123063606766777e+02 4.739771653387632000e+01 3.836413649003647208e+01 -1.225670809408219810e+02 -8.449179298428830975e+01 3.959062567325404558e+01 8.669683627147923843e+00 -2.307458400473132443e+01 4.160016843453878010e+01 -2.126345694409690168e+01 -6.268663128505969695e+01 -2.601980678686896908e+01 -2.229578181747788079e+01 -3.956951292065378567e+01 1.865188391444306859e+01 -7.999447099702581454e+01 1.181843083769998657e+02 -7.382756436317663429e+01 -4.222179817808995317e+00 6.514716954814161909e+01 3.862913178266974779e+00 1.585143679162053232e+01 1.586095441786773286e+01 -1.163730534957988709e+02 -4.385037791541867236e+00 6.463028691048347696e+01 -2.299402898725807631e+02 -8.432078694108005834e+01 -1.119813709060724136e+02 4.351066660537520647e+01 9.559456666524029345e+01 -9.116046595416939624e+01 -1.667940161282668896e+02 -1.839563627603853604e+02 1.983410877258855010e+01 -1.439692953713665133e+02 -6.280368040593397261e+00 1.465642018578715238e+02 -7.041668168054485477e+00 3.685798105630982491e+01 -9.810974587207196862e+01 7.916626480138637589e+01 -1.174794949230845873e+02 -1.527606602671630753e+01 -3.000654477201108250e+01 5.701143480470092584e+01 -8.771739172278188335e+00 1.045740374891365292e+02 -1.207599780244006240e+02 -4.953298338623299202e+01 8.562648340644417999e+01 6.538893591772243497e+01 -8.137117411884024420e+01 -5.375519701750435075e+01 -4.876677845492565666e+01 -2.857773080584104832e+02 1.910739593918247294e+02 7.510943472886687289e+01 -2.327713371281920018e+01 -2.927198098602517717e+01 4.096869163147380277e+01 -8.297692726956613285e+01 9.813374060440324342e+01 5.961064457942024575e+01 8.079476392119887862e+01 -8.287084144985622913e+01 -2.614631332181757273e+01 3.283901579874931542e+01 1.712135950369776438e+01 -4.218550126263281896e+01 1.555341438981187139e+02 -1.702340501128416861e+01 3.485352701427265032e+01 -2.262776777748323696e+02 -8.335358777861756607e+01 -7.200580300140593693e+01 2.265951025367306571e+01 1.074554977088567966e+02 -2.280343623204094570e+02 -1.840619665833434908e+02 2.181176032433941998e+02 -1.039861950883953057e+01 9.452298610099110476e+01 6.168042849179236242e+01 -5.446978535417195388e+01 -1.289019666310680634e+02 -9.363583329735757843e+01 -4.945040964652716298e+01 -3.682546781566461647e+01 -3.853018575601366535e+01 1.589512884840971907e+01 3.657787930951641897e+01 1.641608205218891214e+02 1.212453158801775288e+02 6.847426630606282316e+00 -4.325926235464262248e+00 -1.562232405368544619e+02 1.177297702130464501e+02 1.567532606152298911e+02 -1.017762190623962937e+02 7.254310346189778613e+01 1.708637903675768399e+00 5.403214194484135646e+01 1.233967664047722650e+02 6.980427667223443677e+01 -1.318896073323987537e+02 1.587516490108774647e+01 -2.891743090757030643e+01 1.096525427447978807e+01 -2.276917246404093120e+01 4.462866640700097065e+01 -2.564952348492159899e+02 1.783643838427681487e+02 7.177450937681920884e+00 1.569748861148984531e+02 -1.038217171895711566e+01 1.045740486944902727e+02 7.056246538876990826e+01 -4.136980205266267063e+01 2.948312361243834800e+01 -7.175572623848458420e+01 -8.770866430646785261e+01 -7.103967666800633651e+01 -3.160239074446231200e+01 4.454567589988307219e+01 1.086441774322222358e+02 2.809259479905279377e+01 6.128726552387443860e+01 -1.034131534653805602e+02 -1.353054428011743937e+02 -1.330489265058089643e+01 4.578105167532984865e+01 -4.488517533092124978e+01 9.333502099774560179e+01 5.481373966155827304e+01 -2.729046026916146772e+01 2.956435286463180745e+01 6.059979704498487507e+01 -7.119283185146234416e+01 -1.320381135231581595e+02 1.402972742344684889e+02 7.717206739104831570e+00 4.952780832259272614e+01 -1.475007579001581917e+02 -5.277194373815429884e+01 -4.451929413706037231e-01 -6.499779826960683238e+01 4.217782560305018968e+00 5.565220820809854274e+01 1.843569407429695275e+02 3.869632056233935913e+01 -1.084143077040927849e+01 7.144633100889224409e+01 -4.499244201018592548e+01 -1.078316752570493264e+02 -1.367567825349238717e+02 9.272927108230941684e+00 2.485902109861847720e+01 2.357626129825420591e+01 -5.632331543888106040e+01 1.196572659798115694e+02 -8.006444596205776065e+01 1.271242884288113117e+02 8.649006525438052506e+01 -6.445015430037227588e+01 -8.396542044032756280e+01 8.346122421435615024e+01 2.027476668005948923e+01 -5.205529426881155075e+01 -5.338852005414053536e+01 1.355770993921019283e+02 5.684933964142827989e+01 7.925853461558357083e+01 2.593962416786909131e+01 -4.173834141713637536e+01 1.066205031782049133e+02 -5.415689637277042578e+01 5.467349479553398339e-01 7.599931662164954105e+01 9.887873461633674310e+01 2.537087861652128993e+02 -1.739720555296880207e+02 1.598531702465202500e+02 -6.713059806208191560e+01 -1.513047317222792110e+01 -2.492887663790240182e+01 -2.060465565500019380e+01 -5.481859888409735504e+01 9.242738800198711147e+01 1.830383964118001643e+02 -1.181615494681067133e+02 3.077587399379736866e+01 -1.262966967625793728e+02 6.987548712492790060e+01 -4.429544063322661174e+01 -8.068493380739126053e+01 -5.369836392011657722e+01 4.104715319611350566e+01 1.931965054220997402e+01 -8.154618627100305162e+01 -1.406929917800223109e+02 2.072048791195760842e+01 1.572957923965604721e+02 1.426131095744027455e+01 1.822048368902250388e+02 7.451572122207399396e+00 1.344819797479451324e+02 -3.456598122366933268e+01 9.067968985734708554e+01 -7.141704385897760687e+01 -1.128958818594537661e+02 4.944209918616285648e+01 -5.803223545036462383e+01 -7.857483436971783419e+01 7.294608835118697243e+01 6.463069220506954871e+00 -9.441046327387550718e+01 -1.507975562341736122e+02 1.481811018165712142e+02 -8.935971719614430242e+01 -2.359431196436267975e+00 1.203923158906578692e+02 5.818532213977380962e+01 -9.849970331741199914e+01 1.066835331183835933e+01 2.830020535673049835e+02 5.350697052302691503e+01 -1.583384534509873731e+02 -4.791380950462625066e+01 -6.177697110078616305e+01 9.668569842514456170e+00 1.080618743192005553e+02 -1.039814132339933934e+02 2.168257386959766464e+01 1.311601876667565136e+02 1.887527735097895487e+01 -2.124121103915340711e+02 4.859206147985734958e+01 7.590840267270986885e+01 -1.366036782542212258e+01 3.298452989347048714e+01 1.520468785751069030e-01 2.265390609966848245e+01 2.789834634972731209e+01 1.165097365516442238e+02 9.861163139600331817e+01 1.567157289395962572e+01 1.499136828464419864e+02 -6.440473265645532308e+01 2.481363120140087517e+02 6.542707768830997850e+01 1.425750025910566876e+02 -2.210531580686428299e+01 9.062729567714183077e+01 -4.930153654680747621e+01 -1.472956394441027612e+02 2.634535036400529151e+01 9.564577187533318181e+01 -8.815384792625435750e+01 -1.054126249934357418e+02 -6.696737013932630589e+01 3.683863913573326698e+01 -1.149575461697665020e+02 7.520410519885392375e+01 2.824400477949328803e+01 -9.825142367962612866e+01 1.911794064036965892e+02 -1.183989356005723081e+01 -1.024286067669309119e+02 -1.348161995183590811e+01 -2.057056221621697745e+01 -1.411570162464394116e+02 -4.029580246362635165e+01 6.191574983585970671e+01 1.326598752853223289e+02 2.922176612169640109e+01 2.693613536026176192e+01 4.508836051861348437e+01 -3.598061443340102272e+01 -1.465778659614444166e+02 1.597424954968172628e+01 3.118735831361909661e+01 1.340011840435501256e+02 -9.987050031361169644e+00 -7.665056794656725003e+01 7.370132566184938128e+01 9.958789936406623466e-01 3.210421908049041662e+01 1.402069218896535006e+02 -1.787288592269041771e+02 -9.348912425603622012e+01 1.255851860836189218e+02 -2.110685834020780192e+02 -1.799279880439609656e+02 8.903423682442272025e+01 1.506619354456281599e+02 6.202478905349054372e+01 -4.362971512886023362e+00 1.523846035502589302e+02 -2.147524964098805071e+02 1.048365268748973307e+02 4.146210533578909008e+01 1.243254938479199581e+02 -1.845092397513676303e+02 1.042348013418161514e+02 -2.765013998123266958e+01 -1.308019565450501887e+02 -5.209421011278398517e+00 -9.039992339293810630e+01 -1.592514685197461155e+01 -4.215434598199331084e+00 -1.205259316859442436e+02 -1.206488561685191598e+02 -6.121738553423173812e+01 -1.261277500069370348e+02 1.966393920311991792e+02 -1.575742832157351359e+02 -4.908684565013101775e+01 1.688036720543832132e+02 3.319335332310915021e+01 -2.895804203785448294e+02 -1.243501862526401140e+02 3.474602754194531684e+01 5.346938735573316137e+01 8.393045513656346657e+00 -1.512679277256557953e+02 3.491408717410326545e+01 7.320231560194450537e+00 -7.271908382138416016e+01 1.983306346595582283e+02 1.982003033358626283e+02 4.243652578882615600e+00 -2.040207996175248297e+02 1.232576465512659638e+02 3.009689592530204294e+01 3.694507829777902597e+00 7.495269671011381263e+01 -2.029813573199940322e+02 -1.350398864017386984e+02 1.379778505272568339e+02 1.072711595080206592e+02 5.177433768743588161e+01 1.401060142652754621e+02 -1.744001662160177943e+02 -2.000286875202040804e+01 -1.275939234900208703e+02 4.267261149792403074e+01 -1.016166879702103643e+02 8.516889878597153540e+01 -3.315944088694867276e+01 1.211501154994910934e+01 1.735862089505677091e+02 2.789715122814167714e+01 -2.578545547234259629e+02 -1.236302965363282027e+02 -8.154189240395567140e+01 1.546775698305857816e+02 1.226495033264430212e+01 -5.267594119036306211e+01 2.970065238322592194e+01 6.114983867175774890e+01 -3.871038821228660254e+01 1.051806657258811271e+02 -9.855461447651713058e+01 4.814539208521047442e+01 1.095010486184229990e+02 -3.470498030131844303e+01 -9.599543933207014845e+01 -1.109720152825274084e+02 1.171613853655497621e+02 -4.859116369682202929e+01 1.922861343436817663e+02 5.596358636727564573e+01 1.085438000658602675e+02 1.804469822726537700e+02 8.373495599539131362e+00 -1.215932322782443862e+02 -1.621531528041846286e+02 -1.117026156265911538e+02 4.156529112147052274e+01
-1.300476359535596060e+01 -4.612758958179384194e+00 9.895531322394263896e+01 -2.188547705809287720e+02 1.485138104191205173e+02 6.068702079811200178e+01 1.453807989833948398e+02 -1.234209545217304651e+02 -2.652690591461635439e+00 -2.299929287597212735e+01 -2.097299238106528492e+02 3.126972319088729435e+01 -1.750759314382035825e+01 1.168647420314414234e+02 -1.195187276008942661e+02 5.896699148739120488e+01 1.197190216777762544e+02 -4.390499133998542192e+01 -4.742043886780651718e+01 -2.581743414146458448e+01 5.896938722637631969e+01 6.028495657736318236e+01 3.098192393623111585e+01 -2.221668421361799233e+02 -4.929818666189058973e+01 8.744669267291718029e+01 9.466889073003827093e+00 -9.903029778930505955e+00 -6.356494088834333667e+01 -1.478808420837472326e+01 7.007031547282288386e+01 -1.389242621971222036e+02 -5.916881451503144262e+01 8.582418503760774087e+00 1.982909322230786984e+02 2.025947297336944075e+02 -3.067347189052854262e+01 5.339307648833133868e+01 -2.562743653320502801e-01 -1.334235694580224560e+02 9.169430320651227362e+01 1.024458706068546405e+02 1.036726060994286485e+02 1.116305314516067781e+01 5.912649229433402098e+01 4.597339107313566586e+01 3.714575636572339334e+01 2.803349980199408620e+01 1.053593401532635596e+02 8.570768924281705381e+01 6.266148105270535495e+01 1.557080781220092263e+02 2.366770947843901354e+02 1.868449280142335169e+02 -5.649312365703456607e+01 4.706638049124662615e+01 -6.140761936913096974e+01 5.388360179523131421e+01 -1.835904722391127279e+02 5.397632835465721257e+01 -1.956148167983044175e+02 -1.611797932126837054e+02 1.236949828296172882e+01 -8.838467189798082657e+00 1.619588354877493828e+02 -1.986718469923640669e+02 7.191817460928260175e+01 2.195737192623792851e+02 -7.032146123693824080e+00 -1.860715461170163394e+02 3.397303658702013962e+01 1.884096136087260334e+02 -5.838333045080579353e+01 -2.546545987834114442e+02 -9.799945576255097990e+01 8.477915497146650381e+00 -2.198610495424516955e+02 3.063251862379306445e+01 -1.714986594516217622e+02 -1.773579555912054957e+02 -5.461689879772199419e+01 1.457293051344393007e+02 6.641874507821042073e+01 1.014480948886721556e+01 -8.475855439601134833e+01 -4.073582257812664409e+01 6.095482410547712959e+01 -2.219848522138547366e+02 5.174514428679468381e+01 -7.171316800886897624e+01 -7.472952690549406896e+01 -1.691266856493653847e+02 6.223914670921379155e+01 8.871326137062453654e+01 -1.553021283754488309e+02 1.653189051600463984e+02 -3.816823091231061937e+01 -1.618972994004915833e+01 8.383631899561318335e+01 1.496068126952315538e+02 2.078400153343336498e+01 1.449548630233560402e+02 -1.769521781236273128e+01 -8.682199298042044688e+01 -1.877321684310102157e+01 9.675303195223042962e+01 4.426341451108103087e+01 9.628734490651704903e+01 9.290640655477010057e+01 -8.176768921465192363e+01 -1.672466060037240254e+02 1.211238448701999744e+02 5.339932407664297642e+01 1.594676739265189624e+01 3.009847517092772051e+01 -6.686765290296021647e+01 9.454150816897150378e+01 8.845921557403696056e+01 -1.348904854055951041e+01 -7.015178092522928921e+01 3.026223821366071220e+01 6.183543250011215520e+00 -6.056994053549570367e+01 1.669839525600564514e+02 -3.239315894028599274e+01 1.197700242967998321e+02 -6.905067596409813291e+01 3.781344293431907033e+01 -3.555455075487619609e+01 8.814845545263851534e+01 2.313236284990302849e+01 1.138826920232598354e+02 -1.143176661550475472e+02 7.326497785879480773e+01 1.216915072691922290e+02 -4.406035743290609474e+01 7.508892017884128300e+00 -1.254146808433415394e+01 1.151385685143983011e+02 3.547585207161175980e+00 1.662795866795975712e+02 -1.394416613813152992e+02 1.150477679960425377e+02 -9.005213447612791811e+01 9.447161316642265660e+01 -1.351952906012658389e+02 2.911695964396207614e+01 2.441653983840260977e+01 1.774828204624221639e+00 3.583225076875580584e+01 4.534785679426138927e+01 -1.224297099788646470e+01 1.070740226468473111e+01 1.066889319268856298e+02 1.256104622593940121e+02 -8.558050630896414646e+01 -5.350540263736719027e+01 4.674623518688599688e+01 1.509636155670694313e+00 -1.352528834411214120e+02 -5.442813851846644724e+01 -3.499736387776110291e+01 4.830571998445601878e+01 -6.474230146336664404e+01 2.264410829191979246e+01 1.584574823547514200e+02 -7.852214074064443139e+01 7.987014934126538890e+01 8.310679097008227245e+01 1.112375767487721312e+01 1.220507672319794921e+02 6.218648662122733839e+01 1.662069916357504837e+02 -3.420954424375341318e+01 1.112599385678126680e+02 5.497225271520722600e+01 -1.590440902938207302e+01 2.020665913714371698e+02 -1.374181722224149667e+02 4.841127237176322495e+01 -1.857865668527632579e+02 -8.338826830888672248e+01 4.065725522720224916e+01 -7.155937827444576271e+01 -1.544425509508994026e+02 1.975916980623455288e+02 -8.504435178873852408e+01 -4.709089521092188591e+01 -4.589120199021718349e+01 1.207388258658634612e+02 1.931756629042890268e+02 6.422405265211649805e+01 1.450659476661086558e+02 2.177013942112597249e+02 -1.599457312625275129e+00 1.615985158616428237e+02 7.032568890138496442e+01 1.888915876484706189e+02 -1.248003307312908703e+02 -1.176007518827429976e+01 6.296938833065143015e+00 1.884531109480917053e+02 -9.016404205267031102e+01 -6.002039447532952465e+01 -5.252744784907468301e+01 -1.329401141128682866e+02 4.631121312580409821e+00 -1.001421808213019204e+02 1.529317219432575996e+02 2.337387470676834056e+01 1.190657740194285630e+01 7.174151054232164881e+01 -4.886576362420420594e+00 1.160615026748466789e+02 -1.576213352649396029e+02 4.506091630050966756e+01 -1.694891316287285861e+02 1.165080882833811557e+02 9.531109653839227747e+01 -6.677535333207967483e+01 4.641701303932153877e+01 2.362825149796290134e+02 -3.022692090783377239e+01 4.133042091642229821e+01 -3.242145788681643381e+01 5.748844258961602804e+01 6.377322725566096295e+01 -6.229205008434173685e+00 1.011109377755709460e+02 1.006864347563130195e+02 -1.923411997743430959e+02 -1.520268053167131370e+02 -1.188776163029222204e+02 -9.365898648027192408e+00 -1.485862715551360793e+02 1.146265518562241965e+02 1.094592114883600971e+02 5.851515411366503372e+01 1.107319335164799412e+01 1.564103008768871916e+02 8.328237768000472840e+01 6.695625413100846401e+01 -1.007930470484643308e+02 1.511412028207158187e+02 -3.560562672287669983e+00 1.084460081567020922e+02 8.746271824148539764e+00 3.644045026584796432e+01 -7.506630930965559401e+01 -8.998599636727270479e+01 7.098202182822740269e+01 -3.816133016970652214e+00 1.449762534717266078e+02 -1.245795242186998486e+01 -2.825997974692882053e+00 4.545465613014675910e+01 2.243524763817655199e+01 1.401596172328518151e+02 1.453069808959633491e+01 3.552342151742466569e+01 -1.532812885287175959e+02 6.522559657700908531e+01 1.324007431937538115e+02 -1.746605942394697664e+01 -2.257964847236877688e+02 8.356699828999354907e+01 1.347023293395318433e+02 2.011732751210816517e+01 1.868080684149072397e+02 -4.158084515034548900e+00 4.235598950392770945e+01 -4.304937639199585675e+01 -1.368165997188452536e+02 5.525314051901048629e+01 -4.682184384315289094e+01 -7.989153457281410908e+01 4.063180531685923569e+01 -1.821049525541580181e+02 7.063468137530257707e+01 1.619628844210029399e+02 -9.969707814658698908e+01 1.703437763907195688e+02 -9.612525559316814849e+01 -5.881184631886109848e+00 -1.036573225459689063e+01 7.540522321597721600e+01 -4.584808884038599786e+01 -1.060365169483522294e+02 -8.710416553379468496e+01 1.433455454945464567e+02 5.810851566372772936e+01 -1.295265080014907539e+02 4.353734674492658385e+00 4.266813865114037441e+01 8.110989213924801788e+01 -3.961698297778338684e+01 5.889956627274484902e+01 -6.773389050057349436e+01 -1.594103624595562110e+02 -3.400185365689223715e+01 1.383969808676039293e+02 -1.113072311225749331e+02 -6.285656979839758129e+00 -1.598720408738988397e+02 -4.720283381073258511e+00 -1.431528163305063686e+02 3.230134998945626990e+01 5.905005335943558720e+01 -4.937258372421882768e+01 -8.080898189404769028e+01 5.528192426431371764e+00 7.296195486496570481e+01 -6.645526893365462229e+01 1.320607079235674348e+02 1.034622555101785650e+02 -1.251184537574395677e+02 -1.033587288328005371e+02 1.323728947694771136e+02 6.988492986763773729e+01 1.471476096850297779e+02 9.806337633962171196e+01 7.947993630082169147e+01 -5.901755982946156109e+01 -8.004727061663996324e+01 -7.543440206984608665e+01 2.001448436943215370e+02 2.991261068405791335e+01 -2.437020547370940449e+01 -6.702158062324944865e+01 -4.887624244061659340e+01 -1.283166271823269255e+02 -1.611480354298836204e+01 -1.709584052638367950e+02 1.218241148354844086e+02 4.481681864699374529e+01 -1.122652328128751975e+02 -4.715020854745363721e+01 1.166583121450655369e+02 -9.444811466184729909e+01 1.001778972671324084e+02 -1.154063866983044591e+02 -1.146795547456770059e+01 -9.303239868441390570e+01 8.740338626594281379e+01 -4.137501613991223337e+01 1.002825921719315261e+01 2.857749362750603339e+01 -1.233466452219486484e+02 1.217381052591373880e+01 4.708953201306343317e+01 -2.179034731212947662e+01 -6.694196553579539000e+01 1.972325870583992184e+02 8.418031207752994760e+01 4.587559014351134579e+01 -3.058622407003909416e+01 7.810318700673970227e+01 1.631747873451299142e+02 -8.981673986812796784e+01 2.039228018554851758e+02 -1.295779288873707742e+02 -1.790417835853580186e+02 1.477894770229538040e+02 -2.277533092798331609e+02 -9.436242189269727909e-01 -2.384216109749581847e+02 -1.488381641112614773e+02 6.985789668714045320e+01 -1.417461147321733392e+02 5.682264703286278973e+01 1.070038221018254774e+02 -1.560862186941144500e+02 -2.931198364419454805e+01 7.340425523145248121e+01 1.303554605676475546e+02 -1.811536775959708052e+02 8.515267507865955565e+01 -9.535438974069774076e+01 -9.598943320716170291e+00 -1.349951703452928875e+01 -7.745365589912601934e+01 -8.789501877258453533e+01 1.765402967016242712e+02 -2.111809895478772248e+01 1.306810851067190749e+00 1.267842485904542400e+02 -8.442342556226986972e+01 -3.352256491914106107e+01 -1.048601361022912215e+02 -4.756238804852900159e+01 5.029648060588377767e+00 5.784542254900826208e+01 -1.316856626474436780e+02 2.313386383916328839e+02 -5.258830956197098061e+01 1.197174820629897738e+02 -4.767299863096774715e+01 1.169816726800526254e+02 1.359058385783884546e+02 4.686829821315972566e+01 1.192966475072274761e+02 -4.224407322521444286e+01 1.368045358925713799e+02 -1.529549665607021041e+02 -6.393240777737721459e+01 -6.156813240438351187e+01 2.498796870268008519e+01 -1.587013812651557032e+02 7.094145114476341973e+01 -3.015952058238359257e+01 -8.082020944486642122e+01 8.762133921163359673e+01 -1.477830811905083976e+02 -8.921968324324008393e+01 -5.147552592337245159e+01 3.235164790012260738e+01 1.269672906400465848e+02 1.142873326031738372e+02 6.759482769607426178e+01 -1.546901552033103755e+00 1.710540113973763710e+02 1.198401275678743332e+02 -9.239108835206982917e+01 -7.641759078938686400e+01 5.405522436377393802e+01 9.744824830097531532e+00 9.582570080112033395e+01 1.630464793170401947e+02 6.903863888702314000e+01 2.388239848047842884e+01 -9.995488918904437980e+01 1.679934890141657604e+02 -1.111550854617016455e+02 -1.616040672077501483e+02 6.426079985876410205e+01 1.090028112970388463e+02 1.920186601056205689e+01 -1.357255685826917784e+02 2.905125663693952021e+01 4.145634307818257014e+01 -3.346897250937847512e-01 1.279465067042508224e+02 9.545669204725987811e+01 1.671745197749421052e+01 7.654136493866566582e+01 -1.045099311273540792e+02 -6.194278235273158906e+00 9.605700886048566645e+01 2.899906436450693548e+01 -6.351423195571169344e+01 1.934147030359229973e+02 2.256866395867038477e+02 -1.225373174991178900e+02 -2.696841428707748278e+01 -2.052044346058330575e+02 -7.046538111556634476e+01 1.528523539223866976e+02 3.302759846949055333e+00 -6.928714577452508649e+01 1.598451129451230770e+02 -6.099345943062507303e+01 -1.567307986829942479e+02 1.332523692068306218e+02 -6.557004651071008539e+01 3.365239089118683324e+01 8.423761025157502047e+01 1.344996924882956613e+01 -2.324051383423317816e+02 4.127062492888332912e+01 -6.004453771652196181e+00 8.788598639027777892e+01 -2.298423571174750890e+01 9.863384150206664458e+01 1.656548384406079677e+01 -8.262594985363524813e+01 -1.997552744546225512e+01 -1.709002929582059664e+02 1.121385068806228560e+02 2.465179764952718600e+01 -4.058988114296806771e+01 -5.052084764482617629e+01 -6.133954871888430915e+01 4.009748561760510199e+01 1.567071739863056621e+02 1.294043148761655289e+02 4.198572961564904205e+01 -1.929511757448209721e+02 -3.783097950438304480e+01 4.273016948128974946e+01 1.144160396208357184e+02 8.503831278749591149e+01 1.506060977476791685e+01 -1.814041474291573479e+02 1.284172170969336833e+02 -2.181890195349945998e+02 -2.006951576689967851e+02 -1.790661130519724198e+00 -7.193774678686055779e+01 -2.350627244764252310e+01 8.495774331768758714e+01 5.452990507613470328e+01 -1.084328239076385501e+02 -1.476953158128036421e+02 1.422412248786652711e+01 1.206148120434866655e+02 2.017023442345163531e+01 -5.529971696610290621e+01 -5.035463769985154414e+01 -1.144550178423251729e+01 1.573634367302751116e+02 2.181288502739302260e+01 -1.724268864984297807e+02 1.273842973813773654e+02 -6.633318540830609322e+01 -4.144352491576100306e+00 1.528764248415542681e+02 -5.191230445270231542e+01 -1.944668736627569317e+01 -1.090547581848239105e+02 -5.960580460107716583e+00 -2.367911635573587148e+01 1.307376164416409665e+02 1.192078527788845719e+02 6.709182956917666729e+01 6.496014631188272404e+01 -1.857395473548463016e+01 1.342113879161603052e+02 -1.119440154396739189e+02 -4.227368084639440582e+00 -9.039238980585037098e+01 1.559718063639490424e+02 7.240814362683205729e+01 5.130517242697432323e+01 8.203641362412163573e+00 -5.290553889301089896e+01 3.413166222996849797e+01 6.687856280278745125e+00 3.604261893973072617e+00 2.393139468909227574e+01 5.933720902749179515e+01 1.690058011844196812e+02 -3.856059852182841041e+01 -5.159760980779084605e+01 6.629620318894521347e+01 1.148135975735744694e+02 -1.271776758705685495e+01 9.125940985575735453e+01 1.032941297839381321e+02 2.092064668169913659e+02 -8.589765107197943905e+01 -1.217638729801860649e+02 -2.842707684169995730e+01 6.168685844955894026e+01 -1.007115153621971970e+01 1.065995376102165011e+02 3.695852294073853983e+01 -1.613796325608063853e+02 4.470979860480146328e+01 -8.876496928606684378e+01 -1.342385095946351612e+02 1.334434236531706404e+02 -7.543374110020093326e+01 5.868967064616476392e+01 1.102839610447984171e+02 -9.820278609831123617e+01 2.329571929938163066e+01 -7.154358228301408928e+01 3.993645633745267531e+01 -1.136444151938586060e+02 6.105865858552986225e+01 5.420338826227369111e+01 3.862074772885753404e+00 8.330881407254219084e+01 -1.515486070206932254e+02 7.568917282763422349e+01 -2.901953057335141750e+01 -1.662242944281296673e+02 9.297428763345121183e+01 2.414131788356881714e+01 -1.929831275011518414e+02 2.314801099482211271e+02 -5.262947713066673527e-01 1.034733310327438005e+02 -1.186555100739106763e+02 -1.910719584235404511e+02 -9.181471697236328566e+01 2.448573018798926526e+00 1.405852965890549342e+02 3.922487313908473716e+00 -9.403362293616507372e+01 4.956922589521393263e+01 1.348366618875745644e+02 6.392908826434253911e+01 -5.090055560219523301e+01 -5.819094501210181392e+01 8.314449865019068397e+01 3.024025818100957608e+01 -1.924164820883540585e+02 -2.039804587852515994e+01 1.663074464312916518e+02 9.722238279413616624e+01 -5.640659773453310777e+01 -1.100027926162055394e+02 -4.198852982939060752e+01 -4.730649087708728473e+01 -1.126060769282507295e+02 -1.816430813409380107e+01 -4.492518403536112004e+01 -1.117869611899883466e+02 -1.297785220864700193e+02 -2.650836269177547422e+01 -1.236454255036436507e+02 -1.316539045168699431e+02 -3.771413214793832225e+01 -5.444884730283234120e+01 -1.092257858816592773e+02 1.897581859359781902e+02 1.073039471371015274e+01 -2.867636614130549333e+01 -1.733377046844477931e+01 8.019244737921270882e+01 1.594580956414325179e+01 2.553293200539636132e+01 -2.167897012578227134e+01 -4.715304500649309460e+01 2.132071866630977297e+01 -1.481889958297360295e+02 -1.622758004061183783e+02 -9.216115886389202672e+01 -1.945424832325558100e+02 -9.135315725724052527e+01 8.744899689888059413e+01 6.257481967931228439e+01 -2.656154549530082676e+01 6.194560590815553525e+01 -1.596005957310456722e+02 -4.163876317821088691e+01 -1.183854866485047097e+02 -6.804352496155561880e+01 2.150495122944325601e+02 -2.092635480772763117e+02 2.092418937570699597e+02 2.546653660299608646e+01 -5.755660886320806213e+01 9.401733875196126178e+01 1.264862084035153202e+02 -5.289420777186862921e+01 -2.076926672443069322e+02 -1.519864944953136501e+02 1.042564080077142989e+02 8.538341325710212004e+01 -1.382047673697277617e+02 3.256753108322741497e+01 -4.044374778649203961e+01 -7.890128517709642608e+01 -2.897656895317009784e+01 -5.588543986818603315e+01 -8.810834695090575508e+01 -3.470711574465180860e+01 4.583456029666938214e+00 -3.332260916312343824e+01 -3.928187947506575073e-01 -1.462076369272057796e+01 9.374628482868951096e+01 1.295607355067129163e+02 1.342028342982767164e+01 1.712039418717135320e+01 -6.434681369008218610e+01 -1.998426575005646555e+02 3.450807933659751114e+01 -9.350666830953346675e+01 2.633509508976955615e+01 -8.317349509943289476e+00 1.054298033482212515e+00 7.371406749015301330e+01 1.242492491535565193e+02 -7.183940425733975133e+01 3.873617292377700494e+01 -1.966077891838419589e+02 9.863869646869833474e+00 7.109569789676025486e+00 -1.249324979548749468e+02 -3.437494626183369917e+01 -4.518785090152979222e+01 4.861323588080300517e+00 -1.042325507087079899e+02 2.757883960565268566e+01 -9.954228393989956203e+01 5.718168636592544374e+01 6.917289225532134367e+01 3.760256865061961662e+01 -2.957953916114749049e+01 1.095410937565469709e+02 6.226056719896847369e+01 8.154205864300405437e+01 -6.828787700647190206e+01 2.067069519837673397e+01 1.303357490786792994e+02 -5.959736767552442416e+01 -7.046862000560348172e+00 3.259763885300878172e+01 -1.308458574057865178e+02 9.966430264183118481e+01 9.126199538210248363e+01 -1.030495030406045629e+02 -8.389240216809892559e+01 -5.656266649829559867e+01 -4.643388020977226205e+01 -1.632227431227937302e+02 -1.384247937244214199e+02 -1.349141288098317943e+02 1.075968096098486626e+02 6.087456702561831179e+01 1.624183538134807065e+02 7.330188499116613521e+00 -8.726541580586419400e+01 1.907620242494516205e+01 1.407719897542221865e+01 -6.465616970582313172e+01 7.535644770986198182e+01 1.201326954842270567e+02 1.015524713339803675e+01 1.458858732858641361e+02 2.289364439699368603e+01 1.128687685074659157e+02 1.534623451391227889e+01 -2.113345751492250599e+02 2.220944608273528900e+02 -4.976626388448000426e+01 -1.516195734782760383e+02 -6.831836257936831203e+01 -4.361636981385395728e+01 4.187506631631796239e+01 2.589543384495246059e+01 4.627697674599113498e+01 -7.493794099736660996e+01 1.237241300000915345e+02 -8.718973916852704065e+01 -7.085328680334900930e+00 1.439065134952804215e+02 1.107059907388361779e+02 5.857219773087988557e+01 -1.786848285816642772e+02 2.566378581749987831e+01 1.416395242857545895e+02 2.363147892232401048e+01 9.837536989943818355e+01 1.072446086141543162e+02 -2.129711552443486653e+02 7.745823125064711689e+01 -5.813841765039464349e+01 -2.263365925264487544e+02 8.900527242854013821e+01 2.469456382378806580e+01 -1.220932718041458003e+02 -5.851235282537989235e+01 1.384964592002989718e+02 1.470198098421241184e+02 -7.547160619678003002e+01 -1.270477013210814619e+02 -8.285665480964354401e+01 -1.645393833517118196e+02 1.939274201836253297e+01 3.756432476683966826e+01 -1.678460482197291981e+01 -1.223657601497999536e+01 -8.839484618362899937e+01 -8.716946303869416113e+01 -2.430201837059625092e+01 1.316239591239093158e+02 1.337592953216717717e+02 7.958729293407121475e+01 9.517636265226130377e+01 -7.694542408286770296e+01 -1.766808400784788944e+02 -1.292426793700037990e+01 -2.261571514277100192e+01 -6.934516254197903606e+01 1.458013008166104019e+00 7.132972666316449306e+01 -5.166302824546324501e+01 2.407806518151749486e+01 7.729960928810173471e+01 6.843238910627013638e+01 1.079025772084247023e+02 -1.456232606338326150e+02 3.869506397033831746e+01 8.132799667687359602e+01 9.250118320001314487e+01 5.765555747376998852e+01 -1.007778902688695410e+02 1.336692102344204045e+02 1.244314260219688038e+02 9.355783643939039962e+01 9.911375627719411341e+01 -8.221305342628095048e+01 -1.451361713229785799e+01 -1.262677306222424001e+01 7.521634334678357448e+01 6.342196613450663989e+01 5.465179595812912083e+01 9.525145353654582436e+01 1.137121199849034241e+02 1.209531530273838342e+02 -6.333545514940746557e+01 7.868128862650235078e+01 6.368679496327420253e+01 -1.148577276389674182e+02 1.284722250183923506e+02 -9.795228607970241086e+00 -2.726164924073543006e+01 1.946012074338712807e+02 8.641459463666279817e+01 1.212242147329139073e+02 -1.410104062321048275e+02 -1.541732941206211649e+02 -1.502237511224728337e+02 -1.194032695049572794e+02 -4.329063136161111913e+01 1.073540640129760249e+02 -1.649452383248895160e+02 3.181028621071244444e+01 1.412253639319932574e+02 -5.807458596430257103e+01 -8.940520505304893106e+01 -3.438122992998805927e+01 1.330343404637463323e+02 2.225911073535595222e+02 -6.529724907021540048e+01 1.941445317329871401e+01 -2.713052453139843934e+01 6.711730404254062421e+01 5.905049641779567082e+01 -2.090130626704455779e+02 -8.692425807594419496e+01 1.348983542746805142e+02 1.370879079784163537e+02 9.271442854554686619e+01 -4.886528310286379195e+01 -7.435777803338123704e+01 -4.453839087524734452e+01 -1.732239486115985301e+02 6.981704227601366597e+01 -2.518406199446896210e+01 1.632943274899895130e+02 -2.741742023576630416e+01 -3.088072358053898370e+02 1.422278741732873186e+02 4.935603474476286578e+01 -1.158226230682166431e+02 -2.175823021418423764e+01 3.467289866270387222e+01 -2.039579544813611278e+02 -1.122360882375893425e+02 -1.076658433463622799e+02 -5.541944921892191900e+01 6.168873531427222190e+01 -1.619303253394729722e+02 1.060224007751016018e+02 -5.336745788306034655e+01 2.865659699032554908e+00 -1.310956076281073592e+02 -1.018281312840491353e+02 1.728131479956003602e+02 8.517114680854318465e+01 -4.150968031464694263e+01 3.652904314554794496e+01 -2.757604939011437750e+01 4.252646541569327354e+01 -1.028516958992092043e+02 9.720982507163124353e+01 4.965610171041256393e+01 -1.169150991857761426e+02 1.148088131805487251e+02 -4.831201440887183196e+01 9.825417857255948206e+01 -4.858881622899377106e+01 8.692613797580118273e+01 -1.508897825328522231e+02 1.403805133245890602e+02 2.436456368844040554e+01 9.902119484943622751e+01 1.283147727162164529e+02 -1.442966590443624568e+02 -8.452588488844509129e+01 -1.039489085338097141e+02 6.581178731469087495e+01 -1.686385906953309757e+02 1.491222343869955012e+02 1.401431791784751226e+02 5.215077757853828899e+01 -8.357290281277542476e+01 5.617252857952230727e+01 -1.056520635213991568e+02 -1.077364533465262930e+01 3.444022697052790249e+01 -1.809193142198705004e+02 -8.033281222159179435e+01 -1.332826563411330056e+01 1.006484869927907653e+02 -4.945268917018737653e+01 1.070867074225375148e+02 -6.336850045869051229e+01 -2.076631885745864565e+02 -1.055077849646559969e+02 -3.355492565252615123e+01 -5.930164414758760216e+01 2.965347783442914675e+01 5.065069655364784751e+01 6.252145685733955460e+00 2.497751378552451840e+01 -1.156510511483019599e+02 5.309138026306233371e+01 3.217238882228585339e+01 -7.116118160284737826e+01 9.140806344188286303e+00 5.556630959151286220e+01 -9.409628883103029295e+01 -5.433187596760168248e+01 -2.382678361069219619e+01 9.626834017529824905e+01 -1.689989166899563244e+01 4.138240411025897458e+00 -2.250532194216435471e+02 -9.377469428444673838e+01 9.763218697931533541e+01 -8.803530487716672326e+01 3.092868770438409598e+01 3.065740267862120305e+01 3.743132117990055718e+01 6.522713143668883617e+01 -1.751671154425432064e+02 1.421242601262380276e+02 8.046140735780934961e+01 -7.429123116565907736e+00 -7.977507223057854446e+01 1.104741033459976762e+02 6.130874650515464452e+01 -1.985604204237822614e+02 -4.974473995589905684e+01 -8.066877390782568114e+01 -5.117495323376675742e+01 -6.114881919138085919e+01 -9.779464567133442188e+01 -5.961057427870582615e+01 1.891145655934457750e+02 -1.686394009217960672e+02 6.466176889243899950e+01 2.739897491494214066e+01 -7.424988853096330388e+01 1.026005641155222570e+01 -3.893693665581230334e+01 3.389746643973772233e+00 -9.495320366554861380e+01 -1.951300939759552762e+02 1.816817848420879145e+01 4.139142474590944687e+01 -1.264060694517147176e+01 -8.887352746583200513e+00 -3.929372327691410050e+01 -1.876024116434765574e+02 -3.026981759861270405e+01 -6.456762903543101118e+01 1.378611831648094643e+01 -1.542370014060180594e+01 8.947190401058705334e+01 -6.227470293823957093e+01 -1.024442044980500555e+02 -3.529485652125792683e+01 -8.891535821165277298e+00 4.493377875170968849e+01 -2.186720778372341556e+01 -7.288956346513789697e+01 -1.568746389957042986e+01 1.981799534672895291e+01 4.693778301256158869e+01 -1.126505445748023106e+02 -1.373852346574886099e+02 2.276325008747138554e+02 -2.157179540009771586e+02 -7.505200451895521496e+01 -4.579226797745253918e+01 1.382242560201950141e+02 6.254240088888190741e+01 2.262338858035182056e+02 2.419167240634053826e+02 -6.162441379071272962e+01 1.279638712495838746e+02 -5.534022995794074262e+01 -4.034453765577038808e+01 -9.947578741932656499e+01 -7.892193510619894425e+01 -6.875911367267231356e+01 -8.798371516910187040e+01 -2.409784831334154660e+02 -2.677506429316331378e+02 1.331445631418681899e+02 -2.623031105629092963e+01 5.265724680297563509e+01 1.293888051432758459e+02
