# 
#                 ----------------------------------------------------
#                 Data from a 3D direct N-body simulation. 
# 
#                 rows are i-particle; 
#                 coumns are :mass, tag, x ,y, z, vx, vy, vz, ax, ay, az
# 
#                 NTHU, Computational Physics Lab
# 
#                 ----------------------------------------------------
#                 Time = 2.99999999999998
1.000000000000000000e+00 2.000000000000000000e+00 3.000000000000000000e+00 4.000000000000000000e+00 5.000000000000000000e+00 6.000000000000000000e+00 7.000000000000000000e+00 8.000000000000000000e+00 9.000000000000000000e+00 1.000000000000000000e+01 1.100000000000000000e+01 1.200000000000000000e+01 1.300000000000000000e+01 1.400000000000000000e+01 1.500000000000000000e+01 1.600000000000000000e+01 1.700000000000000000e+01 1.800000000000000000e+01 1.900000000000000000e+01 2.000000000000000000e+01 2.100000000000000000e+01 2.200000000000000000e+01 2.300000000000000000e+01 2.400000000000000000e+01 2.500000000000000000e+01 2.600000000000000000e+01 2.700000000000000000e+01 2.800000000000000000e+01 2.900000000000000000e+01 3.000000000000000000e+01 3.100000000000000000e+01 3.200000000000000000e+01 3.300000000000000000e+01 3.400000000000000000e+01 3.500000000000000000e+01 3.600000000000000000e+01 3.700000000000000000e+01 3.800000000000000000e+01 3.900000000000000000e+01 4.000000000000000000e+01 4.100000000000000000e+01 4.200000000000000000e+01 4.300000000000000000e+01 4.400000000000000000e+01 4.500000000000000000e+01 4.600000000000000000e+01 4.700000000000000000e+01 4.800000000000000000e+01 4.900000000000000000e+01 5.000000000000000000e+01 5.100000000000000000e+01 5.200000000000000000e+01 5.300000000000000000e+01 5.400000000000000000e+01 5.500000000000000000e+01 5.600000000000000000e+01 5.700000000000000000e+01 5.800000000000000000e+01 5.900000000000000000e+01 6.000000000000000000e+01 6.100000000000000000e+01 6.200000000000000000e+01 6.300000000000000000e+01 6.400000000000000000e+01 6.500000000000000000e+01 6.600000000000000000e+01 6.700000000000000000e+01 6.800000000000000000e+01 6.900000000000000000e+01 7.000000000000000000e+01 7.100000000000000000e+01 7.200000000000000000e+01 7.300000000000000000e+01 7.400000000000000000e+01 7.500000000000000000e+01 7.600000000000000000e+01 7.700000000000000000e+01 7.800000000000000000e+01 7.900000000000000000e+01 8.000000000000000000e+01 8.100000000000000000e+01 8.200000000000000000e+01 8.300000000000000000e+01 8.400000000000000000e+01 8.500000000000000000e+01 8.600000000000000000e+01 8.700000000000000000e+01 8.800000000000000000e+01 8.900000000000000000e+01 9.000000000000000000e+01 9.100000000000000000e+01 9.200000000000000000e+01 9.300000000000000000e+01 9.400000000000000000e+01 9.500000000000000000e+01 9.600000000000000000e+01 9.700000000000000000e+01 9.800000000000000000e+01 9.900000000000000000e+01 1.000000000000000000e+02 1.010000000000000000e+02 1.020000000000000000e+02 1.030000000000000000e+02 1.040000000000000000e+02 1.050000000000000000e+02 1.060000000000000000e+02 1.070000000000000000e+02 1.080000000000000000e+02 1.090000000000000000e+02 1.100000000000000000e+02 1.110000000000000000e+02 1.120000000000000000e+02 1.130000000000000000e+02 1.140000000000000000e+02 1.150000000000000000e+02 1.160000000000000000e+02 1.170000000000000000e+02 1.180000000000000000e+02 1.190000000000000000e+02 1.200000000000000000e+02 1.210000000000000000e+02 1.220000000000000000e+02 1.230000000000000000e+02 1.240000000000000000e+02 1.250000000000000000e+02 1.260000000000000000e+02 1.270000000000000000e+02 1.280000000000000000e+02 1.290000000000000000e+02 1.300000000000000000e+02 1.310000000000000000e+02 1.320000000000000000e+02 1.330000000000000000e+02 1.340000000000000000e+02 1.350000000000000000e+02 1.360000000000000000e+02 1.370000000000000000e+02 1.380000000000000000e+02 1.390000000000000000e+02 1.400000000000000000e+02 1.410000000000000000e+02 1.420000000000000000e+02 1.430000000000000000e+02 1.440000000000000000e+02 1.450000000000000000e+02 1.460000000000000000e+02 1.470000000000000000e+02 1.480000000000000000e+02 1.490000000000000000e+02 1.500000000000000000e+02 1.510000000000000000e+02 1.520000000000000000e+02 1.530000000000000000e+02 1.540000000000000000e+02 1.550000000000000000e+02 1.560000000000000000e+02 1.570000000000000000e+02 1.580000000000000000e+02 1.590000000000000000e+02 1.600000000000000000e+02 1.610000000000000000e+02 1.620000000000000000e+02 1.630000000000000000e+02 1.640000000000000000e+02 1.650000000000000000e+02 1.660000000000000000e+02 1.670000000000000000e+02 1.680000000000000000e+02 1.690000000000000000e+02 1.700000000000000000e+02 1.710000000000000000e+02 1.720000000000000000e+02 1.730000000000000000e+02 1.740000000000000000e+02 1.750000000000000000e+02 1.760000000000000000e+02 1.770000000000000000e+02 1.780000000000000000e+02 1.790000000000000000e+02 1.800000000000000000e+02 1.810000000000000000e+02 1.820000000000000000e+02 1.830000000000000000e+02 1.840000000000000000e+02 1.850000000000000000e+02 1.860000000000000000e+02 1.870000000000000000e+02 1.880000000000000000e+02 1.890000000000000000e+02 1.900000000000000000e+02 1.910000000000000000e+02 1.920000000000000000e+02 1.930000000000000000e+02 1.940000000000000000e+02 1.950000000000000000e+02 1.960000000000000000e+02 1.970000000000000000e+02 1.980000000000000000e+02 1.990000000000000000e+02 2.000000000000000000e+02 2.010000000000000000e+02 2.020000000000000000e+02 2.030000000000000000e+02 2.040000000000000000e+02 2.050000000000000000e+02 2.060000000000000000e+02 2.070000000000000000e+02 2.080000000000000000e+02 2.090000000000000000e+02 2.100000000000000000e+02 2.110000000000000000e+02 2.120000000000000000e+02 2.130000000000000000e+02 2.140000000000000000e+02 2.150000000000000000e+02 2.160000000000000000e+02 2.170000000000000000e+02 2.180000000000000000e+02 2.190000000000000000e+02 2.200000000000000000e+02 2.210000000000000000e+02 2.220000000000000000e+02 2.230000000000000000e+02 2.240000000000000000e+02 2.250000000000000000e+02 2.260000000000000000e+02 2.270000000000000000e+02 2.280000000000000000e+02 2.290000000000000000e+02 2.300000000000000000e+02 2.310000000000000000e+02 2.320000000000000000e+02 2.330000000000000000e+02 2.340000000000000000e+02 2.350000000000000000e+02 2.360000000000000000e+02 2.370000000000000000e+02 2.380000000000000000e+02 2.390000000000000000e+02 2.400000000000000000e+02 2.410000000000000000e+02 2.420000000000000000e+02 2.430000000000000000e+02 2.440000000000000000e+02 2.450000000000000000e+02 2.460000000000000000e+02 2.470000000000000000e+02 2.480000000000000000e+02 2.490000000000000000e+02 2.500000000000000000e+02 2.510000000000000000e+02 2.520000000000000000e+02 2.530000000000000000e+02 2.540000000000000000e+02 2.550000000000000000e+02 2.560000000000000000e+02 2.570000000000000000e+02 2.580000000000000000e+02 2.590000000000000000e+02 2.600000000000000000e+02 2.610000000000000000e+02 2.620000000000000000e+02 2.630000000000000000e+02 2.640000000000000000e+02 2.650000000000000000e+02 2.660000000000000000e+02 2.670000000000000000e+02 2.680000000000000000e+02 2.690000000000000000e+02 2.700000000000000000e+02 2.710000000000000000e+02 2.720000000000000000e+02 2.730000000000000000e+02 2.740000000000000000e+02 2.750000000000000000e+02 2.760000000000000000e+02 2.770000000000000000e+02 2.780000000000000000e+02 2.790000000000000000e+02 2.800000000000000000e+02 2.810000000000000000e+02 2.820000000000000000e+02 2.830000000000000000e+02 2.840000000000000000e+02 2.850000000000000000e+02 2.860000000000000000e+02 2.870000000000000000e+02 2.880000000000000000e+02 2.890000000000000000e+02 2.900000000000000000e+02 2.910000000000000000e+02 2.920000000000000000e+02 2.930000000000000000e+02 2.940000000000000000e+02 2.950000000000000000e+02 2.960000000000000000e+02 2.970000000000000000e+02 2.980000000000000000e+02 2.990000000000000000e+02 3.000000000000000000e+02 3.010000000000000000e+02 3.020000000000000000e+02 3.030000000000000000e+02 3.040000000000000000e+02 3.050000000000000000e+02 3.060000000000000000e+02 3.070000000000000000e+02 3.080000000000000000e+02 3.090000000000000000e+02 3.100000000000000000e+02 3.110000000000000000e+02 3.120000000000000000e+02 3.130000000000000000e+02 3.140000000000000000e+02 3.150000000000000000e+02 3.160000000000000000e+02 3.170000000000000000e+02 3.180000000000000000e+02 3.190000000000000000e+02 3.200000000000000000e+02 3.210000000000000000e+02 3.220000000000000000e+02 3.230000000000000000e+02 3.240000000000000000e+02 3.250000000000000000e+02 3.260000000000000000e+02 3.270000000000000000e+02 3.280000000000000000e+02 3.290000000000000000e+02 3.300000000000000000e+02 3.310000000000000000e+02 3.320000000000000000e+02 3.330000000000000000e+02 3.340000000000000000e+02 3.350000000000000000e+02 3.360000000000000000e+02 3.370000000000000000e+02 3.380000000000000000e+02 3.390000000000000000e+02 3.400000000000000000e+02 3.410000000000000000e+02 3.420000000000000000e+02 3.430000000000000000e+02 3.440000000000000000e+02 3.450000000000000000e+02 3.460000000000000000e+02 3.470000000000000000e+02 3.480000000000000000e+02 3.490000000000000000e+02 3.500000000000000000e+02 3.510000000000000000e+02 3.520000000000000000e+02 3.530000000000000000e+02 3.540000000000000000e+02 3.550000000000000000e+02 3.560000000000000000e+02 3.570000000000000000e+02 3.580000000000000000e+02 3.590000000000000000e+02 3.600000000000000000e+02 3.610000000000000000e+02 3.620000000000000000e+02 3.630000000000000000e+02 3.640000000000000000e+02 3.650000000000000000e+02 3.660000000000000000e+02 3.670000000000000000e+02 3.680000000000000000e+02 3.690000000000000000e+02 3.700000000000000000e+02 3.710000000000000000e+02 3.720000000000000000e+02 3.730000000000000000e+02 3.740000000000000000e+02 3.750000000000000000e+02 3.760000000000000000e+02 3.770000000000000000e+02 3.780000000000000000e+02 3.790000000000000000e+02 3.800000000000000000e+02 3.810000000000000000e+02 3.820000000000000000e+02 3.830000000000000000e+02 3.840000000000000000e+02 3.850000000000000000e+02 3.860000000000000000e+02 3.870000000000000000e+02 3.880000000000000000e+02 3.890000000000000000e+02 3.900000000000000000e+02 3.910000000000000000e+02 3.920000000000000000e+02 3.930000000000000000e+02 3.940000000000000000e+02 3.950000000000000000e+02 3.960000000000000000e+02 3.970000000000000000e+02 3.980000000000000000e+02 3.990000000000000000e+02 4.000000000000000000e+02 4.010000000000000000e+02 4.020000000000000000e+02 4.030000000000000000e+02 4.040000000000000000e+02 4.050000000000000000e+02 4.060000000000000000e+02 4.070000000000000000e+02 4.080000000000000000e+02 4.090000000000000000e+02 4.100000000000000000e+02 4.110000000000000000e+02 4.120000000000000000e+02 4.130000000000000000e+02 4.140000000000000000e+02 4.150000000000000000e+02 4.160000000000000000e+02 4.170000000000000000e+02 4.180000000000000000e+02 4.190000000000000000e+02 4.200000000000000000e+02 4.210000000000000000e+02 4.220000000000000000e+02 4.230000000000000000e+02 4.240000000000000000e+02 4.250000000000000000e+02 4.260000000000000000e+02 4.270000000000000000e+02 4.280000000000000000e+02 4.290000000000000000e+02 4.300000000000000000e+02 4.310000000000000000e+02 4.320000000000000000e+02 4.330000000000000000e+02 4.340000000000000000e+02 4.350000000000000000e+02 4.360000000000000000e+02 4.370000000000000000e+02 4.380000000000000000e+02 4.390000000000000000e+02 4.400000000000000000e+02 4.410000000000000000e+02 4.420000000000000000e+02 4.430000000000000000e+02 4.440000000000000000e+02 4.450000000000000000e+02 4.460000000000000000e+02 4.470000000000000000e+02 4.480000000000000000e+02 4.490000000000000000e+02 4.500000000000000000e+02 4.510000000000000000e+02 4.520000000000000000e+02 4.530000000000000000e+02 4.540000000000000000e+02 4.550000000000000000e+02 4.560000000000000000e+02 4.570000000000000000e+02 4.580000000000000000e+02 4.590000000000000000e+02 4.600000000000000000e+02 4.610000000000000000e+02 4.620000000000000000e+02 4.630000000000000000e+02 4.640000000000000000e+02 4.650000000000000000e+02 4.660000000000000000e+02 4.670000000000000000e+02 4.680000000000000000e+02 4.690000000000000000e+02 4.700000000000000000e+02 4.710000000000000000e+02 4.720000000000000000e+02 4.730000000000000000e+02 4.740000000000000000e+02 4.750000000000000000e+02 4.760000000000000000e+02 4.770000000000000000e+02 4.780000000000000000e+02 4.790000000000000000e+02 4.800000000000000000e+02 4.810000000000000000e+02 4.820000000000000000e+02 4.830000000000000000e+02 4.840000000000000000e+02 4.850000000000000000e+02 4.860000000000000000e+02 4.870000000000000000e+02 4.880000000000000000e+02 4.890000000000000000e+02 4.900000000000000000e+02 4.910000000000000000e+02 4.920000000000000000e+02 4.930000000000000000e+02 4.940000000000000000e+02 4.950000000000000000e+02 4.960000000000000000e+02 4.970000000000000000e+02 4.980000000000000000e+02 4.990000000000000000e+02 5.000000000000000000e+02 5.010000000000000000e+02 5.020000000000000000e+02 5.030000000000000000e+02 5.040000000000000000e+02 5.050000000000000000e+02 5.060000000000000000e+02 5.070000000000000000e+02 5.080000000000000000e+02 5.090000000000000000e+02 5.100000000000000000e+02 5.110000000000000000e+02 5.120000000000000000e+02 5.130000000000000000e+02 5.140000000000000000e+02 5.150000000000000000e+02 5.160000000000000000e+02 5.170000000000000000e+02 5.180000000000000000e+02 5.190000000000000000e+02 5.200000000000000000e+02 5.210000000000000000e+02 5.220000000000000000e+02 5.230000000000000000e+02 5.240000000000000000e+02 5.250000000000000000e+02 5.260000000000000000e+02 5.270000000000000000e+02 5.280000000000000000e+02 5.290000000000000000e+02 5.300000000000000000e+02 5.310000000000000000e+02 5.320000000000000000e+02 5.330000000000000000e+02 5.340000000000000000e+02 5.350000000000000000e+02 5.360000000000000000e+02 5.370000000000000000e+02 5.380000000000000000e+02 5.390000000000000000e+02 5.400000000000000000e+02 5.410000000000000000e+02 5.420000000000000000e+02 5.430000000000000000e+02 5.440000000000000000e+02 5.450000000000000000e+02 5.460000000000000000e+02 5.470000000000000000e+02 5.480000000000000000e+02 5.490000000000000000e+02 5.500000000000000000e+02 5.510000000000000000e+02 5.520000000000000000e+02 5.530000000000000000e+02 5.540000000000000000e+02 5.550000000000000000e+02 5.560000000000000000e+02 5.570000000000000000e+02 5.580000000000000000e+02 5.590000000000000000e+02 5.600000000000000000e+02 5.610000000000000000e+02 5.620000000000000000e+02 5.630000000000000000e+02 5.640000000000000000e+02 5.650000000000000000e+02 5.660000000000000000e+02 5.670000000000000000e+02 5.680000000000000000e+02 5.690000000000000000e+02 5.700000000000000000e+02 5.710000000000000000e+02 5.720000000000000000e+02 5.730000000000000000e+02 5.740000000000000000e+02 5.750000000000000000e+02 5.760000000000000000e+02 5.770000000000000000e+02 5.780000000000000000e+02 5.790000000000000000e+02 5.800000000000000000e+02 5.810000000000000000e+02 5.820000000000000000e+02 5.830000000000000000e+02 5.840000000000000000e+02 5.850000000000000000e+02 5.860000000000000000e+02 5.870000000000000000e+02 5.880000000000000000e+02 5.890000000000000000e+02 5.900000000000000000e+02 5.910000000000000000e+02 5.920000000000000000e+02 5.930000000000000000e+02 5.940000000000000000e+02 5.950000000000000000e+02 5.960000000000000000e+02 5.970000000000000000e+02 5.980000000000000000e+02 5.990000000000000000e+02 6.000000000000000000e+02 6.010000000000000000e+02 6.020000000000000000e+02 6.030000000000000000e+02 6.040000000000000000e+02 6.050000000000000000e+02 6.060000000000000000e+02 6.070000000000000000e+02 6.080000000000000000e+02 6.090000000000000000e+02 6.100000000000000000e+02 6.110000000000000000e+02 6.120000000000000000e+02 6.130000000000000000e+02 6.140000000000000000e+02 6.150000000000000000e+02 6.160000000000000000e+02 6.170000000000000000e+02 6.180000000000000000e+02 6.190000000000000000e+02 6.200000000000000000e+02 6.210000000000000000e+02 6.220000000000000000e+02 6.230000000000000000e+02 6.240000000000000000e+02 6.250000000000000000e+02 6.260000000000000000e+02 6.270000000000000000e+02 6.280000000000000000e+02 6.290000000000000000e+02 6.300000000000000000e+02 6.310000000000000000e+02 6.320000000000000000e+02 6.330000000000000000e+02 6.340000000000000000e+02 6.350000000000000000e+02 6.360000000000000000e+02 6.370000000000000000e+02 6.380000000000000000e+02 6.390000000000000000e+02 6.400000000000000000e+02 6.410000000000000000e+02 6.420000000000000000e+02 6.430000000000000000e+02 6.440000000000000000e+02 6.450000000000000000e+02 6.460000000000000000e+02 6.470000000000000000e+02 6.480000000000000000e+02 6.490000000000000000e+02 6.500000000000000000e+02 6.510000000000000000e+02 6.520000000000000000e+02 6.530000000000000000e+02 6.540000000000000000e+02 6.550000000000000000e+02 6.560000000000000000e+02 6.570000000000000000e+02 6.580000000000000000e+02 6.590000000000000000e+02 6.600000000000000000e+02 6.610000000000000000e+02 6.620000000000000000e+02 6.630000000000000000e+02 6.640000000000000000e+02 6.650000000000000000e+02 6.660000000000000000e+02 6.670000000000000000e+02 6.680000000000000000e+02 6.690000000000000000e+02 6.700000000000000000e+02 6.710000000000000000e+02 6.720000000000000000e+02 6.730000000000000000e+02 6.740000000000000000e+02 6.750000000000000000e+02 6.760000000000000000e+02 6.770000000000000000e+02 6.780000000000000000e+02 6.790000000000000000e+02 6.800000000000000000e+02 6.810000000000000000e+02 6.820000000000000000e+02 6.830000000000000000e+02 6.840000000000000000e+02 6.850000000000000000e+02 6.860000000000000000e+02 6.870000000000000000e+02 6.880000000000000000e+02 6.890000000000000000e+02 6.900000000000000000e+02 6.910000000000000000e+02 6.920000000000000000e+02 6.930000000000000000e+02 6.940000000000000000e+02 6.950000000000000000e+02 6.960000000000000000e+02 6.970000000000000000e+02 6.980000000000000000e+02 6.990000000000000000e+02 7.000000000000000000e+02 7.010000000000000000e+02 7.020000000000000000e+02 7.030000000000000000e+02 7.040000000000000000e+02 7.050000000000000000e+02 7.060000000000000000e+02 7.070000000000000000e+02 7.080000000000000000e+02 7.090000000000000000e+02 7.100000000000000000e+02 7.110000000000000000e+02 7.120000000000000000e+02 7.130000000000000000e+02 7.140000000000000000e+02 7.150000000000000000e+02 7.160000000000000000e+02 7.170000000000000000e+02 7.180000000000000000e+02 7.190000000000000000e+02 7.200000000000000000e+02 7.210000000000000000e+02 7.220000000000000000e+02 7.230000000000000000e+02 7.240000000000000000e+02 7.250000000000000000e+02 7.260000000000000000e+02 7.270000000000000000e+02 7.280000000000000000e+02 7.290000000000000000e+02 7.300000000000000000e+02 7.310000000000000000e+02 7.320000000000000000e+02 7.330000000000000000e+02 7.340000000000000000e+02 7.350000000000000000e+02 7.360000000000000000e+02 7.370000000000000000e+02 7.380000000000000000e+02 7.390000000000000000e+02 7.400000000000000000e+02 7.410000000000000000e+02 7.420000000000000000e+02 7.430000000000000000e+02 7.440000000000000000e+02 7.450000000000000000e+02 7.460000000000000000e+02 7.470000000000000000e+02 7.480000000000000000e+02 7.490000000000000000e+02 7.500000000000000000e+02 7.510000000000000000e+02 7.520000000000000000e+02 7.530000000000000000e+02 7.540000000000000000e+02 7.550000000000000000e+02 7.560000000000000000e+02 7.570000000000000000e+02 7.580000000000000000e+02 7.590000000000000000e+02 7.600000000000000000e+02 7.610000000000000000e+02 7.620000000000000000e+02 7.630000000000000000e+02 7.640000000000000000e+02 7.650000000000000000e+02 7.660000000000000000e+02 7.670000000000000000e+02 7.680000000000000000e+02 7.690000000000000000e+02 7.700000000000000000e+02 7.710000000000000000e+02 7.720000000000000000e+02 7.730000000000000000e+02 7.740000000000000000e+02 7.750000000000000000e+02 7.760000000000000000e+02 7.770000000000000000e+02 7.780000000000000000e+02 7.790000000000000000e+02 7.800000000000000000e+02 7.810000000000000000e+02 7.820000000000000000e+02 7.830000000000000000e+02 7.840000000000000000e+02 7.850000000000000000e+02 7.860000000000000000e+02 7.870000000000000000e+02 7.880000000000000000e+02 7.890000000000000000e+02 7.900000000000000000e+02 7.910000000000000000e+02 7.920000000000000000e+02 7.930000000000000000e+02 7.940000000000000000e+02 7.950000000000000000e+02 7.960000000000000000e+02 7.970000000000000000e+02 7.980000000000000000e+02 7.990000000000000000e+02 8.000000000000000000e+02 8.010000000000000000e+02 8.020000000000000000e+02 8.030000000000000000e+02 8.040000000000000000e+02 8.050000000000000000e+02 8.060000000000000000e+02 8.070000000000000000e+02 8.080000000000000000e+02 8.090000000000000000e+02 8.100000000000000000e+02 8.110000000000000000e+02 8.120000000000000000e+02 8.130000000000000000e+02 8.140000000000000000e+02 8.150000000000000000e+02 8.160000000000000000e+02 8.170000000000000000e+02 8.180000000000000000e+02 8.190000000000000000e+02 8.200000000000000000e+02 8.210000000000000000e+02 8.220000000000000000e+02 8.230000000000000000e+02 8.240000000000000000e+02 8.250000000000000000e+02 8.260000000000000000e+02 8.270000000000000000e+02 8.280000000000000000e+02 8.290000000000000000e+02 8.300000000000000000e+02 8.310000000000000000e+02 8.320000000000000000e+02 8.330000000000000000e+02 8.340000000000000000e+02 8.350000000000000000e+02 8.360000000000000000e+02 8.370000000000000000e+02 8.380000000000000000e+02 8.390000000000000000e+02 8.400000000000000000e+02 8.410000000000000000e+02 8.420000000000000000e+02 8.430000000000000000e+02 8.440000000000000000e+02 8.450000000000000000e+02 8.460000000000000000e+02 8.470000000000000000e+02 8.480000000000000000e+02 8.490000000000000000e+02 8.500000000000000000e+02 8.510000000000000000e+02 8.520000000000000000e+02 8.530000000000000000e+02 8.540000000000000000e+02 8.550000000000000000e+02 8.560000000000000000e+02 8.570000000000000000e+02 8.580000000000000000e+02 8.590000000000000000e+02 8.600000000000000000e+02 8.610000000000000000e+02 8.620000000000000000e+02 8.630000000000000000e+02 8.640000000000000000e+02 8.650000000000000000e+02 8.660000000000000000e+02 8.670000000000000000e+02 8.680000000000000000e+02 8.690000000000000000e+02 8.700000000000000000e+02 8.710000000000000000e+02 8.720000000000000000e+02 8.730000000000000000e+02 8.740000000000000000e+02 8.750000000000000000e+02 8.760000000000000000e+02 8.770000000000000000e+02 8.780000000000000000e+02 8.790000000000000000e+02 8.800000000000000000e+02 8.810000000000000000e+02 8.820000000000000000e+02 8.830000000000000000e+02 8.840000000000000000e+02 8.850000000000000000e+02 8.860000000000000000e+02 8.870000000000000000e+02 8.880000000000000000e+02 8.890000000000000000e+02 8.900000000000000000e+02 8.910000000000000000e+02 8.920000000000000000e+02 8.930000000000000000e+02 8.940000000000000000e+02 8.950000000000000000e+02 8.960000000000000000e+02 8.970000000000000000e+02 8.980000000000000000e+02 8.990000000000000000e+02 9.000000000000000000e+02 9.010000000000000000e+02 9.020000000000000000e+02 9.030000000000000000e+02 9.040000000000000000e+02 9.050000000000000000e+02 9.060000000000000000e+02 9.070000000000000000e+02 9.080000000000000000e+02 9.090000000000000000e+02 9.100000000000000000e+02 9.110000000000000000e+02 9.120000000000000000e+02 9.130000000000000000e+02 9.140000000000000000e+02 9.150000000000000000e+02 9.160000000000000000e+02 9.170000000000000000e+02 9.180000000000000000e+02 9.190000000000000000e+02 9.200000000000000000e+02 9.210000000000000000e+02 9.220000000000000000e+02 9.230000000000000000e+02 9.240000000000000000e+02 9.250000000000000000e+02 9.260000000000000000e+02 9.270000000000000000e+02 9.280000000000000000e+02 9.290000000000000000e+02 9.300000000000000000e+02 9.310000000000000000e+02 9.320000000000000000e+02 9.330000000000000000e+02 9.340000000000000000e+02 9.350000000000000000e+02 9.360000000000000000e+02 9.370000000000000000e+02 9.380000000000000000e+02 9.390000000000000000e+02 9.400000000000000000e+02 9.410000000000000000e+02 9.420000000000000000e+02 9.430000000000000000e+02 9.440000000000000000e+02 9.450000000000000000e+02 9.460000000000000000e+02 9.470000000000000000e+02 9.480000000000000000e+02 9.490000000000000000e+02 9.500000000000000000e+02 9.510000000000000000e+02 9.520000000000000000e+02 9.530000000000000000e+02 9.540000000000000000e+02 9.550000000000000000e+02 9.560000000000000000e+02 9.570000000000000000e+02 9.580000000000000000e+02 9.590000000000000000e+02 9.600000000000000000e+02 9.610000000000000000e+02 9.620000000000000000e+02 9.630000000000000000e+02 9.640000000000000000e+02 9.650000000000000000e+02 9.660000000000000000e+02 9.670000000000000000e+02 9.680000000000000000e+02 9.690000000000000000e+02 9.700000000000000000e+02 9.710000000000000000e+02 9.720000000000000000e+02 9.730000000000000000e+02 9.740000000000000000e+02 9.750000000000000000e+02 9.760000000000000000e+02 9.770000000000000000e+02 9.780000000000000000e+02 9.790000000000000000e+02 9.800000000000000000e+02 9.810000000000000000e+02 9.820000000000000000e+02 9.830000000000000000e+02 9.840000000000000000e+02 9.850000000000000000e+02 9.860000000000000000e+02 9.870000000000000000e+02 9.880000000000000000e+02 9.890000000000000000e+02 9.900000000000000000e+02 9.910000000000000000e+02 9.920000000000000000e+02 9.930000000000000000e+02 9.940000000000000000e+02 9.950000000000000000e+02 9.960000000000000000e+02 9.970000000000000000e+02 9.980000000000000000e+02 9.990000000000000000e+02 1.000000000000000000e+03
1.000000000000000021e-02 1.000000000000000021e-02 1.000000000000000021e-02 1.000000000000000021e-02 1.000000000000000021e-02 1.000000000000000021e-02 1.000000000000000021e-02 1.000000000000000021e-02 1.000000000000000021e-02 1.000000000000000021e-02 1.000000000000000021e-02 1.000000000000000021e-02 1.000000000000000021e-02 1.000000000000000021e-02 1.000000000000000021e-02 1.000000000000000021e-02 1.000000000000000021e-02 1.000000000000000021e-02 1.000000000000000021e-02 1.000000000000000021e-02 1.000000000000000021e-02 1.000000000000000021e-02 1.000000000000000021e-02 1.000000000000000021e-02 1.000000000000000021e-02 1.000000000000000021e-02 1.000000000000000021e-02 1.000000000000000021e-02 1.000000000000000021e-02 1.000000000000000021e-02 1.000000000000000021e-02 1.000000000000000021e-02 1.000000000000000021e-02 1.000000000000000021e-02 1.000000000000000021e-02 1.000000000000000021e-02 1.000000000000000021e-02 1.000000000000000021e-02 1.000000000000000021e-02 1.000000000000000021e-02 1.000000000000000021e-02 1.000000000000000021e-02 1.000000000000000021e-02 1.000000000000000021e-02 1.000000000000000021e-02 1.000000000000000021e-02 1.000000000000000021e-02 1.000000000000000021e-02 1.000000000000000021e-02 1.000000000000000021e-02 1.000000000000000021e-02 1.000000000000000021e-02 1.000000000000000021e-02 1.000000000000000021e-02 1.000000000000000021e-02 1.000000000000000021e-02 1.000000000000000021e-02 1.000000000000000021e-02 1.000000000000000021e-02 1.000000000000000021e-02 1.000000000000000021e-02 1.000000000000000021e-02 1.000000000000000021e-02 1.000000000000000021e-02 1.000000000000000021e-02 1.000000000000000021e-02 1.000000000000000021e-02 1.000000000000000021e-02 1.000000000000000021e-02 1.000000000000000021e-02 1.000000000000000021e-02 1.000000000000000021e-02 1.000000000000000021e-02 1.000000000000000021e-02 1.000000000000000021e-02 1.000000000000000021e-02 1.000000000000000021e-02 1.000000000000000021e-02 1.000000000000000021e-02 1.000000000000000021e-02 1.000000000000000021e-02 1.000000000000000021e-02 1.000000000000000021e-02 1.000000000000000021e-02 1.000000000000000021e-02 1.000000000000000021e-02 1.000000000000000021e-02 1.000000000000000021e-02 1.000000000000000021e-02 1.000000000000000021e-02 1.000000000000000021e-02 1.000000000000000021e-02 1.000000000000000021e-02 1.000000000000000021e-02 1.000000000000000021e-02 1.000000000000000021e-02 1.000000000000000021e-02 1.000000000000000021e-02 1.000000000000000021e-02 1.000000000000000021e-02 1.000000000000000021e-02 1.000000000000000021e-02 1.000000000000000021e-02 1.000000000000000021e-02 1.000000000000000021e-02 1.000000000000000021e-02 1.000000000000000021e-02 1.000000000000000021e-02 1.000000000000000021e-02 1.000000000000000021e-02 1.000000000000000021e-02 1.000000000000000021e-02 1.000000000000000021e-02 1.000000000000000021e-02 1.000000000000000021e-02 1.000000000000000021e-02 1.000000000000000021e-02 1.000000000000000021e-02 1.000000000000000021e-02 1.000000000000000021e-02 1.000000000000000021e-02 1.000000000000000021e-02 1.000000000000000021e-02 1.000000000000000021e-02 1.000000000000000021e-02 1.000000000000000021e-02 1.000000000000000021e-02 1.000000000000000021e-02 1.000000000000000021e-02 1.000000000000000021e-02 1.000000000000000021e-02 1.000000000000000021e-02 1.000000000000000021e-02 1.000000000000000021e-02 1.000000000000000021e-02 1.000000000000000021e-02 1.000000000000000021e-02 1.000000000000000021e-02 1.000000000000000021e-02 1.000000000000000021e-02 1.000000000000000021e-02 1.000000000000000021e-02 1.000000000000000021e-02 1.000000000000000021e-02 1.000000000000000021e-02 1.000000000000000021e-02 1.000000000000000021e-02 1.000000000000000021e-02 1.000000000000000021e-02 1.000000000000000021e-02 1.000000000000000021e-02 1.000000000000000021e-02 1.000000000000000021e-02 1.000000000000000021e-02 1.000000000000000021e-02 1.000000000000000021e-02 1.000000000000000021e-02 1.000000000000000021e-02 1.000000000000000021e-02 1.000000000000000021e-02 1.000000000000000021e-02 1.000000000000000021e-02 1.000000000000000021e-02 1.000000000000000021e-02 1.000000000000000021e-02 1.000000000000000021e-02 1.000000000000000021e-02 1.000000000000000021e-02 1.000000000000000021e-02 1.000000000000000021e-02 1.000000000000000021e-02 1.000000000000000021e-02 1.000000000000000021e-02 1.000000000000000021e-02 1.000000000000000021e-02 1.000000000000000021e-02 1.000000000000000021e-02 1.000000000000000021e-02 1.000000000000000021e-02 1.000000000000000021e-02 1.000000000000000021e-02 1.000000000000000021e-02 1.000000000000000021e-02 1.000000000000000021e-02 1.000000000000000021e-02 1.000000000000000021e-02 1.000000000000000021e-02 1.000000000000000021e-02 1.000000000000000021e-02 1.000000000000000021e-02 1.000000000000000021e-02 1.000000000000000021e-02 1.000000000000000021e-02 1.000000000000000021e-02 1.000000000000000021e-02 1.000000000000000021e-02 1.000000000000000021e-02 1.000000000000000021e-02 1.000000000000000021e-02 1.000000000000000021e-02 1.000000000000000021e-02 1.000000000000000021e-02 1.000000000000000021e-02 1.000000000000000021e-02 1.000000000000000021e-02 1.000000000000000021e-02 1.000000000000000021e-02 1.000000000000000021e-02 1.000000000000000021e-02 1.000000000000000021e-02 1.000000000000000021e-02 1.000000000000000021e-02 1.000000000000000021e-02 1.000000000000000021e-02 1.000000000000000021e-02 1.000000000000000021e-02 1.000000000000000021e-02 1.000000000000000021e-02 1.000000000000000021e-02 1.000000000000000021e-02 1.000000000000000021e-02 1.000000000000000021e-02 1.000000000000000021e-02 1.000000000000000021e-02 1.000000000000000021e-02 1.000000000000000021e-02 1.000000000000000021e-02 1.000000000000000021e-02 1.000000000000000021e-02 1.000000000000000021e-02 1.000000000000000021e-02 1.000000000000000021e-02 1.000000000000000021e-02 1.000000000000000021e-02 1.000000000000000021e-02 1.000000000000000021e-02 1.000000000000000021e-02 1.000000000000000021e-02 1.000000000000000021e-02 1.000000000000000021e-02 1.000000000000000021e-02 1.000000000000000021e-02 1.000000000000000021e-02 1.000000000000000021e-02 1.000000000000000021e-02 1.000000000000000021e-02 1.000000000000000021e-02 1.000000000000000021e-02 1.000000000000000021e-02 1.000000000000000021e-02 1.000000000000000021e-02 1.000000000000000021e-02 1.000000000000000021e-02 1.000000000000000021e-02 1.000000000000000021e-02 1.000000000000000021e-02 1.000000000000000021e-02 1.000000000000000021e-02 1.000000000000000021e-02 1.000000000000000021e-02 1.000000000000000021e-02 1.000000000000000021e-02 1.000000000000000021e-02 1.000000000000000021e-02 1.000000000000000021e-02 1.000000000000000021e-02 1.000000000000000021e-02 1.000000000000000021e-02 1.000000000000000021e-02 1.000000000000000021e-02 1.000000000000000021e-02 1.000000000000000021e-02 1.000000000000000021e-02 1.000000000000000021e-02 1.000000000000000021e-02 1.000000000000000021e-02 1.000000000000000021e-02 1.000000000000000021e-02 1.000000000000000021e-02 1.000000000000000021e-02 1.000000000000000021e-02 1.000000000000000021e-02 1.000000000000000021e-02 1.000000000000000021e-02 1.000000000000000021e-02 1.000000000000000021e-02 1.000000000000000021e-02 1.000000000000000021e-02 1.000000000000000021e-02 1.000000000000000021e-02 1.000000000000000021e-02 1.000000000000000021e-02 1.000000000000000021e-02 1.000000000000000021e-02 1.000000000000000021e-02 1.000000000000000021e-02 1.000000000000000021e-02 1.000000000000000021e-02 1.000000000000000021e-02 1.000000000000000021e-02 1.000000000000000021e-02 1.000000000000000021e-02 1.000000000000000021e-02 1.000000000000000021e-02 1.000000000000000021e-02 1.000000000000000021e-02 1.000000000000000021e-02 1.000000000000000021e-02 1.000000000000000021e-02 1.000000000000000021e-02 1.000000000000000021e-02 1.000000000000000021e-02 1.000000000000000021e-02 1.000000000000000021e-02 1.000000000000000021e-02 1.000000000000000021e-02 1.000000000000000021e-02 1.000000000000000021e-02 1.000000000000000021e-02 1.000000000000000021e-02 1.000000000000000021e-02 1.000000000000000021e-02 1.000000000000000021e-02 1.000000000000000021e-02 1.000000000000000021e-02 1.000000000000000021e-02 1.000000000000000021e-02 1.000000000000000021e-02 1.000000000000000021e-02 1.000000000000000021e-02 1.000000000000000021e-02 1.000000000000000021e-02 1.000000000000000021e-02 1.000000000000000021e-02 1.000000000000000021e-02 1.000000000000000021e-02 1.000000000000000021e-02 1.000000000000000021e-02 1.000000000000000021e-02 1.000000000000000021e-02 1.000000000000000021e-02 1.000000000000000021e-02 1.000000000000000021e-02 1.000000000000000021e-02 1.000000000000000021e-02 1.000000000000000021e-02 1.000000000000000021e-02 1.000000000000000021e-02 1.000000000000000021e-02 1.000000000000000021e-02 1.000000000000000021e-02 1.000000000000000021e-02 1.000000000000000021e-02 1.000000000000000021e-02 1.000000000000000021e-02 1.000000000000000021e-02 1.000000000000000021e-02 1.000000000000000021e-02 1.000000000000000021e-02 1.000000000000000021e-02 1.000000000000000021e-02 1.000000000000000021e-02 1.000000000000000021e-02 1.000000000000000021e-02 1.000000000000000021e-02 1.000000000000000021e-02 1.000000000000000021e-02 1.000000000000000021e-02 1.000000000000000021e-02 1.000000000000000021e-02 1.000000000000000021e-02 1.000000000000000021e-02 1.000000000000000021e-02 1.000000000000000021e-02 1.000000000000000021e-02 1.000000000000000021e-02 1.000000000000000021e-02 1.000000000000000021e-02 1.000000000000000021e-02 1.000000000000000021e-02 1.000000000000000021e-02 1.000000000000000021e-02 1.000000000000000021e-02 1.000000000000000021e-02 1.000000000000000021e-02 1.000000000000000021e-02 1.000000000000000021e-02 1.000000000000000021e-02 1.000000000000000021e-02 1.000000000000000021e-02 1.000000000000000021e-02 1.000000000000000021e-02 1.000000000000000021e-02 1.000000000000000021e-02 1.000000000000000021e-02 1.000000000000000021e-02 1.000000000000000021e-02 1.000000000000000021e-02 1.000000000000000021e-02 1.000000000000000021e-02 1.000000000000000021e-02 1.000000000000000021e-02 1.000000000000000021e-02 1.000000000000000021e-02 1.000000000000000021e-02 1.000000000000000021e-02 1.000000000000000021e-02 1.000000000000000021e-02 1.000000000000000021e-02 1.000000000000000021e-02 1.000000000000000021e-02 1.000000000000000021e-02 1.000000000000000021e-02 1.000000000000000021e-02 1.000000000000000021e-02 1.000000000000000021e-02 1.000000000000000021e-02 1.000000000000000021e-02 1.000000000000000021e-02 1.000000000000000021e-02 1.000000000000000021e-02 1.000000000000000021e-02 1.000000000000000021e-02 1.000000000000000021e-02 1.000000000000000021e-02 1.000000000000000021e-02 1.000000000000000021e-02 1.000000000000000021e-02 1.000000000000000021e-02 1.000000000000000021e-02 1.000000000000000021e-02 1.000000000000000021e-02 1.000000000000000021e-02 1.000000000000000021e-02 1.000000000000000021e-02 1.000000000000000021e-02 1.000000000000000021e-02 1.000000000000000021e-02 1.000000000000000021e-02 1.000000000000000021e-02 1.000000000000000021e-02 1.000000000000000021e-02 1.000000000000000021e-02 1.000000000000000021e-02 1.000000000000000021e-02 1.000000000000000021e-02 1.000000000000000021e-02 1.000000000000000021e-02 1.000000000000000021e-02 1.000000000000000021e-02 1.000000000000000021e-02 1.000000000000000021e-02 1.000000000000000021e-02 1.000000000000000021e-02 1.000000000000000021e-02 1.000000000000000021e-02 1.000000000000000021e-02 1.000000000000000021e-02 1.000000000000000021e-02 1.000000000000000021e-02 1.000000000000000021e-02 1.000000000000000021e-02 1.000000000000000021e-02 1.000000000000000021e-02 1.000000000000000021e-02 1.000000000000000021e-02 1.000000000000000021e-02 1.000000000000000021e-02 1.000000000000000021e-02 1.000000000000000021e-02 1.000000000000000021e-02 1.000000000000000021e-02 1.000000000000000021e-02 1.000000000000000021e-02 1.000000000000000021e-02 1.000000000000000021e-02 1.000000000000000021e-02 1.000000000000000021e-02 1.000000000000000021e-02 1.000000000000000021e-02 1.000000000000000021e-02 1.000000000000000021e-02 1.000000000000000021e-02 1.000000000000000021e-02 1.000000000000000021e-02 1.000000000000000021e-02 1.000000000000000021e-02 1.000000000000000021e-02 1.000000000000000021e-02 1.000000000000000021e-02 1.000000000000000021e-02 1.000000000000000021e-02 1.000000000000000021e-02 1.000000000000000021e-02 1.000000000000000021e-02 1.000000000000000021e-02 1.000000000000000021e-02 1.000000000000000021e-02 1.000000000000000021e-02 1.000000000000000021e-02 1.000000000000000021e-02 1.000000000000000021e-02 1.000000000000000021e-02 1.000000000000000021e-02 1.000000000000000021e-02 1.000000000000000021e-02 1.000000000000000021e-02 1.000000000000000021e-02 1.000000000000000021e-02 1.000000000000000021e-02 1.000000000000000021e-02 1.000000000000000021e-02 1.000000000000000021e-02 1.000000000000000021e-02 1.000000000000000021e-02 1.000000000000000021e-02 1.000000000000000021e-02 1.000000000000000021e-02 1.000000000000000021e-02 1.000000000000000021e-02 1.000000000000000021e-02 1.000000000000000021e-02 1.000000000000000021e-02 1.000000000000000021e-02 1.000000000000000021e-02 1.000000000000000021e-02 1.000000000000000021e-02 1.000000000000000021e-02 1.000000000000000021e-02 1.000000000000000021e-02 1.000000000000000021e-02 1.000000000000000021e-02 1.000000000000000021e-02 1.000000000000000021e-02 1.000000000000000021e-02 1.000000000000000021e-02 1.000000000000000021e-02 1.000000000000000021e-02 1.000000000000000021e-02 1.000000000000000021e-02 1.000000000000000021e-02 1.000000000000000021e-02 1.000000000000000021e-02 1.000000000000000021e-02 1.000000000000000021e-02 1.000000000000000021e-02 1.000000000000000021e-02 1.000000000000000021e-02 1.000000000000000021e-02 1.000000000000000021e-02 1.000000000000000021e-02 1.000000000000000021e-02 1.000000000000000021e-02 1.000000000000000021e-02 1.000000000000000021e-02 1.000000000000000021e-02 1.000000000000000021e-02 1.000000000000000021e-02 1.000000000000000021e-02 1.000000000000000021e-02 1.000000000000000021e-02 1.000000000000000021e-02 1.000000000000000021e-02 1.000000000000000021e-02 1.000000000000000021e-02 1.000000000000000021e-02 1.000000000000000021e-02 1.000000000000000021e-02 1.000000000000000021e-02 1.000000000000000021e-02 1.000000000000000021e-02 1.000000000000000021e-02 1.000000000000000021e-02 1.000000000000000021e-02 1.000000000000000021e-02 1.000000000000000021e-02 1.000000000000000021e-02 1.000000000000000021e-02 1.000000000000000021e-02 1.000000000000000021e-02 1.000000000000000021e-02 1.000000000000000021e-02 1.000000000000000021e-02 1.000000000000000021e-02 1.000000000000000021e-02 1.000000000000000021e-02 1.000000000000000021e-02 1.000000000000000021e-02 1.000000000000000021e-02 1.000000000000000021e-02 1.000000000000000021e-02 1.000000000000000021e-02 1.000000000000000021e-02 1.000000000000000021e-02 1.000000000000000021e-02 1.000000000000000021e-02 1.000000000000000021e-02 1.000000000000000021e-02 1.000000000000000021e-02 1.000000000000000021e-02 1.000000000000000021e-02 1.000000000000000021e-02 1.000000000000000021e-02 1.000000000000000021e-02 1.000000000000000021e-02 1.000000000000000021e-02 1.000000000000000021e-02 1.000000000000000021e-02 1.000000000000000021e-02 1.000000000000000021e-02 1.000000000000000021e-02 1.000000000000000021e-02 1.000000000000000021e-02 1.000000000000000021e-02 1.000000000000000021e-02 1.000000000000000021e-02 1.000000000000000021e-02 1.000000000000000021e-02 1.000000000000000021e-02 1.000000000000000021e-02 1.000000000000000021e-02 1.000000000000000021e-02 1.000000000000000021e-02 1.000000000000000021e-02 1.000000000000000021e-02 1.000000000000000021e-02 1.000000000000000021e-02 1.000000000000000021e-02 1.000000000000000021e-02 1.000000000000000021e-02 1.000000000000000021e-02 1.000000000000000021e-02 1.000000000000000021e-02 1.000000000000000021e-02 1.000000000000000021e-02 1.000000000000000021e-02 1.000000000000000021e-02 1.000000000000000021e-02 1.000000000000000021e-02 1.000000000000000021e-02 1.000000000000000021e-02 1.000000000000000021e-02 1.000000000000000021e-02 1.000000000000000021e-02 1.000000000000000021e-02 1.000000000000000021e-02 1.000000000000000021e-02 1.000000000000000021e-02 1.000000000000000021e-02 1.000000000000000021e-02 1.000000000000000021e-02 1.000000000000000021e-02 1.000000000000000021e-02 1.000000000000000021e-02 1.000000000000000021e-02 1.000000000000000021e-02 1.000000000000000021e-02 1.000000000000000021e-02 1.000000000000000021e-02 1.000000000000000021e-02 1.000000000000000021e-02 1.000000000000000021e-02 1.000000000000000021e-02 1.000000000000000021e-02 1.000000000000000021e-02 1.000000000000000021e-02 1.000000000000000021e-02 1.000000000000000021e-02 1.000000000000000021e-02 1.000000000000000021e-02 1.000000000000000021e-02 1.000000000000000021e-02 1.000000000000000021e-02 1.000000000000000021e-02 1.000000000000000021e-02 1.000000000000000021e-02 1.000000000000000021e-02 1.000000000000000021e-02 1.000000000000000021e-02 1.000000000000000021e-02 1.000000000000000021e-02 1.000000000000000021e-02 1.000000000000000021e-02 1.000000000000000021e-02 1.000000000000000021e-02 1.000000000000000021e-02 1.000000000000000021e-02 1.000000000000000021e-02 1.000000000000000021e-02 1.000000000000000021e-02 1.000000000000000021e-02 1.000000000000000021e-02 1.000000000000000021e-02 1.000000000000000021e-02 1.000000000000000021e-02 1.000000000000000021e-02 1.000000000000000021e-02 1.000000000000000021e-02 1.000000000000000021e-02 1.000000000000000021e-02 1.000000000000000021e-02 1.000000000000000021e-02 1.000000000000000021e-02 1.000000000000000021e-02 1.000000000000000021e-02 1.000000000000000021e-02 1.000000000000000021e-02 1.000000000000000021e-02 1.000000000000000021e-02 1.000000000000000021e-02 1.000000000000000021e-02 1.000000000000000021e-02 1.000000000000000021e-02 1.000000000000000021e-02 1.000000000000000021e-02 1.000000000000000021e-02 1.000000000000000021e-02 1.000000000000000021e-02 1.000000000000000021e-02 1.000000000000000021e-02 1.000000000000000021e-02 1.000000000000000021e-02 1.000000000000000021e-02 1.000000000000000021e-02 1.000000000000000021e-02 1.000000000000000021e-02 1.000000000000000021e-02 1.000000000000000021e-02 1.000000000000000021e-02 1.000000000000000021e-02 1.000000000000000021e-02 1.000000000000000021e-02 1.000000000000000021e-02 1.000000000000000021e-02 1.000000000000000021e-02 1.000000000000000021e-02 1.000000000000000021e-02 1.000000000000000021e-02 1.000000000000000021e-02 1.000000000000000021e-02 1.000000000000000021e-02 1.000000000000000021e-02 1.000000000000000021e-02 1.000000000000000021e-02 1.000000000000000021e-02 1.000000000000000021e-02 1.000000000000000021e-02 1.000000000000000021e-02 1.000000000000000021e-02 1.000000000000000021e-02 1.000000000000000021e-02 1.000000000000000021e-02 1.000000000000000021e-02 1.000000000000000021e-02 1.000000000000000021e-02 1.000000000000000021e-02 1.000000000000000021e-02 1.000000000000000021e-02 1.000000000000000021e-02 1.000000000000000021e-02 1.000000000000000021e-02 1.000000000000000021e-02 1.000000000000000021e-02 1.000000000000000021e-02 1.000000000000000021e-02 1.000000000000000021e-02 1.000000000000000021e-02 1.000000000000000021e-02 1.000000000000000021e-02 1.000000000000000021e-02 1.000000000000000021e-02 1.000000000000000021e-02 1.000000000000000021e-02 1.000000000000000021e-02 1.000000000000000021e-02 1.000000000000000021e-02 1.000000000000000021e-02 1.000000000000000021e-02 1.000000000000000021e-02 1.000000000000000021e-02 1.000000000000000021e-02 1.000000000000000021e-02 1.000000000000000021e-02 1.000000000000000021e-02 1.000000000000000021e-02 1.000000000000000021e-02 1.000000000000000021e-02 1.000000000000000021e-02 1.000000000000000021e-02 1.000000000000000021e-02 1.000000000000000021e-02 1.000000000000000021e-02 1.000000000000000021e-02 1.000000000000000021e-02 1.000000000000000021e-02 1.000000000000000021e-02 1.000000000000000021e-02 1.000000000000000021e-02 1.000000000000000021e-02 1.000000000000000021e-02 1.000000000000000021e-02 1.000000000000000021e-02 1.000000000000000021e-02 1.000000000000000021e-02 1.000000000000000021e-02 1.000000000000000021e-02 1.000000000000000021e-02 1.000000000000000021e-02 1.000000000000000021e-02 1.000000000000000021e-02 1.000000000000000021e-02 1.000000000000000021e-02 1.000000000000000021e-02 1.000000000000000021e-02 1.000000000000000021e-02 1.000000000000000021e-02 1.000000000000000021e-02 1.000000000000000021e-02 1.000000000000000021e-02 1.000000000000000021e-02 1.000000000000000021e-02 1.000000000000000021e-02 1.000000000000000021e-02 1.000000000000000021e-02 1.000000000000000021e-02 1.000000000000000021e-02 1.000000000000000021e-02 1.000000000000000021e-02 1.000000000000000021e-02 1.000000000000000021e-02 1.000000000000000021e-02 1.000000000000000021e-02 1.000000000000000021e-02 1.000000000000000021e-02 1.000000000000000021e-02 1.000000000000000021e-02 1.000000000000000021e-02 1.000000000000000021e-02 1.000000000000000021e-02 1.000000000000000021e-02 1.000000000000000021e-02 1.000000000000000021e-02 1.000000000000000021e-02 1.000000000000000021e-02 1.000000000000000021e-02 1.000000000000000021e-02 1.000000000000000021e-02 1.000000000000000021e-02 1.000000000000000021e-02 1.000000000000000021e-02 1.000000000000000021e-02 1.000000000000000021e-02 1.000000000000000021e-02 1.000000000000000021e-02 1.000000000000000021e-02 1.000000000000000021e-02 1.000000000000000021e-02 1.000000000000000021e-02 1.000000000000000021e-02 1.000000000000000021e-02 1.000000000000000021e-02 1.000000000000000021e-02 1.000000000000000021e-02 1.000000000000000021e-02 1.000000000000000021e-02 1.000000000000000021e-02 1.000000000000000021e-02 1.000000000000000021e-02 1.000000000000000021e-02 1.000000000000000021e-02 1.000000000000000021e-02 1.000000000000000021e-02 1.000000000000000021e-02 1.000000000000000021e-02 1.000000000000000021e-02 1.000000000000000021e-02 1.000000000000000021e-02 1.000000000000000021e-02 1.000000000000000021e-02 1.000000000000000021e-02 1.000000000000000021e-02 1.000000000000000021e-02 1.000000000000000021e-02 1.000000000000000021e-02 1.000000000000000021e-02 1.000000000000000021e-02 1.000000000000000021e-02 1.000000000000000021e-02 1.000000000000000021e-02 1.000000000000000021e-02 1.000000000000000021e-02 1.000000000000000021e-02 1.000000000000000021e-02 1.000000000000000021e-02 1.000000000000000021e-02 1.000000000000000021e-02 1.000000000000000021e-02 1.000000000000000021e-02 1.000000000000000021e-02 1.000000000000000021e-02 1.000000000000000021e-02 1.000000000000000021e-02 1.000000000000000021e-02 1.000000000000000021e-02 1.000000000000000021e-02 1.000000000000000021e-02 1.000000000000000021e-02 1.000000000000000021e-02 1.000000000000000021e-02 1.000000000000000021e-02 1.000000000000000021e-02 1.000000000000000021e-02 1.000000000000000021e-02 1.000000000000000021e-02 1.000000000000000021e-02 1.000000000000000021e-02 1.000000000000000021e-02 1.000000000000000021e-02 1.000000000000000021e-02 1.000000000000000021e-02 1.000000000000000021e-02 1.000000000000000021e-02 1.000000000000000021e-02 1.000000000000000021e-02 1.000000000000000021e-02 1.000000000000000021e-02 1.000000000000000021e-02 1.000000000000000021e-02 1.000000000000000021e-02 1.000000000000000021e-02 1.000000000000000021e-02 1.000000000000000021e-02 1.000000000000000021e-02 1.000000000000000021e-02 1.000000000000000021e-02 1.000000000000000021e-02 1.000000000000000021e-02 1.000000000000000021e-02 1.000000000000000021e-02 1.000000000000000021e-02 1.000000000000000021e-02 1.000000000000000021e-02 1.000000000000000021e-02 1.000000000000000021e-02 1.000000000000000021e-02 1.000000000000000021e-02 1.000000000000000021e-02 1.000000000000000021e-02 1.000000000000000021e-02 1.000000000000000021e-02 1.000000000000000021e-02 1.000000000000000021e-02 1.000000000000000021e-02 1.000000000000000021e-02 1.000000000000000021e-02 1.000000000000000021e-02 1.000000000000000021e-02 1.000000000000000021e-02 1.000000000000000021e-02 1.000000000000000021e-02 1.000000000000000021e-02 1.000000000000000021e-02 1.000000000000000021e-02 1.000000000000000021e-02 1.000000000000000021e-02 1.000000000000000021e-02 1.000000000000000021e-02 1.000000000000000021e-02 1.000000000000000021e-02 1.000000000000000021e-02 1.000000000000000021e-02 1.000000000000000021e-02 1.000000000000000021e-02 1.000000000000000021e-02 1.000000000000000021e-02 1.000000000000000021e-02 1.000000000000000021e-02 1.000000000000000021e-02 1.000000000000000021e-02 1.000000000000000021e-02 1.000000000000000021e-02 1.000000000000000021e-02 1.000000000000000021e-02 1.000000000000000021e-02 1.000000000000000021e-02 1.000000000000000021e-02 1.000000000000000021e-02 1.000000000000000021e-02 1.000000000000000021e-02 1.000000000000000021e-02 1.000000000000000021e-02 1.000000000000000021e-02 1.000000000000000021e-02 1.000000000000000021e-02 1.000000000000000021e-02 1.000000000000000021e-02 1.000000000000000021e-02 1.000000000000000021e-02 1.000000000000000021e-02 1.000000000000000021e-02
-1.077262623532593437e+02 1.638677131196925814e+02 3.795116091785784107e+01 -8.522884146708250341e+00 -8.486596733986567642e+01 -1.292992714037644042e+01 -2.008493788035155205e+02 6.851114515625358337e-01 -8.180008493983680751e+01 -1.367575965759298207e+01 -1.917380463816396841e+01 6.328318517560728829e+00 -1.722103686716139004e+00 1.620629740452081933e+02 8.174240026905115997e+01 -3.749902780581562212e+01 -5.104543285827226384e+01 7.651591540685988946e+01 3.171353424661199227e+01 -2.452041105884961780e+01 -7.614410119264283594e+01 -7.126801167244907731e+01 -1.332014048248404592e+01 2.794738300963101807e+01 -1.882668988042635192e+02 -9.534573887525003499e+01 -2.520637739601488292e+01 1.947410351168975069e+02 6.835169590516487403e+01 7.414858517086430822e+01 7.756903234457584517e+01 1.139509312659008788e+00 -7.663029011444638172e+01 2.004471506118991329e+02 -2.365725955280834398e+02 5.688528997508481666e+01 -1.160027776017950885e+02 -3.351351281059046272e+01 3.901751970008712433e+00 1.224080475389805116e+02 -1.187047790443301807e+02 -1.315604467333159278e+01 7.469991089864241474e+01 1.677166821302532469e+02 6.890132298970667080e+01 -6.604478213587429991e+01 3.976757925602594668e+01 -2.743616105383214787e+01 -6.381873154236727430e+01 1.512618419621153407e+02 -6.809157675396714637e+01 -5.031817338544423279e+01 -1.346592883211403944e+02 5.628497183318494912e+00 -4.879953010495787424e+01 3.736818674151338371e+01 -8.572242709025090335e+01 -4.834846878499312339e+01 -9.797049732401256961e+01 -1.501904268345960816e+02 1.875573958156108745e+01 4.387078828240331774e+01 -1.189626168713983674e+02 1.241319589020069714e+01 -7.657169674673002646e+01 4.746223318244910416e+01 1.610426910883882954e+02 -1.393989568769342213e+02 -4.182513347841266693e+01 6.979681765375789659e+00 2.841717959603811572e+00 4.096001965173532966e+01 8.114184301436549163e+01 7.666110274730719709e-01 -8.540892190272389328e+00 -6.763882241296606423e+01 7.559854047601852756e+01 -3.160868447520113733e+01 2.542192984750886353e+01 1.005133722343631604e+02 8.521146010752352140e+01 -4.132908276426444871e+01 5.580059139628966847e+01 1.424462444847823406e+02 1.122942430070548880e+02 -3.856940331600997141e+00 1.682974032314130000e+02 -1.077651365270836834e+02 4.023334505039132480e+00 -4.052291816725486484e+01 1.998288070850549616e+02 -2.050700745016180448e+01 2.804807653321999883e+00 -7.419121705549746082e+01 -6.911234442944574674e+00 -6.165660933666918453e+01 6.550080396361738622e+01 -9.137022687750784655e+01 6.632530411302009554e+01 -4.616161551397824780e+01 -4.806331807330705885e+01 -8.857511035602178140e+01 5.126464720346470472e+01 -5.282971821384389699e+01 -1.442856990112852316e+02 -7.676544204651486325e+01 -1.010700959573329811e+02 -1.519174545969267456e+02 1.313328045624612628e+02 -2.651408431937289123e+01 3.096539209173250384e+01 8.663886087622063314e+01 -1.005206391466124245e+02 5.502030776206168383e+01 -4.185227729791730411e+01 -6.707392917291031154e+01 -8.710004847723814692e+01 1.963350170742439218e+02 -5.482061216020446182e+01 -4.785404786640532393e+01 -4.556820650109957427e+01 7.767868992570498676e+01 -4.002681057361836281e+01 1.332973699079745700e+02 -4.825196090151605688e+01 5.328134015657346367e+01 4.390113340420914056e+00 -7.833685408365927572e+01 6.645301503426512113e+01 2.680464078546285691e+02 -8.897076806020260165e+01 4.586664626609361761e+01 -7.371542797888500331e+01 4.372422829520033360e+01 1.267978989279005049e+02 -4.971044806673529592e+01 1.413269997431405933e+01 -2.604833681329307637e+01 -9.854983487582126145e+01 -1.678373980830291856e+01 4.169472373736919479e+00 -7.546117362448911514e+00 -1.443816652690214575e+01 1.142477444981546171e+02 1.260613264529029607e+02 1.802856933170843945e+02 -2.942785995241018782e+02 3.693324520784277354e+01 -1.525713949742372755e+01 -6.027752423104469415e+01 1.744054750395411588e+02 7.362659610018334888e+01 -2.538718323954334721e+00 -1.121234911869038342e+02 -1.051578043554067143e+01 9.681743396977212512e+01 -1.299607063800116578e+02 -1.630973512610160299e+02 1.038771705228938380e+01 4.103107490230090093e+01 -5.905555833555386869e+01 4.067640463834106157e+01 -1.036025762207859913e+02 -1.464003973733882162e+02 2.040104285883932178e+01 4.700919488251346223e+01 4.672998707839600918e+00 -8.074686059159530771e+01 -9.058172263683715641e+01 -8.157502668480223917e+01 -8.476283520591735510e+01 1.226746356230068180e+01 5.501459843948943984e+01 1.128415247266202357e+02 7.691757109994273378e+01 8.672089154237735897e+01 1.041466475217455070e+02 -7.245677517766365838e+01 -7.994907918296044613e+01 6.835144623496023542e+01 6.646654079388007119e+01 5.742287146615505833e+01 -9.094965039670320550e+00 -8.832503085596736980e+01 5.237918261091843419e+01 -1.737699010283856751e+02 6.519913240397781351e+01 -4.319654314340281331e+01 -9.360047923196343334e+01 7.205540330549774808e+01 -1.667434267531209002e+01 -7.488184246728955884e+01 -5.579398458246519255e+01 -8.917397397428352690e+00 2.358932650927618226e+02 7.479926047779065357e+01 5.332893736066608170e+01 -1.010026069843559782e+02 1.442381762394685438e+02 1.045783097405016182e+00 -8.792958262070617081e+01 1.516795728734334432e+02 -1.500506395178573200e+02 1.536413393185108767e+01 -3.166083675736093994e+01 -2.164061653002814865e+02 -1.312797738398025160e+02 -8.587153237008897122e+01 -2.894617749298130605e+01 -1.173595057317938739e+02 5.674436789260825265e+01 6.399906952529527615e+01 -2.718246888480779333e+01 -9.825049365569222459e+01 1.113489675474644542e+02 1.163409120047828225e+02 4.549940086696609143e+01 1.724525903232040136e+01 2.574732133937905587e+02 4.299310349770481565e+01 -1.177401125820851320e+02 -4.442051421313282589e+01 -1.663316154315066342e+02 3.140636926631733772e+01 1.510418372333417381e+02 -1.461234980949264184e+02 1.298335301051967576e+02 -8.965977324562814488e+01 -1.866975770579254501e+01 -8.040640435511049455e-01 5.213564972727881752e+01 -1.140635682596450273e+01 -2.251001727626543314e+01 -1.854271485013684995e+01 -1.250236779680595731e+02 4.575033006713395167e+01 -2.991583038831793218e+01 -1.273756923248745920e+01 -1.057740442283688154e+01 2.228996544072007566e+02 1.719068897983953264e+02 2.294868016492169716e+02 1.300235151641963682e+02 -8.541069507506256286e+01 7.414062796007097234e+01 2.086906345441318678e+01 4.687863595976155295e+01 -3.913001635076850704e+01 2.520037885351307523e+02 -2.301285743150022256e+01 -1.349269022740477055e+02 -1.474097748916746831e+01 -4.524080586790075387e+01 -7.635651615051349950e+01 4.258632829785045004e+01 -1.155820380656710356e+01 1.795325037623462663e+02 9.112134059960455090e+01 4.034110280540568994e+01 9.670387433461841908e+01 9.341016297437055016e+01 -2.268761235615297522e+01 1.378278461529308458e+02 2.619622492859599916e+01 8.846472887683259501e+01 4.708248515605179563e+01 6.834040409420289564e+00 -1.142711652666775564e+02 -1.144004477486682561e+02 -8.890338375199709731e+01 -1.536479365557004684e+01 8.560332332676759393e+01 -3.023347164917761987e+01 9.763460686798539712e+01 4.327511316343290559e+01 -7.180599885742765309e+01 -2.956238425533696201e+01 -5.784482116773674676e+01 1.734879804617986210e+01 -4.570443123933514329e+01 -1.106315226891004926e+02 1.199731466983125188e+02 1.198214884614929758e+02 -7.798732352637483700e+01 5.323161319730572494e+00 -4.476146774853607013e+01 -3.214522031004190694e+01 -1.119838127631460978e+01 -3.085345417813469382e+01 4.394302864511950446e+01 -1.388095738935188876e+02 -5.219320627254599287e+01 -1.499083241127740962e+02 1.718721931523420494e+02 -1.991359370167297982e+01 5.812964716593792502e+01 1.174653424367891041e+01 1.424693387725046989e+02 4.400204472748496443e+01 3.521257817523608935e+01 1.522892836798126837e+02 -4.858773965053234889e+01 -9.629605765277668183e+01 2.684904687099146514e+01 -1.558121296408170906e+02 -5.266223185577985078e+01 1.008970727202371904e+02 -1.257347824713554587e+02 -3.583793255893361618e+01 8.997453671433180489e+01 -9.307193934033489313e+01 -8.815483952362065168e+01 -8.142638682522603233e+01 -6.284302313522661620e+01 2.454466475088031814e+02 1.952776222505560781e+02 1.014396611904424219e+02 -1.006712534778674097e+02 7.370965611262917605e+01 -6.522188962389965639e+01 -3.096075883083622315e+01 1.636648118879588409e+01 -3.178625854055590594e+01 -9.227530424306340251e+01 -2.772878737344889988e+00 1.451381228887024655e+01 1.070859156629433073e+02 -1.264401652332131363e+02 4.130481892881984152e+01 6.273512677463777720e+01 3.393760130389529195e+01 -8.911942094951865556e+01 -1.460641201996197935e+02 1.898913772570669209e+02 -1.749809123101211128e+01 2.475651913893920408e+01 1.539011076304630876e+02 2.619743835226816131e+01 2.724255450038218029e+01 -4.376740184793259658e+01 8.704419788427024685e+01 -1.338964424383209177e+02 -3.024084022677695316e+01 -6.027822357008506771e+00 -5.241779211600125166e+01 6.201958388051630244e+00 2.085600214868222224e+01 -3.512967649423379157e+01 1.341340607234397986e+01 2.097552844888896288e+02 -2.689410620758895831e+01 -2.748821462871504551e+01 -9.975016120206564096e+01 -1.602301122331036165e+00 -7.920934459896501778e+01 6.249579387986182510e+00 1.099604217355890938e+02 -5.102633318250565253e+01 5.924665866410519399e+00 -5.326154971093457391e+01 3.247130372672801357e+00 8.551173833713038164e+01 -1.136122706684357695e+02 -9.497406404134591185e+01 -1.006039634138826386e+02 6.995915146946558139e+01 8.487585950021781400e+01 -9.042747277516946269e+01 6.143206070516072970e+01 2.533861467623709274e+01 3.793350876385616033e+01 -1.739385230155127715e+01 8.957676414509157325e+01 7.813105052499462033e+01 -7.573196186356220494e+01 1.155624912094558354e+01 7.927964356892024966e+01 7.140437342891952710e+01 -1.952205928283429870e+01 2.446717179666683251e+01 -1.299829980904532931e+02 4.758594707470133045e+01 -3.213631977347915125e+01 -3.204517214842550032e+01 1.697612105658721759e+02 4.647662670111212435e+01 1.178171898286456383e+02 1.871994328073908491e+02 -1.349470245422556900e+02 1.461501536408798927e+02 -6.220395534438583240e+01 -1.324726172815042560e+02 8.068252616674131161e+01 -1.313888025768771115e+02 -2.814768832186204861e+01 5.527676487809972627e+01 7.882011492408963704e+00 -1.648535689273039111e+02 8.260600382349271342e+01 2.474163805696862539e+01 6.771531351011503830e+01 3.559174250175169618e+01 9.276810837165811563e+00 -6.578204748277529745e+01 1.134045710691398057e+02 5.341323028767283176e+01 -6.088156378213815145e+01 -9.923392307763600684e+01 3.813135872491924516e+01 2.522571666444062899e+01 8.077137983745733152e+01 1.801564987813665084e+02 -2.412355580014686751e+01 -1.079734001147358384e+02 -8.298709721375095683e+01 -5.029468748802045752e+01 -4.343673505936688173e+01 -1.437943025952306755e+02 -2.208109951891464817e+01 1.269500472217503102e+02 7.303924770276194067e+01 -1.199257885548538667e+02 -1.469477121275677689e+02 -6.671780088501849093e+01 -7.478041153093114701e+01 1.438961723094759009e+02 -1.670645006685080602e+02 8.484523337369441265e+01 -4.514529096337091651e+00 -4.218034081785941680e+01 1.301878424154946146e+01 8.931239174175738071e+01 4.855448176844506492e+01 1.354351533363168869e+02 -1.559522449381475724e+02 -7.934566207503945634e+01 2.487156833737817507e+01 4.108474174116940958e+01 2.019692226880334260e+02 1.425466360609153753e+02 6.423692138501112936e+01 7.065424480468035995e+01 -3.335969218934236125e+01 1.487384327951762373e+02 -1.757719529730685792e+02 -6.215418439424816199e+01 -5.259860671087419348e+01 -5.074872900029369305e+01 -1.011701175205426750e+02 -1.469639013557454810e+01 -6.724429283879358366e+01 6.972176561802451999e+01 -8.955494940973798279e+00 -5.687760003547683851e+01 -6.095848715789136207e+01 1.765420677259483568e+02 5.785318509747138194e+01 -1.346336851702462489e+01 2.046614155773589232e+02 -1.061637255236707631e+02 -3.460831066260637812e+01 6.560755120411499774e+01 -1.354567478684486348e-01 1.467711638054951528e+01 -1.225887652386943216e+02 1.726077598331345655e+02 -4.794523799548534271e+01 -2.634471412276915103e+01 -1.074423419685314656e+02 1.232510671947245697e+02 9.385224692759904030e+01 -7.589321816295810663e+01 -3.684894434066234936e+01 3.815295378800593085e+01 -1.482019036812204433e+02 -1.940365070861266028e-01 -7.312704939541163185e+01 7.519278629687966564e+00 -1.057965988718235053e+02 -1.551566923280456933e+02 -6.917887963599348211e+01 1.450106566419457863e+02 5.532539391729922329e+01 -8.770779301348215995e+01 8.722345474725290160e+01 3.346235922051185696e+01 8.642916498242448142e+01 -4.119807827337322692e+01 -8.222145060696027485e+01 1.672684086804173376e+02 4.070773735549654759e+01 2.830110723710855325e+01 -7.135536128158932456e+01 -4.136658350513808813e+01 9.298292491815024263e+00 -7.013590699667370032e+00 -1.689369264496743313e+02 -3.383790556088389678e+01 6.293900170444368314e+01 1.090295197460163905e+02 1.521697187986179358e+02 -1.298261773680389375e+01 8.755134814459934489e+01 1.540817537520469784e+02 6.192661342831247140e+01 1.442128669899053079e+02 1.568759680042674276e+01 1.281954411366485544e+02 -8.193948676234330719e+01 5.205023432492139079e+01 2.859158801675057049e+01 7.400019326523970165e+01 -1.035996845566585307e+02 1.931577703053444566e+02 -1.254764390679903130e+02 8.610502581694153434e+01 -1.046495390707974735e+02 4.499294087154964927e+01 1.345480893463341410e+01 8.834346023498916622e+01 -7.172815891972648217e+01 -7.353109602186739835e+01 -1.083997725372830168e+01 8.672854296299190935e+01 -2.880284303399304591e+01 -1.585845863462120420e+01 -1.910061653528568826e+01 4.606448476856618512e+00 9.542859949730544145e+01 -6.080131706416631943e+01 -2.627750129034089888e+00 -1.882459551953373875e+02 1.184050721219475832e+02 -1.211200333757849421e+02 -7.163852721097553911e+01 -2.281112627439128460e+01 -1.046909671934255499e+02 -5.153929332519417272e+01 -5.681752152806041067e+01 -1.909902145701061826e+01 1.320960256123495640e+02 5.241999970236422257e+01 9.736144795209294500e+01 -1.319609082444480919e+02 -1.343547230608935479e+02 -2.779663534788290917e+02 9.908531355684928599e+01 1.010533122565471160e+02 4.103846660629422871e+01 -4.118485127253859446e+01 -3.603490962253587782e+01 -1.780941756469350992e+02 1.416428731879609018e+02 -1.041419842779907441e+02 1.037122868635381110e+02 -1.543501515218381996e+02 -1.388645021665204027e+01 -5.369609607438685117e+01 -1.156453071514381605e+02 -4.470825098823267751e+01 -1.216683260016427148e+01 -8.987278842421594049e+01 -1.003293632708032419e+02 -1.198801137508495884e+01 6.903059328686005358e+01 -1.208429449130817517e+02 -1.517452934930803288e+01 -7.152251325870103926e+01 -1.274456813516760576e+02 6.393409245146826514e+00 9.223095414190527208e+01 1.605716756384404675e+02 -1.848423704889940922e+01 -4.466859628883970856e+01 -1.204718928358064147e+02 -1.587689868147228367e+02 1.007267167731728961e+02 -7.058206781073701563e+01 7.665152958273489503e+01 9.120258475798941333e+00 2.835080410976337362e+01 7.167140368711235965e+01 -8.228317143314711757e+01 8.026993029216251330e+01 1.119208022681438734e+02 1.529248559278495350e+02 -1.131302468031938986e+02 1.009437452857571884e+02 -4.640375868224756317e+01 -8.817316699332988605e+01 2.083982163779067207e+02 4.778549308604401347e+01 8.105869237393143578e+01 2.059595363179263217e+01 -6.145471317359294261e+01 -3.392544954056399575e+01 -2.043164065751972487e+02 1.025922877712911827e+02 7.913058877134618285e+01 -7.351171242185084509e+01 -7.100013980340541764e+01 1.409966268561175582e+02 9.814788038284284255e+01 4.964574371164471955e+01 7.386784528873046440e+01 -7.619966359680148571e+00 1.002110052831916107e+02 -1.005972781120197794e+02 1.809688993199306708e+02 -3.834386161578906638e+01 -1.184890107423344858e+02 -3.662328881920195300e+01 6.967055819513097958e+01 1.430784815963990013e+02 1.247705551411113589e+01 1.688080955633888891e+02 5.067815897988834450e+01 3.266710753168641190e+01 -1.080929430763110020e+02 4.348675162741562161e+01 -1.213793762653757398e+02 4.634243596495873874e+01 3.746187875473197693e+01 -1.198221550445633028e+02 -8.258667836222498693e+01 3.871134109449915428e+01 8.473357945974179017e+00 -2.253749460745502731e+01 4.067917161446923302e+01 -2.078577426243171900e+01 -6.126904312725426394e+01 -2.548270032176947808e+01 -2.177051324085112682e+01 -3.866976491624583900e+01 1.822150487285983189e+01 -7.820992676471499294e+01 1.155080761459652336e+02 -7.212898261408939504e+01 -4.081392708893779364e+00 6.373232002597515589e+01 3.761638879730106577e+00 1.550553787428966679e+01 1.551054858556281602e+01 -1.137289968728610887e+02 -4.279051332987075185e+00 6.316445473641464048e+01 -2.247348091762342222e+02 -8.243616729651270703e+01 -1.094298918153147042e+02 4.253250857831577036e+01 9.342638888621712567e+01 -8.910959021582414152e+01 -1.630179419057471364e+02 -1.798229413114636088e+02 1.937478569200100864e+01 -1.406987260137262581e+02 -6.143626792216686283e+00 1.432497478675999218e+02 -6.860837165297184903e+00 3.601125605082431491e+01 -9.585648645845337512e+01 7.737643406697652892e+01 -1.148084418643684330e+02 -1.494512520816611456e+01 -2.930723127505875425e+01 5.573312933500039179e+01 -8.548590865766563240e+00 1.022003750219649021e+02 -1.180469571983718993e+02 -4.841541473404137719e+01 8.375582627174657091e+01 6.391366443798540331e+01 -7.951148021557870038e+01 -5.255377399719531439e+01 -4.768350581022000512e+01 -2.793550084947194705e+02 1.867711393557750057e+02 7.339047409267226385e+01 -2.273299082141046767e+01 -2.861626537784248114e+01 4.004380625978077290e+01 -8.106843634994804404e+01 9.589385621687800665e+01 5.828374649326971024e+01 7.891333560011122472e+01 -8.099423409834648169e+01 -2.551465296349634926e+01 3.207490647848577936e+01 1.673313613659827226e+01 -4.125144714901458087e+01 1.520548531435073585e+02 -1.663086847535896950e+01 3.408283695071821739e+01 -2.212026805730698129e+02 -8.145394910027420110e+01 -7.036620828070522293e+01 2.215420404192634862e+01 1.050263373546866745e+02 -2.229427667292275146e+02 -1.799193190695903581e+02 2.131771662515797061e+02 -1.016128180387391389e+01 9.237359576173115272e+01 6.024556449802901170e+01 -5.322399845021717368e+01 -1.259919374843443052e+02 -9.152246882250628346e+01 -4.832622795073123712e+01 -3.597867309920135170e+01 -3.766436031813415752e+01 1.551405695552932684e+01 3.578994011333028169e+01 1.604878492127741936e+02 1.185420592341492210e+02 6.727268018159915819e+00 -4.241857667319153258e+00 -1.526710888322474204e+02 1.150770543520954874e+02 1.532040821085859079e+02 -9.950855233043797909e+01 7.090151523712343362e+01 1.629271768224490602e+00 5.284046682972289943e+01 1.205807262877658701e+02 6.823096818301991107e+01 -1.289328287953899235e+02 1.549992504831832640e+01 -2.826719868160850879e+01 1.072134759128281623e+01 -2.221825421878343931e+01 4.361091589526888868e+01 -2.507756045498944388e+02 1.743202399488365302e+02 6.987363679041134645e+00 1.534222037759871284e+02 -1.012499906374597991e+01 1.021932356710722019e+02 6.896565023278211015e+01 -4.041327889432110965e+01 2.884542125149182468e+01 -7.015783393506423238e+01 -8.574756800248228217e+01 -6.941648550653022198e+01 -3.089387877029878382e+01 4.352987629492615440e+01 1.061780143856630048e+02 2.743945506114593158e+01 5.994256686029679315e+01 -1.010853992906704377e+02 -1.322482615163269770e+02 -1.300387097889511523e+01 4.473223226851715850e+01 -4.382896916915141361e+01 9.125870365146957397e+01 5.359311271786253883e+01 -2.666657388577096910e+01 2.889119945197111505e+01 5.924576739288576732e+01 -6.957111742955603972e+01 -1.290526675790740114e+02 1.371093787044429746e+02 7.540789676618710580e+00 4.840443896887688879e+01 -1.441819765965677789e+02 -5.158272893723963648e+01 -4.192003176409108689e-01 -6.357831221742716110e+01 4.115722923870498207e+00 5.440716498463569195e+01 1.802087168830690018e+02 3.782832545019685710e+01 -1.059356241072995886e+01 6.986749678876488190e+01 -4.396840021201096960e+01 -1.054001471499271503e+02 -1.336634068856410522e+02 9.057129875055018431e+00 2.429788842714970087e+01 2.306742306386795960e+01 -5.505680693685575022e+01 1.169513643597769743e+02 -7.825142236302023946e+01 1.242556267074306504e+02 8.453501234554890686e+01 -6.299498708156527726e+01 -8.211435196219967736e+01 8.159269770834467295e+01 1.978468105434936319e+01 -5.090357029535462630e+01 -5.217986611170355360e+01 1.325700480602790208e+02 5.559013409950648565e+01 7.750089510513319624e+01 2.535738812793329799e+01 -4.078032773524004995e+01 1.041954935525208441e+02 -5.294395400766256188e+01 5.530705020725646959e-01 7.427221646422252377e+01 9.666645804687385635e+01 2.480505714476031187e+02 -1.700995259672864108e+02 1.562523544155623085e+02 -6.559473484575592295e+01 -1.479590883691899705e+01 -2.440815526315268968e+01 -2.014044250641562073e+01 -5.355316396169794757e+01 9.038696236069235113e+01 1.789003792389880800e+02 -1.154867029181044842e+02 3.008372509612371104e+01 -1.234532413684142398e+02 6.830451964297931511e+01 -4.328022873070499799e+01 -7.889498755823878184e+01 -5.250692770204244653e+01 4.013763164700792885e+01 1.887123503768098942e+01 -7.969083141106035839e+01 -1.375110299101460782e+02 2.024779090956930361e+01 1.537478735735082864e+02 1.394063502062508952e+01 1.780945623830576778e+02 7.278062883676740924e+00 1.314567210046874948e+02 -3.377979517314718549e+01 8.865944491728079413e+01 -6.980224646385288167e+01 -1.103471506806287579e+02 4.832707620177661312e+01 -5.671190515382662767e+01 -7.681229297304176384e+01 7.127203776016024506e+01 6.334717043776344703e+00 -9.226179250949971333e+01 -1.474146825323846315e+02 1.448541165582424526e+02 -8.734341593388440117e+01 -2.322960434337590474e+00 1.176879933226861112e+02 5.685748357454900059e+01 -9.628957847603606979e+01 1.044687448450966194e+01 2.766255687880311598e+02 5.228434456854328971e+01 -1.547533762008828262e+02 -4.684211991141955167e+01 -6.036170282907245621e+01 9.440509021792585997e+00 1.056269681719292493e+02 -1.016534411701079250e+02 2.121027143355567546e+01 1.281902041593105253e+02 1.844650816847869379e+01 -2.076329249191328188e+02 4.746520216351929378e+01 7.420169530961726423e+01 -1.336375979179071649e+01 3.223165420395432079e+01 1.696217608303705604e-01 2.217818648943734061e+01 2.726964370835775853e+01 1.139021676132592660e+02 9.641384524671026668e+01 1.536646930737602723e+01 1.465381833281921331e+02 -6.295630775574335303e+01 2.425621910314751517e+02 6.396618563283816883e+01 1.393957483694754842e+02 -2.160250267343547037e+01 8.860162159713441099e+01 -4.813615609376844162e+01 -1.439889206123516487e+02 2.573590283858800731e+01 9.344473430848502460e+01 -8.614585418645604875e+01 -1.030460188694831913e+02 -6.546368278539218011e+01 3.602632027078578858e+01 -1.123462053086360442e+02 7.349520719643545874e+01 2.758890657795252466e+01 -9.604098212611290819e+01 1.868601688698650776e+02 -1.157186060301332553e+01 -1.001403278800070638e+02 -1.319824611324892594e+01 -2.010831571745510971e+01 -1.379715933007903175e+02 -3.937816238485526554e+01 6.052881298734919824e+01 1.296886568226980216e+02 2.857960933880851329e+01 2.631530255333711210e+01 4.407209431467649807e+01 -3.514616749160043696e+01 -1.432951717400529787e+02 1.563901524054360515e+01 3.046137444777113501e+01 1.310011709030231941e+02 -9.732899080745584186e+00 -7.491439583616039499e+01 7.203626562257448995e+01 9.605469553790781934e-01 3.131282351391518048e+01 1.370109833482355555e+02 -1.746643129108604739e+02 -9.138943076032866486e+01 1.227604779527754459e+02 -2.063114662050733727e+02 -1.758729744097817900e+02 8.705188335003693112e+01 1.472679332982673657e+02 6.065037670057915165e+01 -4.280900464848363285e+00 1.489232114709266455e+02 -2.099425687405615975e+02 1.024745360237736378e+02 4.052582641251555629e+01 1.215221770392676461e+02 -1.803520689593350710e+02 1.018423911482668558e+02 -2.699610528651608732e+01 -1.278498438304294211e+02 -5.089569142219275477e+00 -8.835299669384754395e+01 -1.551523012652142341e+01 -4.156056018185154244e+00 -1.178124929179626434e+02 -1.179312657618278024e+02 -5.983191000980854568e+01 -1.232735797008902381e+02 1.921983847758817774e+02 -1.540767439968369672e+02 -4.798907405668449400e+01 1.650042956582776981e+02 3.244949394066556891e+01 -2.830644187941686596e+02 -1.215784596976707945e+02 3.395029385394909838e+01 5.227513101528977302e+01 8.169139233555910096e+00 -1.478383269288027009e+02 3.412643645463152353e+01 7.177379940745526987e+00 -7.108261830909786738e+01 1.938800603075865467e+02 1.937198369037177770e+02 4.158107363203260576e+00 -1.994394490304015051e+02 1.204739364836037367e+02 2.940611107897768406e+01 3.644590848911623215e+00 7.323837445058127571e+01 -1.984236178356408686e+02 -1.319868420752558222e+02 1.348535863484673314e+02 1.048627967667364516e+02 5.059080599657021082e+01 1.369214404168509418e+02 -1.704732482366926263e+02 -1.957079027162939866e+01 -1.247014345009570917e+02 4.175555211730007699e+01 -9.933458935205486284e+01 8.326639843545287079e+01 -3.243834016929306330e+01 1.184406250267515226e+01 1.696863750102980362e+02 2.730032220868762138e+01 -2.520512235251961215e+02 -1.208669403941837714e+02 -7.969884496582842814e+01 1.511982058784202820e+02 1.199201544473408099e+01 -5.153242753679552379e+01 2.899720274127906094e+01 5.975387831279992668e+01 -3.781858003135953794e+01 1.028114113314665872e+02 -9.634265097517821630e+01 4.706209364993233635e+01 1.070399973715988580e+02 -3.396736887832036444e+01 -9.383636110848809153e+01 -1.085012852992965549e+02 1.145267675613433482e+02 -4.751207802929578605e+01 1.879587632982460264e+02 5.470470729589189318e+01 1.060939447878545110e+02 1.764412951742324367e+02 8.181746479624852242e+00 -1.188777079571298287e+02 -1.584804100792686938e+02 -1.091738359998610690e+02 4.065105566584850294e+01
-1.269443502815235725e+01 -4.526764655564675444e+00 9.671352351859341923e+01 -2.139408568767560723e+02 1.451727398910574607e+02 5.930107943940392801e+01 1.421137932286073919e+02 -1.206501460523342644e+02 -2.582754666918771314e+00 -2.247213048316067230e+01 -2.050162387948229252e+02 3.054811017634900949e+01 -1.710884882914168514e+01 1.142432722476741276e+02 -1.168567509846303949e+02 5.764249350249442472e+01 1.170065176868122876e+02 -4.292406062334243444e+01 -4.631032204831245025e+01 -2.519733227746344895e+01 5.765819638957049165e+01 5.889880266583863744e+01 3.029624245784053116e+01 -2.171463269584695013e+02 -4.815127408799851594e+01 8.550955771004574046e+01 9.259623100675607787e+00 -9.695891223689699245e+00 -6.212389461095072107e+01 -1.447897713402937114e+01 6.849064583128549089e+01 -1.357896375691075264e+02 -5.786274960491881103e+01 8.374978708849932119e+00 1.938608796192278305e+02 1.980387071807501513e+02 -3.002212524531344684e+01 5.218789088989333891e+01 -2.413726399111715548e-01 -1.304024927682706618e+02 8.961675206700832064e+01 1.001208972845299172e+02 1.013278142657736538e+02 1.090106096542378999e+01 5.778155712395848553e+01 4.493116463638589408e+01 3.630189238708776855e+01 2.742191907261755901e+01 1.029749662369035121e+02 8.376269099232575854e+01 6.123068002389349829e+01 1.522040983115789174e+02 2.314111313981807427e+02 1.826372727441002439e+02 -5.522417823476288135e+01 4.600504439869658313e+01 -6.000439008166556221e+01 5.264924773904110822e+01 -1.794759868564156307e+02 5.275643216956995474e+01 -1.911806411553150724e+02 -1.575468777611288544e+02 1.209615162933282839e+01 -8.654267316681597322e+00 1.582903099186825386e+02 -1.942156831331851095e+02 7.028795675188079883e+01 2.146433935959804842e+02 -6.907705401196239769e+00 -1.819247697556337187e+02 3.317524736811176211e+01 1.841372531481693500e+02 -5.707238823468779998e+01 -2.489586844311063771e+02 -9.579066759084241767e+01 8.326079893403727894e+00 -2.149033441833353493e+02 2.997948511973771346e+01 -1.676302995711075710e+02 -1.733398933394275900e+02 -5.342534016663083918e+01 1.424136003776812345e+02 6.488892103482746165e+01 9.923585804468688210e+00 -8.287413260520858671e+01 -3.981270530896056670e+01 5.956751754771513419e+01 -2.170102261186895305e+02 5.057347414065236535e+01 -7.005453297423173353e+01 -7.306575390202058884e+01 -1.653103922494935318e+02 6.080346650654184515e+01 8.667907449081828020e+01 -1.517841147098485237e+02 1.616033185882485839e+02 -3.729242936079565141e+01 -1.582654059571088467e+01 8.198776622234575484e+01 1.462484977519474967e+02 2.034745079281356439e+01 1.416926346698289763e+02 -1.731869205581724458e+01 -8.486171047600062423e+01 -1.834241276877260773e+01 9.455826780736987303e+01 4.326979266801169643e+01 9.412659467678902558e+01 9.080923766503583749e+01 -7.995618401403243070e+01 -1.634921874140784439e+02 1.183991410023643027e+02 5.219216789838326065e+01 1.562858803358719761e+01 2.941771577803206483e+01 -6.536523234611800603e+01 9.241153222868946671e+01 8.648788257142241775e+01 -1.321635531412733577e+01 -6.858531052685648888e+01 2.954542770910604332e+01 6.051107341899998104e+00 -5.918003922627184465e+01 1.632526735920944816e+02 -3.157722810447760509e+01 1.170727802706688436e+02 -6.748471317798116331e+01 3.696390599888408701e+01 -3.472853895468582408e+01 8.617855037446659594e+01 2.260288448870795008e+01 1.113225484265681189e+02 -1.117634580711561938e+02 7.161631487082367187e+01 1.189346144759287967e+02 -4.305217515303557718e+01 7.374709733853062943e+00 -1.231840659402133831e+01 1.125672719850677481e+02 3.525359978032412744e+00 1.624928939948400739e+02 -1.362960229598603235e+02 1.124297502077954505e+02 -8.798070324764907468e+01 9.236632655182204132e+01 -1.321450361551659114e+02 2.845194334467916164e+01 2.387357921160245056e+01 1.713845463552651660e+00 3.502324049080384327e+01 4.437507118395713945e+01 -1.193890753207383959e+01 1.051634956227346862e+01 1.042804907514111932e+02 1.227569105133061100e+02 -8.366800043254026775e+01 -5.226721685532135098e+01 4.566565812405579550e+01 1.461490851744422725e+00 -1.322137415330943497e+02 -5.322690047645898659e+01 -3.417735224581907261e+01 4.719719475910991946e+01 -6.325393583680655496e+01 2.211978312508353639e+01 1.548795813009523101e+02 -7.673329410140581786e+01 7.809160981059112316e+01 8.120941260540747919e+01 1.090051889296844401e+01 1.192990049580725298e+02 6.077961813993565698e+01 1.624486294350253957e+02 -3.347413207921304235e+01 1.087307533595601541e+02 5.374229258119500230e+01 -1.553604222961031667e+01 1.975124210782010152e+02 -1.343041039296008137e+02 4.732935508798518498e+01 -1.816089762639272749e+02 -8.150359413394724584e+01 3.975566271178134770e+01 -6.995653635204291731e+01 -1.509484821070685996e+02 1.931595188754743901e+02 -8.313256605560697210e+01 -4.603578082359462798e+01 -4.485694851697738272e+01 1.180284132995947033e+02 1.888278102532923697e+02 6.277638110581357722e+01 1.418041104097528091e+02 2.128220529369123710e+02 -1.546875711550984134e+00 1.579447798730713828e+02 6.874097154796575637e+01 1.846450301245096739e+02 -1.220132044731499121e+02 -1.147442231337673313e+01 6.167630153923186143e+00 1.842032409973377014e+02 -8.810873742803669018e+01 -5.870459755356186804e+01 -5.133512590758518712e+01 -1.299916357284903938e+02 4.532320332460535894e+00 -9.788232658816048115e+01 1.495346584297614356e+02 2.283278992175171496e+01 1.162598672701631486e+01 7.012547107222771103e+01 -4.761139446366716932e+00 1.134836796919853725e+02 -1.540981326024569569e+02 4.406234197694922727e+01 -1.656414002820348514e+02 1.138882203528375214e+02 9.321470130465793602e+01 -6.525418303181439228e+01 4.539628830981632746e+01 2.309738845857835940e+02 -2.955992982322500495e+01 4.039514365233618065e+01 -3.169768433661199225e+01 5.620107635181195604e+01 6.232319046105239835e+01 -6.097761277576964289e+00 9.881665705425479018e+01 9.838455026601606335e+01 -1.880096623274379510e+02 -1.486023112277552229e+02 -1.162225673571943219e+02 -9.138922594979689507e+00 -1.452233939735072283e+02 1.120501389514337234e+02 1.069786655980433068e+02 5.721905887547909231e+01 1.082675753199833579e+01 1.528810736990081693e+02 8.140629436039041877e+01 6.546028013839041648e+01 -9.849698799303230601e+01 1.477903284621329476e+02 -3.497863085774449043e+00 1.060259467707404468e+02 8.553441280014130399e+00 3.561858318554424585e+01 -7.336033075602807685e+01 -8.794800178853921580e+01 6.938719470452893745e+01 -3.749627198808206163e+00 1.416739117376710055e+02 -1.216573510382233358e+01 -2.754041164747007109e+00 4.443151785976368018e+01 2.191882836997493200e+01 1.370023010658793794e+02 1.423911606510455385e+01 3.473235442643877491e+01 -1.498109076160901338e+02 6.373575896799439278e+01 1.294044011529482248e+02 -1.702353654804685945e+01 -2.206957620591779232e+02 8.167687093920945074e+01 1.316791085081332540e+02 1.970019907846805651e+01 1.826293597021518167e+02 -4.128817251395140886e+00 4.138702844944575787e+01 -4.210364945216880983e+01 -1.337091103422587253e+02 5.403049500474463684e+01 -4.577602875522351411e+01 -7.805351288473039517e+01 3.972446145101818615e+01 -1.779861530295555667e+02 6.900026379736124227e+01 1.583542632010520776e+02 -9.744637503721978078e+01 1.665366392552422212e+02 -9.392369464393206613e+01 -5.735569102280420495e+00 -1.014846224915586248e+01 7.373229655277023653e+01 -4.484324287431687139e+01 -1.036275809184907928e+02 -8.517474339123961613e+01 1.401311484422350020e+02 5.680597037787399017e+01 -1.266644866656607462e+02 4.242282854810913939e+00 4.169119382868430534e+01 7.927615423381882920e+01 -3.872143121836352719e+01 5.754953648185718151e+01 -6.620882359056918176e+01 -1.557891138387221872e+02 -3.322941616936385145e+01 1.352648158806728986e+02 -1.088234011038318556e+02 -6.124280198884462401e+00 -1.562291361717554707e+02 -4.653251139447097451e+00 -1.399281606984059465e+02 3.160035731247457491e+01 5.776219046775173638e+01 -4.825535957034215073e+01 -7.896895031924678676e+01 5.409960698671905988e+00 7.132208426278266700e+01 -6.495533731814562373e+01 1.290616615761542789e+02 1.011600570695696177e+02 -1.222915410544246697e+02 -1.010320499612645619e+02 1.293808385249998310e+02 6.828494861083125045e+01 1.438311850838110217e+02 9.573603981690931164e+01 7.766116621500154338e+01 -5.769111119561367929e+01 -7.821607771241173168e+01 -7.371236430505084058e+01 1.956061060002985244e+02 2.927479825811804304e+01 -2.382942474404734412e+01 -6.547468341107180834e+01 -4.771908700968742778e+01 -1.254259522221974095e+02 -1.572896828291237270e+01 -1.671076578247877080e+02 1.190643263851450229e+02 4.377981266363623547e+01 -1.097097767467325866e+02 -4.609596882170043131e+01 1.140124260038327577e+02 -9.227635436898349042e+01 9.792065840979145719e+01 -1.128123634326772589e+02 -1.121614513401309488e+01 -9.093089748852646892e+01 8.544873261578499068e+01 -4.043424981767957860e+01 9.764186304672515249e+00 2.794710480198912350e+01 -1.205486072700294358e+02 1.189609449028109545e+01 4.604912155143161812e+01 -2.126420139508848450e+01 -6.542762072530827311e+01 1.928244526584808227e+02 8.228660655943312463e+01 4.481990712881118100e+01 -2.988916633374902432e+01 7.631883025446305169e+01 1.594957586794535871e+02 -8.775590983054873107e+01 1.993341037257497703e+02 -1.266561776852938124e+02 -1.749824453977489611e+02 1.444110644228590843e+02 -2.226219998088158434e+02 -8.951432450634758675e-01 -2.330448041964299364e+02 -1.454533057056692940e+02 6.829153159947601637e+01 -1.385215584552994130e+02 5.553016784343363099e+01 1.046273468820241419e+02 -1.525326532083838060e+02 -2.862341636834603875e+01 7.175732892651868156e+01 1.274016570717302983e+02 -1.770886843779994422e+02 8.325337523121326910e+01 -9.321263095322335346e+01 -9.366757380860583737e+00 -1.317401716042173376e+01 -7.569380848377416271e+01 -8.589472403380131027e+01 1.725604029144085985e+02 -2.066350651891227841e+01 1.288882743371040140e+00 1.239370728266768680e+02 -8.255479882342383746e+01 -3.277004857449131947e+01 -1.025230295712779025e+02 -4.648081551710092896e+01 4.896366499502572189e+00 5.652405353492707718e+01 -1.287166050506164652e+02 2.261292019236630892e+02 -5.138896884846504776e+01 1.169814486670556448e+02 -4.659337716167499366e+01 1.143175305272555704e+02 1.328785399779779084e+02 4.577269638386240302e+01 1.165752152122317824e+02 -4.128962832775851410e+01 1.337127086649385035e+02 -1.495299498460411485e+02 -6.249198198280133454e+01 -6.017678124140337559e+01 2.445139168117336936e+01 -1.551091671771029894e+02 6.933084530945276924e+01 -2.948202834765377389e+01 -7.899455296229619705e+01 8.562544649649787232e+01 -1.444503636936057944e+02 -8.721785183665099339e+01 -5.034455269373151509e+01 3.161454293971344853e+01 1.240895698500114150e+02 1.116804345879451006e+02 6.604411464697267320e+01 -1.482437865002758093e+00 1.672261174061517011e+02 1.171362739895486555e+02 -9.033777910960937163e+01 -7.466403746476022718e+01 5.267978918729315296e+01 9.499851734185927654e+00 9.366499846775892024e+01 1.594189214047527798e+02 6.749307824184002413e+01 2.337985738855727291e+01 -9.772432334987453828e+01 1.641885569928166433e+02 -1.086425373964384562e+02 -1.579602933104169153e+02 6.282222445213901807e+01 1.065644140119929091e+02 1.878436300284564453e+01 -1.326757369634587462e+02 2.838103893466685435e+01 4.050958710934674656e+01 -3.561419466657560484e-01 1.250802939812065944e+02 9.341610842980774976e+01 1.634596711578239692e+01 7.481898100410215591e+01 -1.021104375969395051e+02 -6.090347607452542888e+00 9.390886850292329768e+01 2.835368015266108088e+01 -6.208096481223388707e+01 1.890874165430019787e+02 2.206209041942031774e+02 -1.197449115352968789e+02 -2.637889264643226284e+01 -2.005549291930683751e+02 -6.887840579967176780e+01 1.493737302659714032e+02 3.201859315827344066e+00 -6.772847490703841800e+01 1.562187878268341592e+02 -5.959827735396169146e+01 -1.532073697417327196e+02 1.302551808290954511e+02 -6.406829943436625285e+01 3.293205829181486877e+01 8.231936166980749192e+01 1.315596048043013688e+01 -2.271831297647094630e+02 4.036337831991070857e+01 -5.896405062562969590e+00 8.592974584016583606e+01 -2.246974430741555651e+01 9.637201150083839707e+01 1.621248388088716652e+01 -8.071682731790305354e+01 -1.953250938308077878e+01 -1.670653878873131362e+02 1.096023422603514916e+02 2.410554844102944116e+01 -3.966574946450217709e+01 -4.937287438481720159e+01 -5.998868859477067161e+01 3.921241756973616788e+01 1.531839758862669783e+02 1.264830533380395394e+02 4.102150105669579716e+01 -1.886087618421130969e+02 -3.698043421317758828e+01 4.177590605280350644e+01 1.118220402637663682e+02 8.309396701854365119e+01 1.470850359645685046e+01 -1.772982565698683857e+02 1.254885063929057480e+02 -2.132564093456311127e+02 -1.961665783358553483e+02 -1.736569776470411108e+00 -7.030822099516815626e+01 -2.300439859349191352e+01 8.303107172886282683e+01 5.329606364913232142e+01 -1.059674836981082677e+02 -1.443769033176975825e+02 1.389313914833503105e+01 1.178885214566191308e+02 1.968994567403212415e+01 -5.405007528219095292e+01 -4.924501469106800045e+01 -1.114099271248975853e+01 1.538100491238436689e+02 2.131183838689640808e+01 -1.685800272487707332e+02 1.245571906231354262e+02 -6.486571826968878440e+01 -4.049117434732505849e+00 1.494308194887395587e+02 -5.072172580666197206e+01 -1.901732010555774366e+01 -1.065977326879201712e+02 -5.819690717605393360e+00 -2.313646337346564863e+01 1.277634515771232486e+02 1.164981007123052592e+02 6.557876914567971482e+01 6.352046645689571847e+01 -1.815053323197840029e+01 1.311457335328557292e+02 -1.094354554086301192e+02 -4.125298697096322798e+00 -8.835196461874804186e+01 1.524129255355807686e+02 7.076406486266643014e+01 5.012612335899941485e+01 7.999110348339649512e+00 -5.173022645949524900e+01 3.335900467933700497e+01 6.517818502358888821e+00 3.562364905156774952e+00 2.337775249451187065e+01 5.799609899026140880e+01 1.651936846290345215e+02 -3.771521223675144086e+01 -5.042041415181463293e+01 6.480573691426664595e+01 1.122147002032136101e+02 -1.243573091311576206e+01 8.922273197865976613e+01 1.010106806180558578e+02 2.045175535796597046e+02 -8.395359631961012781e+01 -1.190008551255848346e+02 -2.779290528254288617e+01 6.031530416676225315e+01 -9.845501595924348592e+00 1.041925376526189098e+02 3.613712048397194820e+01 -1.577376490397276996e+02 4.369673051193515789e+01 -8.676294144210275761e+01 -1.312074342673259366e+02 1.304383125794981595e+02 -7.375456518578101850e+01 5.739411589173308670e+01 1.077684663295352294e+02 -9.595952145025998448e+01 2.279172237903882348e+01 -6.992501813559739787e+01 3.905599283865253568e+01 -1.111261783140404020e+02 5.970657157301660334e+01 5.299746502063396747e+01 3.739686040981566872e+00 8.140579871484352736e+01 -1.481000377918325626e+02 7.397622262541494820e+01 -2.841027300737224692e+01 -1.624831707291508565e+02 9.090667394756934527e+01 2.361894866278025873e+01 -1.886045580894039233e+02 2.262979967201356999e+02 -5.198141608709135886e-01 1.011353181792272977e+02 -1.159786136743178844e+02 -1.867646365202851086e+02 -8.974896212362033054e+01 2.411010988079676398e+00 1.373957864695029230e+02 3.804069659272042880e+00 -9.192289910189850843e+01 4.841523617535679591e+01 1.317972160759982216e+02 6.247301829381790128e+01 -4.973616287731326224e+01 -5.688560927498704700e+01 8.126821019434297000e+01 2.953520125139093011e+01 -1.881103193077444757e+02 -1.993616844956434875e+01 1.625509434793990522e+02 9.500464238758065960e+01 -5.514943904616690418e+01 -1.075240907410034339e+02 -4.103516214862298028e+01 -4.624145775378466539e+01 -1.100661531133702056e+02 -1.772261017919528214e+01 -4.390927512961116008e+01 -1.092716325500247052e+02 -1.268859032807079217e+02 -2.593272692265663082e+01 -1.208729793199295699e+02 -1.287276000811409631e+02 -3.686481264899015287e+01 -5.320434433981423439e+01 -1.067884838541658610e+02 1.854642445169716609e+02 1.048099931521607964e+01 -2.802181355329782164e+01 -1.693323526360309472e+01 7.837848093104260272e+01 1.559293786732482268e+01 2.495438385337464027e+01 -2.115444518940187280e+01 -4.612472002304085095e+01 2.083066630172380940e+01 -1.448483749833673926e+02 -1.585907930442681959e+02 -9.003585851786239402e+01 -1.901369831228791440e+02 -8.927243186081115311e+01 8.543747996684231794e+01 6.116302622618871254e+01 -2.595005834775975373e+01 6.053999563684599394e+01 -1.560067148241274992e+02 -4.073950464942526395e+01 -1.157171409079774662e+02 -6.649720882057106053e+01 2.102186243558141712e+02 -2.045224897082253506e+02 2.044976665206229427e+02 2.486574887172477588e+01 -5.623119964569423246e+01 9.185333286163290722e+01 1.236165291974461837e+02 -5.169220072812115063e+01 -2.030148629286350968e+02 -1.485395290991955051e+02 1.019059297523536713e+02 8.344557943422603330e+01 -1.350580242805591809e+02 3.181160310219927823e+01 -3.954532618754420525e+01 -7.711481419213968991e+01 -2.832248282778858695e+01 -5.460760649245045073e+01 -8.609606774374812233e+01 -3.393949335746912510e+01 4.512709211137159393e+00 -3.253358805496498718e+01 -3.650621279296171751e-01 -1.425916955619943494e+01 9.159252517234635604e+01 1.266495795780540448e+02 1.310901764544370529e+01 1.674254591370669942e+01 -6.291539989509274022e+01 -1.953469335686510249e+02 3.372198590542069496e+01 -9.137347359120602164e+01 2.574815076352872367e+01 -8.088191745030190560e+00 1.059581516800076395e+00 7.211502985589987702e+01 1.214448281427286958e+02 -7.023064421856473416e+01 3.785910588408489730e+01 -1.922013997560515577e+02 9.653334774858693734e+00 6.902726482181772205e+00 -1.221150415535604452e+02 -3.358436626237679690e+01 -4.416572654916507901e+01 4.744957221581324269e+00 -1.018649794012337964e+02 2.695028926282576620e+01 -9.728134513946430673e+01 5.584302160188423159e+01 6.762558984493044534e+01 3.676447020403683297e+01 -2.890756015175719185e+01 1.070828485169556075e+02 6.087284174328398478e+01 7.970653468074895898e+01 -6.675737722786371364e+01 2.017261338503734436e+01 1.273816756469118872e+02 -5.826781411761492535e+01 -6.891680783631934482e+00 3.185695280589796852e+01 -1.279106765719634069e+02 9.740349728132869700e+01 8.920391419285465417e+01 -1.007557956319032400e+02 -8.199640230195548440e+01 -5.529954446470434704e+01 -4.543835290674923044e+01 -1.595099798471926817e+02 -1.352881481785006486e+02 -1.318870853949877642e+02 1.051751639048481479e+02 5.952848980060335293e+01 1.587774216844535999e+02 7.173027763992096517e+00 -8.526412113082234612e+01 1.866562810303353714e+01 1.375676078494096721e+01 -6.323873003047881980e+01 7.366272987562308572e+01 1.174284898324973199e+02 9.904186675740948687e+00 1.425666358737141195e+02 2.236354549703240480e+01 1.103185181953555798e+02 1.498217711128897811e+01 -2.065825974415623705e+02 2.170975645964367686e+02 -4.864542175239851218e+01 -1.481691375415141181e+02 -6.677968029731465549e+01 -4.259058197061597895e+01 4.096920564615481197e+01 2.532329823197338214e+01 4.526102383823411657e+01 -7.323866027867515527e+01 1.209610972787155703e+02 -8.524142950018858755e+01 -6.928571359136096675e+00 1.406504397445092707e+02 1.081937390409263742e+02 5.728063104651525350e+01 -1.746734862846203953e+02 2.508624932862345602e+01 1.384343472056352198e+02 2.309217757488744382e+01 9.616031137639100734e+01 1.048198074572354557e+02 -2.082226626205350613e+02 7.571230825135455689e+01 -5.682641021377077095e+01 -2.212519172756866510e+02 8.700166141723457258e+01 2.412868208177956930e+01 -1.193312797691642686e+02 -5.718498876454385993e+01 1.353366093602404305e+02 1.437165977389312275e+02 -7.379672191625616051e+01 -1.241868765525371714e+02 -8.097867828902977294e+01 -1.608128943777290090e+02 1.896273817519589855e+01 3.673696650757675286e+01 -1.644010958231019259e+01 -1.196675919924046561e+01 -8.643118604385203696e+01 -8.517204793166898469e+01 -2.376620268560365545e+01 1.286630942532469817e+02 1.307054566131272111e+02 7.777688449395175496e+01 9.304057367943350698e+01 -7.516138927535060077e+01 -1.727209678287929933e+02 -1.260772627442969451e+01 -2.207138883215164071e+01 -6.779609054179570649e+01 1.416285047092698202e+00 6.970028015641764796e+01 -5.048245972122842318e+01 2.357152413981610195e+01 7.555307222544726642e+01 6.688688849966321470e+01 1.054730266439007949e+02 -1.423077869868026255e+02 3.781270181191925417e+01 7.948431816021108887e+01 9.040289470681091188e+01 5.633287579324261429e+01 -9.848942164888742923e+01 1.306286708089096464e+02 1.216250455760650055e+02 9.144592056249919665e+01 9.687024015385651410e+01 -8.033841659015932635e+01 -1.417584658889133742e+01 -1.235476940603757612e+01 7.349616721173640599e+01 6.198762591782923437e+01 5.344342523807699052e+01 9.307656521856937104e+01 1.111533412304052604e+02 1.182573404540818416e+02 -6.185649364941273376e+01 7.690764896528260408e+01 6.223144881593570688e+01 -1.122566262192618467e+02 1.255624737049581654e+02 -9.563641554379199050e+00 -2.665110894533229313e+01 1.902227427205961590e+02 8.448518726446067717e+01 1.185058428836325390e+02 -1.378450534755685624e+02 -1.507105891759977396e+02 -1.467963501189485100e+02 -1.166990149250399185e+02 -4.231542564295330067e+01 1.049035940249791850e+02 -1.612439838233143803e+02 3.107761068524951042e+01 1.380408272664818696e+02 -5.677629374269843510e+01 -8.738521075686085737e+01 -3.362131764322233352e+01 1.300200717128424799e+02 2.175668680552074932e+02 -6.386292066174870996e+01 1.898393111991022408e+01 -2.650739268821920547e+01 6.561292296607980745e+01 5.770718843806505305e+01 -2.043191896262773923e+02 -8.497680926576585136e+01 1.318793508182121741e+02 1.340043096520527683e+02 9.063042377861447108e+01 -4.778944415163886106e+01 -7.267428905530769612e+01 -4.351702220854817682e+01 -1.693646626127216734e+02 6.823181719052011829e+01 -2.460382659409779293e+01 1.596187077508385812e+02 -2.681254664525929954e+01 -3.019064953520543213e+02 1.390235098351793397e+02 4.819929060033137347e+01 -1.132042864546959606e+02 -2.129245726453561360e+01 3.388462902680530675e+01 -1.993831404604366924e+02 -1.096968943029198016e+02 -1.052753576783546237e+02 -5.414458743964964782e+01 6.028451047565764753e+01 -1.583064723216229766e+02 1.036099491961563928e+02 -5.217012126893684609e+01 2.812238286756422845e+00 -1.281445303547858430e+02 -9.958037330633010242e+01 1.689137566442905154e+02 8.325587312945253871e+01 -4.057272781453648491e+01 3.568684914952288523e+01 -2.694595467721772764e+01 4.161351383338805476e+01 -1.005366536901940862e+02 9.506909510086624948e+01 4.852404963217342981e+01 -1.142712678310512331e+02 1.122141186485836357e+02 -4.720240588185424713e+01 9.602924127653092512e+01 -4.748335186020847942e+01 8.494983737508540855e+01 -1.474703957615435570e+02 1.372273655830520056e+02 2.380719715628087840e+01 9.679906546016854918e+01 1.254253385125542479e+02 -1.410451043912456157e+02 -8.262210819789444827e+01 -1.016056161982103703e+02 6.431704598462837907e+01 -1.648335637434014131e+02 1.457943326333386267e+02 1.369495688034349712e+02 5.096479367288885243e+01 -8.168542960669243769e+01 5.491072130261577655e+01 -1.032892915063471833e+02 -1.051215325517583921e+01 3.364935051339273997e+01 -1.768277153720666490e+02 -7.849807572032155178e+01 -1.302617367895093103e+01 9.835475655698101605e+01 -4.834135698291163408e+01 1.046933316680721902e+02 -6.192202197420057530e+01 -2.029442046339818262e+02 -1.031156087791603824e+02 -3.276530799153182016e+01 -5.794961682152054294e+01 2.897166534339572053e+01 4.953319156434457682e+01 6.100713681851990700e+00 2.446390424470929048e+01 -1.130729757091110486e+02 5.192335805714922969e+01 3.145130246109612671e+01 -6.953173570409458648e+01 8.949467988963311527e+00 5.435340648028176957e+01 -9.196568706199106202e+01 -5.312156785844124585e+01 -2.331015714308653131e+01 9.408116250929360547e+01 -1.652097122942330643e+01 4.046700912807077444e+00 -2.200300237791595919e+02 -9.164949644908618609e+01 9.544360329159786716e+01 -8.600999302869973917e+01 3.022870646588809151e+01 2.996118277985699763e+01 3.656444213244724750e+01 6.375473870369965823e+01 -1.712214620135357848e+02 1.389352868248157904e+02 7.869721597851747674e+01 -7.277782727024879605e+00 -7.797674761568949009e+01 1.079521731497224266e+02 5.993100486115491066e+01 -1.941154789230454583e+02 -4.861616423580672119e+01 -7.886970532573896264e+01 -4.999803780259541242e+01 -5.974951320091805229e+01 -9.556018971475916146e+01 -5.825940250005135823e+01 1.848832586200412322e+02 -1.648151133351030637e+02 6.319385067924554278e+01 2.678509584868255189e+01 -7.258800777312778507e+01 1.003932665960307347e+01 -3.807479430780490048e+01 3.321102438661687195e+00 -9.283053161627891825e+01 -1.907554993704936237e+02 1.776094104661840234e+01 4.044750792347884527e+01 -1.235349769872409453e+01 -8.648616647845411620e+00 -3.840795209955064848e+01 -1.833608984608321464e+02 -2.957617048282099859e+01 -6.310671772814647085e+01 1.345484353199222127e+01 -1.508107298355039916e+01 8.748741828125822906e+01 -6.087619139178264049e+01 -1.001281133442892894e+02 -3.446876462943016151e+01 -8.667893549382567286e+00 4.387842793306644040e+01 -2.135877509586702061e+01 -7.130217669930209468e+01 -1.534024910706031974e+01 1.935616489767873105e+01 4.588034679522930759e+01 -1.100947412473542357e+02 -1.342834178093410458e+02 2.225150803539037554e+02 -2.108728080584433826e+02 -7.334389128701933203e+01 -4.474453678002668511e+01 1.351020920904146578e+02 6.112954321442513361e+01 2.211838108594489256e+02 2.364813229469246778e+02 -6.025568223121534572e+01 1.250636582382668820e+02 -5.414623667632906745e+01 -3.944454312913384086e+01 -9.721493741286359125e+01 -7.714178744744914695e+01 -6.719065714765272901e+01 -8.602278835104162624e+01 -2.355614985251003759e+02 -2.617009095228226556e+02 1.301335147268054868e+02 -2.564893125511850513e+01 5.147580860518655044e+01 1.265084781395174645e+02
