# 
#                 ----------------------------------------------------
#                 Data from a 3D direct N-body simulation. 
# 
#                 rows are i-particle; 
#                 coumns are :mass, tag, x ,y, z, vx, vy, vz, ax, ay, az
# 
#                 NTHU, Computational Physics Lab
# 
#                 ----------------------------------------------------
#                 Time = 3.5999999999999672
1.000000000000000000e+00 2.000000000000000000e+00 3.000000000000000000e+00 4.000000000000000000e+00 5.000000000000000000e+00 6.000000000000000000e+00 7.000000000000000000e+00 8.000000000000000000e+00 9.000000000000000000e+00 1.000000000000000000e+01 1.100000000000000000e+01 1.200000000000000000e+01 1.300000000000000000e+01 1.400000000000000000e+01 1.500000000000000000e+01 1.600000000000000000e+01 1.700000000000000000e+01 1.800000000000000000e+01 1.900000000000000000e+01 2.000000000000000000e+01 2.100000000000000000e+01 2.200000000000000000e+01 2.300000000000000000e+01 2.400000000000000000e+01 2.500000000000000000e+01 2.600000000000000000e+01 2.700000000000000000e+01 2.800000000000000000e+01 2.900000000000000000e+01 3.000000000000000000e+01 3.100000000000000000e+01 3.200000000000000000e+01 3.300000000000000000e+01 3.400000000000000000e+01 3.500000000000000000e+01 3.600000000000000000e+01 3.700000000000000000e+01 3.800000000000000000e+01 3.900000000000000000e+01 4.000000000000000000e+01 4.100000000000000000e+01 4.200000000000000000e+01 4.300000000000000000e+01 4.400000000000000000e+01 4.500000000000000000e+01 4.600000000000000000e+01 4.700000000000000000e+01 4.800000000000000000e+01 4.900000000000000000e+01 5.000000000000000000e+01 5.100000000000000000e+01 5.200000000000000000e+01 5.300000000000000000e+01 5.400000000000000000e+01 5.500000000000000000e+01 5.600000000000000000e+01 5.700000000000000000e+01 5.800000000000000000e+01 5.900000000000000000e+01 6.000000000000000000e+01 6.100000000000000000e+01 6.200000000000000000e+01 6.300000000000000000e+01 6.400000000000000000e+01 6.500000000000000000e+01 6.600000000000000000e+01 6.700000000000000000e+01 6.800000000000000000e+01 6.900000000000000000e+01 7.000000000000000000e+01 7.100000000000000000e+01 7.200000000000000000e+01 7.300000000000000000e+01 7.400000000000000000e+01 7.500000000000000000e+01 7.600000000000000000e+01 7.700000000000000000e+01 7.800000000000000000e+01 7.900000000000000000e+01 8.000000000000000000e+01 8.100000000000000000e+01 8.200000000000000000e+01 8.300000000000000000e+01 8.400000000000000000e+01 8.500000000000000000e+01 8.600000000000000000e+01 8.700000000000000000e+01 8.800000000000000000e+01 8.900000000000000000e+01 9.000000000000000000e+01 9.100000000000000000e+01 9.200000000000000000e+01 9.300000000000000000e+01 9.400000000000000000e+01 9.500000000000000000e+01 9.600000000000000000e+01 9.700000000000000000e+01 9.800000000000000000e+01 9.900000000000000000e+01 1.000000000000000000e+02 1.010000000000000000e+02 1.020000000000000000e+02 1.030000000000000000e+02 1.040000000000000000e+02 1.050000000000000000e+02 1.060000000000000000e+02 1.070000000000000000e+02 1.080000000000000000e+02 1.090000000000000000e+02 1.100000000000000000e+02 1.110000000000000000e+02 1.120000000000000000e+02 1.130000000000000000e+02 1.140000000000000000e+02 1.150000000000000000e+02 1.160000000000000000e+02 1.170000000000000000e+02 1.180000000000000000e+02 1.190000000000000000e+02 1.200000000000000000e+02 1.210000000000000000e+02 1.220000000000000000e+02 1.230000000000000000e+02 1.240000000000000000e+02 1.250000000000000000e+02 1.260000000000000000e+02 1.270000000000000000e+02 1.280000000000000000e+02 1.290000000000000000e+02 1.300000000000000000e+02 1.310000000000000000e+02 1.320000000000000000e+02 1.330000000000000000e+02 1.340000000000000000e+02 1.350000000000000000e+02 1.360000000000000000e+02 1.370000000000000000e+02 1.380000000000000000e+02 1.390000000000000000e+02 1.400000000000000000e+02 1.410000000000000000e+02 1.420000000000000000e+02 1.430000000000000000e+02 1.440000000000000000e+02 1.450000000000000000e+02 1.460000000000000000e+02 1.470000000000000000e+02 1.480000000000000000e+02 1.490000000000000000e+02 1.500000000000000000e+02 1.510000000000000000e+02 1.520000000000000000e+02 1.530000000000000000e+02 1.540000000000000000e+02 1.550000000000000000e+02 1.560000000000000000e+02 1.570000000000000000e+02 1.580000000000000000e+02 1.590000000000000000e+02 1.600000000000000000e+02 1.610000000000000000e+02 1.620000000000000000e+02 1.630000000000000000e+02 1.640000000000000000e+02 1.650000000000000000e+02 1.660000000000000000e+02 1.670000000000000000e+02 1.680000000000000000e+02 1.690000000000000000e+02 1.700000000000000000e+02 1.710000000000000000e+02 1.720000000000000000e+02 1.730000000000000000e+02 1.740000000000000000e+02 1.750000000000000000e+02 1.760000000000000000e+02 1.770000000000000000e+02 1.780000000000000000e+02 1.790000000000000000e+02 1.800000000000000000e+02 1.810000000000000000e+02 1.820000000000000000e+02 1.830000000000000000e+02 1.840000000000000000e+02 1.850000000000000000e+02 1.860000000000000000e+02 1.870000000000000000e+02 1.880000000000000000e+02 1.890000000000000000e+02 1.900000000000000000e+02 1.910000000000000000e+02 1.920000000000000000e+02 1.930000000000000000e+02 1.940000000000000000e+02 1.950000000000000000e+02 1.960000000000000000e+02 1.970000000000000000e+02 1.980000000000000000e+02 1.990000000000000000e+02 2.000000000000000000e+02 2.010000000000000000e+02 2.020000000000000000e+02 2.030000000000000000e+02 2.040000000000000000e+02 2.050000000000000000e+02 2.060000000000000000e+02 2.070000000000000000e+02 2.080000000000000000e+02 2.090000000000000000e+02 2.100000000000000000e+02 2.110000000000000000e+02 2.120000000000000000e+02 2.130000000000000000e+02 2.140000000000000000e+02 2.150000000000000000e+02 2.160000000000000000e+02 2.170000000000000000e+02 2.180000000000000000e+02 2.190000000000000000e+02 2.200000000000000000e+02 2.210000000000000000e+02 2.220000000000000000e+02 2.230000000000000000e+02 2.240000000000000000e+02 2.250000000000000000e+02 2.260000000000000000e+02 2.270000000000000000e+02 2.280000000000000000e+02 2.290000000000000000e+02 2.300000000000000000e+02 2.310000000000000000e+02 2.320000000000000000e+02 2.330000000000000000e+02 2.340000000000000000e+02 2.350000000000000000e+02 2.360000000000000000e+02 2.370000000000000000e+02 2.380000000000000000e+02 2.390000000000000000e+02 2.400000000000000000e+02 2.410000000000000000e+02 2.420000000000000000e+02 2.430000000000000000e+02 2.440000000000000000e+02 2.450000000000000000e+02 2.460000000000000000e+02 2.470000000000000000e+02 2.480000000000000000e+02 2.490000000000000000e+02 2.500000000000000000e+02 2.510000000000000000e+02 2.520000000000000000e+02 2.530000000000000000e+02 2.540000000000000000e+02 2.550000000000000000e+02 2.560000000000000000e+02 2.570000000000000000e+02 2.580000000000000000e+02 2.590000000000000000e+02 2.600000000000000000e+02 2.610000000000000000e+02 2.620000000000000000e+02 2.630000000000000000e+02 2.640000000000000000e+02 2.650000000000000000e+02 2.660000000000000000e+02 2.670000000000000000e+02 2.680000000000000000e+02 2.690000000000000000e+02 2.700000000000000000e+02 2.710000000000000000e+02 2.720000000000000000e+02 2.730000000000000000e+02 2.740000000000000000e+02 2.750000000000000000e+02 2.760000000000000000e+02 2.770000000000000000e+02 2.780000000000000000e+02 2.790000000000000000e+02 2.800000000000000000e+02 2.810000000000000000e+02 2.820000000000000000e+02 2.830000000000000000e+02 2.840000000000000000e+02 2.850000000000000000e+02 2.860000000000000000e+02 2.870000000000000000e+02 2.880000000000000000e+02 2.890000000000000000e+02 2.900000000000000000e+02 2.910000000000000000e+02 2.920000000000000000e+02 2.930000000000000000e+02 2.940000000000000000e+02 2.950000000000000000e+02 2.960000000000000000e+02 2.970000000000000000e+02 2.980000000000000000e+02 2.990000000000000000e+02 3.000000000000000000e+02 3.010000000000000000e+02 3.020000000000000000e+02 3.030000000000000000e+02 3.040000000000000000e+02 3.050000000000000000e+02 3.060000000000000000e+02 3.070000000000000000e+02 3.080000000000000000e+02 3.090000000000000000e+02 3.100000000000000000e+02 3.110000000000000000e+02 3.120000000000000000e+02 3.130000000000000000e+02 3.140000000000000000e+02 3.150000000000000000e+02 3.160000000000000000e+02 3.170000000000000000e+02 3.180000000000000000e+02 3.190000000000000000e+02 3.200000000000000000e+02 3.210000000000000000e+02 3.220000000000000000e+02 3.230000000000000000e+02 3.240000000000000000e+02 3.250000000000000000e+02 3.260000000000000000e+02 3.270000000000000000e+02 3.280000000000000000e+02 3.290000000000000000e+02 3.300000000000000000e+02 3.310000000000000000e+02 3.320000000000000000e+02 3.330000000000000000e+02 3.340000000000000000e+02 3.350000000000000000e+02 3.360000000000000000e+02 3.370000000000000000e+02 3.380000000000000000e+02 3.390000000000000000e+02 3.400000000000000000e+02 3.410000000000000000e+02 3.420000000000000000e+02 3.430000000000000000e+02 3.440000000000000000e+02 3.450000000000000000e+02 3.460000000000000000e+02 3.470000000000000000e+02 3.480000000000000000e+02 3.490000000000000000e+02 3.500000000000000000e+02 3.510000000000000000e+02 3.520000000000000000e+02 3.530000000000000000e+02 3.540000000000000000e+02 3.550000000000000000e+02 3.560000000000000000e+02 3.570000000000000000e+02 3.580000000000000000e+02 3.590000000000000000e+02 3.600000000000000000e+02 3.610000000000000000e+02 3.620000000000000000e+02 3.630000000000000000e+02 3.640000000000000000e+02 3.650000000000000000e+02 3.660000000000000000e+02 3.670000000000000000e+02 3.680000000000000000e+02 3.690000000000000000e+02 3.700000000000000000e+02 3.710000000000000000e+02 3.720000000000000000e+02 3.730000000000000000e+02 3.740000000000000000e+02 3.750000000000000000e+02 3.760000000000000000e+02 3.770000000000000000e+02 3.780000000000000000e+02 3.790000000000000000e+02 3.800000000000000000e+02 3.810000000000000000e+02 3.820000000000000000e+02 3.830000000000000000e+02 3.840000000000000000e+02 3.850000000000000000e+02 3.860000000000000000e+02 3.870000000000000000e+02 3.880000000000000000e+02 3.890000000000000000e+02 3.900000000000000000e+02 3.910000000000000000e+02 3.920000000000000000e+02 3.930000000000000000e+02 3.940000000000000000e+02 3.950000000000000000e+02 3.960000000000000000e+02 3.970000000000000000e+02 3.980000000000000000e+02 3.990000000000000000e+02 4.000000000000000000e+02 4.010000000000000000e+02 4.020000000000000000e+02 4.030000000000000000e+02 4.040000000000000000e+02 4.050000000000000000e+02 4.060000000000000000e+02 4.070000000000000000e+02 4.080000000000000000e+02 4.090000000000000000e+02 4.100000000000000000e+02 4.110000000000000000e+02 4.120000000000000000e+02 4.130000000000000000e+02 4.140000000000000000e+02 4.150000000000000000e+02 4.160000000000000000e+02 4.170000000000000000e+02 4.180000000000000000e+02 4.190000000000000000e+02 4.200000000000000000e+02 4.210000000000000000e+02 4.220000000000000000e+02 4.230000000000000000e+02 4.240000000000000000e+02 4.250000000000000000e+02 4.260000000000000000e+02 4.270000000000000000e+02 4.280000000000000000e+02 4.290000000000000000e+02 4.300000000000000000e+02 4.310000000000000000e+02 4.320000000000000000e+02 4.330000000000000000e+02 4.340000000000000000e+02 4.350000000000000000e+02 4.360000000000000000e+02 4.370000000000000000e+02 4.380000000000000000e+02 4.390000000000000000e+02 4.400000000000000000e+02 4.410000000000000000e+02 4.420000000000000000e+02 4.430000000000000000e+02 4.440000000000000000e+02 4.450000000000000000e+02 4.460000000000000000e+02 4.470000000000000000e+02 4.480000000000000000e+02 4.490000000000000000e+02 4.500000000000000000e+02 4.510000000000000000e+02 4.520000000000000000e+02 4.530000000000000000e+02 4.540000000000000000e+02 4.550000000000000000e+02 4.560000000000000000e+02 4.570000000000000000e+02 4.580000000000000000e+02 4.590000000000000000e+02 4.600000000000000000e+02 4.610000000000000000e+02 4.620000000000000000e+02 4.630000000000000000e+02 4.640000000000000000e+02 4.650000000000000000e+02 4.660000000000000000e+02 4.670000000000000000e+02 4.680000000000000000e+02 4.690000000000000000e+02 4.700000000000000000e+02 4.710000000000000000e+02 4.720000000000000000e+02 4.730000000000000000e+02 4.740000000000000000e+02 4.750000000000000000e+02 4.760000000000000000e+02 4.770000000000000000e+02 4.780000000000000000e+02 4.790000000000000000e+02 4.800000000000000000e+02 4.810000000000000000e+02 4.820000000000000000e+02 4.830000000000000000e+02 4.840000000000000000e+02 4.850000000000000000e+02 4.860000000000000000e+02 4.870000000000000000e+02 4.880000000000000000e+02 4.890000000000000000e+02 4.900000000000000000e+02 4.910000000000000000e+02 4.920000000000000000e+02 4.930000000000000000e+02 4.940000000000000000e+02 4.950000000000000000e+02 4.960000000000000000e+02 4.970000000000000000e+02 4.980000000000000000e+02 4.990000000000000000e+02 5.000000000000000000e+02 5.010000000000000000e+02 5.020000000000000000e+02 5.030000000000000000e+02 5.040000000000000000e+02 5.050000000000000000e+02 5.060000000000000000e+02 5.070000000000000000e+02 5.080000000000000000e+02 5.090000000000000000e+02 5.100000000000000000e+02 5.110000000000000000e+02 5.120000000000000000e+02 5.130000000000000000e+02 5.140000000000000000e+02 5.150000000000000000e+02 5.160000000000000000e+02 5.170000000000000000e+02 5.180000000000000000e+02 5.190000000000000000e+02 5.200000000000000000e+02 5.210000000000000000e+02 5.220000000000000000e+02 5.230000000000000000e+02 5.240000000000000000e+02 5.250000000000000000e+02 5.260000000000000000e+02 5.270000000000000000e+02 5.280000000000000000e+02 5.290000000000000000e+02 5.300000000000000000e+02 5.310000000000000000e+02 5.320000000000000000e+02 5.330000000000000000e+02 5.340000000000000000e+02 5.350000000000000000e+02 5.360000000000000000e+02 5.370000000000000000e+02 5.380000000000000000e+02 5.390000000000000000e+02 5.400000000000000000e+02 5.410000000000000000e+02 5.420000000000000000e+02 5.430000000000000000e+02 5.440000000000000000e+02 5.450000000000000000e+02 5.460000000000000000e+02 5.470000000000000000e+02 5.480000000000000000e+02 5.490000000000000000e+02 5.500000000000000000e+02 5.510000000000000000e+02 5.520000000000000000e+02 5.530000000000000000e+02 5.540000000000000000e+02 5.550000000000000000e+02 5.560000000000000000e+02 5.570000000000000000e+02 5.580000000000000000e+02 5.590000000000000000e+02 5.600000000000000000e+02 5.610000000000000000e+02 5.620000000000000000e+02 5.630000000000000000e+02 5.640000000000000000e+02 5.650000000000000000e+02 5.660000000000000000e+02 5.670000000000000000e+02 5.680000000000000000e+02 5.690000000000000000e+02 5.700000000000000000e+02 5.710000000000000000e+02 5.720000000000000000e+02 5.730000000000000000e+02 5.740000000000000000e+02 5.750000000000000000e+02 5.760000000000000000e+02 5.770000000000000000e+02 5.780000000000000000e+02 5.790000000000000000e+02 5.800000000000000000e+02 5.810000000000000000e+02 5.820000000000000000e+02 5.830000000000000000e+02 5.840000000000000000e+02 5.850000000000000000e+02 5.860000000000000000e+02 5.870000000000000000e+02 5.880000000000000000e+02 5.890000000000000000e+02 5.900000000000000000e+02 5.910000000000000000e+02 5.920000000000000000e+02 5.930000000000000000e+02 5.940000000000000000e+02 5.950000000000000000e+02 5.960000000000000000e+02 5.970000000000000000e+02 5.980000000000000000e+02 5.990000000000000000e+02 6.000000000000000000e+02 6.010000000000000000e+02 6.020000000000000000e+02 6.030000000000000000e+02 6.040000000000000000e+02 6.050000000000000000e+02 6.060000000000000000e+02 6.070000000000000000e+02 6.080000000000000000e+02 6.090000000000000000e+02 6.100000000000000000e+02 6.110000000000000000e+02 6.120000000000000000e+02 6.130000000000000000e+02 6.140000000000000000e+02 6.150000000000000000e+02 6.160000000000000000e+02 6.170000000000000000e+02 6.180000000000000000e+02 6.190000000000000000e+02 6.200000000000000000e+02 6.210000000000000000e+02 6.220000000000000000e+02 6.230000000000000000e+02 6.240000000000000000e+02 6.250000000000000000e+02 6.260000000000000000e+02 6.270000000000000000e+02 6.280000000000000000e+02 6.290000000000000000e+02 6.300000000000000000e+02 6.310000000000000000e+02 6.320000000000000000e+02 6.330000000000000000e+02 6.340000000000000000e+02 6.350000000000000000e+02 6.360000000000000000e+02 6.370000000000000000e+02 6.380000000000000000e+02 6.390000000000000000e+02 6.400000000000000000e+02 6.410000000000000000e+02 6.420000000000000000e+02 6.430000000000000000e+02 6.440000000000000000e+02 6.450000000000000000e+02 6.460000000000000000e+02 6.470000000000000000e+02 6.480000000000000000e+02 6.490000000000000000e+02 6.500000000000000000e+02 6.510000000000000000e+02 6.520000000000000000e+02 6.530000000000000000e+02 6.540000000000000000e+02 6.550000000000000000e+02 6.560000000000000000e+02 6.570000000000000000e+02 6.580000000000000000e+02 6.590000000000000000e+02 6.600000000000000000e+02 6.610000000000000000e+02 6.620000000000000000e+02 6.630000000000000000e+02 6.640000000000000000e+02 6.650000000000000000e+02 6.660000000000000000e+02 6.670000000000000000e+02 6.680000000000000000e+02 6.690000000000000000e+02 6.700000000000000000e+02 6.710000000000000000e+02 6.720000000000000000e+02 6.730000000000000000e+02 6.740000000000000000e+02 6.750000000000000000e+02 6.760000000000000000e+02 6.770000000000000000e+02 6.780000000000000000e+02 6.790000000000000000e+02 6.800000000000000000e+02 6.810000000000000000e+02 6.820000000000000000e+02 6.830000000000000000e+02 6.840000000000000000e+02 6.850000000000000000e+02 6.860000000000000000e+02 6.870000000000000000e+02 6.880000000000000000e+02 6.890000000000000000e+02 6.900000000000000000e+02 6.910000000000000000e+02 6.920000000000000000e+02 6.930000000000000000e+02 6.940000000000000000e+02 6.950000000000000000e+02 6.960000000000000000e+02 6.970000000000000000e+02 6.980000000000000000e+02 6.990000000000000000e+02 7.000000000000000000e+02 7.010000000000000000e+02 7.020000000000000000e+02 7.030000000000000000e+02 7.040000000000000000e+02 7.050000000000000000e+02 7.060000000000000000e+02 7.070000000000000000e+02 7.080000000000000000e+02 7.090000000000000000e+02 7.100000000000000000e+02 7.110000000000000000e+02 7.120000000000000000e+02 7.130000000000000000e+02 7.140000000000000000e+02 7.150000000000000000e+02 7.160000000000000000e+02 7.170000000000000000e+02 7.180000000000000000e+02 7.190000000000000000e+02 7.200000000000000000e+02 7.210000000000000000e+02 7.220000000000000000e+02 7.230000000000000000e+02 7.240000000000000000e+02 7.250000000000000000e+02 7.260000000000000000e+02 7.270000000000000000e+02 7.280000000000000000e+02 7.290000000000000000e+02 7.300000000000000000e+02 7.310000000000000000e+02 7.320000000000000000e+02 7.330000000000000000e+02 7.340000000000000000e+02 7.350000000000000000e+02 7.360000000000000000e+02 7.370000000000000000e+02 7.380000000000000000e+02 7.390000000000000000e+02 7.400000000000000000e+02 7.410000000000000000e+02 7.420000000000000000e+02 7.430000000000000000e+02 7.440000000000000000e+02 7.450000000000000000e+02 7.460000000000000000e+02 7.470000000000000000e+02 7.480000000000000000e+02 7.490000000000000000e+02 7.500000000000000000e+02 7.510000000000000000e+02 7.520000000000000000e+02 7.530000000000000000e+02 7.540000000000000000e+02 7.550000000000000000e+02 7.560000000000000000e+02 7.570000000000000000e+02 7.580000000000000000e+02 7.590000000000000000e+02 7.600000000000000000e+02 7.610000000000000000e+02 7.620000000000000000e+02 7.630000000000000000e+02 7.640000000000000000e+02 7.650000000000000000e+02 7.660000000000000000e+02 7.670000000000000000e+02 7.680000000000000000e+02 7.690000000000000000e+02 7.700000000000000000e+02 7.710000000000000000e+02 7.720000000000000000e+02 7.730000000000000000e+02 7.740000000000000000e+02 7.750000000000000000e+02 7.760000000000000000e+02 7.770000000000000000e+02 7.780000000000000000e+02 7.790000000000000000e+02 7.800000000000000000e+02 7.810000000000000000e+02 7.820000000000000000e+02 7.830000000000000000e+02 7.840000000000000000e+02 7.850000000000000000e+02 7.860000000000000000e+02 7.870000000000000000e+02 7.880000000000000000e+02 7.890000000000000000e+02 7.900000000000000000e+02 7.910000000000000000e+02 7.920000000000000000e+02 7.930000000000000000e+02 7.940000000000000000e+02 7.950000000000000000e+02 7.960000000000000000e+02 7.970000000000000000e+02 7.980000000000000000e+02 7.990000000000000000e+02 8.000000000000000000e+02 8.010000000000000000e+02 8.020000000000000000e+02 8.030000000000000000e+02 8.040000000000000000e+02 8.050000000000000000e+02 8.060000000000000000e+02 8.070000000000000000e+02 8.080000000000000000e+02 8.090000000000000000e+02 8.100000000000000000e+02 8.110000000000000000e+02 8.120000000000000000e+02 8.130000000000000000e+02 8.140000000000000000e+02 8.150000000000000000e+02 8.160000000000000000e+02 8.170000000000000000e+02 8.180000000000000000e+02 8.190000000000000000e+02 8.200000000000000000e+02 8.210000000000000000e+02 8.220000000000000000e+02 8.230000000000000000e+02 8.240000000000000000e+02 8.250000000000000000e+02 8.260000000000000000e+02 8.270000000000000000e+02 8.280000000000000000e+02 8.290000000000000000e+02 8.300000000000000000e+02 8.310000000000000000e+02 8.320000000000000000e+02 8.330000000000000000e+02 8.340000000000000000e+02 8.350000000000000000e+02 8.360000000000000000e+02 8.370000000000000000e+02 8.380000000000000000e+02 8.390000000000000000e+02 8.400000000000000000e+02 8.410000000000000000e+02 8.420000000000000000e+02 8.430000000000000000e+02 8.440000000000000000e+02 8.450000000000000000e+02 8.460000000000000000e+02 8.470000000000000000e+02 8.480000000000000000e+02 8.490000000000000000e+02 8.500000000000000000e+02 8.510000000000000000e+02 8.520000000000000000e+02 8.530000000000000000e+02 8.540000000000000000e+02 8.550000000000000000e+02 8.560000000000000000e+02 8.570000000000000000e+02 8.580000000000000000e+02 8.590000000000000000e+02 8.600000000000000000e+02 8.610000000000000000e+02 8.620000000000000000e+02 8.630000000000000000e+02 8.640000000000000000e+02 8.650000000000000000e+02 8.660000000000000000e+02 8.670000000000000000e+02 8.680000000000000000e+02 8.690000000000000000e+02 8.700000000000000000e+02 8.710000000000000000e+02 8.720000000000000000e+02 8.730000000000000000e+02 8.740000000000000000e+02 8.750000000000000000e+02 8.760000000000000000e+02 8.770000000000000000e+02 8.780000000000000000e+02 8.790000000000000000e+02 8.800000000000000000e+02 8.810000000000000000e+02 8.820000000000000000e+02 8.830000000000000000e+02 8.840000000000000000e+02 8.850000000000000000e+02 8.860000000000000000e+02 8.870000000000000000e+02 8.880000000000000000e+02 8.890000000000000000e+02 8.900000000000000000e+02 8.910000000000000000e+02 8.920000000000000000e+02 8.930000000000000000e+02 8.940000000000000000e+02 8.950000000000000000e+02 8.960000000000000000e+02 8.970000000000000000e+02 8.980000000000000000e+02 8.990000000000000000e+02 9.000000000000000000e+02 9.010000000000000000e+02 9.020000000000000000e+02 9.030000000000000000e+02 9.040000000000000000e+02 9.050000000000000000e+02 9.060000000000000000e+02 9.070000000000000000e+02 9.080000000000000000e+02 9.090000000000000000e+02 9.100000000000000000e+02 9.110000000000000000e+02 9.120000000000000000e+02 9.130000000000000000e+02 9.140000000000000000e+02 9.150000000000000000e+02 9.160000000000000000e+02 9.170000000000000000e+02 9.180000000000000000e+02 9.190000000000000000e+02 9.200000000000000000e+02 9.210000000000000000e+02 9.220000000000000000e+02 9.230000000000000000e+02 9.240000000000000000e+02 9.250000000000000000e+02 9.260000000000000000e+02 9.270000000000000000e+02 9.280000000000000000e+02 9.290000000000000000e+02 9.300000000000000000e+02 9.310000000000000000e+02 9.320000000000000000e+02 9.330000000000000000e+02 9.340000000000000000e+02 9.350000000000000000e+02 9.360000000000000000e+02 9.370000000000000000e+02 9.380000000000000000e+02 9.390000000000000000e+02 9.400000000000000000e+02 9.410000000000000000e+02 9.420000000000000000e+02 9.430000000000000000e+02 9.440000000000000000e+02 9.450000000000000000e+02 9.460000000000000000e+02 9.470000000000000000e+02 9.480000000000000000e+02 9.490000000000000000e+02 9.500000000000000000e+02 9.510000000000000000e+02 9.520000000000000000e+02 9.530000000000000000e+02 9.540000000000000000e+02 9.550000000000000000e+02 9.560000000000000000e+02 9.570000000000000000e+02 9.580000000000000000e+02 9.590000000000000000e+02 9.600000000000000000e+02 9.610000000000000000e+02 9.620000000000000000e+02 9.630000000000000000e+02 9.640000000000000000e+02 9.650000000000000000e+02 9.660000000000000000e+02 9.670000000000000000e+02 9.680000000000000000e+02 9.690000000000000000e+02 9.700000000000000000e+02 9.710000000000000000e+02 9.720000000000000000e+02 9.730000000000000000e+02 9.740000000000000000e+02 9.750000000000000000e+02 9.760000000000000000e+02 9.770000000000000000e+02 9.780000000000000000e+02 9.790000000000000000e+02 9.800000000000000000e+02 9.810000000000000000e+02 9.820000000000000000e+02 9.830000000000000000e+02 9.840000000000000000e+02 9.850000000000000000e+02 9.860000000000000000e+02 9.870000000000000000e+02 9.880000000000000000e+02 9.890000000000000000e+02 9.900000000000000000e+02 9.910000000000000000e+02 9.920000000000000000e+02 9.930000000000000000e+02 9.940000000000000000e+02 9.950000000000000000e+02 9.960000000000000000e+02 9.970000000000000000e+02 9.980000000000000000e+02 9.990000000000000000e+02 1.000000000000000000e+03
1.000000000000000021e-02 1.000000000000000021e-02 1.000000000000000021e-02 1.000000000000000021e-02 1.000000000000000021e-02 1.000000000000000021e-02 1.000000000000000021e-02 1.000000000000000021e-02 1.000000000000000021e-02 1.000000000000000021e-02 1.000000000000000021e-02 1.000000000000000021e-02 1.000000000000000021e-02 1.000000000000000021e-02 1.000000000000000021e-02 1.000000000000000021e-02 1.000000000000000021e-02 1.000000000000000021e-02 1.000000000000000021e-02 1.000000000000000021e-02 1.000000000000000021e-02 1.000000000000000021e-02 1.000000000000000021e-02 1.000000000000000021e-02 1.000000000000000021e-02 1.000000000000000021e-02 1.000000000000000021e-02 1.000000000000000021e-02 1.000000000000000021e-02 1.000000000000000021e-02 1.000000000000000021e-02 1.000000000000000021e-02 1.000000000000000021e-02 1.000000000000000021e-02 1.000000000000000021e-02 1.000000000000000021e-02 1.000000000000000021e-02 1.000000000000000021e-02 1.000000000000000021e-02 1.000000000000000021e-02 1.000000000000000021e-02 1.000000000000000021e-02 1.000000000000000021e-02 1.000000000000000021e-02 1.000000000000000021e-02 1.000000000000000021e-02 1.000000000000000021e-02 1.000000000000000021e-02 1.000000000000000021e-02 1.000000000000000021e-02 1.000000000000000021e-02 1.000000000000000021e-02 1.000000000000000021e-02 1.000000000000000021e-02 1.000000000000000021e-02 1.000000000000000021e-02 1.000000000000000021e-02 1.000000000000000021e-02 1.000000000000000021e-02 1.000000000000000021e-02 1.000000000000000021e-02 1.000000000000000021e-02 1.000000000000000021e-02 1.000000000000000021e-02 1.000000000000000021e-02 1.000000000000000021e-02 1.000000000000000021e-02 1.000000000000000021e-02 1.000000000000000021e-02 1.000000000000000021e-02 1.000000000000000021e-02 1.000000000000000021e-02 1.000000000000000021e-02 1.000000000000000021e-02 1.000000000000000021e-02 1.000000000000000021e-02 1.000000000000000021e-02 1.000000000000000021e-02 1.000000000000000021e-02 1.000000000000000021e-02 1.000000000000000021e-02 1.000000000000000021e-02 1.000000000000000021e-02 1.000000000000000021e-02 1.000000000000000021e-02 1.000000000000000021e-02 1.000000000000000021e-02 1.000000000000000021e-02 1.000000000000000021e-02 1.000000000000000021e-02 1.000000000000000021e-02 1.000000000000000021e-02 1.000000000000000021e-02 1.000000000000000021e-02 1.000000000000000021e-02 1.000000000000000021e-02 1.000000000000000021e-02 1.000000000000000021e-02 1.000000000000000021e-02 1.000000000000000021e-02 1.000000000000000021e-02 1.000000000000000021e-02 1.000000000000000021e-02 1.000000000000000021e-02 1.000000000000000021e-02 1.000000000000000021e-02 1.000000000000000021e-02 1.000000000000000021e-02 1.000000000000000021e-02 1.000000000000000021e-02 1.000000000000000021e-02 1.000000000000000021e-02 1.000000000000000021e-02 1.000000000000000021e-02 1.000000000000000021e-02 1.000000000000000021e-02 1.000000000000000021e-02 1.000000000000000021e-02 1.000000000000000021e-02 1.000000000000000021e-02 1.000000000000000021e-02 1.000000000000000021e-02 1.000000000000000021e-02 1.000000000000000021e-02 1.000000000000000021e-02 1.000000000000000021e-02 1.000000000000000021e-02 1.000000000000000021e-02 1.000000000000000021e-02 1.000000000000000021e-02 1.000000000000000021e-02 1.000000000000000021e-02 1.000000000000000021e-02 1.000000000000000021e-02 1.000000000000000021e-02 1.000000000000000021e-02 1.000000000000000021e-02 1.000000000000000021e-02 1.000000000000000021e-02 1.000000000000000021e-02 1.000000000000000021e-02 1.000000000000000021e-02 1.000000000000000021e-02 1.000000000000000021e-02 1.000000000000000021e-02 1.000000000000000021e-02 1.000000000000000021e-02 1.000000000000000021e-02 1.000000000000000021e-02 1.000000000000000021e-02 1.000000000000000021e-02 1.000000000000000021e-02 1.000000000000000021e-02 1.000000000000000021e-02 1.000000000000000021e-02 1.000000000000000021e-02 1.000000000000000021e-02 1.000000000000000021e-02 1.000000000000000021e-02 1.000000000000000021e-02 1.000000000000000021e-02 1.000000000000000021e-02 1.000000000000000021e-02 1.000000000000000021e-02 1.000000000000000021e-02 1.000000000000000021e-02 1.000000000000000021e-02 1.000000000000000021e-02 1.000000000000000021e-02 1.000000000000000021e-02 1.000000000000000021e-02 1.000000000000000021e-02 1.000000000000000021e-02 1.000000000000000021e-02 1.000000000000000021e-02 1.000000000000000021e-02 1.000000000000000021e-02 1.000000000000000021e-02 1.000000000000000021e-02 1.000000000000000021e-02 1.000000000000000021e-02 1.000000000000000021e-02 1.000000000000000021e-02 1.000000000000000021e-02 1.000000000000000021e-02 1.000000000000000021e-02 1.000000000000000021e-02 1.000000000000000021e-02 1.000000000000000021e-02 1.000000000000000021e-02 1.000000000000000021e-02 1.000000000000000021e-02 1.000000000000000021e-02 1.000000000000000021e-02 1.000000000000000021e-02 1.000000000000000021e-02 1.000000000000000021e-02 1.000000000000000021e-02 1.000000000000000021e-02 1.000000000000000021e-02 1.000000000000000021e-02 1.000000000000000021e-02 1.000000000000000021e-02 1.000000000000000021e-02 1.000000000000000021e-02 1.000000000000000021e-02 1.000000000000000021e-02 1.000000000000000021e-02 1.000000000000000021e-02 1.000000000000000021e-02 1.000000000000000021e-02 1.000000000000000021e-02 1.000000000000000021e-02 1.000000000000000021e-02 1.000000000000000021e-02 1.000000000000000021e-02 1.000000000000000021e-02 1.000000000000000021e-02 1.000000000000000021e-02 1.000000000000000021e-02 1.000000000000000021e-02 1.000000000000000021e-02 1.000000000000000021e-02 1.000000000000000021e-02 1.000000000000000021e-02 1.000000000000000021e-02 1.000000000000000021e-02 1.000000000000000021e-02 1.000000000000000021e-02 1.000000000000000021e-02 1.000000000000000021e-02 1.000000000000000021e-02 1.000000000000000021e-02 1.000000000000000021e-02 1.000000000000000021e-02 1.000000000000000021e-02 1.000000000000000021e-02 1.000000000000000021e-02 1.000000000000000021e-02 1.000000000000000021e-02 1.000000000000000021e-02 1.000000000000000021e-02 1.000000000000000021e-02 1.000000000000000021e-02 1.000000000000000021e-02 1.000000000000000021e-02 1.000000000000000021e-02 1.000000000000000021e-02 1.000000000000000021e-02 1.000000000000000021e-02 1.000000000000000021e-02 1.000000000000000021e-02 1.000000000000000021e-02 1.000000000000000021e-02 1.000000000000000021e-02 1.000000000000000021e-02 1.000000000000000021e-02 1.000000000000000021e-02 1.000000000000000021e-02 1.000000000000000021e-02 1.000000000000000021e-02 1.000000000000000021e-02 1.000000000000000021e-02 1.000000000000000021e-02 1.000000000000000021e-02 1.000000000000000021e-02 1.000000000000000021e-02 1.000000000000000021e-02 1.000000000000000021e-02 1.000000000000000021e-02 1.000000000000000021e-02 1.000000000000000021e-02 1.000000000000000021e-02 1.000000000000000021e-02 1.000000000000000021e-02 1.000000000000000021e-02 1.000000000000000021e-02 1.000000000000000021e-02 1.000000000000000021e-02 1.000000000000000021e-02 1.000000000000000021e-02 1.000000000000000021e-02 1.000000000000000021e-02 1.000000000000000021e-02 1.000000000000000021e-02 1.000000000000000021e-02 1.000000000000000021e-02 1.000000000000000021e-02 1.000000000000000021e-02 1.000000000000000021e-02 1.000000000000000021e-02 1.000000000000000021e-02 1.000000000000000021e-02 1.000000000000000021e-02 1.000000000000000021e-02 1.000000000000000021e-02 1.000000000000000021e-02 1.000000000000000021e-02 1.000000000000000021e-02 1.000000000000000021e-02 1.000000000000000021e-02 1.000000000000000021e-02 1.000000000000000021e-02 1.000000000000000021e-02 1.000000000000000021e-02 1.000000000000000021e-02 1.000000000000000021e-02 1.000000000000000021e-02 1.000000000000000021e-02 1.000000000000000021e-02 1.000000000000000021e-02 1.000000000000000021e-02 1.000000000000000021e-02 1.000000000000000021e-02 1.000000000000000021e-02 1.000000000000000021e-02 1.000000000000000021e-02 1.000000000000000021e-02 1.000000000000000021e-02 1.000000000000000021e-02 1.000000000000000021e-02 1.000000000000000021e-02 1.000000000000000021e-02 1.000000000000000021e-02 1.000000000000000021e-02 1.000000000000000021e-02 1.000000000000000021e-02 1.000000000000000021e-02 1.000000000000000021e-02 1.000000000000000021e-02 1.000000000000000021e-02 1.000000000000000021e-02 1.000000000000000021e-02 1.000000000000000021e-02 1.000000000000000021e-02 1.000000000000000021e-02 1.000000000000000021e-02 1.000000000000000021e-02 1.000000000000000021e-02 1.000000000000000021e-02 1.000000000000000021e-02 1.000000000000000021e-02 1.000000000000000021e-02 1.000000000000000021e-02 1.000000000000000021e-02 1.000000000000000021e-02 1.000000000000000021e-02 1.000000000000000021e-02 1.000000000000000021e-02 1.000000000000000021e-02 1.000000000000000021e-02 1.000000000000000021e-02 1.000000000000000021e-02 1.000000000000000021e-02 1.000000000000000021e-02 1.000000000000000021e-02 1.000000000000000021e-02 1.000000000000000021e-02 1.000000000000000021e-02 1.000000000000000021e-02 1.000000000000000021e-02 1.000000000000000021e-02 1.000000000000000021e-02 1.000000000000000021e-02 1.000000000000000021e-02 1.000000000000000021e-02 1.000000000000000021e-02 1.000000000000000021e-02 1.000000000000000021e-02 1.000000000000000021e-02 1.000000000000000021e-02 1.000000000000000021e-02 1.000000000000000021e-02 1.000000000000000021e-02 1.000000000000000021e-02 1.000000000000000021e-02 1.000000000000000021e-02 1.000000000000000021e-02 1.000000000000000021e-02 1.000000000000000021e-02 1.000000000000000021e-02 1.000000000000000021e-02 1.000000000000000021e-02 1.000000000000000021e-02 1.000000000000000021e-02 1.000000000000000021e-02 1.000000000000000021e-02 1.000000000000000021e-02 1.000000000000000021e-02 1.000000000000000021e-02 1.000000000000000021e-02 1.000000000000000021e-02 1.000000000000000021e-02 1.000000000000000021e-02 1.000000000000000021e-02 1.000000000000000021e-02 1.000000000000000021e-02 1.000000000000000021e-02 1.000000000000000021e-02 1.000000000000000021e-02 1.000000000000000021e-02 1.000000000000000021e-02 1.000000000000000021e-02 1.000000000000000021e-02 1.000000000000000021e-02 1.000000000000000021e-02 1.000000000000000021e-02 1.000000000000000021e-02 1.000000000000000021e-02 1.000000000000000021e-02 1.000000000000000021e-02 1.000000000000000021e-02 1.000000000000000021e-02 1.000000000000000021e-02 1.000000000000000021e-02 1.000000000000000021e-02 1.000000000000000021e-02 1.000000000000000021e-02 1.000000000000000021e-02 1.000000000000000021e-02 1.000000000000000021e-02 1.000000000000000021e-02 1.000000000000000021e-02 1.000000000000000021e-02 1.000000000000000021e-02 1.000000000000000021e-02 1.000000000000000021e-02 1.000000000000000021e-02 1.000000000000000021e-02 1.000000000000000021e-02 1.000000000000000021e-02 1.000000000000000021e-02 1.000000000000000021e-02 1.000000000000000021e-02 1.000000000000000021e-02 1.000000000000000021e-02 1.000000000000000021e-02 1.000000000000000021e-02 1.000000000000000021e-02 1.000000000000000021e-02 1.000000000000000021e-02 1.000000000000000021e-02 1.000000000000000021e-02 1.000000000000000021e-02 1.000000000000000021e-02 1.000000000000000021e-02 1.000000000000000021e-02 1.000000000000000021e-02 1.000000000000000021e-02 1.000000000000000021e-02 1.000000000000000021e-02 1.000000000000000021e-02 1.000000000000000021e-02 1.000000000000000021e-02 1.000000000000000021e-02 1.000000000000000021e-02 1.000000000000000021e-02 1.000000000000000021e-02 1.000000000000000021e-02 1.000000000000000021e-02 1.000000000000000021e-02 1.000000000000000021e-02 1.000000000000000021e-02 1.000000000000000021e-02 1.000000000000000021e-02 1.000000000000000021e-02 1.000000000000000021e-02 1.000000000000000021e-02 1.000000000000000021e-02 1.000000000000000021e-02 1.000000000000000021e-02 1.000000000000000021e-02 1.000000000000000021e-02 1.000000000000000021e-02 1.000000000000000021e-02 1.000000000000000021e-02 1.000000000000000021e-02 1.000000000000000021e-02 1.000000000000000021e-02 1.000000000000000021e-02 1.000000000000000021e-02 1.000000000000000021e-02 1.000000000000000021e-02 1.000000000000000021e-02 1.000000000000000021e-02 1.000000000000000021e-02 1.000000000000000021e-02 1.000000000000000021e-02 1.000000000000000021e-02 1.000000000000000021e-02 1.000000000000000021e-02 1.000000000000000021e-02 1.000000000000000021e-02 1.000000000000000021e-02 1.000000000000000021e-02 1.000000000000000021e-02 1.000000000000000021e-02 1.000000000000000021e-02 1.000000000000000021e-02 1.000000000000000021e-02 1.000000000000000021e-02 1.000000000000000021e-02 1.000000000000000021e-02 1.000000000000000021e-02 1.000000000000000021e-02 1.000000000000000021e-02 1.000000000000000021e-02 1.000000000000000021e-02 1.000000000000000021e-02 1.000000000000000021e-02 1.000000000000000021e-02 1.000000000000000021e-02 1.000000000000000021e-02 1.000000000000000021e-02 1.000000000000000021e-02 1.000000000000000021e-02 1.000000000000000021e-02 1.000000000000000021e-02 1.000000000000000021e-02 1.000000000000000021e-02 1.000000000000000021e-02 1.000000000000000021e-02 1.000000000000000021e-02 1.000000000000000021e-02 1.000000000000000021e-02 1.000000000000000021e-02 1.000000000000000021e-02 1.000000000000000021e-02 1.000000000000000021e-02 1.000000000000000021e-02 1.000000000000000021e-02 1.000000000000000021e-02 1.000000000000000021e-02 1.000000000000000021e-02 1.000000000000000021e-02 1.000000000000000021e-02 1.000000000000000021e-02 1.000000000000000021e-02 1.000000000000000021e-02 1.000000000000000021e-02 1.000000000000000021e-02 1.000000000000000021e-02 1.000000000000000021e-02 1.000000000000000021e-02 1.000000000000000021e-02 1.000000000000000021e-02 1.000000000000000021e-02 1.000000000000000021e-02 1.000000000000000021e-02 1.000000000000000021e-02 1.000000000000000021e-02 1.000000000000000021e-02 1.000000000000000021e-02 1.000000000000000021e-02 1.000000000000000021e-02 1.000000000000000021e-02 1.000000000000000021e-02 1.000000000000000021e-02 1.000000000000000021e-02 1.000000000000000021e-02 1.000000000000000021e-02 1.000000000000000021e-02 1.000000000000000021e-02 1.000000000000000021e-02 1.000000000000000021e-02 1.000000000000000021e-02 1.000000000000000021e-02 1.000000000000000021e-02 1.000000000000000021e-02 1.000000000000000021e-02 1.000000000000000021e-02 1.000000000000000021e-02 1.000000000000000021e-02 1.000000000000000021e-02 1.000000000000000021e-02 1.000000000000000021e-02 1.000000000000000021e-02 1.000000000000000021e-02 1.000000000000000021e-02 1.000000000000000021e-02 1.000000000000000021e-02 1.000000000000000021e-02 1.000000000000000021e-02 1.000000000000000021e-02 1.000000000000000021e-02 1.000000000000000021e-02 1.000000000000000021e-02 1.000000000000000021e-02 1.000000000000000021e-02 1.000000000000000021e-02 1.000000000000000021e-02 1.000000000000000021e-02 1.000000000000000021e-02 1.000000000000000021e-02 1.000000000000000021e-02 1.000000000000000021e-02 1.000000000000000021e-02 1.000000000000000021e-02 1.000000000000000021e-02 1.000000000000000021e-02 1.000000000000000021e-02 1.000000000000000021e-02 1.000000000000000021e-02 1.000000000000000021e-02 1.000000000000000021e-02 1.000000000000000021e-02 1.000000000000000021e-02 1.000000000000000021e-02 1.000000000000000021e-02 1.000000000000000021e-02 1.000000000000000021e-02 1.000000000000000021e-02 1.000000000000000021e-02 1.000000000000000021e-02 1.000000000000000021e-02 1.000000000000000021e-02 1.000000000000000021e-02 1.000000000000000021e-02 1.000000000000000021e-02 1.000000000000000021e-02 1.000000000000000021e-02 1.000000000000000021e-02 1.000000000000000021e-02 1.000000000000000021e-02 1.000000000000000021e-02 1.000000000000000021e-02 1.000000000000000021e-02 1.000000000000000021e-02 1.000000000000000021e-02 1.000000000000000021e-02 1.000000000000000021e-02 1.000000000000000021e-02 1.000000000000000021e-02 1.000000000000000021e-02 1.000000000000000021e-02 1.000000000000000021e-02 1.000000000000000021e-02 1.000000000000000021e-02 1.000000000000000021e-02 1.000000000000000021e-02 1.000000000000000021e-02 1.000000000000000021e-02 1.000000000000000021e-02 1.000000000000000021e-02 1.000000000000000021e-02 1.000000000000000021e-02 1.000000000000000021e-02 1.000000000000000021e-02 1.000000000000000021e-02 1.000000000000000021e-02 1.000000000000000021e-02 1.000000000000000021e-02 1.000000000000000021e-02 1.000000000000000021e-02 1.000000000000000021e-02 1.000000000000000021e-02 1.000000000000000021e-02 1.000000000000000021e-02 1.000000000000000021e-02 1.000000000000000021e-02 1.000000000000000021e-02 1.000000000000000021e-02 1.000000000000000021e-02 1.000000000000000021e-02 1.000000000000000021e-02 1.000000000000000021e-02 1.000000000000000021e-02 1.000000000000000021e-02 1.000000000000000021e-02 1.000000000000000021e-02 1.000000000000000021e-02 1.000000000000000021e-02 1.000000000000000021e-02 1.000000000000000021e-02 1.000000000000000021e-02 1.000000000000000021e-02 1.000000000000000021e-02 1.000000000000000021e-02 1.000000000000000021e-02 1.000000000000000021e-02 1.000000000000000021e-02 1.000000000000000021e-02 1.000000000000000021e-02 1.000000000000000021e-02 1.000000000000000021e-02 1.000000000000000021e-02 1.000000000000000021e-02 1.000000000000000021e-02 1.000000000000000021e-02 1.000000000000000021e-02 1.000000000000000021e-02 1.000000000000000021e-02 1.000000000000000021e-02 1.000000000000000021e-02 1.000000000000000021e-02 1.000000000000000021e-02 1.000000000000000021e-02 1.000000000000000021e-02 1.000000000000000021e-02 1.000000000000000021e-02 1.000000000000000021e-02 1.000000000000000021e-02 1.000000000000000021e-02 1.000000000000000021e-02 1.000000000000000021e-02 1.000000000000000021e-02 1.000000000000000021e-02 1.000000000000000021e-02 1.000000000000000021e-02 1.000000000000000021e-02 1.000000000000000021e-02 1.000000000000000021e-02 1.000000000000000021e-02 1.000000000000000021e-02 1.000000000000000021e-02 1.000000000000000021e-02 1.000000000000000021e-02 1.000000000000000021e-02 1.000000000000000021e-02 1.000000000000000021e-02 1.000000000000000021e-02 1.000000000000000021e-02 1.000000000000000021e-02 1.000000000000000021e-02 1.000000000000000021e-02 1.000000000000000021e-02 1.000000000000000021e-02 1.000000000000000021e-02 1.000000000000000021e-02 1.000000000000000021e-02 1.000000000000000021e-02 1.000000000000000021e-02 1.000000000000000021e-02 1.000000000000000021e-02 1.000000000000000021e-02 1.000000000000000021e-02 1.000000000000000021e-02 1.000000000000000021e-02 1.000000000000000021e-02 1.000000000000000021e-02 1.000000000000000021e-02 1.000000000000000021e-02 1.000000000000000021e-02 1.000000000000000021e-02 1.000000000000000021e-02 1.000000000000000021e-02 1.000000000000000021e-02 1.000000000000000021e-02 1.000000000000000021e-02 1.000000000000000021e-02 1.000000000000000021e-02 1.000000000000000021e-02 1.000000000000000021e-02 1.000000000000000021e-02 1.000000000000000021e-02 1.000000000000000021e-02 1.000000000000000021e-02 1.000000000000000021e-02 1.000000000000000021e-02 1.000000000000000021e-02 1.000000000000000021e-02 1.000000000000000021e-02 1.000000000000000021e-02 1.000000000000000021e-02 1.000000000000000021e-02 1.000000000000000021e-02 1.000000000000000021e-02 1.000000000000000021e-02 1.000000000000000021e-02 1.000000000000000021e-02 1.000000000000000021e-02 1.000000000000000021e-02 1.000000000000000021e-02 1.000000000000000021e-02 1.000000000000000021e-02 1.000000000000000021e-02 1.000000000000000021e-02 1.000000000000000021e-02 1.000000000000000021e-02 1.000000000000000021e-02 1.000000000000000021e-02 1.000000000000000021e-02 1.000000000000000021e-02 1.000000000000000021e-02 1.000000000000000021e-02 1.000000000000000021e-02 1.000000000000000021e-02 1.000000000000000021e-02 1.000000000000000021e-02 1.000000000000000021e-02 1.000000000000000021e-02 1.000000000000000021e-02 1.000000000000000021e-02 1.000000000000000021e-02 1.000000000000000021e-02 1.000000000000000021e-02 1.000000000000000021e-02 1.000000000000000021e-02 1.000000000000000021e-02 1.000000000000000021e-02 1.000000000000000021e-02 1.000000000000000021e-02 1.000000000000000021e-02 1.000000000000000021e-02 1.000000000000000021e-02 1.000000000000000021e-02 1.000000000000000021e-02 1.000000000000000021e-02 1.000000000000000021e-02 1.000000000000000021e-02 1.000000000000000021e-02 1.000000000000000021e-02 1.000000000000000021e-02 1.000000000000000021e-02 1.000000000000000021e-02 1.000000000000000021e-02 1.000000000000000021e-02 1.000000000000000021e-02 1.000000000000000021e-02 1.000000000000000021e-02 1.000000000000000021e-02 1.000000000000000021e-02 1.000000000000000021e-02 1.000000000000000021e-02 1.000000000000000021e-02 1.000000000000000021e-02 1.000000000000000021e-02 1.000000000000000021e-02 1.000000000000000021e-02 1.000000000000000021e-02 1.000000000000000021e-02 1.000000000000000021e-02 1.000000000000000021e-02 1.000000000000000021e-02 1.000000000000000021e-02 1.000000000000000021e-02 1.000000000000000021e-02 1.000000000000000021e-02 1.000000000000000021e-02 1.000000000000000021e-02 1.000000000000000021e-02 1.000000000000000021e-02 1.000000000000000021e-02 1.000000000000000021e-02 1.000000000000000021e-02 1.000000000000000021e-02 1.000000000000000021e-02 1.000000000000000021e-02 1.000000000000000021e-02 1.000000000000000021e-02 1.000000000000000021e-02 1.000000000000000021e-02 1.000000000000000021e-02 1.000000000000000021e-02 1.000000000000000021e-02 1.000000000000000021e-02 1.000000000000000021e-02 1.000000000000000021e-02 1.000000000000000021e-02 1.000000000000000021e-02 1.000000000000000021e-02 1.000000000000000021e-02 1.000000000000000021e-02 1.000000000000000021e-02 1.000000000000000021e-02 1.000000000000000021e-02 1.000000000000000021e-02 1.000000000000000021e-02 1.000000000000000021e-02 1.000000000000000021e-02 1.000000000000000021e-02 1.000000000000000021e-02 1.000000000000000021e-02 1.000000000000000021e-02 1.000000000000000021e-02 1.000000000000000021e-02 1.000000000000000021e-02 1.000000000000000021e-02 1.000000000000000021e-02 1.000000000000000021e-02 1.000000000000000021e-02 1.000000000000000021e-02 1.000000000000000021e-02 1.000000000000000021e-02 1.000000000000000021e-02 1.000000000000000021e-02 1.000000000000000021e-02 1.000000000000000021e-02 1.000000000000000021e-02 1.000000000000000021e-02 1.000000000000000021e-02 1.000000000000000021e-02 1.000000000000000021e-02 1.000000000000000021e-02 1.000000000000000021e-02 1.000000000000000021e-02 1.000000000000000021e-02 1.000000000000000021e-02 1.000000000000000021e-02 1.000000000000000021e-02 1.000000000000000021e-02 1.000000000000000021e-02 1.000000000000000021e-02 1.000000000000000021e-02 1.000000000000000021e-02 1.000000000000000021e-02 1.000000000000000021e-02 1.000000000000000021e-02 1.000000000000000021e-02 1.000000000000000021e-02 1.000000000000000021e-02 1.000000000000000021e-02 1.000000000000000021e-02 1.000000000000000021e-02 1.000000000000000021e-02 1.000000000000000021e-02 1.000000000000000021e-02 1.000000000000000021e-02 1.000000000000000021e-02 1.000000000000000021e-02 1.000000000000000021e-02 1.000000000000000021e-02 1.000000000000000021e-02 1.000000000000000021e-02 1.000000000000000021e-02 1.000000000000000021e-02 1.000000000000000021e-02 1.000000000000000021e-02 1.000000000000000021e-02 1.000000000000000021e-02 1.000000000000000021e-02 1.000000000000000021e-02 1.000000000000000021e-02 1.000000000000000021e-02 1.000000000000000021e-02 1.000000000000000021e-02 1.000000000000000021e-02 1.000000000000000021e-02 1.000000000000000021e-02 1.000000000000000021e-02 1.000000000000000021e-02 1.000000000000000021e-02 1.000000000000000021e-02 1.000000000000000021e-02 1.000000000000000021e-02 1.000000000000000021e-02 1.000000000000000021e-02 1.000000000000000021e-02 1.000000000000000021e-02 1.000000000000000021e-02 1.000000000000000021e-02 1.000000000000000021e-02 1.000000000000000021e-02 1.000000000000000021e-02 1.000000000000000021e-02 1.000000000000000021e-02 1.000000000000000021e-02 1.000000000000000021e-02 1.000000000000000021e-02 1.000000000000000021e-02 1.000000000000000021e-02 1.000000000000000021e-02 1.000000000000000021e-02 1.000000000000000021e-02 1.000000000000000021e-02 1.000000000000000021e-02 1.000000000000000021e-02 1.000000000000000021e-02 1.000000000000000021e-02 1.000000000000000021e-02 1.000000000000000021e-02 1.000000000000000021e-02 1.000000000000000021e-02 1.000000000000000021e-02 1.000000000000000021e-02 1.000000000000000021e-02 1.000000000000000021e-02 1.000000000000000021e-02 1.000000000000000021e-02 1.000000000000000021e-02 1.000000000000000021e-02 1.000000000000000021e-02 1.000000000000000021e-02 1.000000000000000021e-02 1.000000000000000021e-02 1.000000000000000021e-02 1.000000000000000021e-02 1.000000000000000021e-02 1.000000000000000021e-02 1.000000000000000021e-02 1.000000000000000021e-02 1.000000000000000021e-02 1.000000000000000021e-02 1.000000000000000021e-02 1.000000000000000021e-02 1.000000000000000021e-02 1.000000000000000021e-02 1.000000000000000021e-02 1.000000000000000021e-02 1.000000000000000021e-02
-1.085193149033172944e+02 1.650482093277746571e+02 3.823661139919934726e+01 -8.588454426752356596e+00 -8.548679265819266959e+01 -1.302495075811721215e+01 -2.023041855838550305e+02 6.857489556248709262e-01 -8.240291201350936490e+01 -1.375202847542838214e+01 -1.930976502654545612e+01 6.367745711441022749e+00 -1.734352960564359503e+00 1.632446843105849723e+02 8.233621215524149761e+01 -3.776375531894868232e+01 -5.140649133274808946e+01 7.707357264941880715e+01 3.194248535599701455e+01 -2.469593354474574198e+01 -7.670267912798539101e+01 -7.179255353170239573e+01 -1.342038667575481981e+01 2.815100430450349478e+01 -1.896411541174888100e+02 -9.604540094967924801e+01 -2.538861442381984546e+01 1.961648248638677217e+02 6.884990164101034793e+01 7.468046842433906818e+01 7.813201162590365811e+01 1.148841753506922636e+00 -7.716884203544864818e+01 2.018919583064608503e+02 -2.382820537382303314e+02 5.728723898174693829e+01 -1.168594153245969380e+02 -3.375503931316220729e+01 3.929062829226298348e+00 1.232981912941307314e+02 -1.195728874199432425e+02 -1.325794877986643172e+01 7.524992225725478079e+01 1.689335549616093033e+02 6.940914518775888098e+01 -6.653565910473584211e+01 4.006866845986416337e+01 -2.763196386082467626e+01 -6.428351719680968301e+01 1.523650213210745790e+02 -6.860377083483859906e+01 -5.068988324699276404e+01 -1.356256823461929457e+02 5.654596692713298900e+00 -4.915945935985249804e+01 3.763718380655689089e+01 -8.634526400687974501e+01 -4.870336468447118961e+01 -9.868333321239951772e+01 -1.512803809523413747e+02 1.890082423080952623e+01 4.417948326761138844e+01 -1.198262249973275857e+02 1.250542427380187149e+01 -7.713678313140212595e+01 4.780637960124575159e+01 1.622024468212433135e+02 -1.404093849435069785e+02 -4.213366588339120966e+01 7.024650936957907987e+00 2.859981741703145453e+00 4.125556176828424526e+01 8.173248513771876844e+01 7.893731897940545750e-01 -8.595187993131688131e+00 -6.813557336444574730e+01 7.615245196421291496e+01 -3.184944296713256406e+01 2.560356791118876174e+01 1.012419975047813239e+02 8.583843551865365384e+01 -4.162601364064271081e+01 5.621719926949278801e+01 1.434849650809388493e+02 1.131092398587227308e+02 -3.891352776472003505e+00 1.695281802763763892e+02 -1.085465713318208145e+02 4.059819222640316916e+00 -4.081769796118646809e+01 2.012883847543383808e+02 -2.065621763724959337e+01 2.820994793260984679e+00 -7.473121062173787266e+01 -6.958299926659307744e+00 -6.211230583940169936e+01 6.597397511551120886e+01 -9.203297541842022156e+01 6.679436992079617141e+01 -4.649250064290266238e+01 -4.841714337392390632e+01 -8.921810166322438818e+01 5.164504188458447231e+01 -5.322254440289352573e+01 -1.453378240272461426e+02 -7.732900449025812861e+01 -1.018088924854271227e+02 -1.530250117106024845e+02 1.322935928550832898e+02 -2.671822182787437328e+01 3.118777403597762543e+01 8.727043352304544044e+01 -1.012607755209872806e+02 5.542638418915487364e+01 -4.215855511167765712e+01 -6.754634956977056959e+01 -8.772369181963694018e+01 1.977808387269624006e+02 -5.522146167422857133e+01 -4.819635631450825741e+01 -4.591045519981256007e+01 7.824667572931180359e+01 -4.031528966622950350e+01 1.342754943867420536e+02 -4.859153458026754890e+01 5.366035934872458313e+01 4.421892151662543569e+00 -7.892030461765253335e+01 6.694563298801156748e+01 2.699963760252150564e+02 -8.960941233946530815e+01 4.620590007762476148e+01 -7.424349994501855576e+01 4.404091441174379185e+01 1.277181260540229317e+02 -5.006177762405360454e+01 1.422946561554309319e+01 -2.623293501219066215e+01 -9.926195982671944762e+01 -1.689343948004458085e+01 4.192899314457611659e+00 -7.603470095741543311e+00 -1.454622980969503843e+01 1.150869902807882283e+02 1.269677395767300823e+02 1.815894247770858954e+02 -2.964036683199452114e+02 3.720363238298396169e+01 -1.536278781093361445e+01 -6.071750718805845537e+01 1.756682598019504269e+02 7.417410557599650645e+01 -2.549169734440930757e+00 -1.129427452305750705e+02 -1.059761924502334551e+01 9.751895740570432736e+01 -1.309118224407338289e+02 -1.642864142285874323e+02 1.046276769409087848e+01 4.133289971176322553e+01 -5.948056032583846786e+01 4.097092297261149696e+01 -1.043571650788019269e+02 -1.474694795407720562e+02 2.055485609390804314e+01 4.735190309948405485e+01 4.702656942008736962e+00 -8.134521507378993022e+01 -9.124321886026008599e+01 -8.217882066219863191e+01 -8.537917379083043556e+01 1.234981852438108696e+01 5.541956036428418741e+01 1.136611318216251618e+02 7.748179516638468556e+01 8.734985107020156647e+01 1.048971169056842569e+02 -7.298753465567227749e+01 -8.053450814672191882e+01 6.884935786692022930e+01 6.693338735670306505e+01 5.784176389331107515e+01 -9.163470229865273708e+00 -8.896948877579796999e+01 5.275832329683716893e+01 -1.750138599719369097e+02 6.566864172420270052e+01 -4.351763066654790180e+01 -9.428564762358065821e+01 7.257872163049361802e+01 -1.678934186314485899e+01 -7.543364331018403846e+01 -5.620654309125117010e+01 -8.977248480273734899e+00 2.376018324523859064e+02 7.532416245513196884e+01 5.371439478155463121e+01 -1.017440701644642616e+02 1.452827831879080804e+02 1.048068195649797474e+00 -8.857344925758549437e+01 1.527748016038968046e+02 -1.511424607726339389e+02 1.547493877359076819e+01 -3.189720785378137080e+01 -2.179733811183857597e+02 -1.322472220261831808e+02 -8.650037540285333648e+01 -2.913832504646051191e+01 -1.182217863277719374e+02 5.716235904048122762e+01 6.446224320837893629e+01 -2.737401157047411715e+01 -9.895477937568352900e+01 1.121607071319496498e+02 1.171980473608436029e+02 4.583210600019795322e+01 1.736264270748717209e+01 2.593370349912552228e+02 4.331002468244091830e+01 -1.185801138198575870e+02 -4.473714830837556633e+01 -1.675490048490618449e+02 3.163437064492359241e+01 1.521489396128020246e+02 -1.472056108646381745e+02 1.307788270370190276e+02 -9.031242409541137306e+01 -1.879913488058684834e+01 -7.992249679428973241e-01 5.251089837500140334e+01 -1.149498951484381593e+01 -2.266716177360316209e+01 -1.869485547277576742e+01 -1.259170286336445770e+02 4.608832075409063833e+01 -3.013802892259645461e+01 -1.284125176784677080e+01 -1.065260593805040479e+01 2.245172770392981363e+02 1.731443990999967468e+02 2.311530358349043865e+02 1.309677600942455911e+02 -8.603063353001751068e+01 7.468667796689176441e+01 2.101441672478094347e+01 4.723243191329745372e+01 -3.942606964285234739e+01 2.538384418490083192e+02 -2.317594680573650479e+01 -1.359062093700405853e+02 -1.485120695783810163e+01 -4.556635651324680936e+01 -7.691673010775842556e+01 4.289724084609595423e+01 -1.164254429164730986e+01 1.808390182956728722e+02 9.179838660725118871e+01 4.063686125829680407e+01 9.741722491129951322e+01 9.406696820749009191e+01 -2.285339013288342969e+01 1.388323778160878135e+02 2.637865411990954811e+01 8.910173965496319681e+01 4.741823964447074502e+01 6.885892788300012946e+00 -1.151062165108336472e+02 -1.152255015623249648e+02 -8.954503833574000282e+01 -1.547848313803887521e+01 8.622295539316975521e+01 -3.045995419259433490e+01 9.834561750953362491e+01 4.358624301450592498e+01 -7.232820863410709933e+01 -2.978189701403986334e+01 -5.826766285138072021e+01 1.747367482790609117e+01 -4.604424153293528121e+01 -1.114361464684014607e+02 1.208507784047165927e+02 1.206901889513377029e+02 -7.854844196323573158e+01 5.371954862251739904e+00 -4.508320850019011772e+01 -3.238852662470616650e+01 -1.127996256460765601e+01 -3.107324547740294918e+01 4.425336848296302605e+01 -1.398083174691359716e+02 -5.256758720737084900e+01 -1.510039837373116995e+02 1.731226495270205987e+02 -2.006828032320474620e+01 5.856020034662791574e+01 1.183647192531374337e+01 1.435088178297870058e+02 4.433061220025425797e+01 3.547622316591678526e+01 1.533924181161985132e+02 -4.894221023654539238e+01 -9.698953830920106611e+01 2.703451730770626327e+01 -1.569464093249663108e+02 -5.304360503953692785e+01 1.016246255131931804e+02 -1.266777963980894413e+02 -3.610053008420619136e+01 9.063240166163895140e+01 -9.376028598988543195e+01 -8.880686204943148709e+01 -8.202449530045566917e+01 -6.331136570417903897e+01 2.472281733340397807e+02 1.967012446182423844e+02 1.021868906147974627e+02 -1.014073998776686238e+02 7.425286126196722591e+01 -6.568423112141509534e+01 -3.115519762306261597e+01 1.648303134664420000e+01 -3.200357982769560294e+01 -9.295255278990427428e+01 -2.778117366833601665e+00 1.462787089938852425e+01 1.078594384080067670e+02 -1.273584286881243344e+02 4.158990229919162829e+01 6.318845752608136479e+01 3.419194645131465649e+01 -8.976559274016200618e+01 -1.471182708267468229e+02 1.912821515651334323e+02 -1.762780627583645909e+01 2.493704886298101187e+01 1.550075859389145592e+02 2.638921144893797788e+01 2.744338864383098908e+01 -4.408219783527597713e+01 8.767309093567918410e+01 -1.348725621278006201e+02 -3.046314958890906865e+01 -6.071036808950071695e+00 -5.280384991717727416e+01 6.226993059362291305e+00 2.101726820502757320e+01 -3.538540259829330381e+01 1.351112014261769012e+01 2.112806180833192968e+02 -2.708720328608716699e+01 -2.768122349932900050e+01 -1.004763926902853086e+02 -1.617267032706184215e+00 -7.978967574105529081e+01 6.300680040874822474e+00 1.107578649206646730e+02 -5.140018765858025773e+01 5.969419119147184816e+00 -5.365342247861618574e+01 3.274357409498216409e+00 8.613884879962442653e+01 -1.144425747427837905e+02 -9.566103664975314302e+01 -1.013325026312816846e+02 7.047775645193975436e+01 8.549599066600707431e+01 -9.110019333123035778e+01 6.187276861884102175e+01 2.551897021164839074e+01 3.821027596825528150e+01 -1.752344820659627800e+01 9.022641531474822330e+01 7.870804192314631109e+01 -7.629024045113175134e+01 1.165136118516049279e+01 7.986363994878112749e+01 7.193013766568404321e+01 -1.965934052556622547e+01 2.465017232515510770e+01 -1.309309811040269835e+02 4.792865900413605118e+01 -3.236849209882684875e+01 -3.227227060422342220e+01 1.710014913137636370e+02 4.682038402802683663e+01 1.186815238620617805e+02 1.885615236925569036e+02 -1.359364987403579619e+02 1.472114178496210570e+02 -6.264629887013417431e+01 -1.334369541415669573e+02 8.127311115669085950e+01 -1.323542955662656198e+02 -2.835115371697368047e+01 5.568474584607005795e+01 7.946917789962581580e+00 -1.660441530891285140e+02 8.320054964785995821e+01 2.491782467704245008e+01 6.821185565325350808e+01 3.584541898367400847e+01 9.346409086069645156e+00 -6.626312068257581700e+01 1.142390788934145718e+02 5.380172645846302970e+01 -6.132797037407283369e+01 -9.995772697177919497e+01 3.841750950317677393e+01 2.539847568430776903e+01 8.135700882866659356e+01 1.814591937166204048e+02 -2.430394363752058240e+01 -1.087584417896957092e+02 -8.360444946523612941e+01 -5.066281936290275212e+01 -4.376454621641679665e+01 -1.448474490647820403e+02 -2.223721054481806547e+01 1.278696246216049701e+02 7.357594855148238366e+01 -1.208022260741963265e+02 -1.480030024509941882e+02 -6.721023679519819893e+01 -7.533758527994672249e+01 1.449325889844324422e+02 -1.682811958150071519e+02 8.545684247233249664e+01 -4.547710476579861272e+00 -4.248469918887789021e+01 1.311752005139914345e+01 8.997120425797190535e+01 4.891774781829567331e+01 1.364237740479660488e+02 -1.570880049667166247e+02 -7.992493757496349360e+01 2.504536513360073968e+01 4.138626911508286099e+01 2.034501614598648302e+02 1.435831820362110136e+02 6.469995519752524160e+01 7.117000625797074065e+01 -3.363146906046075202e+01 1.498306598004613477e+02 -1.770441822057803165e+02 -6.260141700646769181e+01 -5.298361820409083123e+01 -5.111936501089993357e+01 -1.019148583729621151e+02 -1.480087705857144975e+01 -6.773761060533520606e+01 7.023516303346563916e+01 -9.024845201354539270e+00 -5.730220103694044553e+01 -6.141910181946690273e+01 1.778317478627346873e+02 5.826546820557079087e+01 -1.355467148353519491e+01 2.061522004593501833e+02 -1.069322520958369154e+02 -3.486314007309408680e+01 6.608456997577155789e+01 -1.348804462181706354e-01 1.477658765518643946e+01 -1.234699107683693029e+02 1.738648020976812916e+02 -4.830405749533067450e+01 -2.654623570971006430e+01 -1.082282025848854374e+02 1.241504761094066680e+02 9.454675584015060963e+01 -7.645083068101655499e+01 -3.710566726534570137e+01 3.842627016584332011e+01 -1.492877057922190716e+02 -1.861169627200325027e-01 -7.366059450619989946e+01 7.578409445401938171e+00 -1.065745744424024792e+02 -1.562896075415146129e+02 -6.968176196329511640e+01 1.460650553446376705e+02 5.573720460960631584e+01 -8.834253372276327809e+01 8.786522310106212785e+01 3.371299802944027135e+01 8.704960904424027035e+01 -4.149756969202626067e+01 -8.282610190559292107e+01 1.684841583584213254e+02 4.101048644324392001e+01 2.850946556077292726e+01 -7.188047119371930194e+01 -4.166743655720245698e+01 9.374294892313676186e+00 -7.061794467876212344e+00 -1.701649750133968269e+02 -3.408089800466515840e+01 6.340026676500013991e+01 1.098309191950012291e+02 1.532718727084265424e+02 -1.307350330881515532e+01 8.818792116531022884e+01 1.551972819398906722e+02 6.238053116250816998e+01 1.452812815191635138e+02 1.580111755943821805e+01 1.291262976509567579e+02 -8.253520886655607569e+01 5.243510231271218203e+01 2.880702688703243197e+01 7.454206186628773878e+01 -1.043528216565574240e+02 1.945555224847444435e+02 -1.264076719259399795e+02 8.672655516953524568e+01 -1.054242717376041583e+02 4.531529501167209162e+01 1.355094914763583347e+01 8.899215951381238199e+01 -7.225735294058804925e+01 -7.406862637659428117e+01 -1.092505153909061200e+01 8.736253272661072344e+01 -2.901214781687433941e+01 -1.597714410752645442e+01 -1.924072787335668266e+01 4.640579764278854213e+00 9.613035493790916064e+01 -6.125279732643638653e+01 -2.649117406068566272e+00 -1.896204706054979283e+02 1.192554799398397734e+02 -1.220022522413957660e+02 -7.216428215789713363e+01 -2.298176991560998772e+01 -1.054510422774391856e+02 -5.191841278665601322e+01 -5.722841780457855521e+01 -1.923376893713191294e+01 1.330681275526591776e+02 5.280289697484761291e+01 9.807705090483115384e+01 -1.329252553913663064e+02 -1.353395106823900562e+02 -2.799737777372218943e+02 9.980179390913762916e+01 1.018013397214444495e+02 4.133020749971347385e+01 -4.147623686134476628e+01 -3.630771270595541012e+01 -1.793900260067975410e+02 1.426887347807821982e+02 -1.049069024210505034e+02 1.044711749270753529e+02 -1.554873520191887621e+02 -1.398588062423531220e+01 -5.408917313451663489e+01 -1.164899518474876317e+02 -4.503400465408586939e+01 -1.224607736513688039e+01 -9.052698704555054121e+01 -1.010711924255341359e+02 -1.207448679913767542e+01 6.953980981634492764e+01 -1.217328635228911082e+02 -1.528957269049039169e+01 -7.204836916804777047e+01 -1.283813667954552216e+02 6.454088667231434151e+00 9.292223534791163786e+01 1.617429915752904037e+02 -1.862278769420527169e+01 -4.499786172610500046e+01 -1.213480154098209738e+02 -1.599201688332302922e+02 1.014566348607969104e+02 -7.109995498868462960e+01 7.721777566973845808e+01 9.188101783498400010e+00 2.856506806367964657e+01 7.219696396449211306e+01 -8.287736145822586309e+01 8.085200882885386875e+01 1.127353710175611781e+02 1.540252622157026678e+02 -1.139669653011676047e+02 1.016760332118912373e+02 -4.673725338034462595e+01 -8.881398434131314445e+01 2.099076391478736525e+02 4.814162043375178968e+01 8.164804703892876603e+01 2.075944930327586135e+01 -6.188508270491968943e+01 -3.417289658122541596e+01 -2.058001913109708880e+02 1.033367344872649625e+02 7.971086638443630079e+01 -7.404747369032868676e+01 -7.152468806265393653e+01 1.420247050616643776e+02 9.886256518739432408e+01 5.000580696131724068e+01 7.440948334388812668e+01 -7.684482386658308961e+00 1.009422505469423044e+02 -1.013209206268264353e+02 1.822976789774290296e+02 -3.862307265678860801e+01 -1.193485723766097379e+02 -3.688200403333780031e+01 7.017911146649446152e+01 1.441236236159186035e+02 1.258115161377647340e+01 1.700384394367320340e+02 5.105162395460121871e+01 3.290128358033431510e+01 -1.088839252693340995e+02 4.381000355484975017e+01 -1.222739708147342270e+02 4.667567519791614927e+01 3.774678274308995896e+01 -1.206889587397349004e+02 -8.318829423948672286e+01 3.898898240691853800e+01 8.535353046868586091e+00 -2.270709852790296068e+01 4.096999910605338613e+01 -2.093661046397785697e+01 -6.171669341040681900e+01 -2.565232393717320747e+01 -2.193638144150086688e+01 -3.895388200317179184e+01 1.835740521264187208e+01 -7.877345516540395920e+01 1.163531789988274454e+02 -7.266536329465596111e+01 -4.125851678885228857e+00 6.417910890677329405e+01 3.793621962616791965e+00 1.561476968582135605e+01 1.562120519703920607e+01 -1.145639434349255623e+02 -4.312519346044907387e+00 6.362734954532013631e+01 -2.263786274952317683e+02 -8.303129951719857615e+01 -1.102356069096143614e+02 4.284141422777311448e+01 9.411104777820231959e+01 -8.975721555679847086e+01 -1.642103735819829353e+02 -1.811282115558812222e+02 1.951982932987263553e+01 -1.417315146909263888e+02 -6.186810200561356332e+00 1.442963997007075818e+02 -6.917938391617255434e+00 3.627858232721210641e+01 -9.656801312679188243e+01 7.794162786011260380e+01 -1.156519227552494442e+02 -1.504963113869855640e+01 -2.952806130974142107e+01 5.613679063408721248e+01 -8.619057213068652246e+00 1.029499344720338172e+02 -1.189036895869881505e+02 -4.876832385730377695e+01 8.434654885496452437e+01 6.437952592569608612e+01 -8.009873530742530079e+01 -5.293316360543793309e+01 -4.802557949588986475e+01 -2.813830933106941075e+02 1.881299060382490325e+02 7.393326741360785093e+01 -2.290482900836182267e+01 -2.882333163042100210e+01 4.033591833284059192e+01 -8.167110670878069811e+01 9.660117785024955595e+01 5.870276006730924934e+01 7.950745946104429152e+01 -8.158682938982040866e+01 -2.571407424604453240e+01 3.231619945572860075e+01 1.685573234901192663e+01 -4.154640308083948241e+01 1.531535529039212520e+02 -1.675481830181719189e+01 3.432620619040829268e+01 -2.228052934418842597e+02 -8.205381407964144103e+01 -7.088395770309230670e+01 2.231377476620745881e+01 1.057934256834665092e+02 -2.245506220363091927e+02 -1.812275116015833305e+02 2.147372884885830047e+02 -1.023622568141011513e+01 9.305233404122137131e+01 6.069865974349807658e+01 -5.361738640229893349e+01 -1.269108666658776912e+02 -9.218982606469197094e+01 -4.868121931180287021e+01 -3.624607922202618226e+01 -3.793777623553542355e+01 1.563439117262378275e+01 3.603874722762164851e+01 1.616477164431805136e+02 1.193957112143295660e+02 6.765235486805821097e+00 -4.268400533686522280e+00 -1.537927926676084667e+02 1.159147336066251199e+02 1.543248475016725081e+02 -1.002246469414264709e+02 7.141990518061298587e+01 1.654319846510625247e+00 5.321677565982792402e+01 1.214699805462141740e+02 6.872780117717329063e+01 -1.298665229415699400e+02 1.561842127353315135e+01 -2.847253390577549581e+01 1.079841310208637850e+01 -2.239221655550496237e+01 4.393229800890851067e+01 -2.525817947058826860e+02 1.755973153122093322e+02 7.047400028871141586e+00 1.545440807334837530e+02 -1.020620686861048654e+01 1.029450544509014378e+02 6.946989725473875410e+01 -4.071532522111508001e+01 2.904679492628650905e+01 -7.066244741071774627e+01 -8.636684372765012085e+01 -6.992906306331208555e+01 -3.111765503673920819e+01 4.385066130651311056e+01 1.069568009744765220e+02 2.764569954310695721e+01 6.036720187360496226e+01 -1.018204735898033135e+02 -1.332136749800164637e+02 -1.309892073269582724e+01 4.506343402553476096e+01 -4.416250300918228078e+01 9.191437407557414474e+01 5.397856461861576349e+01 -2.686358688294640018e+01 2.910377037090794872e+01 5.967335378879450758e+01 -7.008322806328101251e+01 -1.299954247145641943e+02 1.381160765062070652e+02 7.596499046831709734e+00 4.875917166155151250e+01 -1.452299935064322085e+02 -5.195825900145094067e+01 -4.274040985547556959e-01 -6.402656989777739227e+01 4.147947265529452032e+00 5.480033363954393621e+01 1.815186693263435700e+02 3.810242016463910630e+01 -1.067183499017584936e+01 7.036606963412353366e+01 -4.429177554828702057e+01 -1.061679901861854773e+02 -1.346402423458356736e+02 9.125279537379419992e+00 2.447508719993074777e+01 2.322811032644844076e+01 -5.545674775277373669e+01 1.178058431931264636e+02 -7.882394021858821986e+01 1.251615015419714751e+02 8.515238435853031262e+01 -6.345447835527370017e+01 -8.269889271869469383e+01 8.218276702229761099e+01 1.993944643012276430e+01 -5.126726935459507928e+01 -5.256154025449582434e+01 1.335196267326550128e+02 5.598775523427288903e+01 7.805593519225530486e+01 2.554125089998250431e+01 -4.108284610994681429e+01 1.049612688036393422e+02 -5.332697876598830078e+01 5.510762042311900810e-01 7.481760265939705334e+01 9.736505641689163326e+01 2.498373606461794338e+02 -1.713224169270786774e+02 1.573894365942512934e+02 -6.607973197753972272e+01 -1.490155350182662097e+01 -2.457259071237191250e+01 -2.028702779902012665e+01 -5.395276741247898400e+01 9.103130171758651557e+01 1.802071063734712197e+02 -1.163313777059413496e+02 3.030229737503550425e+01 -1.243511643753593461e+02 6.880059645808786684e+01 -4.360081015670730409e+01 -7.946022543445519659e+01 -5.288317362757129558e+01 4.042484189294901142e+01 1.901284302791310665e+01 -8.027671987113131991e+01 -1.385158454269839297e+02 2.039705420847939621e+01 1.548682575199531470e+02 1.404190976880879127e+01 1.793925320756592328e+02 7.332850138594956491e+00 1.324120501592853429e+02 -3.402806127026133964e+01 8.929739826815357162e+01 -7.031217350504142871e+01 -1.111520022148943241e+02 4.867918059614575554e+01 -5.712884903336335896e+01 -7.736887799611403693e+01 7.180067163821449583e+01 6.375248394944724950e+00 -9.294031329841779154e+01 -1.484829398172758204e+02 1.459047268876456087e+02 -8.798012950029846024e+01 -2.334472297122205831e+00 1.185419768059455521e+02 5.727679418744556727e+01 -9.698749781188264762e+01 1.051681156188649169e+01 2.786391838508392880e+02 5.267043514694027806e+01 -1.558854952980745452e+02 -4.718053524832488677e+01 -6.080862267999707882e+01 9.512519276721700834e+00 1.063958705195342134e+02 -1.023885830965548820e+02 2.135941453190253014e+01 1.291280799841150326e+02 1.858189598934927389e+01 -2.091421252798621992e+02 4.782104958012707385e+01 7.474064571102775290e+01 -1.345742753678189985e+01 3.246939690048358074e+01 1.640686685670605383e-01 2.232842068921654644e+01 2.746817978467505839e+01 1.147255924184537434e+02 9.710786714304347811e+01 1.546281410898055952e+01 1.476041111167387214e+02 -6.341370155748783333e+01 2.443224313055038124e+02 6.442752070587781077e+01 1.403998666297761986e+02 -2.176128373029356311e+01 8.924129306053882260e+01 -4.850416367999258682e+01 -1.450331366406785492e+02 2.592835361393638394e+01 9.413978848965297175e+01 -8.677994884570257739e+01 -1.037933648887416496e+02 -6.593852060220322642e+01 3.628284180698881300e+01 -1.131708126001077233e+02 7.403484974828971588e+01 2.779576904007483762e+01 -9.673900578700332176e+01 1.882241231620433268e+02 -1.165650255601256902e+01 -1.008629361420637025e+02 -1.328772800887170646e+01 -2.025427998570210519e+01 -1.389775106517315351e+02 -3.966794106472178782e+01 6.096678754730417893e+01 1.306269209759643672e+02 2.878238763111782816e+01 2.651135290213027318e+01 4.439301774873395345e+01 -3.540966496715963530e+01 -1.443317903353272982e+02 1.574483809253972666e+01 3.069063245265137851e+01 1.319485324456603621e+02 -9.813157452117609481e+00 -7.546265497084382901e+01 7.256205550551969452e+01 9.717028548550141753e-01 3.156273626127708454e+01 1.380200589436634004e+02 -1.759478362271026413e+02 -9.205247688009885110e+01 1.236524792270605815e+02 -2.078136992568369976e+02 -1.771534939017008980e+02 8.767788240098767005e+01 1.483397099762455582e+02 6.108439770744389108e+01 -4.306815204082242943e+00 1.500162649803946806e+02 -2.114614741786083130e+02 1.032204129702445954e+02 4.082148726813642980e+01 1.224074167625144440e+02 -1.816648518259414118e+02 1.025978766835977893e+02 -2.720263797633807812e+01 -1.287820657678726946e+02 -5.127406491716295811e+00 -8.899937797682935070e+01 -1.564467506193051705e+01 -4.174805765211622166e+00 -1.186693585982782935e+02 -1.187894400104098338e+02 -6.026941926918105708e+01 -1.241748855347742619e+02 1.936007986165280101e+02 -1.551812206651734414e+02 -4.833572997462407272e+01 1.662040894624976772e+02 3.268439319111095642e+01 -2.851220938470970623e+02 -1.224537290758140102e+02 3.420156735437285533e+01 5.265225712026533245e+01 8.239838985885919342e+00 -1.489213503625332748e+02 3.437516477066927933e+01 7.222489736098181901e+00 -7.159938659443453446e+01 1.952854900624082291e+02 1.951347054793268683e+02 4.185122458406015156e+00 -2.008861714775641474e+02 1.213529927330593523e+02 2.962424815299468150e+01 3.660353350954026475e+00 7.377973065377430828e+01 -1.998628934850928260e+02 -1.329509474049006315e+02 1.358401803222821229e+02 1.056233268055355410e+02 5.096454401122780098e+01 1.379270844306461470e+02 -1.717133123857121859e+02 -1.970723171647971483e+01 -1.256148385477702050e+02 4.204515833772658340e+01 -1.000552429060468711e+02 8.386717799449205302e+01 -3.266605729860280150e+01 1.192962164796890789e+01 1.709178859391249716e+02 2.748879269552007187e+01 -2.538838510020068497e+02 -1.217395680690563182e+02 -8.028084976774137260e+01 1.522969385922231425e+02 1.207820412193537862e+01 -5.189353413682975713e+01 2.921934188198297022e+01 6.019470210205967931e+01 -3.810019651112105521e+01 1.035595857003961413e+02 -9.704115248328925247e+01 4.740418548069408189e+01 1.078171658716531027e+02 -3.420030452065319082e+01 -9.451816632103492566e+01 -1.092815027207070528e+02 1.153587436587242649e+02 -4.785283617788102362e+01 1.893252859669994166e+02 5.510223792408822163e+01 1.068675708801244042e+02 1.777062438805124316e+02 8.242298576389458731e+00 -1.197352424908054189e+02 -1.596402101759103402e+02 -1.099723864502710455e+02 4.093976484643268066e+01
-1.279243002479711677e+01 -4.553920362297890101e+00 9.742144554148823943e+01 -2.154926076770437078e+02 1.462278006702966024e+02 5.973873485450933174e+01 1.431454728140457462e+02 -1.215251266651452937e+02 -2.604838263615489424e+00 -2.263860183248106850e+01 -2.065047565184787288e+02 3.077598256256728249e+01 -1.723476311090432489e+01 1.150710971907826803e+02 -1.176973631963684994e+02 5.806074576703207413e+01 1.178630869315766319e+02 -4.323382048206027406e+01 -4.666087562089163754e+01 -2.539314626423761823e+01 5.807225218332580852e+01 5.933652400529854276e+01 3.051276790644950410e+01 -2.187317406734885026e+02 -4.851345261449524315e+01 8.612127304663844996e+01 9.325074339308400795e+00 -9.761301895631435244e+00 -6.257895604635540110e+01 -1.457659750966940315e+01 6.898948175458907883e+01 -1.367795093214520250e+02 -5.827518947741248212e+01 8.440485925068779594e+00 1.952598378405459982e+02 1.994774385602634368e+02 -3.022781112346298471e+01 5.256846973098543430e+01 -2.460742626280131851e-01 -1.313565087492087571e+02 9.027281225859293556e+01 1.008550923501792482e+02 1.020682666312723939e+02 1.098379483259303946e+01 5.820626903725456458e+01 4.526028766773349332e+01 3.656836227480754786e+01 2.761504267886110497e+01 1.037279161601500448e+02 8.437689678589165965e+01 6.168249940888021854e+01 1.533106098204847569e+02 2.330740607131646129e+02 1.839659926670340440e+02 -5.562489068331578324e+01 4.634019942676527393e+01 -6.044750904520574153e+01 5.303903886777829513e+01 -1.807752845740853616e+02 5.314165879838708406e+01 -1.925808898773718170e+02 -1.586940958066063274e+02 1.218246997721860581e+01 -8.712435241476558900e+00 1.594487766392220465e+02 -1.956228739075068859e+02 7.080275782390147299e+01 2.162003274968738253e+02 -6.946995966522228727e+00 -1.832342767683720126e+02 3.342717045884315041e+01 1.854864000576892522e+02 -5.748636758960803661e+01 -2.507573897171685644e+02 -9.648816422750441291e+01 8.374026534552559298e+00 -2.164689239435130617e+02 3.018569922571082742e+01 -1.688518694682862815e+02 -1.746087427442698754e+02 -5.380161814310749691e+01 1.434606464726155934e+02 6.537201285377697957e+01 9.993446187156669325e+00 -8.346920901871776266e+01 -4.010421231849132795e+01 6.000560988920469185e+01 -2.185811473954869086e+02 5.094348563738385138e+01 -7.057829505215421761e+01 -7.359115121875073839e+01 -1.665155188533461512e+02 6.125681743351391617e+01 8.732143392240698176e+01 -1.528950513793075743e+02 1.627766399658138994e+02 -3.756899555399909474e+01 -1.594122994715836583e+01 8.257151547831743699e+01 1.473090047131863969e+02 2.048531482736845888e+01 1.427227998309376744e+02 -1.743759122183159604e+01 -8.548073969500450175e+01 -1.847845265589749175e+01 9.525134370290575703e+01 4.358356017064262744e+01 9.480893021758764405e+01 9.147149636795110439e+01 -8.052823391175779477e+01 -1.646777794636321346e+02 1.192595601812839874e+02 5.257338419013989039e+01 1.572906145927620614e+01 2.963268981783437539e+01 -6.583966974022295915e+01 9.308414536843775977e+01 8.711040303081944103e+01 -1.330246418921583640e+01 -6.907997367668887989e+01 2.977178114221372596e+01 6.092929622407004864e+00 -5.961895130133942189e+01 1.644309598055935169e+02 -3.183489199452645479e+01 1.179245289297942634e+02 -6.797922329681476583e+01 3.723218338241207448e+01 -3.498937223401891572e+01 8.680062241061011719e+01 2.277008423822576333e+01 1.121309885389940320e+02 -1.125700308715078677e+02 7.213694131307184421e+01 1.198052003327040751e+02 -4.337054001339655684e+01 7.417087401124290658e+00 -1.238885453970979000e+01 1.133792488072460856e+02 3.532423627257457621e+00 1.636886739391425181e+02 -1.372893637946169179e+02 1.132564778817781956e+02 -8.863483195426637451e+01 9.303114494421244274e+01 -1.331082645842062391e+02 2.866194769357722194e+01 2.404504594968676656e+01 1.733059067760675420e+00 3.527871398298258754e+01 4.468230008179074275e+01 -1.203492307355852731e+01 1.057669412311385493e+01 1.050410398358549315e+02 1.236580127004288698e+02 -8.427194404605403122e+01 -5.265821445501957498e+01 4.600688753104519435e+01 1.476695777121703745e+00 -1.331734487490740548e+02 -5.360623214017261517e+01 -3.443629682843800310e+01 4.754724615834446411e+01 -6.372393909198332551e+01 2.228535882002493906e+01 1.560094268377386015e+02 -7.729818503976146360e+01 7.865324532035397453e+01 8.180857125661188434e+01 1.097101238197152462e+01 1.201679681614310056e+02 6.122389609891887119e+01 1.636354672506627708e+02 -3.370636636472318770e+01 1.095294291853592199e+02 5.413069572216466696e+01 -1.565236392779461916e+01 1.989505631324593651e+02 -1.352874794703742793e+02 4.767101098060905429e+01 -1.829282024347399442e+02 -8.209874390359645702e+01 4.004037791275990799e+01 -7.046268743451875594e+01 -1.520518631374443146e+02 1.945591440410431403e+02 -8.373627981631722150e+01 -4.636895636335466975e+01 -4.518354667986886142e+01 1.188843186517684387e+02 1.902007971555295853e+02 6.323353420990044071e+01 1.428341400240792609e+02 2.143628751991817580e+02 -1.563479339831632231e+00 1.590985771909251127e+02 6.924140362897394141e+01 1.859860330641508028e+02 -1.228933387699833730e+02 -1.156463023245394162e+01 6.208464406815443759e+00 1.855452914742007806e+02 -8.875776818527168643e+01 -5.912010933142073554e+01 -5.171164899940620074e+01 -1.309227269955842701e+02 4.563517009204050900e+00 -9.859595109758159026e+01 1.506073980277070348e+02 2.300365861573187942e+01 1.171458869746065368e+01 7.063579238830023144e+01 -4.800740154303430707e+00 1.142977166666247513e+02 -1.552107122608900909e+02 4.437767879983439201e+01 -1.668564615213251727e+02 1.147155343617115335e+02 9.387671805483682874e+01 -6.573454304535603399e+01 4.571861926276913124e+01 2.326502776385972027e+02 -2.977055567496849520e+01 4.069049023723401604e+01 -3.192624934006130033e+01 5.660760436867926160e+01 6.278108862185791850e+01 -6.139270468627899824e+00 9.954114346868161078e+01 9.911143975030471154e+01 -1.893775016501792834e+02 -1.496837136479895776e+02 -1.170609894348404936e+02 -9.210603501108668212e+00 -1.462853415300239703e+02 1.128637323598179734e+02 1.077619835225252416e+02 5.762834321167644447e+01 1.090458134835956727e+01 1.539955579097297687e+02 8.199874460851349056e+01 6.593268926593245283e+01 -9.922204919634627629e+01 1.488484827128534675e+02 -3.517656131815452003e+00 1.067901618468005012e+02 8.614340812978014128e+00 3.587810609400714412e+01 -7.389905766164656598e+01 -8.859156298494374937e+01 6.989081844153828627e+01 -3.770626961849611547e+00 1.427167360744942641e+02 -1.225801092824607608e+01 -2.776762653884993437e+00 4.475458453068196008e+01 2.208190670217895146e+01 1.379993261541716265e+02 1.433119798485435048e+01 3.498216834535379860e+01 -1.509067958860181022e+02 6.420622774708449754e+01 1.303506004622613830e+02 -1.716323431762824825e+01 -2.223065020014025208e+02 8.227373231240798646e+01 1.326337828806983055e+02 1.983192174344666014e+01 1.839489375846234509e+02 -4.138060927925934607e+00 4.169301657327700639e+01 -4.240229483061919780e+01 -1.346904108031276053e+02 5.441658688871266492e+01 -4.610627491792111954e+01 -7.863392048254004862e+01 4.001098936609214007e+01 -1.792868183646906175e+02 6.951637117479590700e+01 1.594938023042752491e+02 -9.815710833028509796e+01 1.677388768615615220e+02 -9.461889841622416952e+01 -5.781543297048147956e+00 -1.021707365151166691e+01 7.426058255424786125e+01 -4.516055519549229302e+01 -1.043882736688427428e+02 -8.578402500619058912e+01 1.411461988803508234e+02 5.721729006877065871e+01 -1.275682784792713704e+02 4.277480011080875499e+00 4.199966273475075695e+01 7.985521990658168079e+01 -3.900423968905676730e+01 5.797585335706217791e+01 -6.669041659536654265e+01 -1.569326446342829513e+02 -3.347333507670034436e+01 1.362539110003069140e+02 -1.096077440929779101e+02 -6.175254009474587136e+00 -1.573795056145935689e+02 -4.674419296287746661e+00 -1.409464538374701306e+02 3.182171940659636888e+01 5.816886831147208170e+01 -4.860815432911480372e+01 -7.954999554965851871e+01 5.447295074715981400e+00 7.183991878404087572e+01 -6.542898389062214903e+01 1.300087115982551893e+02 1.018870609298055285e+02 -1.231842421515046198e+02 -1.017667723582387538e+02 1.303256865002779534e+02 6.879018854942341932e+01 1.448784614019627384e+02 9.647093981738440505e+01 7.823549442516647900e+01 -5.810996886296670993e+01 -7.879433664332918852e+01 -7.425614532773612098e+01 1.970393699667408782e+02 2.947621079943096589e+01 -2.400019640880458738e+01 -6.596316597254974567e+01 -4.808449065672752454e+01 -1.263387862683075582e+02 -1.585080454394727667e+01 -1.683236757626276869e+02 1.199358301508847120e+02 4.410726926169974860e+01 -1.105167483148190399e+02 -4.642887671744992417e+01 1.148479508150985993e+02 -9.296215858242393892e+01 9.863345244044658955e+01 -1.136315146429576686e+02 -1.129565876112095779e+01 -9.159449277438335457e+01 8.606598233759041250e+01 -4.073131794576719500e+01 9.847578263489049633e+00 2.814618666679360004e+01 -1.214321846053129406e+02 1.198379292451449807e+01 4.637766997693267257e+01 -2.143034009970032727e+01 -6.590580962770587803e+01 1.942164757034607874e+02 8.288459638734293833e+01 4.515327671586854308e+01 -3.010927941169986255e+01 7.688230291689767171e+01 1.606575480882709428e+02 -8.840668260939784773e+01 2.007831409385265715e+02 -1.275788111177604520e+02 -1.762643257316190954e+02 1.454779113967970261e+02 -2.242423962824146884e+02 -9.104342817124089215e-01 -2.347427329466551669e+02 -1.465221859759407721e+02 6.878615792825007702e+01 -1.395398280040505199e+02 5.593830938559307953e+01 1.053778035218900584e+02 -1.536548109411349117e+02 -2.884085151341179909e+01 7.227740181272854159e+01 1.283344194176493716e+02 -1.783723468647517905e+02 8.385314978344428027e+01 -9.388895908051721051e+01 -9.440087132431765227e+00 -1.327683160089977399e+01 -7.624954094935563376e+01 -8.652637434458800669e+01 1.738171884807336198e+02 -2.080705708242572527e+01 1.294547077309192051e+00 1.248361669461872197e+02 -8.314488895777009247e+01 -3.300768420151122484e+01 -1.032610455516524581e+02 -4.682235417445141223e+01 4.938452302069069155e+00 5.694131774605271090e+01 -1.296541865107332683e+02 2.277742740880776751e+02 -5.176770335050803595e+01 1.178454380197565854e+02 -4.693429899852280585e+01 1.151588295380678346e+02 1.338345150327945703e+02 4.611866137642949326e+01 1.174345959054160744e+02 -4.159102016427447523e+01 1.346890548203099911e+02 -1.506115125366098084e+02 -6.294684336066428898e+01 -6.061614593833974141e+01 2.462083165746014757e+01 -1.562435327711026503e+02 6.983944388736976805e+01 -2.969597923635738113e+01 -7.957106133474454168e+01 8.625572083873412055e+01 -1.455027901642485517e+02 -8.784999506944069481e+01 -5.070169203420305593e+01 3.184730667681890637e+01 1.249983004089621375e+02 1.125036536460272742e+02 6.653380054626032347e+01 -1.502765135752489378e+00 1.684348984585573135e+02 1.179901050933185616e+02 -9.098618252039237575e+01 -7.521777487726639322e+01 5.311412555929798174e+01 9.577213997383076105e+00 9.434731180359158031e+01 1.605644515110053021e+02 6.798113894982793681e+01 2.353854191325604361e+01 -9.842869550236294174e+01 1.653900867721747545e+02 -1.094359621142556591e+02 -1.591109427815761990e+02 6.327650246636849829e+01 1.073344214033706976e+02 1.891619976379226742e+01 -1.336388192773985111e+02 2.859268366137697015e+01 4.080855861821335395e+01 -3.493674180635626958e-01 1.259853938930386050e+02 9.406051515296344689e+01 1.646327760145733876e+01 7.536288414472330999e+01 -1.028681552387340332e+02 -6.123168003657784020e+00 9.458720890618742771e+01 2.855749908008607463e+01 -6.253356889491393389e+01 1.904539085820866546e+02 2.222205955111084563e+02 -1.206267065526806306e+02 -2.656505151457816183e+01 -2.020231715618391490e+02 -6.937954927197407073e+01 1.504722015225682128e+02 3.233718741506507843e+00 -6.822067866113434320e+01 1.573639215917228853e+02 -6.003884613676221704e+01 -1.543200042164429249e+02 1.312016467939920972e+02 -6.454253000589963563e+01 3.315953273694923809e+01 8.292510460409582151e+01 1.324879036819205602e+01 -2.288321640524220015e+02 4.064987351390561088e+01 -5.930555564227053544e+00 8.654749278089670383e+01 -2.263221369100955371e+01 9.708625251531569234e+01 1.632395559305735233e+01 -8.131970033690772937e+01 -1.967240851904358934e+01 -1.682763903244005235e+02 1.104032112267027941e+02 2.427802327476824829e+01 -3.995757308552094145e+01 -4.973544301052676531e+01 -6.041526760802984342e+01 3.949190261721871309e+01 1.542965433856191737e+02 1.274055354623151430e+02 4.132597952540011477e+01 -1.899800304723949864e+02 -3.724902020977857120e+01 4.207724566393441279e+01 1.126411906896273365e+02 8.370795834436245286e+01 1.481968884798780373e+01 -1.785948342322017481e+02 1.264133378572964403e+02 -2.148140508246351317e+02 -1.975966309605351228e+02 -1.753647619068828822e+00 -7.082278665168317389e+01 -2.316288023823359410e+01 8.363948153636535210e+01 5.368568464798368467e+01 -1.067459911869468385e+02 -1.454248057380707166e+02 1.399766281992696726e+01 1.187494350319721121e+02 1.984161089450082471e+01 -5.444467688404991179e+01 -4.959541683323774919e+01 -1.123713902592817604e+01 1.549321545758861873e+02 2.147006529189475188e+01 -1.697948208203683294e+02 1.254499479353178799e+02 -6.532912382501075399e+01 -4.079184831621375018e+00 1.505188827690536755e+02 -5.109768753968950250e+01 -1.915290251957561907e+01 -1.073736139587153531e+02 -5.864183477513577714e+00 -2.330782044743145320e+01 1.287026378326247027e+02 1.173537814824805139e+02 6.605657556035731659e+01 6.397508445062644000e+01 -1.828423735976740261e+01 1.321138162091608876e+02 -1.102276134217255219e+02 -4.157529369375010830e+00 -8.899629617920300007e+01 1.535367534569984969e+02 7.128324169351098760e+01 5.049844944760081233e+01 8.063695575777821034e+00 -5.210131296689015556e+01 3.360299468460529226e+01 6.571521456887107426e+00 3.575600200716750443e+00 2.355258322435220819e+01 5.841960259220623186e+01 1.663974891454643057e+02 -3.798216642714673696e+01 -5.079215037124739496e+01 6.527639974284410584e+01 1.130353899872337564e+02 -1.252479412621402588e+01 8.986590517994207516e+01 1.017317752910924611e+02 2.059982427473474900e+02 -8.456749627991560203e+01 -1.198733617596220142e+02 -2.799316744720595196e+01 6.074841827457218812e+01 -9.916753188675324182e+00 1.049525992610799676e+02 3.639651811265046177e+01 -1.588877294462842258e+02 4.401663895744507471e+01 -8.739514182025517641e+01 -1.321646010952893846e+02 1.313872747661825997e+02 -7.428482254540212182e+01 5.780323183978348567e+01 1.085628095996583653e+02 -9.666789685660303633e+01 2.295088171415748590e+01 -7.043612015933730675e+01 3.933402343757959585e+01 -1.119213969084882478e+02 6.013353721544313402e+01 5.337826903878503515e+01 3.778338248750843231e+00 8.200672980534616840e+01 -1.491890355197747624e+02 7.451715771172750635e+01 -2.860266486411995146e+01 -1.636645604916519972e+02 9.155958807421629331e+01 2.378390011370792934e+01 -1.899872468914601598e+02 2.279344392333988765e+02 -5.218669242428571886e-01 1.018736250698948140e+02 -1.168239391980748678e+02 -1.881248249065234006e+02 -9.040129140408515696e+01 2.422869852206808616e+00 1.384029777020764129e+02 3.841476266464177058e+00 -9.258942913040664280e+01 4.877965452835258020e+01 1.327570273601083670e+02 6.293282359171408302e+01 -5.010385959485582674e+01 -5.729780689138366512e+01 8.186069465759669583e+01 2.975784855878285384e+01 -1.894701450959131250e+02 -2.008201920104209037e+01 1.637371871832194188e+02 9.570496641638918334e+01 -5.554643529244255973e+01 -1.083068191800307716e+02 -4.133621776287539262e+01 -4.657777538900530345e+01 -1.108682211178034152e+02 -1.786208512340179411e+01 -4.423008340318688170e+01 -1.100659334476484332e+02 -1.277993616202630704e+02 -2.611450107844992274e+01 -1.217484748118038453e+02 -1.296516777196734438e+02 -3.713301658599640831e+01 -5.359733700491180031e+01 -1.075581499150563900e+02 1.868201981661156594e+02 1.055976228467005029e+01 -2.822850264409103360e+01 -1.705971164782966554e+01 7.895130042249132885e+01 1.570434348037576378e+01 2.513707664534623021e+01 -2.132008434316164269e+01 -4.644944056491383577e+01 2.098540377921781186e+01 -1.459032850633493581e+02 -1.597544526752030549e+02 -9.070699882415870263e+01 -1.915281618258856042e+02 -8.992948288049470307e+01 8.607268949356802068e+01 6.160884022313187103e+01 -2.614314463140760481e+01 6.098385951966252350e+01 -1.571416198037714480e+02 -4.102348037871404074e+01 -1.165597565432441911e+02 -6.698549985584982380e+01 2.117441472342020745e+02 -2.060196436863276119e+02 2.059958179598633308e+02 2.505545639377825395e+01 -5.664973668954713304e+01 9.253668655285083844e+01 1.245227175371473010e+02 -5.207177484122188815e+01 -2.044920441272532514e+02 -1.496280285442867637e+02 1.026481703160352765e+02 8.405750531520536128e+01 -1.360517156972842656e+02 3.205031311049258136e+01 -3.982903109371051187e+01 -7.767894376581105575e+01 -2.852902505030841951e+01 -5.501112365586951825e+01 -8.673151241900227149e+01 -3.418189840958572034e+01 4.535026980129837071e+00 -3.278274643138390587e+01 -3.738295914703291811e-01 -1.437335978420845528e+01 9.227265008750045183e+01 1.275688706753266928e+02 1.320731045999724351e+01 1.686186413681057061e+01 -6.336741474824187037e+01 -1.967666213353715818e+02 3.397021843027222587e+01 -9.204709599604524328e+01 2.593349725249899862e+01 -8.160554144114399833e+00 1.057919449870186934e+00 7.261998241615920335e+01 1.223304312877924502e+02 -7.073866741737175801e+01 3.813606702910513491e+01 -1.935928808856191097e+02 9.719816361925824211e+00 6.968093128140002257e+00 -1.230047547739035281e+02 -3.383402492048750787e+01 -4.448849215217858699e+01 4.781706406578793533e+00 -1.026126157805562542e+02 2.714878963839122861e+01 -9.799530280544709626e+01 5.626574861008401029e+01 6.811420172682117880e+01 3.702910877394219824e+01 -2.911975618355133122e+01 1.078591212678961710e+02 6.131106825718841691e+01 8.028616170995809398e+01 -6.724068684672191409e+01 2.032990060410798350e+01 1.283145317203324964e+02 -5.868767322458872115e+01 -6.940682967851035556e+00 3.209084913860743882e+01 -1.288375644202496630e+02 9.811742419334575516e+01 8.985380922442541873e+01 -1.014801226198390651e+02 -8.259513328244517538e+01 -5.569841050216794542e+01 -4.575272286780298714e+01 -1.606824141499589302e+02 -1.362786370992413083e+02 -1.328429734956179971e+02 1.059398902197027468e+02 5.995356254378297223e+01 1.599271789696811652e+02 7.222645911252522311e+00 -8.589608898438595475e+01 1.879527597965526553e+01 1.385794876663616115e+01 -6.368633294289968205e+01 7.419757547788442764e+01 1.182824352458564618e+02 9.983473023866888951e+00 1.436147940039109585e+02 2.253094392654634248e+01 1.111238506855813881e+02 1.509714122197927999e+01 -2.080832031292521265e+02 2.186755133261500816e+02 -4.899935916877146269e+01 -1.492587249724700769e+02 -6.726556792259333406e+01 -4.291451216466410301e+01 4.125526407170136878e+01 2.550396271201818976e+01 4.558186392204780901e+01 -7.377526854977006110e+01 1.218336147227821442e+02 -8.585666680385008931e+01 -6.978072173936093137e+00 1.416786534081368529e+02 1.089870688793359079e+02 5.768848519459650248e+01 -1.759402113305322644e+02 2.526860818129826214e+01 1.394464843123297157e+02 2.326247796238828869e+01 9.685978470334706003e+01 1.055855229120979288e+02 -2.097221700357100929e+02 7.626364704785233073e+01 -5.724071627217215052e+01 -2.228575862745599920e+02 8.763436739561721822e+01 2.430737706066672388e+01 -1.202034629918734225e+02 -5.760414899714655945e+01 1.363344324819105964e+02 1.447597071400384721e+02 -7.432561744665980541e+01 -1.250902823156034600e+02 -8.157171607373807376e+01 -1.619896576610790646e+02 1.909852592671758842e+01 3.699823349405102846e+01 -1.654889235294124461e+01 -1.205196052443511867e+01 -8.705128014039802054e+01 -8.580279360822574120e+01 -2.393541114015573257e+01 1.295980955613638912e+02 1.316698171974532841e+02 7.834858106581963000e+01 9.371501897527315350e+01 -7.572475874234989135e+01 -1.739714416472640437e+02 -1.270768761376956490e+01 -2.224327935570876136e+01 -6.828525312149764659e+01 1.429469398607225106e+00 7.021482962152860807e+01 -5.085526063469684743e+01 2.373148601591580942e+01 7.610460472529545939e+01 6.737493357521255177e+01 1.062402296738255387e+02 -1.433547497652726861e+02 3.809133846217331154e+01 8.006653700179602140e+01 9.106549475615429401e+01 5.675056034120819959e+01 -9.921208422280308525e+01 1.315888235325669484e+02 1.225112475485622667e+02 9.211283128972254985e+01 9.757870563356273408e+01 -8.093039529016104439e+01 -1.428251258549177294e+01 -1.244066572570659979e+01 7.403936914045119977e+01 6.244056732238576757e+01 5.382501255841395960e+01 9.376336688356418847e+01 1.119613644582293261e+02 1.191086354110139069e+02 -6.232352079569635350e+01 7.746773371186847612e+01 6.269103581650049506e+01 -1.130779995717036428e+02 1.264813237212892574e+02 -9.636771754024884729e+00 -2.684390835277031684e+01 1.916054014209160812e+02 8.509445473262324811e+01 1.193642691284797195e+02 -1.388446200322623838e+02 -1.518040596421242014e+02 -1.478786697860790298e+02 -1.175529756404632025e+02 -4.262339592954354117e+01 1.056774134533443714e+02 -1.624127893884339926e+02 3.130897828540287264e+01 1.390464581487389353e+02 -5.718626869590652007e+01 -8.802309729113768810e+01 -3.386129097629363827e+01 1.309719311670689876e+02 2.191534565466070319e+02 -6.431586302048981452e+01 1.911988116278444494e+01 -2.670416638625351169e+01 6.608798312078717174e+01 5.813138738310171760e+01 -2.058014516191544203e+02 -8.559178574486067248e+01 1.328327020864284407e+02 1.349780628306980645e+02 9.128852026301667877e+01 -4.812917717913441606e+01 -7.320591024444509287e+01 -4.383955283739946651e+01 -1.705833737049216552e+02 6.873240909466218795e+01 -2.478705595802974671e+01 1.607794158827736055e+02 -2.700355887355399176e+01 -3.040856663620936047e+02 1.400354044614377926e+02 4.856456886352682289e+01 -1.140311179276006470e+02 -2.143952394514318982e+01 3.413354815573508461e+01 -2.008278034739959139e+02 -1.104987338647928965e+02 -1.060302372968983349e+02 -5.454716287446428424e+01 6.072794258830852954e+01 -1.594508348667073676e+02 1.043717583813622980e+02 -5.254822059758683395e+01 2.829111579053268599e+00 -1.290764361484133360e+02 -1.002901705727903305e+02 1.701451210907632117e+02 8.386068803831285834e+01 -4.086859616794831851e+01 3.595280740041685164e+01 -2.714492983584282726e+01 4.190180925767347020e+01 -1.012677156582140725e+02 9.574512650302968098e+01 4.888147344261551552e+01 -1.151061544847577380e+02 1.130334884071565256e+02 -4.755280419817368909e+01 9.673183719511706613e+01 -4.783241755390313443e+01 8.557392647605472291e+01 -1.485501902713318430e+02 1.382230796766843639e+02 2.398320417129282234e+01 9.750078038293887062e+01 1.263377676906873575e+02 -1.420718963058520217e+02 -8.322329305180566905e+01 -1.023455945547639772e+02 6.478906190204428128e+01 -1.660351335991489634e+02 1.468452462727458681e+02 1.379580570132811772e+02 5.133929360933252184e+01 -8.228146420872757005e+01 5.530917657502763518e+01 -1.040354116889847660e+02 -1.059472966145827222e+01 3.389909933541778742e+01 -1.781197886334101952e+02 -7.907745035241609344e+01 -1.312156508773592201e+01 9.907908019927887722e+01 -4.869229989565865679e+01 1.054491211524055387e+02 -6.237879931007211809e+01 -2.044343961110067767e+02 -1.038710255789847423e+02 -3.301465720481650123e+01 -5.837656899794303911e+01 2.918695897607769396e+01 4.988615106532807175e+01 6.148534150149693289e+00 2.462609616757881170e+01 -1.138870885017439321e+02 5.229220593829271735e+01 3.167901247754628358e+01 -7.004628269832547005e+01 9.009886890347818422e+00 5.473641741405712935e+01 -9.263850660863984388e+01 -5.350376634719350477e+01 -2.347329812395523163e+01 9.477184041480226995e+01 -1.664062931620364694e+01 4.075607791959599879e+00 -2.216162876814064191e+02 -9.232059720642156719e+01 9.613471765159411575e+01 -8.664956169519756202e+01 3.044974710386664540e+01 3.018103574385225940e+01 3.683818982638035067e+01 6.421969661443590383e+01 -1.724674471999525451e+02 1.399423132693307252e+02 7.925431628933171169e+01 -7.325574157293750943e+00 -7.854463529121041176e+01 1.087485659296676914e+02 6.036607285189289485e+01 -1.955191340873188892e+02 -4.897255127022890520e+01 -7.943782886652351749e+01 -5.036968295937858642e+01 -6.019139125702833581e+01 -9.626579636556461139e+01 -5.868608813598482499e+01 1.862194507813658504e+02 -1.660227694226205983e+02 6.365739667570147020e+01 2.697895158329722065e+01 -7.311280505840858268e+01 1.010903089634421015e+01 -3.834704776449925134e+01 3.342778511064673275e+00 -9.350083736988806038e+01 -1.921369312415253603e+02 1.788954747683894553e+01 4.074558473414200677e+01 -1.244416564669945657e+01 -8.724006727090005242e+00 -3.868766848126779934e+01 -1.847003095373144959e+02 -2.979521217993702109e+01 -6.356805070569932781e+01 1.355945602654644588e+01 -1.518927248817090359e+01 8.811408618706340690e+01 -6.131782591242648550e+01 -1.008595033164235701e+02 -3.472963137955181168e+01 -8.738516250666265250e+00 4.421168785967418557e+01 -2.151932908115555776e+01 -7.180345453263380762e+01 -1.544989568499276089e+01 1.950200429901509480e+01 4.621426894376172356e+01 -1.109018286123344694e+02 -1.352629241363124777e+02 2.241310964747204935e+02 -2.124028373577159527e+02 -7.388328894077112352e+01 -4.507539340199135580e+01 1.360880239532362168e+02 6.157570284346987677e+01 2.227785586654703138e+02 2.381977540259219097e+02 -6.068790948659183471e+01 1.259795035474464413e+02 -5.452328014136336520e+01 -3.972874668820190891e+01 -9.792887779298949624e+01 -7.770393386727484142e+01 -6.768595275393411725e+01 -8.664202647446862215e+01 -2.372721195131474587e+02 -2.636113381986882018e+02 1.310843749409250734e+02 -2.583252247294352699e+01 5.184888852677384108e+01 1.274180403583562224e+02
