# 
#                 ----------------------------------------------------
#                 Data from a 3D direct N-body simulation. 
# 
#                 rows are i-particle; 
#                 coumns are :mass, tag, x ,y, z, vx, vy, vz, ax, ay, az
# 
#                 NTHU, Computational Physics Lab
# 
#                 ----------------------------------------------------
#                 Time = 8.799999999999857
1.000000000000000000e+00 2.000000000000000000e+00 3.000000000000000000e+00 4.000000000000000000e+00 5.000000000000000000e+00 6.000000000000000000e+00 7.000000000000000000e+00 8.000000000000000000e+00 9.000000000000000000e+00 1.000000000000000000e+01 1.100000000000000000e+01 1.200000000000000000e+01 1.300000000000000000e+01 1.400000000000000000e+01 1.500000000000000000e+01 1.600000000000000000e+01 1.700000000000000000e+01 1.800000000000000000e+01 1.900000000000000000e+01 2.000000000000000000e+01 2.100000000000000000e+01 2.200000000000000000e+01 2.300000000000000000e+01 2.400000000000000000e+01 2.500000000000000000e+01 2.600000000000000000e+01 2.700000000000000000e+01 2.800000000000000000e+01 2.900000000000000000e+01 3.000000000000000000e+01 3.100000000000000000e+01 3.200000000000000000e+01 3.300000000000000000e+01 3.400000000000000000e+01 3.500000000000000000e+01 3.600000000000000000e+01 3.700000000000000000e+01 3.800000000000000000e+01 3.900000000000000000e+01 4.000000000000000000e+01 4.100000000000000000e+01 4.200000000000000000e+01 4.300000000000000000e+01 4.400000000000000000e+01 4.500000000000000000e+01 4.600000000000000000e+01 4.700000000000000000e+01 4.800000000000000000e+01 4.900000000000000000e+01 5.000000000000000000e+01 5.100000000000000000e+01 5.200000000000000000e+01 5.300000000000000000e+01 5.400000000000000000e+01 5.500000000000000000e+01 5.600000000000000000e+01 5.700000000000000000e+01 5.800000000000000000e+01 5.900000000000000000e+01 6.000000000000000000e+01 6.100000000000000000e+01 6.200000000000000000e+01 6.300000000000000000e+01 6.400000000000000000e+01 6.500000000000000000e+01 6.600000000000000000e+01 6.700000000000000000e+01 6.800000000000000000e+01 6.900000000000000000e+01 7.000000000000000000e+01 7.100000000000000000e+01 7.200000000000000000e+01 7.300000000000000000e+01 7.400000000000000000e+01 7.500000000000000000e+01 7.600000000000000000e+01 7.700000000000000000e+01 7.800000000000000000e+01 7.900000000000000000e+01 8.000000000000000000e+01 8.100000000000000000e+01 8.200000000000000000e+01 8.300000000000000000e+01 8.400000000000000000e+01 8.500000000000000000e+01 8.600000000000000000e+01 8.700000000000000000e+01 8.800000000000000000e+01 8.900000000000000000e+01 9.000000000000000000e+01 9.100000000000000000e+01 9.200000000000000000e+01 9.300000000000000000e+01 9.400000000000000000e+01 9.500000000000000000e+01 9.600000000000000000e+01 9.700000000000000000e+01 9.800000000000000000e+01 9.900000000000000000e+01 1.000000000000000000e+02 1.010000000000000000e+02 1.020000000000000000e+02 1.030000000000000000e+02 1.040000000000000000e+02 1.050000000000000000e+02 1.060000000000000000e+02 1.070000000000000000e+02 1.080000000000000000e+02 1.090000000000000000e+02 1.100000000000000000e+02 1.110000000000000000e+02 1.120000000000000000e+02 1.130000000000000000e+02 1.140000000000000000e+02 1.150000000000000000e+02 1.160000000000000000e+02 1.170000000000000000e+02 1.180000000000000000e+02 1.190000000000000000e+02 1.200000000000000000e+02 1.210000000000000000e+02 1.220000000000000000e+02 1.230000000000000000e+02 1.240000000000000000e+02 1.250000000000000000e+02 1.260000000000000000e+02 1.270000000000000000e+02 1.280000000000000000e+02 1.290000000000000000e+02 1.300000000000000000e+02 1.310000000000000000e+02 1.320000000000000000e+02 1.330000000000000000e+02 1.340000000000000000e+02 1.350000000000000000e+02 1.360000000000000000e+02 1.370000000000000000e+02 1.380000000000000000e+02 1.390000000000000000e+02 1.400000000000000000e+02 1.410000000000000000e+02 1.420000000000000000e+02 1.430000000000000000e+02 1.440000000000000000e+02 1.450000000000000000e+02 1.460000000000000000e+02 1.470000000000000000e+02 1.480000000000000000e+02 1.490000000000000000e+02 1.500000000000000000e+02 1.510000000000000000e+02 1.520000000000000000e+02 1.530000000000000000e+02 1.540000000000000000e+02 1.550000000000000000e+02 1.560000000000000000e+02 1.570000000000000000e+02 1.580000000000000000e+02 1.590000000000000000e+02 1.600000000000000000e+02 1.610000000000000000e+02 1.620000000000000000e+02 1.630000000000000000e+02 1.640000000000000000e+02 1.650000000000000000e+02 1.660000000000000000e+02 1.670000000000000000e+02 1.680000000000000000e+02 1.690000000000000000e+02 1.700000000000000000e+02 1.710000000000000000e+02 1.720000000000000000e+02 1.730000000000000000e+02 1.740000000000000000e+02 1.750000000000000000e+02 1.760000000000000000e+02 1.770000000000000000e+02 1.780000000000000000e+02 1.790000000000000000e+02 1.800000000000000000e+02 1.810000000000000000e+02 1.820000000000000000e+02 1.830000000000000000e+02 1.840000000000000000e+02 1.850000000000000000e+02 1.860000000000000000e+02 1.870000000000000000e+02 1.880000000000000000e+02 1.890000000000000000e+02 1.900000000000000000e+02 1.910000000000000000e+02 1.920000000000000000e+02 1.930000000000000000e+02 1.940000000000000000e+02 1.950000000000000000e+02 1.960000000000000000e+02 1.970000000000000000e+02 1.980000000000000000e+02 1.990000000000000000e+02 2.000000000000000000e+02 2.010000000000000000e+02 2.020000000000000000e+02 2.030000000000000000e+02 2.040000000000000000e+02 2.050000000000000000e+02 2.060000000000000000e+02 2.070000000000000000e+02 2.080000000000000000e+02 2.090000000000000000e+02 2.100000000000000000e+02 2.110000000000000000e+02 2.120000000000000000e+02 2.130000000000000000e+02 2.140000000000000000e+02 2.150000000000000000e+02 2.160000000000000000e+02 2.170000000000000000e+02 2.180000000000000000e+02 2.190000000000000000e+02 2.200000000000000000e+02 2.210000000000000000e+02 2.220000000000000000e+02 2.230000000000000000e+02 2.240000000000000000e+02 2.250000000000000000e+02 2.260000000000000000e+02 2.270000000000000000e+02 2.280000000000000000e+02 2.290000000000000000e+02 2.300000000000000000e+02 2.310000000000000000e+02 2.320000000000000000e+02 2.330000000000000000e+02 2.340000000000000000e+02 2.350000000000000000e+02 2.360000000000000000e+02 2.370000000000000000e+02 2.380000000000000000e+02 2.390000000000000000e+02 2.400000000000000000e+02 2.410000000000000000e+02 2.420000000000000000e+02 2.430000000000000000e+02 2.440000000000000000e+02 2.450000000000000000e+02 2.460000000000000000e+02 2.470000000000000000e+02 2.480000000000000000e+02 2.490000000000000000e+02 2.500000000000000000e+02 2.510000000000000000e+02 2.520000000000000000e+02 2.530000000000000000e+02 2.540000000000000000e+02 2.550000000000000000e+02 2.560000000000000000e+02 2.570000000000000000e+02 2.580000000000000000e+02 2.590000000000000000e+02 2.600000000000000000e+02 2.610000000000000000e+02 2.620000000000000000e+02 2.630000000000000000e+02 2.640000000000000000e+02 2.650000000000000000e+02 2.660000000000000000e+02 2.670000000000000000e+02 2.680000000000000000e+02 2.690000000000000000e+02 2.700000000000000000e+02 2.710000000000000000e+02 2.720000000000000000e+02 2.730000000000000000e+02 2.740000000000000000e+02 2.750000000000000000e+02 2.760000000000000000e+02 2.770000000000000000e+02 2.780000000000000000e+02 2.790000000000000000e+02 2.800000000000000000e+02 2.810000000000000000e+02 2.820000000000000000e+02 2.830000000000000000e+02 2.840000000000000000e+02 2.850000000000000000e+02 2.860000000000000000e+02 2.870000000000000000e+02 2.880000000000000000e+02 2.890000000000000000e+02 2.900000000000000000e+02 2.910000000000000000e+02 2.920000000000000000e+02 2.930000000000000000e+02 2.940000000000000000e+02 2.950000000000000000e+02 2.960000000000000000e+02 2.970000000000000000e+02 2.980000000000000000e+02 2.990000000000000000e+02 3.000000000000000000e+02 3.010000000000000000e+02 3.020000000000000000e+02 3.030000000000000000e+02 3.040000000000000000e+02 3.050000000000000000e+02 3.060000000000000000e+02 3.070000000000000000e+02 3.080000000000000000e+02 3.090000000000000000e+02 3.100000000000000000e+02 3.110000000000000000e+02 3.120000000000000000e+02 3.130000000000000000e+02 3.140000000000000000e+02 3.150000000000000000e+02 3.160000000000000000e+02 3.170000000000000000e+02 3.180000000000000000e+02 3.190000000000000000e+02 3.200000000000000000e+02 3.210000000000000000e+02 3.220000000000000000e+02 3.230000000000000000e+02 3.240000000000000000e+02 3.250000000000000000e+02 3.260000000000000000e+02 3.270000000000000000e+02 3.280000000000000000e+02 3.290000000000000000e+02 3.300000000000000000e+02 3.310000000000000000e+02 3.320000000000000000e+02 3.330000000000000000e+02 3.340000000000000000e+02 3.350000000000000000e+02 3.360000000000000000e+02 3.370000000000000000e+02 3.380000000000000000e+02 3.390000000000000000e+02 3.400000000000000000e+02 3.410000000000000000e+02 3.420000000000000000e+02 3.430000000000000000e+02 3.440000000000000000e+02 3.450000000000000000e+02 3.460000000000000000e+02 3.470000000000000000e+02 3.480000000000000000e+02 3.490000000000000000e+02 3.500000000000000000e+02 3.510000000000000000e+02 3.520000000000000000e+02 3.530000000000000000e+02 3.540000000000000000e+02 3.550000000000000000e+02 3.560000000000000000e+02 3.570000000000000000e+02 3.580000000000000000e+02 3.590000000000000000e+02 3.600000000000000000e+02 3.610000000000000000e+02 3.620000000000000000e+02 3.630000000000000000e+02 3.640000000000000000e+02 3.650000000000000000e+02 3.660000000000000000e+02 3.670000000000000000e+02 3.680000000000000000e+02 3.690000000000000000e+02 3.700000000000000000e+02 3.710000000000000000e+02 3.720000000000000000e+02 3.730000000000000000e+02 3.740000000000000000e+02 3.750000000000000000e+02 3.760000000000000000e+02 3.770000000000000000e+02 3.780000000000000000e+02 3.790000000000000000e+02 3.800000000000000000e+02 3.810000000000000000e+02 3.820000000000000000e+02 3.830000000000000000e+02 3.840000000000000000e+02 3.850000000000000000e+02 3.860000000000000000e+02 3.870000000000000000e+02 3.880000000000000000e+02 3.890000000000000000e+02 3.900000000000000000e+02 3.910000000000000000e+02 3.920000000000000000e+02 3.930000000000000000e+02 3.940000000000000000e+02 3.950000000000000000e+02 3.960000000000000000e+02 3.970000000000000000e+02 3.980000000000000000e+02 3.990000000000000000e+02 4.000000000000000000e+02 4.010000000000000000e+02 4.020000000000000000e+02 4.030000000000000000e+02 4.040000000000000000e+02 4.050000000000000000e+02 4.060000000000000000e+02 4.070000000000000000e+02 4.080000000000000000e+02 4.090000000000000000e+02 4.100000000000000000e+02 4.110000000000000000e+02 4.120000000000000000e+02 4.130000000000000000e+02 4.140000000000000000e+02 4.150000000000000000e+02 4.160000000000000000e+02 4.170000000000000000e+02 4.180000000000000000e+02 4.190000000000000000e+02 4.200000000000000000e+02 4.210000000000000000e+02 4.220000000000000000e+02 4.230000000000000000e+02 4.240000000000000000e+02 4.250000000000000000e+02 4.260000000000000000e+02 4.270000000000000000e+02 4.280000000000000000e+02 4.290000000000000000e+02 4.300000000000000000e+02 4.310000000000000000e+02 4.320000000000000000e+02 4.330000000000000000e+02 4.340000000000000000e+02 4.350000000000000000e+02 4.360000000000000000e+02 4.370000000000000000e+02 4.380000000000000000e+02 4.390000000000000000e+02 4.400000000000000000e+02 4.410000000000000000e+02 4.420000000000000000e+02 4.430000000000000000e+02 4.440000000000000000e+02 4.450000000000000000e+02 4.460000000000000000e+02 4.470000000000000000e+02 4.480000000000000000e+02 4.490000000000000000e+02 4.500000000000000000e+02 4.510000000000000000e+02 4.520000000000000000e+02 4.530000000000000000e+02 4.540000000000000000e+02 4.550000000000000000e+02 4.560000000000000000e+02 4.570000000000000000e+02 4.580000000000000000e+02 4.590000000000000000e+02 4.600000000000000000e+02 4.610000000000000000e+02 4.620000000000000000e+02 4.630000000000000000e+02 4.640000000000000000e+02 4.650000000000000000e+02 4.660000000000000000e+02 4.670000000000000000e+02 4.680000000000000000e+02 4.690000000000000000e+02 4.700000000000000000e+02 4.710000000000000000e+02 4.720000000000000000e+02 4.730000000000000000e+02 4.740000000000000000e+02 4.750000000000000000e+02 4.760000000000000000e+02 4.770000000000000000e+02 4.780000000000000000e+02 4.790000000000000000e+02 4.800000000000000000e+02 4.810000000000000000e+02 4.820000000000000000e+02 4.830000000000000000e+02 4.840000000000000000e+02 4.850000000000000000e+02 4.860000000000000000e+02 4.870000000000000000e+02 4.880000000000000000e+02 4.890000000000000000e+02 4.900000000000000000e+02 4.910000000000000000e+02 4.920000000000000000e+02 4.930000000000000000e+02 4.940000000000000000e+02 4.950000000000000000e+02 4.960000000000000000e+02 4.970000000000000000e+02 4.980000000000000000e+02 4.990000000000000000e+02 5.000000000000000000e+02 5.010000000000000000e+02 5.020000000000000000e+02 5.030000000000000000e+02 5.040000000000000000e+02 5.050000000000000000e+02 5.060000000000000000e+02 5.070000000000000000e+02 5.080000000000000000e+02 5.090000000000000000e+02 5.100000000000000000e+02 5.110000000000000000e+02 5.120000000000000000e+02 5.130000000000000000e+02 5.140000000000000000e+02 5.150000000000000000e+02 5.160000000000000000e+02 5.170000000000000000e+02 5.180000000000000000e+02 5.190000000000000000e+02 5.200000000000000000e+02 5.210000000000000000e+02 5.220000000000000000e+02 5.230000000000000000e+02 5.240000000000000000e+02 5.250000000000000000e+02 5.260000000000000000e+02 5.270000000000000000e+02 5.280000000000000000e+02 5.290000000000000000e+02 5.300000000000000000e+02 5.310000000000000000e+02 5.320000000000000000e+02 5.330000000000000000e+02 5.340000000000000000e+02 5.350000000000000000e+02 5.360000000000000000e+02 5.370000000000000000e+02 5.380000000000000000e+02 5.390000000000000000e+02 5.400000000000000000e+02 5.410000000000000000e+02 5.420000000000000000e+02 5.430000000000000000e+02 5.440000000000000000e+02 5.450000000000000000e+02 5.460000000000000000e+02 5.470000000000000000e+02 5.480000000000000000e+02 5.490000000000000000e+02 5.500000000000000000e+02 5.510000000000000000e+02 5.520000000000000000e+02 5.530000000000000000e+02 5.540000000000000000e+02 5.550000000000000000e+02 5.560000000000000000e+02 5.570000000000000000e+02 5.580000000000000000e+02 5.590000000000000000e+02 5.600000000000000000e+02 5.610000000000000000e+02 5.620000000000000000e+02 5.630000000000000000e+02 5.640000000000000000e+02 5.650000000000000000e+02 5.660000000000000000e+02 5.670000000000000000e+02 5.680000000000000000e+02 5.690000000000000000e+02 5.700000000000000000e+02 5.710000000000000000e+02 5.720000000000000000e+02 5.730000000000000000e+02 5.740000000000000000e+02 5.750000000000000000e+02 5.760000000000000000e+02 5.770000000000000000e+02 5.780000000000000000e+02 5.790000000000000000e+02 5.800000000000000000e+02 5.810000000000000000e+02 5.820000000000000000e+02 5.830000000000000000e+02 5.840000000000000000e+02 5.850000000000000000e+02 5.860000000000000000e+02 5.870000000000000000e+02 5.880000000000000000e+02 5.890000000000000000e+02 5.900000000000000000e+02 5.910000000000000000e+02 5.920000000000000000e+02 5.930000000000000000e+02 5.940000000000000000e+02 5.950000000000000000e+02 5.960000000000000000e+02 5.970000000000000000e+02 5.980000000000000000e+02 5.990000000000000000e+02 6.000000000000000000e+02 6.010000000000000000e+02 6.020000000000000000e+02 6.030000000000000000e+02 6.040000000000000000e+02 6.050000000000000000e+02 6.060000000000000000e+02 6.070000000000000000e+02 6.080000000000000000e+02 6.090000000000000000e+02 6.100000000000000000e+02 6.110000000000000000e+02 6.120000000000000000e+02 6.130000000000000000e+02 6.140000000000000000e+02 6.150000000000000000e+02 6.160000000000000000e+02 6.170000000000000000e+02 6.180000000000000000e+02 6.190000000000000000e+02 6.200000000000000000e+02 6.210000000000000000e+02 6.220000000000000000e+02 6.230000000000000000e+02 6.240000000000000000e+02 6.250000000000000000e+02 6.260000000000000000e+02 6.270000000000000000e+02 6.280000000000000000e+02 6.290000000000000000e+02 6.300000000000000000e+02 6.310000000000000000e+02 6.320000000000000000e+02 6.330000000000000000e+02 6.340000000000000000e+02 6.350000000000000000e+02 6.360000000000000000e+02 6.370000000000000000e+02 6.380000000000000000e+02 6.390000000000000000e+02 6.400000000000000000e+02 6.410000000000000000e+02 6.420000000000000000e+02 6.430000000000000000e+02 6.440000000000000000e+02 6.450000000000000000e+02 6.460000000000000000e+02 6.470000000000000000e+02 6.480000000000000000e+02 6.490000000000000000e+02 6.500000000000000000e+02 6.510000000000000000e+02 6.520000000000000000e+02 6.530000000000000000e+02 6.540000000000000000e+02 6.550000000000000000e+02 6.560000000000000000e+02 6.570000000000000000e+02 6.580000000000000000e+02 6.590000000000000000e+02 6.600000000000000000e+02 6.610000000000000000e+02 6.620000000000000000e+02 6.630000000000000000e+02 6.640000000000000000e+02 6.650000000000000000e+02 6.660000000000000000e+02 6.670000000000000000e+02 6.680000000000000000e+02 6.690000000000000000e+02 6.700000000000000000e+02 6.710000000000000000e+02 6.720000000000000000e+02 6.730000000000000000e+02 6.740000000000000000e+02 6.750000000000000000e+02 6.760000000000000000e+02 6.770000000000000000e+02 6.780000000000000000e+02 6.790000000000000000e+02 6.800000000000000000e+02 6.810000000000000000e+02 6.820000000000000000e+02 6.830000000000000000e+02 6.840000000000000000e+02 6.850000000000000000e+02 6.860000000000000000e+02 6.870000000000000000e+02 6.880000000000000000e+02 6.890000000000000000e+02 6.900000000000000000e+02 6.910000000000000000e+02 6.920000000000000000e+02 6.930000000000000000e+02 6.940000000000000000e+02 6.950000000000000000e+02 6.960000000000000000e+02 6.970000000000000000e+02 6.980000000000000000e+02 6.990000000000000000e+02 7.000000000000000000e+02 7.010000000000000000e+02 7.020000000000000000e+02 7.030000000000000000e+02 7.040000000000000000e+02 7.050000000000000000e+02 7.060000000000000000e+02 7.070000000000000000e+02 7.080000000000000000e+02 7.090000000000000000e+02 7.100000000000000000e+02 7.110000000000000000e+02 7.120000000000000000e+02 7.130000000000000000e+02 7.140000000000000000e+02 7.150000000000000000e+02 7.160000000000000000e+02 7.170000000000000000e+02 7.180000000000000000e+02 7.190000000000000000e+02 7.200000000000000000e+02 7.210000000000000000e+02 7.220000000000000000e+02 7.230000000000000000e+02 7.240000000000000000e+02 7.250000000000000000e+02 7.260000000000000000e+02 7.270000000000000000e+02 7.280000000000000000e+02 7.290000000000000000e+02 7.300000000000000000e+02 7.310000000000000000e+02 7.320000000000000000e+02 7.330000000000000000e+02 7.340000000000000000e+02 7.350000000000000000e+02 7.360000000000000000e+02 7.370000000000000000e+02 7.380000000000000000e+02 7.390000000000000000e+02 7.400000000000000000e+02 7.410000000000000000e+02 7.420000000000000000e+02 7.430000000000000000e+02 7.440000000000000000e+02 7.450000000000000000e+02 7.460000000000000000e+02 7.470000000000000000e+02 7.480000000000000000e+02 7.490000000000000000e+02 7.500000000000000000e+02 7.510000000000000000e+02 7.520000000000000000e+02 7.530000000000000000e+02 7.540000000000000000e+02 7.550000000000000000e+02 7.560000000000000000e+02 7.570000000000000000e+02 7.580000000000000000e+02 7.590000000000000000e+02 7.600000000000000000e+02 7.610000000000000000e+02 7.620000000000000000e+02 7.630000000000000000e+02 7.640000000000000000e+02 7.650000000000000000e+02 7.660000000000000000e+02 7.670000000000000000e+02 7.680000000000000000e+02 7.690000000000000000e+02 7.700000000000000000e+02 7.710000000000000000e+02 7.720000000000000000e+02 7.730000000000000000e+02 7.740000000000000000e+02 7.750000000000000000e+02 7.760000000000000000e+02 7.770000000000000000e+02 7.780000000000000000e+02 7.790000000000000000e+02 7.800000000000000000e+02 7.810000000000000000e+02 7.820000000000000000e+02 7.830000000000000000e+02 7.840000000000000000e+02 7.850000000000000000e+02 7.860000000000000000e+02 7.870000000000000000e+02 7.880000000000000000e+02 7.890000000000000000e+02 7.900000000000000000e+02 7.910000000000000000e+02 7.920000000000000000e+02 7.930000000000000000e+02 7.940000000000000000e+02 7.950000000000000000e+02 7.960000000000000000e+02 7.970000000000000000e+02 7.980000000000000000e+02 7.990000000000000000e+02 8.000000000000000000e+02 8.010000000000000000e+02 8.020000000000000000e+02 8.030000000000000000e+02 8.040000000000000000e+02 8.050000000000000000e+02 8.060000000000000000e+02 8.070000000000000000e+02 8.080000000000000000e+02 8.090000000000000000e+02 8.100000000000000000e+02 8.110000000000000000e+02 8.120000000000000000e+02 8.130000000000000000e+02 8.140000000000000000e+02 8.150000000000000000e+02 8.160000000000000000e+02 8.170000000000000000e+02 8.180000000000000000e+02 8.190000000000000000e+02 8.200000000000000000e+02 8.210000000000000000e+02 8.220000000000000000e+02 8.230000000000000000e+02 8.240000000000000000e+02 8.250000000000000000e+02 8.260000000000000000e+02 8.270000000000000000e+02 8.280000000000000000e+02 8.290000000000000000e+02 8.300000000000000000e+02 8.310000000000000000e+02 8.320000000000000000e+02 8.330000000000000000e+02 8.340000000000000000e+02 8.350000000000000000e+02 8.360000000000000000e+02 8.370000000000000000e+02 8.380000000000000000e+02 8.390000000000000000e+02 8.400000000000000000e+02 8.410000000000000000e+02 8.420000000000000000e+02 8.430000000000000000e+02 8.440000000000000000e+02 8.450000000000000000e+02 8.460000000000000000e+02 8.470000000000000000e+02 8.480000000000000000e+02 8.490000000000000000e+02 8.500000000000000000e+02 8.510000000000000000e+02 8.520000000000000000e+02 8.530000000000000000e+02 8.540000000000000000e+02 8.550000000000000000e+02 8.560000000000000000e+02 8.570000000000000000e+02 8.580000000000000000e+02 8.590000000000000000e+02 8.600000000000000000e+02 8.610000000000000000e+02 8.620000000000000000e+02 8.630000000000000000e+02 8.640000000000000000e+02 8.650000000000000000e+02 8.660000000000000000e+02 8.670000000000000000e+02 8.680000000000000000e+02 8.690000000000000000e+02 8.700000000000000000e+02 8.710000000000000000e+02 8.720000000000000000e+02 8.730000000000000000e+02 8.740000000000000000e+02 8.750000000000000000e+02 8.760000000000000000e+02 8.770000000000000000e+02 8.780000000000000000e+02 8.790000000000000000e+02 8.800000000000000000e+02 8.810000000000000000e+02 8.820000000000000000e+02 8.830000000000000000e+02 8.840000000000000000e+02 8.850000000000000000e+02 8.860000000000000000e+02 8.870000000000000000e+02 8.880000000000000000e+02 8.890000000000000000e+02 8.900000000000000000e+02 8.910000000000000000e+02 8.920000000000000000e+02 8.930000000000000000e+02 8.940000000000000000e+02 8.950000000000000000e+02 8.960000000000000000e+02 8.970000000000000000e+02 8.980000000000000000e+02 8.990000000000000000e+02 9.000000000000000000e+02 9.010000000000000000e+02 9.020000000000000000e+02 9.030000000000000000e+02 9.040000000000000000e+02 9.050000000000000000e+02 9.060000000000000000e+02 9.070000000000000000e+02 9.080000000000000000e+02 9.090000000000000000e+02 9.100000000000000000e+02 9.110000000000000000e+02 9.120000000000000000e+02 9.130000000000000000e+02 9.140000000000000000e+02 9.150000000000000000e+02 9.160000000000000000e+02 9.170000000000000000e+02 9.180000000000000000e+02 9.190000000000000000e+02 9.200000000000000000e+02 9.210000000000000000e+02 9.220000000000000000e+02 9.230000000000000000e+02 9.240000000000000000e+02 9.250000000000000000e+02 9.260000000000000000e+02 9.270000000000000000e+02 9.280000000000000000e+02 9.290000000000000000e+02 9.300000000000000000e+02 9.310000000000000000e+02 9.320000000000000000e+02 9.330000000000000000e+02 9.340000000000000000e+02 9.350000000000000000e+02 9.360000000000000000e+02 9.370000000000000000e+02 9.380000000000000000e+02 9.390000000000000000e+02 9.400000000000000000e+02 9.410000000000000000e+02 9.420000000000000000e+02 9.430000000000000000e+02 9.440000000000000000e+02 9.450000000000000000e+02 9.460000000000000000e+02 9.470000000000000000e+02 9.480000000000000000e+02 9.490000000000000000e+02 9.500000000000000000e+02 9.510000000000000000e+02 9.520000000000000000e+02 9.530000000000000000e+02 9.540000000000000000e+02 9.550000000000000000e+02 9.560000000000000000e+02 9.570000000000000000e+02 9.580000000000000000e+02 9.590000000000000000e+02 9.600000000000000000e+02 9.610000000000000000e+02 9.620000000000000000e+02 9.630000000000000000e+02 9.640000000000000000e+02 9.650000000000000000e+02 9.660000000000000000e+02 9.670000000000000000e+02 9.680000000000000000e+02 9.690000000000000000e+02 9.700000000000000000e+02 9.710000000000000000e+02 9.720000000000000000e+02 9.730000000000000000e+02 9.740000000000000000e+02 9.750000000000000000e+02 9.760000000000000000e+02 9.770000000000000000e+02 9.780000000000000000e+02 9.790000000000000000e+02 9.800000000000000000e+02 9.810000000000000000e+02 9.820000000000000000e+02 9.830000000000000000e+02 9.840000000000000000e+02 9.850000000000000000e+02 9.860000000000000000e+02 9.870000000000000000e+02 9.880000000000000000e+02 9.890000000000000000e+02 9.900000000000000000e+02 9.910000000000000000e+02 9.920000000000000000e+02 9.930000000000000000e+02 9.940000000000000000e+02 9.950000000000000000e+02 9.960000000000000000e+02 9.970000000000000000e+02 9.980000000000000000e+02 9.990000000000000000e+02 1.000000000000000000e+03
1.000000000000000021e-02 1.000000000000000021e-02 1.000000000000000021e-02 1.000000000000000021e-02 1.000000000000000021e-02 1.000000000000000021e-02 1.000000000000000021e-02 1.000000000000000021e-02 1.000000000000000021e-02 1.000000000000000021e-02 1.000000000000000021e-02 1.000000000000000021e-02 1.000000000000000021e-02 1.000000000000000021e-02 1.000000000000000021e-02 1.000000000000000021e-02 1.000000000000000021e-02 1.000000000000000021e-02 1.000000000000000021e-02 1.000000000000000021e-02 1.000000000000000021e-02 1.000000000000000021e-02 1.000000000000000021e-02 1.000000000000000021e-02 1.000000000000000021e-02 1.000000000000000021e-02 1.000000000000000021e-02 1.000000000000000021e-02 1.000000000000000021e-02 1.000000000000000021e-02 1.000000000000000021e-02 1.000000000000000021e-02 1.000000000000000021e-02 1.000000000000000021e-02 1.000000000000000021e-02 1.000000000000000021e-02 1.000000000000000021e-02 1.000000000000000021e-02 1.000000000000000021e-02 1.000000000000000021e-02 1.000000000000000021e-02 1.000000000000000021e-02 1.000000000000000021e-02 1.000000000000000021e-02 1.000000000000000021e-02 1.000000000000000021e-02 1.000000000000000021e-02 1.000000000000000021e-02 1.000000000000000021e-02 1.000000000000000021e-02 1.000000000000000021e-02 1.000000000000000021e-02 1.000000000000000021e-02 1.000000000000000021e-02 1.000000000000000021e-02 1.000000000000000021e-02 1.000000000000000021e-02 1.000000000000000021e-02 1.000000000000000021e-02 1.000000000000000021e-02 1.000000000000000021e-02 1.000000000000000021e-02 1.000000000000000021e-02 1.000000000000000021e-02 1.000000000000000021e-02 1.000000000000000021e-02 1.000000000000000021e-02 1.000000000000000021e-02 1.000000000000000021e-02 1.000000000000000021e-02 1.000000000000000021e-02 1.000000000000000021e-02 1.000000000000000021e-02 1.000000000000000021e-02 1.000000000000000021e-02 1.000000000000000021e-02 1.000000000000000021e-02 1.000000000000000021e-02 1.000000000000000021e-02 1.000000000000000021e-02 1.000000000000000021e-02 1.000000000000000021e-02 1.000000000000000021e-02 1.000000000000000021e-02 1.000000000000000021e-02 1.000000000000000021e-02 1.000000000000000021e-02 1.000000000000000021e-02 1.000000000000000021e-02 1.000000000000000021e-02 1.000000000000000021e-02 1.000000000000000021e-02 1.000000000000000021e-02 1.000000000000000021e-02 1.000000000000000021e-02 1.000000000000000021e-02 1.000000000000000021e-02 1.000000000000000021e-02 1.000000000000000021e-02 1.000000000000000021e-02 1.000000000000000021e-02 1.000000000000000021e-02 1.000000000000000021e-02 1.000000000000000021e-02 1.000000000000000021e-02 1.000000000000000021e-02 1.000000000000000021e-02 1.000000000000000021e-02 1.000000000000000021e-02 1.000000000000000021e-02 1.000000000000000021e-02 1.000000000000000021e-02 1.000000000000000021e-02 1.000000000000000021e-02 1.000000000000000021e-02 1.000000000000000021e-02 1.000000000000000021e-02 1.000000000000000021e-02 1.000000000000000021e-02 1.000000000000000021e-02 1.000000000000000021e-02 1.000000000000000021e-02 1.000000000000000021e-02 1.000000000000000021e-02 1.000000000000000021e-02 1.000000000000000021e-02 1.000000000000000021e-02 1.000000000000000021e-02 1.000000000000000021e-02 1.000000000000000021e-02 1.000000000000000021e-02 1.000000000000000021e-02 1.000000000000000021e-02 1.000000000000000021e-02 1.000000000000000021e-02 1.000000000000000021e-02 1.000000000000000021e-02 1.000000000000000021e-02 1.000000000000000021e-02 1.000000000000000021e-02 1.000000000000000021e-02 1.000000000000000021e-02 1.000000000000000021e-02 1.000000000000000021e-02 1.000000000000000021e-02 1.000000000000000021e-02 1.000000000000000021e-02 1.000000000000000021e-02 1.000000000000000021e-02 1.000000000000000021e-02 1.000000000000000021e-02 1.000000000000000021e-02 1.000000000000000021e-02 1.000000000000000021e-02 1.000000000000000021e-02 1.000000000000000021e-02 1.000000000000000021e-02 1.000000000000000021e-02 1.000000000000000021e-02 1.000000000000000021e-02 1.000000000000000021e-02 1.000000000000000021e-02 1.000000000000000021e-02 1.000000000000000021e-02 1.000000000000000021e-02 1.000000000000000021e-02 1.000000000000000021e-02 1.000000000000000021e-02 1.000000000000000021e-02 1.000000000000000021e-02 1.000000000000000021e-02 1.000000000000000021e-02 1.000000000000000021e-02 1.000000000000000021e-02 1.000000000000000021e-02 1.000000000000000021e-02 1.000000000000000021e-02 1.000000000000000021e-02 1.000000000000000021e-02 1.000000000000000021e-02 1.000000000000000021e-02 1.000000000000000021e-02 1.000000000000000021e-02 1.000000000000000021e-02 1.000000000000000021e-02 1.000000000000000021e-02 1.000000000000000021e-02 1.000000000000000021e-02 1.000000000000000021e-02 1.000000000000000021e-02 1.000000000000000021e-02 1.000000000000000021e-02 1.000000000000000021e-02 1.000000000000000021e-02 1.000000000000000021e-02 1.000000000000000021e-02 1.000000000000000021e-02 1.000000000000000021e-02 1.000000000000000021e-02 1.000000000000000021e-02 1.000000000000000021e-02 1.000000000000000021e-02 1.000000000000000021e-02 1.000000000000000021e-02 1.000000000000000021e-02 1.000000000000000021e-02 1.000000000000000021e-02 1.000000000000000021e-02 1.000000000000000021e-02 1.000000000000000021e-02 1.000000000000000021e-02 1.000000000000000021e-02 1.000000000000000021e-02 1.000000000000000021e-02 1.000000000000000021e-02 1.000000000000000021e-02 1.000000000000000021e-02 1.000000000000000021e-02 1.000000000000000021e-02 1.000000000000000021e-02 1.000000000000000021e-02 1.000000000000000021e-02 1.000000000000000021e-02 1.000000000000000021e-02 1.000000000000000021e-02 1.000000000000000021e-02 1.000000000000000021e-02 1.000000000000000021e-02 1.000000000000000021e-02 1.000000000000000021e-02 1.000000000000000021e-02 1.000000000000000021e-02 1.000000000000000021e-02 1.000000000000000021e-02 1.000000000000000021e-02 1.000000000000000021e-02 1.000000000000000021e-02 1.000000000000000021e-02 1.000000000000000021e-02 1.000000000000000021e-02 1.000000000000000021e-02 1.000000000000000021e-02 1.000000000000000021e-02 1.000000000000000021e-02 1.000000000000000021e-02 1.000000000000000021e-02 1.000000000000000021e-02 1.000000000000000021e-02 1.000000000000000021e-02 1.000000000000000021e-02 1.000000000000000021e-02 1.000000000000000021e-02 1.000000000000000021e-02 1.000000000000000021e-02 1.000000000000000021e-02 1.000000000000000021e-02 1.000000000000000021e-02 1.000000000000000021e-02 1.000000000000000021e-02 1.000000000000000021e-02 1.000000000000000021e-02 1.000000000000000021e-02 1.000000000000000021e-02 1.000000000000000021e-02 1.000000000000000021e-02 1.000000000000000021e-02 1.000000000000000021e-02 1.000000000000000021e-02 1.000000000000000021e-02 1.000000000000000021e-02 1.000000000000000021e-02 1.000000000000000021e-02 1.000000000000000021e-02 1.000000000000000021e-02 1.000000000000000021e-02 1.000000000000000021e-02 1.000000000000000021e-02 1.000000000000000021e-02 1.000000000000000021e-02 1.000000000000000021e-02 1.000000000000000021e-02 1.000000000000000021e-02 1.000000000000000021e-02 1.000000000000000021e-02 1.000000000000000021e-02 1.000000000000000021e-02 1.000000000000000021e-02 1.000000000000000021e-02 1.000000000000000021e-02 1.000000000000000021e-02 1.000000000000000021e-02 1.000000000000000021e-02 1.000000000000000021e-02 1.000000000000000021e-02 1.000000000000000021e-02 1.000000000000000021e-02 1.000000000000000021e-02 1.000000000000000021e-02 1.000000000000000021e-02 1.000000000000000021e-02 1.000000000000000021e-02 1.000000000000000021e-02 1.000000000000000021e-02 1.000000000000000021e-02 1.000000000000000021e-02 1.000000000000000021e-02 1.000000000000000021e-02 1.000000000000000021e-02 1.000000000000000021e-02 1.000000000000000021e-02 1.000000000000000021e-02 1.000000000000000021e-02 1.000000000000000021e-02 1.000000000000000021e-02 1.000000000000000021e-02 1.000000000000000021e-02 1.000000000000000021e-02 1.000000000000000021e-02 1.000000000000000021e-02 1.000000000000000021e-02 1.000000000000000021e-02 1.000000000000000021e-02 1.000000000000000021e-02 1.000000000000000021e-02 1.000000000000000021e-02 1.000000000000000021e-02 1.000000000000000021e-02 1.000000000000000021e-02 1.000000000000000021e-02 1.000000000000000021e-02 1.000000000000000021e-02 1.000000000000000021e-02 1.000000000000000021e-02 1.000000000000000021e-02 1.000000000000000021e-02 1.000000000000000021e-02 1.000000000000000021e-02 1.000000000000000021e-02 1.000000000000000021e-02 1.000000000000000021e-02 1.000000000000000021e-02 1.000000000000000021e-02 1.000000000000000021e-02 1.000000000000000021e-02 1.000000000000000021e-02 1.000000000000000021e-02 1.000000000000000021e-02 1.000000000000000021e-02 1.000000000000000021e-02 1.000000000000000021e-02 1.000000000000000021e-02 1.000000000000000021e-02 1.000000000000000021e-02 1.000000000000000021e-02 1.000000000000000021e-02 1.000000000000000021e-02 1.000000000000000021e-02 1.000000000000000021e-02 1.000000000000000021e-02 1.000000000000000021e-02 1.000000000000000021e-02 1.000000000000000021e-02 1.000000000000000021e-02 1.000000000000000021e-02 1.000000000000000021e-02 1.000000000000000021e-02 1.000000000000000021e-02 1.000000000000000021e-02 1.000000000000000021e-02 1.000000000000000021e-02 1.000000000000000021e-02 1.000000000000000021e-02 1.000000000000000021e-02 1.000000000000000021e-02 1.000000000000000021e-02 1.000000000000000021e-02 1.000000000000000021e-02 1.000000000000000021e-02 1.000000000000000021e-02 1.000000000000000021e-02 1.000000000000000021e-02 1.000000000000000021e-02 1.000000000000000021e-02 1.000000000000000021e-02 1.000000000000000021e-02 1.000000000000000021e-02 1.000000000000000021e-02 1.000000000000000021e-02 1.000000000000000021e-02 1.000000000000000021e-02 1.000000000000000021e-02 1.000000000000000021e-02 1.000000000000000021e-02 1.000000000000000021e-02 1.000000000000000021e-02 1.000000000000000021e-02 1.000000000000000021e-02 1.000000000000000021e-02 1.000000000000000021e-02 1.000000000000000021e-02 1.000000000000000021e-02 1.000000000000000021e-02 1.000000000000000021e-02 1.000000000000000021e-02 1.000000000000000021e-02 1.000000000000000021e-02 1.000000000000000021e-02 1.000000000000000021e-02 1.000000000000000021e-02 1.000000000000000021e-02 1.000000000000000021e-02 1.000000000000000021e-02 1.000000000000000021e-02 1.000000000000000021e-02 1.000000000000000021e-02 1.000000000000000021e-02 1.000000000000000021e-02 1.000000000000000021e-02 1.000000000000000021e-02 1.000000000000000021e-02 1.000000000000000021e-02 1.000000000000000021e-02 1.000000000000000021e-02 1.000000000000000021e-02 1.000000000000000021e-02 1.000000000000000021e-02 1.000000000000000021e-02 1.000000000000000021e-02 1.000000000000000021e-02 1.000000000000000021e-02 1.000000000000000021e-02 1.000000000000000021e-02 1.000000000000000021e-02 1.000000000000000021e-02 1.000000000000000021e-02 1.000000000000000021e-02 1.000000000000000021e-02 1.000000000000000021e-02 1.000000000000000021e-02 1.000000000000000021e-02 1.000000000000000021e-02 1.000000000000000021e-02 1.000000000000000021e-02 1.000000000000000021e-02 1.000000000000000021e-02 1.000000000000000021e-02 1.000000000000000021e-02 1.000000000000000021e-02 1.000000000000000021e-02 1.000000000000000021e-02 1.000000000000000021e-02 1.000000000000000021e-02 1.000000000000000021e-02 1.000000000000000021e-02 1.000000000000000021e-02 1.000000000000000021e-02 1.000000000000000021e-02 1.000000000000000021e-02 1.000000000000000021e-02 1.000000000000000021e-02 1.000000000000000021e-02 1.000000000000000021e-02 1.000000000000000021e-02 1.000000000000000021e-02 1.000000000000000021e-02 1.000000000000000021e-02 1.000000000000000021e-02 1.000000000000000021e-02 1.000000000000000021e-02 1.000000000000000021e-02 1.000000000000000021e-02 1.000000000000000021e-02 1.000000000000000021e-02 1.000000000000000021e-02 1.000000000000000021e-02 1.000000000000000021e-02 1.000000000000000021e-02 1.000000000000000021e-02 1.000000000000000021e-02 1.000000000000000021e-02 1.000000000000000021e-02 1.000000000000000021e-02 1.000000000000000021e-02 1.000000000000000021e-02 1.000000000000000021e-02 1.000000000000000021e-02 1.000000000000000021e-02 1.000000000000000021e-02 1.000000000000000021e-02 1.000000000000000021e-02 1.000000000000000021e-02 1.000000000000000021e-02 1.000000000000000021e-02 1.000000000000000021e-02 1.000000000000000021e-02 1.000000000000000021e-02 1.000000000000000021e-02 1.000000000000000021e-02 1.000000000000000021e-02 1.000000000000000021e-02 1.000000000000000021e-02 1.000000000000000021e-02 1.000000000000000021e-02 1.000000000000000021e-02 1.000000000000000021e-02 1.000000000000000021e-02 1.000000000000000021e-02 1.000000000000000021e-02 1.000000000000000021e-02 1.000000000000000021e-02 1.000000000000000021e-02 1.000000000000000021e-02 1.000000000000000021e-02 1.000000000000000021e-02 1.000000000000000021e-02 1.000000000000000021e-02 1.000000000000000021e-02 1.000000000000000021e-02 1.000000000000000021e-02 1.000000000000000021e-02 1.000000000000000021e-02 1.000000000000000021e-02 1.000000000000000021e-02 1.000000000000000021e-02 1.000000000000000021e-02 1.000000000000000021e-02 1.000000000000000021e-02 1.000000000000000021e-02 1.000000000000000021e-02 1.000000000000000021e-02 1.000000000000000021e-02 1.000000000000000021e-02 1.000000000000000021e-02 1.000000000000000021e-02 1.000000000000000021e-02 1.000000000000000021e-02 1.000000000000000021e-02 1.000000000000000021e-02 1.000000000000000021e-02 1.000000000000000021e-02 1.000000000000000021e-02 1.000000000000000021e-02 1.000000000000000021e-02 1.000000000000000021e-02 1.000000000000000021e-02 1.000000000000000021e-02 1.000000000000000021e-02 1.000000000000000021e-02 1.000000000000000021e-02 1.000000000000000021e-02 1.000000000000000021e-02 1.000000000000000021e-02 1.000000000000000021e-02 1.000000000000000021e-02 1.000000000000000021e-02 1.000000000000000021e-02 1.000000000000000021e-02 1.000000000000000021e-02 1.000000000000000021e-02 1.000000000000000021e-02 1.000000000000000021e-02 1.000000000000000021e-02 1.000000000000000021e-02 1.000000000000000021e-02 1.000000000000000021e-02 1.000000000000000021e-02 1.000000000000000021e-02 1.000000000000000021e-02 1.000000000000000021e-02 1.000000000000000021e-02 1.000000000000000021e-02 1.000000000000000021e-02 1.000000000000000021e-02 1.000000000000000021e-02 1.000000000000000021e-02 1.000000000000000021e-02 1.000000000000000021e-02 1.000000000000000021e-02 1.000000000000000021e-02 1.000000000000000021e-02 1.000000000000000021e-02 1.000000000000000021e-02 1.000000000000000021e-02 1.000000000000000021e-02 1.000000000000000021e-02 1.000000000000000021e-02 1.000000000000000021e-02 1.000000000000000021e-02 1.000000000000000021e-02 1.000000000000000021e-02 1.000000000000000021e-02 1.000000000000000021e-02 1.000000000000000021e-02 1.000000000000000021e-02 1.000000000000000021e-02 1.000000000000000021e-02 1.000000000000000021e-02 1.000000000000000021e-02 1.000000000000000021e-02 1.000000000000000021e-02 1.000000000000000021e-02 1.000000000000000021e-02 1.000000000000000021e-02 1.000000000000000021e-02 1.000000000000000021e-02 1.000000000000000021e-02 1.000000000000000021e-02 1.000000000000000021e-02 1.000000000000000021e-02 1.000000000000000021e-02 1.000000000000000021e-02 1.000000000000000021e-02 1.000000000000000021e-02 1.000000000000000021e-02 1.000000000000000021e-02 1.000000000000000021e-02 1.000000000000000021e-02 1.000000000000000021e-02 1.000000000000000021e-02 1.000000000000000021e-02 1.000000000000000021e-02 1.000000000000000021e-02 1.000000000000000021e-02 1.000000000000000021e-02 1.000000000000000021e-02 1.000000000000000021e-02 1.000000000000000021e-02 1.000000000000000021e-02 1.000000000000000021e-02 1.000000000000000021e-02 1.000000000000000021e-02 1.000000000000000021e-02 1.000000000000000021e-02 1.000000000000000021e-02 1.000000000000000021e-02 1.000000000000000021e-02 1.000000000000000021e-02 1.000000000000000021e-02 1.000000000000000021e-02 1.000000000000000021e-02 1.000000000000000021e-02 1.000000000000000021e-02 1.000000000000000021e-02 1.000000000000000021e-02 1.000000000000000021e-02 1.000000000000000021e-02 1.000000000000000021e-02 1.000000000000000021e-02 1.000000000000000021e-02 1.000000000000000021e-02 1.000000000000000021e-02 1.000000000000000021e-02 1.000000000000000021e-02 1.000000000000000021e-02 1.000000000000000021e-02 1.000000000000000021e-02 1.000000000000000021e-02 1.000000000000000021e-02 1.000000000000000021e-02 1.000000000000000021e-02 1.000000000000000021e-02 1.000000000000000021e-02 1.000000000000000021e-02 1.000000000000000021e-02 1.000000000000000021e-02 1.000000000000000021e-02 1.000000000000000021e-02 1.000000000000000021e-02 1.000000000000000021e-02 1.000000000000000021e-02 1.000000000000000021e-02 1.000000000000000021e-02 1.000000000000000021e-02 1.000000000000000021e-02 1.000000000000000021e-02 1.000000000000000021e-02 1.000000000000000021e-02 1.000000000000000021e-02 1.000000000000000021e-02 1.000000000000000021e-02 1.000000000000000021e-02 1.000000000000000021e-02 1.000000000000000021e-02 1.000000000000000021e-02 1.000000000000000021e-02 1.000000000000000021e-02 1.000000000000000021e-02 1.000000000000000021e-02 1.000000000000000021e-02 1.000000000000000021e-02 1.000000000000000021e-02 1.000000000000000021e-02 1.000000000000000021e-02 1.000000000000000021e-02 1.000000000000000021e-02 1.000000000000000021e-02 1.000000000000000021e-02 1.000000000000000021e-02 1.000000000000000021e-02 1.000000000000000021e-02 1.000000000000000021e-02 1.000000000000000021e-02 1.000000000000000021e-02 1.000000000000000021e-02 1.000000000000000021e-02 1.000000000000000021e-02 1.000000000000000021e-02 1.000000000000000021e-02 1.000000000000000021e-02 1.000000000000000021e-02 1.000000000000000021e-02 1.000000000000000021e-02 1.000000000000000021e-02 1.000000000000000021e-02 1.000000000000000021e-02 1.000000000000000021e-02 1.000000000000000021e-02 1.000000000000000021e-02 1.000000000000000021e-02 1.000000000000000021e-02 1.000000000000000021e-02 1.000000000000000021e-02 1.000000000000000021e-02 1.000000000000000021e-02 1.000000000000000021e-02 1.000000000000000021e-02 1.000000000000000021e-02 1.000000000000000021e-02 1.000000000000000021e-02 1.000000000000000021e-02 1.000000000000000021e-02 1.000000000000000021e-02 1.000000000000000021e-02 1.000000000000000021e-02 1.000000000000000021e-02 1.000000000000000021e-02 1.000000000000000021e-02 1.000000000000000021e-02 1.000000000000000021e-02 1.000000000000000021e-02 1.000000000000000021e-02 1.000000000000000021e-02 1.000000000000000021e-02 1.000000000000000021e-02 1.000000000000000021e-02 1.000000000000000021e-02 1.000000000000000021e-02 1.000000000000000021e-02 1.000000000000000021e-02 1.000000000000000021e-02 1.000000000000000021e-02 1.000000000000000021e-02 1.000000000000000021e-02 1.000000000000000021e-02 1.000000000000000021e-02 1.000000000000000021e-02 1.000000000000000021e-02 1.000000000000000021e-02 1.000000000000000021e-02 1.000000000000000021e-02 1.000000000000000021e-02 1.000000000000000021e-02 1.000000000000000021e-02 1.000000000000000021e-02 1.000000000000000021e-02 1.000000000000000021e-02 1.000000000000000021e-02 1.000000000000000021e-02 1.000000000000000021e-02 1.000000000000000021e-02 1.000000000000000021e-02 1.000000000000000021e-02 1.000000000000000021e-02 1.000000000000000021e-02 1.000000000000000021e-02 1.000000000000000021e-02 1.000000000000000021e-02 1.000000000000000021e-02 1.000000000000000021e-02 1.000000000000000021e-02 1.000000000000000021e-02 1.000000000000000021e-02 1.000000000000000021e-02 1.000000000000000021e-02 1.000000000000000021e-02 1.000000000000000021e-02 1.000000000000000021e-02 1.000000000000000021e-02 1.000000000000000021e-02 1.000000000000000021e-02 1.000000000000000021e-02 1.000000000000000021e-02 1.000000000000000021e-02 1.000000000000000021e-02 1.000000000000000021e-02 1.000000000000000021e-02 1.000000000000000021e-02 1.000000000000000021e-02 1.000000000000000021e-02 1.000000000000000021e-02 1.000000000000000021e-02 1.000000000000000021e-02 1.000000000000000021e-02 1.000000000000000021e-02 1.000000000000000021e-02 1.000000000000000021e-02 1.000000000000000021e-02 1.000000000000000021e-02 1.000000000000000021e-02 1.000000000000000021e-02 1.000000000000000021e-02 1.000000000000000021e-02 1.000000000000000021e-02 1.000000000000000021e-02 1.000000000000000021e-02 1.000000000000000021e-02 1.000000000000000021e-02 1.000000000000000021e-02 1.000000000000000021e-02 1.000000000000000021e-02 1.000000000000000021e-02 1.000000000000000021e-02 1.000000000000000021e-02 1.000000000000000021e-02 1.000000000000000021e-02 1.000000000000000021e-02 1.000000000000000021e-02 1.000000000000000021e-02 1.000000000000000021e-02 1.000000000000000021e-02 1.000000000000000021e-02 1.000000000000000021e-02 1.000000000000000021e-02 1.000000000000000021e-02 1.000000000000000021e-02 1.000000000000000021e-02 1.000000000000000021e-02 1.000000000000000021e-02 1.000000000000000021e-02 1.000000000000000021e-02 1.000000000000000021e-02 1.000000000000000021e-02 1.000000000000000021e-02 1.000000000000000021e-02 1.000000000000000021e-02 1.000000000000000021e-02 1.000000000000000021e-02 1.000000000000000021e-02 1.000000000000000021e-02 1.000000000000000021e-02 1.000000000000000021e-02 1.000000000000000021e-02 1.000000000000000021e-02 1.000000000000000021e-02 1.000000000000000021e-02 1.000000000000000021e-02 1.000000000000000021e-02 1.000000000000000021e-02 1.000000000000000021e-02 1.000000000000000021e-02 1.000000000000000021e-02 1.000000000000000021e-02 1.000000000000000021e-02 1.000000000000000021e-02 1.000000000000000021e-02 1.000000000000000021e-02 1.000000000000000021e-02 1.000000000000000021e-02 1.000000000000000021e-02 1.000000000000000021e-02 1.000000000000000021e-02 1.000000000000000021e-02 1.000000000000000021e-02 1.000000000000000021e-02 1.000000000000000021e-02 1.000000000000000021e-02 1.000000000000000021e-02 1.000000000000000021e-02 1.000000000000000021e-02 1.000000000000000021e-02 1.000000000000000021e-02 1.000000000000000021e-02 1.000000000000000021e-02 1.000000000000000021e-02 1.000000000000000021e-02 1.000000000000000021e-02 1.000000000000000021e-02 1.000000000000000021e-02 1.000000000000000021e-02 1.000000000000000021e-02 1.000000000000000021e-02 1.000000000000000021e-02 1.000000000000000021e-02 1.000000000000000021e-02 1.000000000000000021e-02 1.000000000000000021e-02 1.000000000000000021e-02 1.000000000000000021e-02 1.000000000000000021e-02 1.000000000000000021e-02 1.000000000000000021e-02 1.000000000000000021e-02 1.000000000000000021e-02 1.000000000000000021e-02 1.000000000000000021e-02 1.000000000000000021e-02 1.000000000000000021e-02 1.000000000000000021e-02 1.000000000000000021e-02 1.000000000000000021e-02 1.000000000000000021e-02 1.000000000000000021e-02 1.000000000000000021e-02 1.000000000000000021e-02 1.000000000000000021e-02 1.000000000000000021e-02 1.000000000000000021e-02 1.000000000000000021e-02 1.000000000000000021e-02 1.000000000000000021e-02 1.000000000000000021e-02 1.000000000000000021e-02 1.000000000000000021e-02 1.000000000000000021e-02 1.000000000000000021e-02 1.000000000000000021e-02 1.000000000000000021e-02 1.000000000000000021e-02 1.000000000000000021e-02 1.000000000000000021e-02 1.000000000000000021e-02 1.000000000000000021e-02 1.000000000000000021e-02 1.000000000000000021e-02 1.000000000000000021e-02 1.000000000000000021e-02 1.000000000000000021e-02 1.000000000000000021e-02 1.000000000000000021e-02 1.000000000000000021e-02 1.000000000000000021e-02 1.000000000000000021e-02 1.000000000000000021e-02 1.000000000000000021e-02 1.000000000000000021e-02 1.000000000000000021e-02 1.000000000000000021e-02 1.000000000000000021e-02 1.000000000000000021e-02 1.000000000000000021e-02 1.000000000000000021e-02 1.000000000000000021e-02 1.000000000000000021e-02 1.000000000000000021e-02 1.000000000000000021e-02 1.000000000000000021e-02 1.000000000000000021e-02 1.000000000000000021e-02 1.000000000000000021e-02 1.000000000000000021e-02 1.000000000000000021e-02 1.000000000000000021e-02 1.000000000000000021e-02 1.000000000000000021e-02 1.000000000000000021e-02 1.000000000000000021e-02 1.000000000000000021e-02 1.000000000000000021e-02 1.000000000000000021e-02 1.000000000000000021e-02 1.000000000000000021e-02 1.000000000000000021e-02 1.000000000000000021e-02 1.000000000000000021e-02 1.000000000000000021e-02 1.000000000000000021e-02 1.000000000000000021e-02 1.000000000000000021e-02 1.000000000000000021e-02 1.000000000000000021e-02 1.000000000000000021e-02 1.000000000000000021e-02 1.000000000000000021e-02 1.000000000000000021e-02 1.000000000000000021e-02 1.000000000000000021e-02 1.000000000000000021e-02 1.000000000000000021e-02 1.000000000000000021e-02 1.000000000000000021e-02 1.000000000000000021e-02 1.000000000000000021e-02 1.000000000000000021e-02 1.000000000000000021e-02 1.000000000000000021e-02 1.000000000000000021e-02 1.000000000000000021e-02 1.000000000000000021e-02 1.000000000000000021e-02 1.000000000000000021e-02
-1.153929649466960541e+02 1.752796918558309756e+02 4.071073351102485560e+01 -9.156778710300514490e+00 -9.086766407119550593e+01 -1.384854703482132443e+01 -2.149129131467969103e+02 6.913385174762022300e-01 -8.762772569958472957e+01 -1.441307346025416081e+01 -2.048814665589675243e+01 6.709458123535796403e+00 -1.840370824114286430e+00 1.734866528461420501e+02 8.748292956226003980e+01 -4.005837356640513747e+01 -5.453581023774100345e+01 8.190705758838647910e+01 3.392697998477613908e+01 -2.621717437447280474e+01 -8.154405240113024433e+01 -7.633883017344773236e+01 -1.428909116276286184e+01 2.991575729908235459e+01 -2.015519085461745306e+02 -1.021097925460744449e+02 -2.696817977985754666e+01 2.085048432483982310e+02 7.316798763995340948e+01 7.929027206114587045e+01 8.301173520209904666e+01 1.229759041918492946e+00 -8.183686639007217423e+01 2.144140788230060366e+02 -2.530976322649055419e+02 6.077090741233855198e+01 -1.242841628183337406e+02 -3.584832472113814106e+01 4.165816962623061670e+00 1.310131523437325711e+02 -1.270969231984999368e+02 -1.414109132912768096e+01 8.001714212919439717e+01 1.794802227776258974e+02 7.381052501121111220e+01 -7.079000745295259378e+01 4.267870203203703028e+01 -2.932917791461686718e+01 -6.831196205824925016e+01 1.619262575886104969e+02 -7.304294839636331460e+01 -5.391120489206163313e+01 -1.440012377559980337e+02 5.880829574504063295e+00 -5.227924334495668290e+01 3.996862194571886562e+01 -9.174348879377014043e+01 -5.177911625672662410e+01 -1.048615673645496287e+02 -1.607275494003540928e+02 2.015817445081990300e+01 4.685505353084532487e+01 -1.273114567783864430e+02 1.330479687032338809e+01 -8.203448385862843395e+01 5.078916296433035171e+01 1.722541317903236120e+02 -1.491667326825174484e+02 -4.480829439271897030e+01 7.414603509346972210e+00 3.018446359392600531e+00 4.381707299052564508e+01 8.685168865022968987e+01 9.866290079616324427e-01 -9.065761589068806359e+00 -7.244079135924174295e+01 8.095316363585065744e+01 -3.393673389210677982e+01 2.717774763254619330e+01 1.075570365739353917e+02 9.127239034342458979e+01 -4.419965013693049372e+01 5.982793168180543120e+01 1.524877243589187117e+02 1.201727898949258559e+02 -4.189538363523691800e+00 1.801954908686684291e+02 -1.153192474274474932e+02 4.376184716193955992e+00 -4.337286613895740572e+01 2.139385890552524074e+02 -2.194943055119474096e+01 2.961312048106811368e+00 -7.941121933267376676e+01 -7.366217468757068509e+00 -6.606211216795389873e+01 7.007522976505381962e+01 -9.777730573137412762e+01 7.085972278450775264e+01 -4.936027535793890308e+01 -5.148395986035160377e+01 -9.479111404487149173e+01 5.494214312090262098e+01 -5.662743908608486265e+01 -1.544568042566866666e+02 -8.221339317593582052e+01 -1.082124065040029706e+02 -1.626242413230052364e+02 1.406207589641009577e+02 -2.848777666994397606e+01 3.311503480626670637e+01 9.274473584225685840e+01 -1.076761057355295890e+02 5.894606590414237246e+01 -4.481308645234570776e+01 -7.164092904307922538e+01 -9.312890466253750787e+01 2.103118647272908959e+02 -5.869576846268245163e+01 -5.116289340011455522e+01 -4.887680282448080504e+01 8.316953428691628858e+01 -4.281561134078442876e+01 1.427529081874718315e+02 -5.153493781474336544e+01 5.694545177991465579e+01 4.697310224729608130e+00 -8.397732043034784510e+01 7.121494786205678906e+01 2.868965111057206059e+02 -9.514483989741273717e+01 4.914659228260261159e+01 -7.882055403595990128e+01 4.678579429402536505e+01 1.356938201495052567e+02 -5.310693768576961560e+01 1.506828925048934842e+01 -2.783270866817800382e+01 -1.054339759851954597e+02 -1.784248677418629114e+01 4.396002016550184521e+00 -8.100538554500616328e+00 -1.548286521671523808e+01 1.223610056341647265e+02 1.348238062435365805e+02 1.928888996281645802e+02 -3.148213382556878059e+02 3.954699589412014404e+01 -1.627981756001879177e+01 -6.453122076724827139e+01 1.866116975524695079e+02 7.891971710308962429e+01 -2.640120802228924202e+00 -1.200434810437929087e+02 -1.130680061881951737e+01 1.035992442827937907e+02 -1.391554463665942762e+02 -1.745920297023147327e+02 1.111337432923945734e+01 4.394936257717761663e+01 -6.316417482258847826e+01 4.352362568575777146e+01 -1.108972410285349923e+02 -1.567355604050896716e+02 2.188810097866725712e+01 5.032237127997804293e+01 4.959843292344304544e+00 -8.653129694857007337e+01 -9.697678327675328092e+01 -8.741258116642920584e+01 -9.072117010737838427e+01 1.306363379755074838e+01 5.892940199771246768e+01 1.207648591277514640e+02 8.237209257832320475e+01 9.280144164111042926e+01 1.114017963844877954e+02 -7.758763744134817841e+01 -8.560858310063022714e+01 7.316515526868238339e+01 7.097957425401619957e+01 6.147262206712674981e+01 -9.756786686932235497e+00 -9.455520725383819070e+01 5.604445627962743970e+01 -1.857951512454253589e+02 6.973798417812925265e+01 -4.630037974270518930e+01 -1.002243649717773906e+02 7.711427462939093402e+01 -1.778615600756671711e+01 -8.021648737327487311e+01 -5.978235391786454755e+01 -9.496028727362789468e+00 2.524099869729858767e+02 7.987350081034067273e+01 5.705550728263213500e+01 -1.081705257854320621e+02 1.543365167640799598e+02 1.068046909992714566e+00 -9.415376643580833615e+01 1.622672443611476751e+02 -1.606056410107160275e+02 1.643519835225135850e+01 -3.394614318978970857e+01 -2.315563522072541787e+02 -1.406326986359700868e+02 -9.195095618063888310e+01 -3.080367567205647461e+01 -1.256953281861495526e+02 6.078589580274669402e+01 6.847678737929768999e+01 -2.903317137105880619e+01 -1.050588472320951610e+02 1.191962305526963490e+02 1.246270688922532202e+02 4.871572671777720132e+01 1.837967750784035559e+01 2.754903754510062868e+02 4.605717733245994339e+01 -1.258607058579387115e+02 -4.748136435225175234e+01 -1.781005379713979835e+02 3.361074058936068099e+01 1.617446152017015777e+02 -1.565846464030538527e+02 1.389720553769523974e+02 -9.596939306832605610e+01 -1.992054393917511135e+01 -7.569757764482284434e-01 5.576326875777112235e+01 -1.226345566492273775e+01 -2.402907973064420233e+01 -2.001386795077818448e+01 -1.336598141051685786e+02 4.901802641310076325e+01 -3.206383767647277239e+01 -1.373995203812138044e+01 -1.130368341516003206e+01 2.385371202845531116e+02 1.838697656550298802e+02 2.455943202587220355e+02 1.391519107828126778e+02 -9.140384314207358329e+01 7.941976825545478391e+01 2.227412915344931932e+01 5.029885855900405289e+01 -4.199217374192555496e+01 2.697392752214814209e+02 -2.458943245875241956e+01 -1.443944074635975312e+02 -1.580656416626872840e+01 -4.838786951928004498e+01 -8.177282959325169998e+01 4.559225478138773724e+01 -1.237336370492494630e+01 1.921630409985818346e+02 9.766660974771723147e+01 4.320076250165607945e+01 1.036000915178901778e+02 9.975960588448052135e+01 -2.429019030664181500e+01 1.475391099803158284e+02 2.796003154727615936e+01 9.462270677564896459e+01 5.032850599885878040e+01 7.335656374515892253e+00 -1.223444078588666315e+02 -1.223764185621195537e+02 -9.510617703943653112e+01 -1.646431685439837977e+01 9.159362608232264336e+01 -3.242308904429560812e+01 1.045084146613824032e+02 4.628294274853944756e+01 -7.685470267343542616e+01 -3.168455084641932373e+01 -6.193237887464439240e+01 1.855650241840522341e+01 -4.898947982101241649e+01 -1.184100662855492914e+02 1.284574313883108232e+02 1.282194989641419909e+02 -8.341195943921054834e+01 5.795003392453389246e+00 -4.787219734613663746e+01 -3.449730923899134893e+01 -1.198718915393811990e+01 -3.297802514086693293e+01 4.694321765358868248e+01 -1.484651929251309923e+02 -5.581229621877778158e+01 -1.605004615302987077e+02 1.839620020602510237e+02 -2.140905430291850919e+01 6.229269789404276025e+01 1.261615047804384915e+01 1.525183387678983138e+02 4.717871151440678545e+01 3.776173184714879483e+01 1.629531965087521144e+02 -5.201438956272054526e+01 -1.030007890069752392e+02 2.864188387699000415e+01 -1.667772397719843980e+02 -5.634904932238270447e+01 1.079308174161233609e+02 -1.348515190533678947e+02 -3.837672127216388418e+01 9.633434433161599486e+01 -9.972667943785845068e+01 -9.445834404352174829e+01 -8.720886081356087516e+01 -6.737088427620659559e+01 2.626686264037868455e+02 2.090398463201413222e+02 1.086633098461077509e+02 -1.077876346558811775e+02 7.896132019447922801e+01 -6.969135994180051341e+01 -3.283963598035190756e+01 1.749350528547294203e+01 -3.388723226005876654e+01 -9.882242342285111647e+01 -2.823337369621367277e+00 1.561652367613817027e+01 1.145639892536554640e+02 -1.353170944050785067e+02 4.406064238916741260e+01 6.711794793913951196e+01 3.639617321765199875e+01 -9.536621431508366697e+01 -1.562545691835775585e+02 2.033361670655809519e+02 -1.875191091875740668e+01 2.650192153564199771e+01 1.645974618836960985e+02 2.805191738976952820e+01 2.918411976437505118e+01 -4.681090387855057600e+01 9.312412529655281901e+01 -1.433332371013876241e+02 -3.238985451817073624e+01 -6.445565878819153660e+00 -5.615025694747414065e+01 6.443882845510401580e+00 2.241509066361659919e+01 -3.760168802208636407e+01 1.435810200455741814e+01 2.245006939496832672e+02 -2.876076433381705755e+01 -2.935397180000077100e+01 -1.067705833714440189e+02 -1.746860015706499514e+00 -8.481954195210268210e+01 6.743961954571112472e+00 1.176698234323073535e+02 -5.464032874129803474e+01 6.357450384088193296e+00 -5.704975613277012059e+01 3.510477096825930676e+00 9.157425928462259890e+01 -1.216393402858624739e+02 -1.016151064641901627e+02 -1.076467456112307559e+02 7.497249586140240751e+01 9.087093565758105740e+01 -9.693121335936655214e+01 6.569241325425593914e+01 2.708239210858862478e+01 4.060881669892756207e+01 -1.864666524183425622e+01 9.585753824361965769e+01 8.370924538698982076e+01 -8.112928237400446108e+01 1.247568321157111271e+01 8.492535405215600974e+01 7.648747472501977995e+01 -2.084895402942286680e+01 2.623572384616152320e+01 -1.391476105418849727e+02 5.089913834153334449e+01 -3.438084323408742904e+01 -3.424071324626974899e+01 1.817512934677347403e+02 4.980011579604683902e+01 1.261734114058643854e+02 2.003669988937103597e+02 -1.445125955815389034e+02 1.564103253947911298e+02 -6.648061935615940854e+01 -1.417951498673906201e+02 8.639203019170062703e+01 -1.407221815764649477e+02 -3.011420691176977016e+01 5.922061103154278783e+01 8.509673223915283913e+00 -1.763631536962770383e+02 8.835408393087708134e+01 2.644493227072139518e+01 7.251565167613688345e+01 3.804428985862045209e+01 9.949457942861206661e+00 -7.043297250113037933e+01 1.214722111236157502e+02 5.716937328441774469e+01 -6.519729708361094822e+01 -1.062312864474895093e+02 4.089785679117512984e+01 2.689587752804731480e+01 8.643311468818870935e+01 1.927498443056091446e+02 -2.586710294522375619e+01 -1.155628832078827770e+02 -8.895552895376356162e+01 -5.385370271483805737e+01 -4.660596483606252605e+01 -1.539755818707237154e+02 -2.359016762531945588e+01 1.358391809364878497e+02 7.822791696525358418e+01 -1.283987055458818816e+02 -1.571497981998627154e+02 -7.147864508385333693e+01 -8.016679844963482537e+01 1.539155035160517002e+02 -1.788264683029170783e+02 9.075778938196310719e+01 -4.835433124583577325e+00 -4.512283998673589025e+01 1.397358992278671153e+01 9.568134906393387951e+01 5.206643511723587636e+01 1.449924009417970865e+02 -1.669323202073863115e+02 -8.494578111552264943e+01 2.655187308778956989e+01 4.399973100928124836e+01 2.162858362802085423e+02 1.525671808371324403e+02 6.871357057283026393e+01 7.564041836612459235e+01 -3.598884942386951735e+01 1.592973967146338055e+02 -1.880710377027453433e+02 -6.647818927882266848e+01 -5.632094343275261394e+01 -5.433160814153265505e+01 -1.083707051928948459e+02 -1.570623980553598464e+01 -7.201337469762738408e+01 7.468481751170227767e+01 -9.626055044036876396e+00 -6.098279781425758728e+01 -6.541128100914458798e+01 1.890097019009189694e+02 6.183826178317659839e+01 -1.434572345476247968e+01 2.190734234636529720e+02 -1.135933206354739582e+02 -3.707202534905474778e+01 7.021910235067552719e+01 -1.301027438431988648e-01 1.563870206230060944e+01 -1.311075651355576497e+02 1.847601985639405768e+02 -5.141429399281312840e+01 -2.829285075187832632e+01 -1.150396955115517272e+02 1.319471704966364314e+02 1.005666415363229476e+02 -8.128385862724429956e+01 -3.933092495652166320e+01 4.079499028702797858e+01 -1.586989234480398636e+02 -1.170495473433153522e-01 -7.828501869404223612e+01 8.090893096984320465e+00 -1.133172414229438516e+02 -1.661091905663576824e+02 -7.403889593313736839e+01 1.552039149215139844e+02 5.930712775248466073e+01 -9.384426939198563389e+01 9.342752164380534907e+01 3.588575716296158191e+01 9.242719247481275602e+01 -4.409371139066622192e+01 -8.806720333840310388e+01 1.790213535663689584e+02 4.363445995665561128e+01 3.031542151666225848e+01 -7.643179603350397144e+01 -4.427504904787463147e+01 1.003310954375114861e+01 -7.479695092589548011e+00 -1.808090470321543535e+02 -3.618729919209406631e+01 6.739846892847030801e+01 1.167770984930702838e+02 1.628247117603299046e+02 -1.386127038533175693e+01 9.370544088339450184e+01 1.648664129410606449e+02 6.631487084176880842e+01 1.545415605783122714e+02 1.678502483611940121e+01 1.371943856619984388e+02 -8.769874266822293407e+01 5.577147584335999397e+01 3.067424194318252262e+01 7.923830703680255283e+01 -1.108804392751525256e+02 2.066699084179015244e+02 -1.344794195686201874e+02 9.211356199721765847e+01 -1.121393967559682068e+02 4.810978252905879060e+01 1.438425616174630406e+01 9.461479215390208708e+01 -7.684442450977152816e+01 -7.872743141473806361e+01 -1.166252815325799297e+01 9.285768852198091849e+01 -3.082638398150178816e+01 -1.700583316916037546e+01 -2.045498790693125457e+01 4.936142728538594149e+00 1.022130146363490439e+02 -6.516610164288702833e+01 -2.834379594373722888e+00 -2.015339220223710583e+02 1.266264807159438561e+02 -1.296487197695570899e+02 -7.672388521158812580e+01 -2.446098224053196191e+01 -1.120390004183379205e+02 -5.520457402103441069e+01 -6.079007562840445189e+01 -2.040177376957547395e+01 1.414938517516629872e+02 5.612173563703940005e+01 1.042795230182805426e+02 -1.412838763912019715e+02 -1.438752063228643863e+02 -2.973717854689564888e+02 1.060115998012426388e+02 1.082840010229701306e+02 4.385875990728283114e+01 -4.400198170538959630e+01 -3.867228972873957815e+01 -1.906212997465536603e+02 1.517536459843267664e+02 -1.115370021570732177e+02 1.110499703653801191e+02 -1.653442953319051583e+02 -1.484766823916893586e+01 -5.749621662995387084e+01 -1.238106078956508327e+02 -4.785747463740991492e+01 -1.293308768496839889e+01 -9.619745575362604484e+01 -1.075008845799860779e+02 -1.282396052748565296e+01 7.395353652797399491e+01 -1.294463910296363451e+02 -1.628675615387881592e+01 -7.660655389532939807e+01 -1.364913354889058610e+02 6.980198105719631840e+00 9.891370973388589505e+01 1.718953846410506969e+02 -1.982364376679645801e+01 -4.785175635162854491e+01 -1.289417926068251177e+02 -1.698979180776115925e+02 1.077830707628648526e+02 -7.558888754669841603e+01 8.212587146617548228e+01 9.776283850583711299e+00 3.042203456673745876e+01 7.675265183557992543e+01 -8.802747995142495085e+01 8.589728748378972512e+01 1.197954710368265268e+02 1.635629200113129968e+02 -1.212198492905196048e+02 1.080231048064850512e+02 -4.962793829314135508e+01 -9.436843749463687914e+01 2.229896420540386544e+02 5.122809100319464903e+01 8.675654813781582675e+01 2.217665911111340904e+01 -6.561521421290913736e+01 -3.631760305377217435e+01 -2.186603398701949175e+02 1.097888717268737651e+02 8.474065594210253494e+01 -7.869114011135440023e+01 -7.607147362691200954e+01 1.509351754698579100e+02 1.050571654964593904e+02 5.312694644225076246e+01 7.910427176197651988e+01 -8.243742422856566776e+00 1.072807951841521685e+02 -1.075933274993868167e+02 1.938144748252302918e+02 -4.104325707610731655e+01 -1.267984508041595859e+02 -3.912433101412869263e+01 7.458701894648409336e+01 1.531822144023517183e+02 1.348320833502168981e+01 1.807019722300796332e+02 5.428858028204233221e+01 3.493101631991901712e+01 -1.157397195591285737e+02 4.661202724068440517e+01 -1.300276847076576132e+02 4.956402667700339748e+01 4.021668354164918924e+01 -1.282018218958117473e+02 -8.840226771787035887e+01 4.139623987684542783e+01 9.072737057782699566e+00 -2.417712158153113577e+01 4.349101865982969173e+01 -2.224427344993201672e+01 -6.559667330810800934e+01 -2.712198183619436165e+01 -2.337413474011021108e+01 -4.141675031363384107e+01 1.953553937099340843e+01 -8.365781498795355731e+01 1.236782701106500326e+02 -7.731450452257725203e+01 -4.511166838764459897e+00 6.805149309081220110e+01 4.070743874739433110e+00 1.656142410081291061e+01 1.658015136869356709e+01 -1.218008481089527208e+02 -4.602626731600532928e+00 6.763909326320406024e+01 -2.406257157432321776e+02 -8.818951806176293928e+01 -1.172190391148494228e+02 4.551808257373588162e+01 1.000458347110136827e+02 -9.537070464392927249e+01 -1.745452640711584991e+02 -1.924413317769823948e+02 2.077709017203276431e+01 -1.506832005785356614e+02 -6.560993066415384156e+00 1.533680516353272765e+02 -7.412939576990464907e+00 3.859766839442010422e+01 -1.027356633861235906e+02 8.284057147436003277e+01 -1.229624478161100285e+02 -1.595541291945797013e+01 -3.144213957307739804e+01 5.963571783943383764e+01 -9.229828329076539717e+00 1.094467980419832003e+02 -1.263291177507270078e+02 -5.182714379999001864e+01 8.946656722936602080e+01 6.841750457892692339e+01 -8.518890425012550338e+01 -5.622147415745215682e+01 -5.099068257954753847e+01 -2.989601954117774767e+02 1.999065813968773284e+02 7.863884470958693385e+01 -2.439395408982874969e+01 -3.061797421457686497e+01 4.286595792810978622e+01 -8.689466235925250714e+01 1.027316855708034780e+02 6.233446885883235922e+01 8.465696065148924276e+01 -8.672331463063785861e+01 -2.744428917512844990e+01 3.440757801411761818e+01 1.791825771133438039e+01 -4.410300960940643478e+01 1.626765074754473801e+02 -1.782939043974334581e+01 3.643565208519796528e+01 -2.366952736353864850e+02 -8.725342949271752957e+01 -7.537177018136716811e+01 2.369670921017354814e+01 1.124420848655364864e+02 -2.384860061597580057e+02 -1.925656283192238050e+02 2.282589388482134609e+02 -1.088592199841889752e+01 9.893535427056110620e+01 6.462622641887365660e+01 -5.702743822675462582e+01 -1.348759464682973146e+02 -9.797437635698264558e+01 -5.175831297305297340e+01 -3.856370183644038718e+01 -4.030747932842616166e+01 1.667744782460306041e+01 3.819566871102814787e+01 1.717005921707948062e+02 1.267943306154815417e+02 7.093430038322700248e+00 -4.498630119388113968e+00 -1.635152865273370253e+02 1.231753897359626677e+02 1.640391933654814807e+02 -1.064311999212496573e+02 7.591285677766848039e+01 1.871968690570087412e+00 5.647847894536843683e+01 1.291776597518596361e+02 7.303373378681342842e+01 -1.379594914025685455e+02 1.664541045308039813e+01 -3.025215331870788305e+01 1.146463522191802298e+01 -2.390033429730331704e+01 4.671808909157158496e+01 -2.682357759874113867e+02 1.866661537453059339e+02 7.567384001682698091e+00 1.642678631009902119e+02 -1.091018025955975723e+01 1.094614516189091518e+02 7.384043454778448279e+01 -4.333357141625917563e+01 3.079225770580067945e+01 -7.503516407804646349e+01 -9.173456675142807626e+01 -7.437174447944721578e+01 -3.305570499970911413e+01 4.663056800041413652e+01 1.137063495283200751e+02 2.943353320368582970e+01 6.404762259709144701e+01 -1.081913414063762815e+02 -1.415810498488726239e+02 -1.392305128541733161e+01 4.793401335951010367e+01 -4.705331512753132728e+01 9.759717948717648994e+01 5.731949432457621896e+01 -2.857117378219865955e+01 3.094619522245122312e+01 6.337917423952603002e+01 -7.452188447444140706e+01 -1.381665594173379361e+02 1.468410175736357530e+02 8.079361695253110653e+00 5.183410387224232352e+01 -1.543135305145299299e+02 -5.521328212867378937e+01 -4.986705420112599874e-01 -6.791150950373393869e+01 4.427412460985976850e+00 5.820791187741743755e+01 1.928720776089706135e+02 4.047824407257621715e+01 -1.135025889049883396e+01 7.468727368158624813e+01 -4.709459776250062646e+01 -1.128229278989081621e+02 -1.431069002020959431e+02 9.715791696720735615e+00 2.601084948178163714e+01 2.462066950269411691e+01 -5.892324795712857366e+01 1.252119428112687132e+02 -8.378635878911769908e+01 1.330131048618290492e+02 9.050343557828355756e+01 -6.743806286921737581e+01 -8.776518200410296799e+01 8.729638615636504539e+01 2.128068951783011542e+01 -5.441944985420889225e+01 -5.586960952431579130e+01 1.417499272802246253e+02 5.943465667921694262e+01 8.286643160715424017e+01 2.713477494832914516e+01 -4.370513206959929420e+01 1.115986343563258458e+02 -5.664689039426397699e+01 5.335524952806863785e-01 7.954480219438760003e+01 1.034201490551062363e+02 2.653234469687504316e+02 -1.819212972452764348e+02 1.672448075600045456e+02 -7.028350162057743944e+01 -1.581741066460335432e+01 -2.599780440182873775e+01 -2.155774577753961552e+01 -5.741628145015599927e+01 9.661578674375329001e+01 1.915326425939514650e+02 -1.236524034756958912e+02 3.219663015518404592e+01 -1.321335496505364233e+02 7.310060621340409170e+01 -4.637962599263196495e+01 -8.435926536485423810e+01 -5.614386185708595889e+01 4.291426315903137834e+01 2.024000212985187730e+01 -8.535491039810125358e+01 -1.472247924930129273e+02 2.169102404104438975e+01 1.645786820642454984e+02 1.491929961806938465e+01 1.906420427752004514e+02 7.807865944022913673e+00 1.406921589401666779e+02 -3.617982008857213572e+01 9.482702952245041672e+01 -7.473187765859968579e+01 -1.181277926989872213e+02 5.173105631387011272e+01 -6.074245733126610247e+01 -8.219287733429656839e+01 7.638267216437020579e+01 6.726554099688793364e+00 -9.882108244715746537e+01 -1.577418679369253880e+02 1.550106400867974799e+02 -9.349880713818458844e+01 -2.434438662109594365e+00 1.259436589973418137e+02 6.091107579911665937e+01 -1.030366882971581930e+02 1.112306807281106558e+01 2.960909536043732828e+02 5.601662214063322409e+01 -1.656975903059650932e+02 -5.011395451491373620e+01 -6.468218957680765868e+01 1.013694362990921505e+01 1.130602677729922760e+02 -1.087600812410701394e+02 2.265217713545064981e+01 1.372568510611420152e+02 1.975574234149071273e+01 -2.222224659119552257e+02 5.090516911628792229e+01 7.941191764751921767e+01 -1.426913803969231864e+01 3.453011567290451467e+01 1.160592385340669247e-01 2.363018948238503825e+01 2.918888568481320434e+01 1.218626174569984641e+02 1.031233164706193008e+02 1.629793988113652503e+01 1.568428808273025652e+02 -6.737791426195661870e+01 2.595781643157996541e+02 6.842572839520003924e+01 1.490965915048543877e+02 -2.313746261222059886e+01 9.478567928985735591e+01 -5.169383694905237547e+01 -1.540834209343459804e+02 2.759649362996799127e+01 1.001639777682585475e+02 -9.227575955229585247e+01 -1.102704863631963690e+02 -7.005418727852190841e+01 3.850603636506662042e+01 -1.203184094651126372e+02 7.871210626678954725e+01 2.958897717853821163e+01 -1.027889385758747665e+02 2.000456397658837204e+02 -1.239006745372808460e+01 -1.071257712072596320e+02 -1.406340987330230874e+01 -2.151961526545405334e+01 -1.476956742261705244e+02 -4.217944586582670752e+01 6.476277352326266623e+01 1.387591198447462943e+02 3.054010300081417739e+01 2.821053510001118170e+01 4.717445684350398238e+01 -3.769376323002143891e+01 -1.533166310082025632e+02 1.666358885173415416e+01 3.267753744494092416e+01 1.401594117789492486e+02 -1.050872384196997267e+01 -8.021444952450542587e+01 7.711959640657718751e+01 1.068448662121053161e+00 3.372870655432173237e+01 1.467719428071945060e+02 -1.870723661264125610e+02 -9.779943811303968459e+01 1.313836004675978870e+02 -2.208335957440916673e+02 -1.882517469760063591e+02 9.310348253724428957e+01 1.576289466890240760e+02 6.484606073887262312e+01 -4.531501560647404503e+00 1.594900579797685509e+02 -2.246260381865565705e+02 1.096852389646593053e+02 4.338411300317251573e+01 1.300801778897355518e+02 -1.930426001546063901e+02 1.091458837621730424e+02 -2.899276022739540082e+01 -1.368622307341422015e+02 -5.455728040854566530e+00 -9.460197374726809016e+01 -1.676662355741720134e+01 -4.337356035675070665e+00 -1.260958922897796981e+02 -1.262274078381352069e+02 -6.406151508841485054e+01 -1.319866193906504748e+02 2.057554084800876808e+02 -1.647537045782012228e+02 -5.134041081325213440e+01 1.766026501340371908e+02 3.472032593843694315e+01 -3.029556399863812999e+02 -1.300398730076141192e+02 3.637967668078000827e+01 5.592096372573286800e+01 8.852849968580716933e+00 -1.583078685481816024e+02 3.653094107619291719e+01 7.613487794511177853e+00 -7.607843124797703638e+01 2.074664355591988283e+02 2.073974835720279373e+02 4.419222763749906413e+00 -2.134251771104828208e+02 1.289718586107712781e+02 3.151497623403885484e+01 3.796989971248056150e+00 7.847181147361972364e+01 -2.123370088832321301e+02 -1.413070494707603757e+02 1.443912530815680100e+02 1.122147960699934828e+02 5.420393850417890036e+01 1.466430743949296129e+02 -1.824611059440543670e+02 -2.088988950962171387e+01 -1.335315142598358875e+02 4.455475879160879060e+01 -1.063012509208354004e+02 8.907430993155317367e+01 -3.463956265130597956e+01 1.267127353864811568e+01 1.815915650410132400e+02 2.912227119393310915e+01 -2.697667510638645467e+02 -1.293027579058170602e+02 -8.532527304018309167e+01 1.618198062247668645e+02 1.282522083139132718e+01 -5.502323627930180550e+01 3.114465486000833039e+01 6.401539241765995314e+01 -4.054114105334778628e+01 1.100441847996581686e+02 -1.030953303014762241e+02 5.036907182536415206e+01 1.145528354142195013e+02 -3.621886413488841328e+01 -1.004274810672474274e+02 -1.160438782863182610e+02 1.225695213813947646e+02 -5.080628894983166077e+01 2.011690659924340991e+02 5.854788308906759653e+01 1.135727957669890458e+02 1.886693245681605617e+02 8.767093074335880587e+00 -1.271671876539003563e+02 -1.696923134057882407e+02 -1.168935899424066207e+02 4.344178979770407523e+01
-1.364185124820657613e+01 -4.789284344006028427e+00 1.035572035702916907e+02 -2.289415429627907486e+02 1.553721904623223224e+02 6.353213381661996806e+01 1.520869375249971540e+02 -1.291087247636487803e+02 -2.796283155733980230e+00 -2.408139012844539550e+01 -2.194057831541466896e+02 3.275107879524914267e+01 -1.832620660894324160e+01 1.222458658048809639e+02 -1.249831184256494794e+02 6.168598322929901201e+01 1.252870975458153566e+02 -4.591869612383155896e+01 -4.969936799446734454e+01 -2.709048737223073644e+01 6.166090321200478286e+01 6.313053925522643084e+01 3.238952998665774885e+01 -2.324724478987324687e+02 -5.165249795757034690e+01 9.142323712128744262e+01 9.892362763586010743e+00 -1.032825076174674273e+01 -6.652303977390845091e+01 -1.542235488173668756e+01 7.331299358595374827e+01 -1.453587620491584858e+02 -6.184973190368876317e+01 9.008218653818639510e+00 2.073843584587993405e+02 2.119469159231412334e+02 -3.201051723164245999e+01 5.586704785043219346e+01 -2.869783036904676732e-01 -1.396249562189142353e+02 9.595898943525625668e+01 1.072183804061644992e+02 1.084858286951263864e+02 1.170084059888224282e+01 6.188727282507290539e+01 4.811272910237007494e+01 3.887827220780743431e+01 2.928904917795466645e+01 1.102538664780531832e+02 8.970017049698671485e+01 6.559873760624907391e+01 1.629006929642405339e+02 2.474863584540173918e+02 1.954820650742849750e+02 -5.909799938554874643e+01 4.924501657151424183e+01 -6.428810125835195777e+01 5.641741204935314613e+01 -1.920363695170849212e+02 5.648043083995048619e+01 -2.047170266486048718e+02 -1.686373428586240379e+02 1.293062433987725868e+01 -9.216574379225034974e+00 1.694893850893892306e+02 -2.078192349628005786e+02 7.526453850318874572e+01 2.296941690489524603e+02 -7.287757488628541225e+00 -1.945833870606066967e+02 3.561089124301014408e+01 1.971797398547678029e+02 -6.107427896416677271e+01 -2.663463382876503829e+02 -1.025337134467478108e+02 8.789617551613485347e+00 -2.300377097320007636e+02 3.197315176160164540e+01 -1.794394627874976322e+02 -1.856059011495344180e+02 -5.706283214901331746e+01 1.525357424922608800e+02 6.955920267372700039e+01 1.059889264586529833e+01 -8.862669510841526233e+01 -4.263074575729332594e+01 6.380257772154605789e+01 -2.321962966576369638e+02 5.414986378237467335e+01 -7.511821716208284272e+01 -7.814477032010454138e+01 -1.769606502360119862e+02 6.518667405371546408e+01 9.288912626759196201e+01 -1.625237323960237461e+02 1.729462408905973803e+02 -3.996600453118741569e+01 -1.693528010769567160e+01 8.763083489679306126e+01 1.565005736410205941e+02 2.167991505876219449e+01 1.516513559280680568e+02 -1.846818964476376124e+01 -9.084593535140845688e+01 -1.965759652210344655e+01 1.012582834874451549e+02 4.630317198856907623e+01 1.007227538711414780e+02 9.721126522781716517e+01 -8.548616055667487501e+01 -1.749534288567143960e+02 1.267170373939826646e+02 5.587691672184050162e+01 1.659999235195129330e+01 3.149589601236709768e+01 -6.995188048272767389e+01 9.891386627059401349e+01 9.250579602863646755e+01 -1.404891898522519433e+01 -7.336749733867900147e+01 3.173380119118886000e+01 6.455373829072571290e+00 -6.342301073775134768e+01 1.746432390960560497e+02 -3.406791887683338160e+01 1.253068231566837483e+02 -7.226514443984726199e+01 3.955715747286269846e+01 -3.725039705048526884e+01 9.219203536016388512e+01 2.421929800806351807e+01 1.191384570390501807e+02 -1.195610495881862789e+02 7.664918662855701825e+01 1.273507229911057550e+02 -4.613002095284124238e+01 7.784198188498830717e+00 -1.299912650470857400e+01 1.204168124215945994e+02 3.591940173169139605e+00 1.740527658151189883e+02 -1.458990175197425003e+02 1.204220054792339738e+02 -9.430422788256835531e+01 9.879324022073673461e+01 -1.414566126105402759e+02 3.048201534061974272e+01 2.553088609619237559e+01 1.901243146951540508e+00 3.749294693216541674e+01 4.734368325125867472e+01 -1.286722674014065682e+01 1.109922840398083821e+01 1.116328886431879255e+02 1.314682934437365418e+02 -8.950633241773688553e+01 -5.604717682956938063e+01 4.896441307037756729e+01 1.608428490845247971e+00 -1.414917287850447849e+02 -5.689402193413094011e+01 -3.668072570723651182e+01 5.058137075014891337e+01 -6.779756108787594826e+01 2.372037355108694001e+01 1.658020949907646298e+02 -8.219420636353420662e+01 8.352107368939159926e+01 8.700178508126873567e+01 1.158206606757712187e+01 1.276995217052240861e+02 6.507416860349486853e+01 1.739218979946925288e+02 -3.571910619107685392e+01 1.164518203868244370e+02 5.749705593705459705e+01 -1.666066040108821866e+01 2.114150981820352229e+02 -1.438106094948491602e+02 5.063211137246002380e+01 -1.943619820298975753e+02 -8.725710231578267440e+01 4.250784299875637373e+01 -7.484968760899734264e+01 -1.616148421529910877e+02 2.066896178260717818e+02 -8.896876853814707431e+01 -4.925717512609951143e+01 -4.801437098024913297e+01 1.263027054554607247e+02 2.021007370363578843e+02 6.719576517138428073e+01 1.517619737953759227e+02 2.277175067929758256e+02 -1.707418299378937965e+00 1.690986813468832111e+02 7.357866825916551079e+01 1.976086306546948208e+02 -1.305215758723230408e+02 -1.234636569283766860e+01 6.562363531163750707e+00 1.971769104143695586e+02 -9.438318202811647950e+01 -6.272132461963201422e+01 -5.497483623304219691e+01 -1.389924536386881471e+02 4.834024368220525503e+00 -1.047812097491528789e+02 1.599051234717490786e+02 2.448452777650778955e+01 1.248268479966194988e+01 7.505883725886920388e+01 -5.144362014029657537e+00 1.213531689434482956e+02 -1.648534689829002389e+02 4.711068926271516943e+01 -1.773874340661694475e+02 1.218860649849702895e+02 9.961430150132080996e+01 -6.989802183189311791e+01 4.851227367419918579e+01 2.471796381865218564e+02 -3.159608882582996614e+01 4.325031549132429376e+01 -3.390696179244007880e+01 6.013117125706358479e+01 6.674984694172354693e+01 -6.498992038370452917e+00 1.058208989362791357e+02 1.054119515752834957e+02 -2.012326578029512518e+02 -1.590564968044129159e+02 -1.243278550084801708e+02 -9.831675353295617370e+00 -1.554894042365881148e+02 1.199152743508210506e+02 1.145512024910745907e+02 6.117580846733806510e+01 1.157897750701286377e+01 1.636547430653675690e+02 8.713321557024470110e+01 7.002704098113052567e+01 -1.055062909109781373e+02 1.580197752786520482e+02 -3.689452289859586287e+00 1.134139158504565188e+02 9.141922261541793659e+00 3.812783223268581168e+01 -7.856814288963833803e+01 -9.416969496576182053e+01 7.425577995805187470e+01 -3.952702555047010513e+00 1.517553137550418967e+02 -1.305785964761908424e+01 -2.973747285767729842e+00 4.755560307992158187e+01 2.349530631869323472e+01 1.466410399281184027e+02 1.512911321697941247e+01 3.714709999131360263e+01 -1.604053009675569683e+02 6.828385891584804313e+01 1.385515186780477563e+02 -1.837566004742926395e+01 -2.362667953578967968e+02 8.744731744037584065e+01 1.409086405230298169e+02 2.097359716198130286e+01 1.953858169372735460e+02 -4.218119999144791521e+00 4.434489939202112652e+01 -4.499075083447675638e+01 -1.431954639760639054e+02 5.776296794792789058e+01 -4.896882899147996682e+01 -8.366488113839510277e+01 4.249429737508802418e+01 -1.905595589428153005e+02 7.399021841480751505e+01 1.693707634230044050e+02 -1.043173616993478134e+02 1.781588781074507608e+02 -1.006449718772631741e+02 -6.180350219908161691e+00 -1.081171204672092045e+01 7.883931127295461749e+01 -4.791087599554236220e+01 -1.109818406220511662e+02 -9.106482782989905900e+01 1.499441397738315800e+02 6.078244913059421606e+01 -1.354013059762080786e+02 4.582452666095740312e+00 4.467456939800612048e+01 8.487414552770147225e+01 -4.145514836313003570e+01 6.167091199252064371e+01 -7.086448854461595204e+01 -1.668440475339028239e+02 -3.558762623756367560e+01 1.448264291680283691e+02 -1.164062974174047440e+02 -6.616544107643657746e+00 -1.673501814675675803e+02 -4.857873514762976797e+00 -1.497723803440495374e+02 3.374034138225787416e+01 6.169399643853125070e+01 -5.166619220506662913e+01 -8.458637281837107480e+01 5.770932793462632659e+00 7.632854341596031134e+01 -6.953452255360969048e+01 1.382171257627981049e+02 1.081879926704325214e+02 -1.309212918826528380e+02 -1.081350519141997069e+02 1.385148174325993295e+02 7.316958508702172992e+01 1.539554441105961189e+02 1.028417714507908727e+02 8.321376490651647373e+01 -6.174084931643717056e+01 -8.380638436468395014e+01 -7.896967827254398742e+01 2.094618021325520374e+02 3.122185761272347193e+01 -2.548026253245547323e+01 -7.019710550768456869e+01 -5.125184262507558230e+01 -1.342504156966566882e+02 -1.690696042799712728e+01 -1.788627819248038975e+02 1.274891770117842213e+02 4.694593852318151050e+01 -1.175110481205527435e+02 -4.931445130642460839e+01 1.220898476814031000e+02 -9.890635165015264363e+01 1.048116849353264968e+02 -1.207313523200020597e+02 -1.198498052812596271e+01 -9.734702862762186726e+01 9.141582898088933007e+01 -4.330650839313920386e+01 1.057028901401355903e+01 2.987112437855602920e+01 -1.290903649362253134e+02 1.274389758535991213e+01 4.922517389545616595e+01 -2.287068362325280191e+01 -7.005106046988647961e+01 2.062814027118225511e+02 8.806801566659608227e+01 4.804263113654115358e+01 -3.201731651723488881e+01 8.176604873782987681e+01 1.707267304350647805e+02 -9.404730048403909848e+01 2.133424145765184221e+02 -1.355758994340685035e+02 -1.873745527867951353e+02 1.547246747387242465e+02 -2.382864717829123151e+02 -1.043664852204238436e+00 -2.494584991259800120e+02 -1.557866544327620488e+02 7.307349312210645564e+01 -1.483652574669093553e+02 5.947590204593372931e+01 1.118821077571540030e+02 -1.633809598306036435e+02 -3.072555622638929762e+01 7.678504180696951664e+01 1.364190231211159414e+02 -1.894981558661927465e+02 8.905135812252261474e+01 -9.975109692203902512e+01 -1.007531516539735073e+01 -1.416698051080412313e+01 -8.106622006495355492e+01 -9.200149168498357710e+01 1.847101935986200374e+02 -2.205134701576783840e+01 1.343531765878055229e+00 1.326288406287863779e+02 -8.825909823013653011e+01 -3.506723470718795710e+01 -1.096578468723695607e+02 -4.978275083237431886e+01 5.303316826053012356e+00 6.055799382230547678e+01 -1.377804811444028417e+02 2.420320551457822660e+02 -5.505024620501711752e+01 1.253341420181718604e+02 -4.988937732713802120e+01 1.224504268118409698e+02 1.421201572378705009e+02 4.911756963205800020e+01 1.248832742919866945e+02 -4.420352599350354694e+01 1.431514821274171254e+02 -1.599858644605899372e+02 -6.688934729884061881e+01 -6.442432467464468004e+01 2.608951360452578427e+01 -1.660753689691063641e+02 7.424781654744904813e+01 -3.154999298481752845e+01 -8.456801956108586182e+01 9.171838208455785946e+01 -1.546242188520429011e+02 -9.332909711672172648e+01 -5.379727872172637149e+01 3.386482626463394752e+01 1.328748415920344996e+02 1.196386652263882269e+02 7.077823198004402627e+01 -1.680063636096107649e+00 1.789120363479659943e+02 1.253906269155602899e+02 -9.660605487689544191e+01 -8.001744317705988863e+01 5.687880944417812401e+01 1.024759948947840016e+01 1.002612086771726609e+02 1.704929229032865692e+02 7.221141451387229893e+01 2.491428248633787490e+01 -1.045338932820368711e+02 1.758043831465866162e+02 -1.163127414664678412e+02 -1.690838373122743974e+02 6.721391461958941704e+01 1.140082992540358191e+02 2.005902080303810209e+01 -1.419863733844382239e+02 3.042704939602710823e+01 4.339979753633375736e+01 -2.906598868078138498e-01 1.338303381396452210e+02 9.964504405390093211e+01 1.747998799180685481e+01 8.007699556881817671e+01 -1.094356858125032659e+02 -6.407608949751034011e+00 1.004668970539983803e+02 3.032342594336022401e+01 -6.645638466580018644e+01 2.022975709827878745e+02 2.360851345881152099e+02 -1.282695857121279062e+02 -2.817864794013958019e+01 -2.147487826316907729e+02 -7.372304138830519094e+01 1.599938465962061400e+02 3.509979999599157630e+00 -7.248674843540075585e+01 1.672892220704737554e+02 -6.385767231308710024e+01 -1.639638600667296373e+02 1.394048986302761932e+02 -6.865272850115240999e+01 3.513094060866809087e+01 8.817560917037400259e+01 1.405388607210440988e+01 -2.431245842569836668e+02 4.313297250518363768e+01 -6.225393806959498733e+00 9.190179582936292491e+01 -2.404034118859694047e+01 1.032771304525086009e+02 1.729011766017839946e+01 -8.654489186057078598e+01 -2.088491651117590564e+01 -1.787725031101586808e+02 1.173450182766950292e+02 2.577374285440450308e+01 -4.248699007378832704e+01 -5.287590804376407760e+01 -6.411260102441775643e+01 4.191448627402881044e+01 1.639395975841617599e+02 1.354011881744345089e+02 4.396534748206155285e+01 -2.018651079026138291e+02 -3.957703682426756586e+01 4.468910726346783946e+01 1.197407670193323384e+02 8.902968915166592012e+01 1.578352603066469406e+01 -1.898325702965529160e+02 1.344294644787096047e+02 -2.283145445812161825e+02 -2.099913603461365881e+02 -1.901792138581611447e+00 -7.528316087066203011e+01 -2.453656928632365108e+01 8.891284666060307984e+01 5.706289251568074405e+01 -1.134938408134594567e+02 -1.545072765205180474e+02 1.490343506872617674e+01 1.262114466316793084e+02 2.115622868288188130e+01 -5.786538713626517705e+01 -5.263242738917967500e+01 -1.207094903622376414e+01 1.646576994028139325e+02 2.284130346837375924e+01 -1.803231860507942201e+02 1.331876747125305656e+02 -6.934549730483283270e+01 -4.340024695833091251e+00 1.599496129761171517e+02 -5.435641545957617637e+01 -2.032822135421510623e+01 -1.140987253873057909e+02 -6.249738383536202591e+00 -2.479317909963777922e+01 1.368431412505555329e+02 1.247708210931376129e+02 7.019764650299390496e+01 6.791577230282699418e+01 -1.944330371269914792e+01 1.405045692119817033e+02 -1.170936895223087646e+02 -4.436928398335711954e+00 -9.458099897989438887e+01 1.632776898731428901e+02 7.578299713609301591e+01 5.372547038624280447e+01 8.623565729561565973e+00 -5.531971934151991377e+01 3.571784192349818454e+01 7.036690207924263696e+00 3.690131892202157982e+00 2.506791905926842645e+01 6.209014859425320765e+01 1.768312771309992684e+02 -4.029615422946065451e+01 -5.401423123903919787e+01 6.935588020241188190e+01 1.201485844581823415e+02 -1.329671278356693342e+01 9.543963627393823401e+01 1.079808232638902865e+02 2.188316429816381117e+02 -8.988841512782768461e+01 -1.274360365737495044e+02 -2.972886815569403396e+01 6.450238487340581628e+01 -1.053450267169730381e+01 1.115416727023229981e+02 3.864435569379919144e+01 -1.688558302390588040e+02 4.678947063246269522e+01 -9.287492199485964761e+01 -1.404606039006954461e+02 1.396123733482489229e+02 -7.888071257649505696e+01 6.134915187708059392e+01 1.154479993474704003e+02 -1.028080490099747806e+02 2.433017167650010393e+01 -7.486655260486600127e+01 4.174401648430426093e+01 -1.188138207410794536e+02 6.383425147895248841e+01 5.667908869282692308e+01 4.113206547213275499e+00 8.721559202411802403e+01 -1.586279213151676686e+02 7.920513453075845689e+01 -3.027025827008138137e+01 -1.739039364471333329e+02 9.721879724363138564e+01 2.521375089643809986e+01 -2.019711995361200820e+02 2.421174774242403771e+02 -5.394230407646516401e-01 1.082727713975240817e+02 -1.241504757447410867e+02 -1.999138194481016910e+02 -9.605535070117635144e+01 2.525753796645045846e+00 1.471328123200528353e+02 4.165224890048117246e+00 -9.836656055011918909e+01 5.193792615723391037e+01 1.410759062335019394e+02 6.691803752268151584e+01 -5.329080001215767481e+01 -6.087069717355552001e+01 8.699659509970753390e+01 3.168754299013687614e+01 -2.012558680646052665e+02 -2.134625803214057882e+01 1.740187307516734165e+02 1.017750056464120547e+02 -5.898711495540025851e+01 -1.150911979729884109e+02 -4.394566030585694705e+01 -4.949285132352790839e+01 -1.178199723228056826e+02 -1.907119174912030957e+01 -4.701061195203521237e+01 -1.169503774028055858e+02 -1.357160120538556782e+02 -2.769008998093315199e+01 -1.293366202616224996e+02 -1.376610444059958525e+02 -3.945753420409877066e+01 -5.700358371931604040e+01 -1.142288989981723120e+02 1.985728412621843120e+02 1.124212930554647727e+01 -3.002024806953974334e+01 -1.815615083541584340e+01 8.391618678481985683e+01 1.667090099085314137e+01 2.672066270750781314e+01 -2.275563585768534125e+01 -4.926419962032878175e+01 2.232705826802533267e+01 -1.550466949118675757e+02 -1.698405121897459651e+02 -9.652381485895477908e+01 -2.035862366345090493e+02 -9.562467815241359403e+01 9.157808495953166528e+01 6.547314332342419618e+01 -2.781711949472262546e+01 6.483116882226434541e+01 -1.669776416173700966e+02 -4.348462754416136988e+01 -1.238631706931069232e+02 -7.121808252668741090e+01 2.249661213576500529e+02 -2.189958163585337161e+02 2.189807569073618936e+02 2.670012953761406038e+01 -6.027755443282745063e+01 9.845970833982737247e+01 1.323773272324717993e+02 -5.536168154071336289e+01 -2.172950376694274439e+02 -1.590622882658241792e+02 1.090815116819856030e+02 8.936166995157032034e+01 -1.446643432937461569e+02 3.411928543445007733e+01 -4.228807633554561818e+01 -8.256878553400925114e+01 -3.031948146676063871e+01 -5.850861493780312372e+01 -9.223914631969813627e+01 -3.628281745195784680e+01 4.729339729053478436e+00 -3.494235054523859674e+01 -4.497317313554978213e-01 -1.536290686745072165e+01 9.816743099384537175e+01 1.355368594389663599e+02 1.405924238079012767e+01 1.789604408226844612e+01 -6.728527328554413600e+01 -2.090711272135702075e+02 3.612184848995934772e+01 -9.788583363359946077e+01 2.753999415438994092e+01 -8.787815302307892651e+00 1.043274259669628279e+00 7.699649018751804874e+01 1.300057894866415893e+02 -7.514177099075448041e+01 4.053667616549792285e+01 -2.056527719556825673e+02 1.029610615086686387e+01 7.532790779476475684e+00 -1.307159722272404281e+02 -3.599766507926326398e+01 -4.728618785205274122e+01 5.100127325794023392e+00 -1.090927956958073111e+02 2.886871432949292426e+01 -1.041838030261878885e+02 5.992972859159619503e+01 7.234920991793229916e+01 3.932354850977029059e+01 -3.095908415541612158e+01 1.145873901430587978e+02 6.510912788945358898e+01 8.531004998550220364e+01 -7.142959955711707210e+01 2.169312328611577101e+01 1.363996301802735331e+02 -6.232644920881963202e+01 -7.365458835928005321e+00 3.411812054354093959e+01 -1.368710186697061886e+02 1.043052267917782956e+02 9.548719033478826645e+01 -1.077576886868612860e+02 -8.778435371193351955e+01 -5.915579768771618774e+01 -4.847752841134752089e+01 -1.708441591796077432e+02 -1.448640233841599638e+02 -1.411281011930484794e+02 1.125676649018553235e+02 6.363768796097345870e+01 1.698921465593545292e+02 7.653113714069917251e+00 -9.137389168312044774e+01 1.991916026353235125e+01 1.473502466361393815e+01 -6.756591978607649196e+01 7.883337861565937033e+01 1.256838298062021977e+02 1.067045255040926754e+01 1.526996610279859965e+02 2.398177614636470167e+01 1.181037632750997233e+02 1.609354926544024522e+01 -2.210891597545623881e+02 2.323517631235999090e+02 -5.206730477721662709e+01 -1.587027139013519275e+02 -7.147704530710396398e+01 -4.572201259380234717e+01 4.373454353984050869e+01 2.707009397750131896e+01 4.836199217152079655e+01 -7.842612449460906987e+01 1.293961530124523733e+02 -9.118941281962516143e+01 -7.407134821571911054e+00 1.505905945707525859e+02 1.158630711973297167e+02 6.122355953498750836e+01 -1.869190433763481280e+02 2.684984962829943456e+01 1.482192421321618099e+02 2.473861365229809550e+01 1.029225939010717497e+02 1.122221434649029419e+02 -2.227185226130714568e+02 8.104211606829699122e+01 -6.083182260436347377e+01 -2.367740566739514065e+02 9.311831822956419558e+01 2.585623644044381564e+01 -1.277633144930600366e+02 -6.123714685392074131e+01 1.449831406622772647e+02 1.538003716284976292e+02 -7.890995224768388994e+01 -1.329202710520329163e+02 -8.671165587659321261e+01 -1.721891243929807445e+02 2.027546271720586191e+01 3.926269876065467912e+01 -1.749187103129931486e+01 -1.279052146629341635e+01 -9.242577173052801243e+01 -9.126989296010381736e+01 -2.540174478982068251e+01 1.377017647060264380e+02 1.400279656724632105e+02 8.330371091412477824e+01 9.956075160488548192e+01 -8.060766732193920348e+01 -1.848093374433456972e+02 -1.357398849090887971e+01 -2.373307206663212199e+01 -7.252534161705897020e+01 1.543464993022314546e+00 7.467473059416771264e+01 -5.408658490359562876e+01 2.511776451252798381e+01 8.088476009124012478e+01 7.160494884792012726e+01 1.128902078670787716e+02 -1.524295125249149976e+02 4.050634120381634773e+01 8.511226186836830720e+01 9.680868068246707026e+01 6.037065880842814636e+01 -1.054755997126460869e+02 1.399108087098386761e+02 1.301925434131526629e+02 9.789310259772069855e+01 1.037192380777023146e+02 -8.606132290878031199e+01 -1.520689110527213828e+01 -1.318508519005930602e+01 7.874755333857241624e+01 6.636636474637185756e+01 5.713223152385208436e+01 9.971584209701798329e+01 1.189646889286742777e+02 1.264870606488308482e+02 -6.637158784518919674e+01 8.232225168800090387e+01 6.667397345626126537e+01 -1.201975849646054115e+02 1.344453965562475446e+02 -1.027066270043384755e+01 -2.851494110076475508e+01 2.035889822275165386e+02 9.037548655519870522e+01 1.268042277161956832e+02 -1.475082249853428777e+02 -1.612813779033106698e+02 -1.572594300947863530e+02 -1.249545094063752657e+02 -4.529207701708288170e+01 1.123843438999489734e+02 -1.725428745373239110e+02 3.331430031797184910e+01 1.477623862726988477e+02 -6.073983695467356370e+01 -9.355168745819648279e+01 -3.594102145530595038e+01 1.392219383288062602e+02 2.329043925085759668e+02 -6.824149479530110796e+01 2.029827588683712847e+01 -2.840971762796618094e+01 7.020545436843774212e+01 6.180791215714291553e+01 -2.186482364265116018e+02 -9.092185838145658749e+01 1.410957641632757316e+02 1.434178089494693893e+02 9.699240925544236802e+01 -5.107373937256298291e+01 -7.781355318786934561e+01 -4.663507598459450065e+01 -1.811459418428850086e+02 7.307107843863657592e+01 -2.637515152997914214e+01 1.708394077536927682e+02 -2.865901632632806795e+01 -3.229721973137472446e+02 1.488055292808373622e+02 5.173066532742418389e+01 -1.211974283738309310e+02 -2.271483296253740747e+01 3.629115244572916055e+01 -2.133487826067284345e+02 -1.174484283805704905e+02 -1.125729246267421075e+02 -5.803661533081067603e+01 6.457129528969967680e+01 -1.693690973914459335e+02 1.109747670802897943e+02 -5.582534363480850459e+01 2.975220580261590531e+00 -1.371534537790165587e+02 -1.064425352092517869e+02 1.808177827318222057e+02 8.910273063353058376e+01 -4.343321534075147383e+01 3.825771648907419120e+01 -2.886946052799794415e+01 4.440056072546020260e+01 -1.076037358267358712e+02 1.016036338442139169e+02 5.198173083489894708e+01 -1.223421185089552097e+02 1.201349726267998079e+02 -5.058975381786569869e+01 1.028215963956256616e+02 -5.085871502149897339e+01 9.098291778748590275e+01 -1.579088534659322249e+02 1.468532317574305353e+02 2.550872809597520785e+01 1.035826906665681122e+02 1.342463795073867061e+02 -1.509713155187945972e+02 -8.843385360508617055e+01 -1.087590665455243482e+02 6.888015423543612314e+01 -1.764493993353329131e+02 1.559532657951915269e+02 1.466990511987063712e+02 5.458575770424692308e+01 -8.744745717562672382e+01 5.876283754120800751e+01 -1.105024743443424171e+02 -1.131039337521744592e+01 3.606365159948418864e+01 -1.893181535370513302e+02 -8.409929216206724334e+01 -1.394851709448393962e+01 1.053570128677140900e+02 -5.173395194730286306e+01 1.119997982848128828e+02 -6.633773749958153587e+01 -2.173499131216149749e+02 -1.104182434241632080e+02 -3.517582413943509323e+01 -6.207696225107708443e+01 3.105341896587933803e+01 5.294266906438107156e+01 6.562984416686288291e+00 2.603178067436306620e+01 -1.209433441894005625e+02 5.548893389513948193e+01 3.365255430526199376e+01 -7.450624689678933521e+01 9.533657456979897304e+00 5.805626120045938166e+01 -9.846968849475790364e+01 -5.681630565858584703e+01 -2.488734516383014039e+01 1.007580821733380958e+02 -1.767770359962246118e+01 4.326146701391155425e+00 -2.353642235262674944e+02 -9.813734149343221702e+01 1.021250258458058653e+02 -9.219262039838466194e+01 3.236566047585188244e+01 3.208665125615709712e+01 3.921080453205636474e+01 6.824964004844454735e+01 -1.832663844216364453e+02 1.486705423999944458e+02 8.408299656207947237e+01 -7.739776763472725030e+00 -8.346649005933566912e+01 1.156508705817971929e+02 6.413697394223049741e+01 -2.076845421645553245e+02 -5.206143761266355341e+01 -8.436169299329543492e+01 -5.359107072334345645e+01 -6.402130281190014216e+01 -1.023814675502809592e+02 -6.238403914218032753e+01 1.978001594594773280e+02 -1.764896352663210166e+02 6.767506315647975157e+01 2.865906511219738206e+01 -7.766131704916666934e+01 1.071313038509760496e+01 -4.070665349902465380e+01 3.530677002770514772e+00 -9.931059412432827571e+01 -2.041100562325253520e+02 1.900394374658158370e+01 4.332899926274206592e+01 -1.322988353875100742e+01 -9.377397476253166886e+00 -4.111190862585422678e+01 -1.963090692042482317e+02 -3.169375212812893494e+01 -6.756654890099392219e+01 1.446611986178301912e+01 -1.612694670291152121e+01 9.354565026623960478e+01 -6.514535170165800082e+01 -1.071984877807265519e+02 -3.699064064860235845e+01 -9.350624219788443270e+00 4.710026794245882087e+01 -2.291093606262270299e+01 -7.614794361554773161e+01 -1.640017347289997218e+01 2.076601305107128681e+01 4.910845146863515964e+01 -1.178969019966312572e+02 -1.437525336102525273e+02 2.381369975836838364e+02 -2.256637210364507666e+02 -7.855831337495961009e+01 -4.794303737688516520e+01 1.446333158557957574e+02 6.544264297212583870e+01 2.366001828887522720e+02 2.530739169443107244e+02 -6.443401970885597052e+01 1.339172584331519147e+02 -5.779125449352675048e+01 -4.219204074009708449e+01 -1.041168209152908730e+02 -8.257607481876161160e+01 -7.197875711755163763e+01 -9.200882909419833311e+01 -2.520977164513705304e+02 -2.801688913665525433e+02 1.393250562182401211e+02 -2.742373654561975371e+01 5.508246622832695749e+01 1.353014665033930726e+02
