# 
#                 ----------------------------------------------------
#                 Data from a 3D direct N-body simulation. 
# 
#                 rows are i-particle; 
#                 coumns are :mass, tag, x ,y, z, vx, vy, vz, ax, ay, az
# 
#                 NTHU, Computational Physics Lab
# 
#                 ----------------------------------------------------
#                 Time = 4.4999999999999485
1.000000000000000000e+00 2.000000000000000000e+00 3.000000000000000000e+00 4.000000000000000000e+00 5.000000000000000000e+00 6.000000000000000000e+00 7.000000000000000000e+00 8.000000000000000000e+00 9.000000000000000000e+00 1.000000000000000000e+01 1.100000000000000000e+01 1.200000000000000000e+01 1.300000000000000000e+01 1.400000000000000000e+01 1.500000000000000000e+01 1.600000000000000000e+01 1.700000000000000000e+01 1.800000000000000000e+01 1.900000000000000000e+01 2.000000000000000000e+01 2.100000000000000000e+01 2.200000000000000000e+01 2.300000000000000000e+01 2.400000000000000000e+01 2.500000000000000000e+01 2.600000000000000000e+01 2.700000000000000000e+01 2.800000000000000000e+01 2.900000000000000000e+01 3.000000000000000000e+01 3.100000000000000000e+01 3.200000000000000000e+01 3.300000000000000000e+01 3.400000000000000000e+01 3.500000000000000000e+01 3.600000000000000000e+01 3.700000000000000000e+01 3.800000000000000000e+01 3.900000000000000000e+01 4.000000000000000000e+01 4.100000000000000000e+01 4.200000000000000000e+01 4.300000000000000000e+01 4.400000000000000000e+01 4.500000000000000000e+01 4.600000000000000000e+01 4.700000000000000000e+01 4.800000000000000000e+01 4.900000000000000000e+01 5.000000000000000000e+01 5.100000000000000000e+01 5.200000000000000000e+01 5.300000000000000000e+01 5.400000000000000000e+01 5.500000000000000000e+01 5.600000000000000000e+01 5.700000000000000000e+01 5.800000000000000000e+01 5.900000000000000000e+01 6.000000000000000000e+01 6.100000000000000000e+01 6.200000000000000000e+01 6.300000000000000000e+01 6.400000000000000000e+01 6.500000000000000000e+01 6.600000000000000000e+01 6.700000000000000000e+01 6.800000000000000000e+01 6.900000000000000000e+01 7.000000000000000000e+01 7.100000000000000000e+01 7.200000000000000000e+01 7.300000000000000000e+01 7.400000000000000000e+01 7.500000000000000000e+01 7.600000000000000000e+01 7.700000000000000000e+01 7.800000000000000000e+01 7.900000000000000000e+01 8.000000000000000000e+01 8.100000000000000000e+01 8.200000000000000000e+01 8.300000000000000000e+01 8.400000000000000000e+01 8.500000000000000000e+01 8.600000000000000000e+01 8.700000000000000000e+01 8.800000000000000000e+01 8.900000000000000000e+01 9.000000000000000000e+01 9.100000000000000000e+01 9.200000000000000000e+01 9.300000000000000000e+01 9.400000000000000000e+01 9.500000000000000000e+01 9.600000000000000000e+01 9.700000000000000000e+01 9.800000000000000000e+01 9.900000000000000000e+01 1.000000000000000000e+02 1.010000000000000000e+02 1.020000000000000000e+02 1.030000000000000000e+02 1.040000000000000000e+02 1.050000000000000000e+02 1.060000000000000000e+02 1.070000000000000000e+02 1.080000000000000000e+02 1.090000000000000000e+02 1.100000000000000000e+02 1.110000000000000000e+02 1.120000000000000000e+02 1.130000000000000000e+02 1.140000000000000000e+02 1.150000000000000000e+02 1.160000000000000000e+02 1.170000000000000000e+02 1.180000000000000000e+02 1.190000000000000000e+02 1.200000000000000000e+02 1.210000000000000000e+02 1.220000000000000000e+02 1.230000000000000000e+02 1.240000000000000000e+02 1.250000000000000000e+02 1.260000000000000000e+02 1.270000000000000000e+02 1.280000000000000000e+02 1.290000000000000000e+02 1.300000000000000000e+02 1.310000000000000000e+02 1.320000000000000000e+02 1.330000000000000000e+02 1.340000000000000000e+02 1.350000000000000000e+02 1.360000000000000000e+02 1.370000000000000000e+02 1.380000000000000000e+02 1.390000000000000000e+02 1.400000000000000000e+02 1.410000000000000000e+02 1.420000000000000000e+02 1.430000000000000000e+02 1.440000000000000000e+02 1.450000000000000000e+02 1.460000000000000000e+02 1.470000000000000000e+02 1.480000000000000000e+02 1.490000000000000000e+02 1.500000000000000000e+02 1.510000000000000000e+02 1.520000000000000000e+02 1.530000000000000000e+02 1.540000000000000000e+02 1.550000000000000000e+02 1.560000000000000000e+02 1.570000000000000000e+02 1.580000000000000000e+02 1.590000000000000000e+02 1.600000000000000000e+02 1.610000000000000000e+02 1.620000000000000000e+02 1.630000000000000000e+02 1.640000000000000000e+02 1.650000000000000000e+02 1.660000000000000000e+02 1.670000000000000000e+02 1.680000000000000000e+02 1.690000000000000000e+02 1.700000000000000000e+02 1.710000000000000000e+02 1.720000000000000000e+02 1.730000000000000000e+02 1.740000000000000000e+02 1.750000000000000000e+02 1.760000000000000000e+02 1.770000000000000000e+02 1.780000000000000000e+02 1.790000000000000000e+02 1.800000000000000000e+02 1.810000000000000000e+02 1.820000000000000000e+02 1.830000000000000000e+02 1.840000000000000000e+02 1.850000000000000000e+02 1.860000000000000000e+02 1.870000000000000000e+02 1.880000000000000000e+02 1.890000000000000000e+02 1.900000000000000000e+02 1.910000000000000000e+02 1.920000000000000000e+02 1.930000000000000000e+02 1.940000000000000000e+02 1.950000000000000000e+02 1.960000000000000000e+02 1.970000000000000000e+02 1.980000000000000000e+02 1.990000000000000000e+02 2.000000000000000000e+02 2.010000000000000000e+02 2.020000000000000000e+02 2.030000000000000000e+02 2.040000000000000000e+02 2.050000000000000000e+02 2.060000000000000000e+02 2.070000000000000000e+02 2.080000000000000000e+02 2.090000000000000000e+02 2.100000000000000000e+02 2.110000000000000000e+02 2.120000000000000000e+02 2.130000000000000000e+02 2.140000000000000000e+02 2.150000000000000000e+02 2.160000000000000000e+02 2.170000000000000000e+02 2.180000000000000000e+02 2.190000000000000000e+02 2.200000000000000000e+02 2.210000000000000000e+02 2.220000000000000000e+02 2.230000000000000000e+02 2.240000000000000000e+02 2.250000000000000000e+02 2.260000000000000000e+02 2.270000000000000000e+02 2.280000000000000000e+02 2.290000000000000000e+02 2.300000000000000000e+02 2.310000000000000000e+02 2.320000000000000000e+02 2.330000000000000000e+02 2.340000000000000000e+02 2.350000000000000000e+02 2.360000000000000000e+02 2.370000000000000000e+02 2.380000000000000000e+02 2.390000000000000000e+02 2.400000000000000000e+02 2.410000000000000000e+02 2.420000000000000000e+02 2.430000000000000000e+02 2.440000000000000000e+02 2.450000000000000000e+02 2.460000000000000000e+02 2.470000000000000000e+02 2.480000000000000000e+02 2.490000000000000000e+02 2.500000000000000000e+02 2.510000000000000000e+02 2.520000000000000000e+02 2.530000000000000000e+02 2.540000000000000000e+02 2.550000000000000000e+02 2.560000000000000000e+02 2.570000000000000000e+02 2.580000000000000000e+02 2.590000000000000000e+02 2.600000000000000000e+02 2.610000000000000000e+02 2.620000000000000000e+02 2.630000000000000000e+02 2.640000000000000000e+02 2.650000000000000000e+02 2.660000000000000000e+02 2.670000000000000000e+02 2.680000000000000000e+02 2.690000000000000000e+02 2.700000000000000000e+02 2.710000000000000000e+02 2.720000000000000000e+02 2.730000000000000000e+02 2.740000000000000000e+02 2.750000000000000000e+02 2.760000000000000000e+02 2.770000000000000000e+02 2.780000000000000000e+02 2.790000000000000000e+02 2.800000000000000000e+02 2.810000000000000000e+02 2.820000000000000000e+02 2.830000000000000000e+02 2.840000000000000000e+02 2.850000000000000000e+02 2.860000000000000000e+02 2.870000000000000000e+02 2.880000000000000000e+02 2.890000000000000000e+02 2.900000000000000000e+02 2.910000000000000000e+02 2.920000000000000000e+02 2.930000000000000000e+02 2.940000000000000000e+02 2.950000000000000000e+02 2.960000000000000000e+02 2.970000000000000000e+02 2.980000000000000000e+02 2.990000000000000000e+02 3.000000000000000000e+02 3.010000000000000000e+02 3.020000000000000000e+02 3.030000000000000000e+02 3.040000000000000000e+02 3.050000000000000000e+02 3.060000000000000000e+02 3.070000000000000000e+02 3.080000000000000000e+02 3.090000000000000000e+02 3.100000000000000000e+02 3.110000000000000000e+02 3.120000000000000000e+02 3.130000000000000000e+02 3.140000000000000000e+02 3.150000000000000000e+02 3.160000000000000000e+02 3.170000000000000000e+02 3.180000000000000000e+02 3.190000000000000000e+02 3.200000000000000000e+02 3.210000000000000000e+02 3.220000000000000000e+02 3.230000000000000000e+02 3.240000000000000000e+02 3.250000000000000000e+02 3.260000000000000000e+02 3.270000000000000000e+02 3.280000000000000000e+02 3.290000000000000000e+02 3.300000000000000000e+02 3.310000000000000000e+02 3.320000000000000000e+02 3.330000000000000000e+02 3.340000000000000000e+02 3.350000000000000000e+02 3.360000000000000000e+02 3.370000000000000000e+02 3.380000000000000000e+02 3.390000000000000000e+02 3.400000000000000000e+02 3.410000000000000000e+02 3.420000000000000000e+02 3.430000000000000000e+02 3.440000000000000000e+02 3.450000000000000000e+02 3.460000000000000000e+02 3.470000000000000000e+02 3.480000000000000000e+02 3.490000000000000000e+02 3.500000000000000000e+02 3.510000000000000000e+02 3.520000000000000000e+02 3.530000000000000000e+02 3.540000000000000000e+02 3.550000000000000000e+02 3.560000000000000000e+02 3.570000000000000000e+02 3.580000000000000000e+02 3.590000000000000000e+02 3.600000000000000000e+02 3.610000000000000000e+02 3.620000000000000000e+02 3.630000000000000000e+02 3.640000000000000000e+02 3.650000000000000000e+02 3.660000000000000000e+02 3.670000000000000000e+02 3.680000000000000000e+02 3.690000000000000000e+02 3.700000000000000000e+02 3.710000000000000000e+02 3.720000000000000000e+02 3.730000000000000000e+02 3.740000000000000000e+02 3.750000000000000000e+02 3.760000000000000000e+02 3.770000000000000000e+02 3.780000000000000000e+02 3.790000000000000000e+02 3.800000000000000000e+02 3.810000000000000000e+02 3.820000000000000000e+02 3.830000000000000000e+02 3.840000000000000000e+02 3.850000000000000000e+02 3.860000000000000000e+02 3.870000000000000000e+02 3.880000000000000000e+02 3.890000000000000000e+02 3.900000000000000000e+02 3.910000000000000000e+02 3.920000000000000000e+02 3.930000000000000000e+02 3.940000000000000000e+02 3.950000000000000000e+02 3.960000000000000000e+02 3.970000000000000000e+02 3.980000000000000000e+02 3.990000000000000000e+02 4.000000000000000000e+02 4.010000000000000000e+02 4.020000000000000000e+02 4.030000000000000000e+02 4.040000000000000000e+02 4.050000000000000000e+02 4.060000000000000000e+02 4.070000000000000000e+02 4.080000000000000000e+02 4.090000000000000000e+02 4.100000000000000000e+02 4.110000000000000000e+02 4.120000000000000000e+02 4.130000000000000000e+02 4.140000000000000000e+02 4.150000000000000000e+02 4.160000000000000000e+02 4.170000000000000000e+02 4.180000000000000000e+02 4.190000000000000000e+02 4.200000000000000000e+02 4.210000000000000000e+02 4.220000000000000000e+02 4.230000000000000000e+02 4.240000000000000000e+02 4.250000000000000000e+02 4.260000000000000000e+02 4.270000000000000000e+02 4.280000000000000000e+02 4.290000000000000000e+02 4.300000000000000000e+02 4.310000000000000000e+02 4.320000000000000000e+02 4.330000000000000000e+02 4.340000000000000000e+02 4.350000000000000000e+02 4.360000000000000000e+02 4.370000000000000000e+02 4.380000000000000000e+02 4.390000000000000000e+02 4.400000000000000000e+02 4.410000000000000000e+02 4.420000000000000000e+02 4.430000000000000000e+02 4.440000000000000000e+02 4.450000000000000000e+02 4.460000000000000000e+02 4.470000000000000000e+02 4.480000000000000000e+02 4.490000000000000000e+02 4.500000000000000000e+02 4.510000000000000000e+02 4.520000000000000000e+02 4.530000000000000000e+02 4.540000000000000000e+02 4.550000000000000000e+02 4.560000000000000000e+02 4.570000000000000000e+02 4.580000000000000000e+02 4.590000000000000000e+02 4.600000000000000000e+02 4.610000000000000000e+02 4.620000000000000000e+02 4.630000000000000000e+02 4.640000000000000000e+02 4.650000000000000000e+02 4.660000000000000000e+02 4.670000000000000000e+02 4.680000000000000000e+02 4.690000000000000000e+02 4.700000000000000000e+02 4.710000000000000000e+02 4.720000000000000000e+02 4.730000000000000000e+02 4.740000000000000000e+02 4.750000000000000000e+02 4.760000000000000000e+02 4.770000000000000000e+02 4.780000000000000000e+02 4.790000000000000000e+02 4.800000000000000000e+02 4.810000000000000000e+02 4.820000000000000000e+02 4.830000000000000000e+02 4.840000000000000000e+02 4.850000000000000000e+02 4.860000000000000000e+02 4.870000000000000000e+02 4.880000000000000000e+02 4.890000000000000000e+02 4.900000000000000000e+02 4.910000000000000000e+02 4.920000000000000000e+02 4.930000000000000000e+02 4.940000000000000000e+02 4.950000000000000000e+02 4.960000000000000000e+02 4.970000000000000000e+02 4.980000000000000000e+02 4.990000000000000000e+02 5.000000000000000000e+02 5.010000000000000000e+02 5.020000000000000000e+02 5.030000000000000000e+02 5.040000000000000000e+02 5.050000000000000000e+02 5.060000000000000000e+02 5.070000000000000000e+02 5.080000000000000000e+02 5.090000000000000000e+02 5.100000000000000000e+02 5.110000000000000000e+02 5.120000000000000000e+02 5.130000000000000000e+02 5.140000000000000000e+02 5.150000000000000000e+02 5.160000000000000000e+02 5.170000000000000000e+02 5.180000000000000000e+02 5.190000000000000000e+02 5.200000000000000000e+02 5.210000000000000000e+02 5.220000000000000000e+02 5.230000000000000000e+02 5.240000000000000000e+02 5.250000000000000000e+02 5.260000000000000000e+02 5.270000000000000000e+02 5.280000000000000000e+02 5.290000000000000000e+02 5.300000000000000000e+02 5.310000000000000000e+02 5.320000000000000000e+02 5.330000000000000000e+02 5.340000000000000000e+02 5.350000000000000000e+02 5.360000000000000000e+02 5.370000000000000000e+02 5.380000000000000000e+02 5.390000000000000000e+02 5.400000000000000000e+02 5.410000000000000000e+02 5.420000000000000000e+02 5.430000000000000000e+02 5.440000000000000000e+02 5.450000000000000000e+02 5.460000000000000000e+02 5.470000000000000000e+02 5.480000000000000000e+02 5.490000000000000000e+02 5.500000000000000000e+02 5.510000000000000000e+02 5.520000000000000000e+02 5.530000000000000000e+02 5.540000000000000000e+02 5.550000000000000000e+02 5.560000000000000000e+02 5.570000000000000000e+02 5.580000000000000000e+02 5.590000000000000000e+02 5.600000000000000000e+02 5.610000000000000000e+02 5.620000000000000000e+02 5.630000000000000000e+02 5.640000000000000000e+02 5.650000000000000000e+02 5.660000000000000000e+02 5.670000000000000000e+02 5.680000000000000000e+02 5.690000000000000000e+02 5.700000000000000000e+02 5.710000000000000000e+02 5.720000000000000000e+02 5.730000000000000000e+02 5.740000000000000000e+02 5.750000000000000000e+02 5.760000000000000000e+02 5.770000000000000000e+02 5.780000000000000000e+02 5.790000000000000000e+02 5.800000000000000000e+02 5.810000000000000000e+02 5.820000000000000000e+02 5.830000000000000000e+02 5.840000000000000000e+02 5.850000000000000000e+02 5.860000000000000000e+02 5.870000000000000000e+02 5.880000000000000000e+02 5.890000000000000000e+02 5.900000000000000000e+02 5.910000000000000000e+02 5.920000000000000000e+02 5.930000000000000000e+02 5.940000000000000000e+02 5.950000000000000000e+02 5.960000000000000000e+02 5.970000000000000000e+02 5.980000000000000000e+02 5.990000000000000000e+02 6.000000000000000000e+02 6.010000000000000000e+02 6.020000000000000000e+02 6.030000000000000000e+02 6.040000000000000000e+02 6.050000000000000000e+02 6.060000000000000000e+02 6.070000000000000000e+02 6.080000000000000000e+02 6.090000000000000000e+02 6.100000000000000000e+02 6.110000000000000000e+02 6.120000000000000000e+02 6.130000000000000000e+02 6.140000000000000000e+02 6.150000000000000000e+02 6.160000000000000000e+02 6.170000000000000000e+02 6.180000000000000000e+02 6.190000000000000000e+02 6.200000000000000000e+02 6.210000000000000000e+02 6.220000000000000000e+02 6.230000000000000000e+02 6.240000000000000000e+02 6.250000000000000000e+02 6.260000000000000000e+02 6.270000000000000000e+02 6.280000000000000000e+02 6.290000000000000000e+02 6.300000000000000000e+02 6.310000000000000000e+02 6.320000000000000000e+02 6.330000000000000000e+02 6.340000000000000000e+02 6.350000000000000000e+02 6.360000000000000000e+02 6.370000000000000000e+02 6.380000000000000000e+02 6.390000000000000000e+02 6.400000000000000000e+02 6.410000000000000000e+02 6.420000000000000000e+02 6.430000000000000000e+02 6.440000000000000000e+02 6.450000000000000000e+02 6.460000000000000000e+02 6.470000000000000000e+02 6.480000000000000000e+02 6.490000000000000000e+02 6.500000000000000000e+02 6.510000000000000000e+02 6.520000000000000000e+02 6.530000000000000000e+02 6.540000000000000000e+02 6.550000000000000000e+02 6.560000000000000000e+02 6.570000000000000000e+02 6.580000000000000000e+02 6.590000000000000000e+02 6.600000000000000000e+02 6.610000000000000000e+02 6.620000000000000000e+02 6.630000000000000000e+02 6.640000000000000000e+02 6.650000000000000000e+02 6.660000000000000000e+02 6.670000000000000000e+02 6.680000000000000000e+02 6.690000000000000000e+02 6.700000000000000000e+02 6.710000000000000000e+02 6.720000000000000000e+02 6.730000000000000000e+02 6.740000000000000000e+02 6.750000000000000000e+02 6.760000000000000000e+02 6.770000000000000000e+02 6.780000000000000000e+02 6.790000000000000000e+02 6.800000000000000000e+02 6.810000000000000000e+02 6.820000000000000000e+02 6.830000000000000000e+02 6.840000000000000000e+02 6.850000000000000000e+02 6.860000000000000000e+02 6.870000000000000000e+02 6.880000000000000000e+02 6.890000000000000000e+02 6.900000000000000000e+02 6.910000000000000000e+02 6.920000000000000000e+02 6.930000000000000000e+02 6.940000000000000000e+02 6.950000000000000000e+02 6.960000000000000000e+02 6.970000000000000000e+02 6.980000000000000000e+02 6.990000000000000000e+02 7.000000000000000000e+02 7.010000000000000000e+02 7.020000000000000000e+02 7.030000000000000000e+02 7.040000000000000000e+02 7.050000000000000000e+02 7.060000000000000000e+02 7.070000000000000000e+02 7.080000000000000000e+02 7.090000000000000000e+02 7.100000000000000000e+02 7.110000000000000000e+02 7.120000000000000000e+02 7.130000000000000000e+02 7.140000000000000000e+02 7.150000000000000000e+02 7.160000000000000000e+02 7.170000000000000000e+02 7.180000000000000000e+02 7.190000000000000000e+02 7.200000000000000000e+02 7.210000000000000000e+02 7.220000000000000000e+02 7.230000000000000000e+02 7.240000000000000000e+02 7.250000000000000000e+02 7.260000000000000000e+02 7.270000000000000000e+02 7.280000000000000000e+02 7.290000000000000000e+02 7.300000000000000000e+02 7.310000000000000000e+02 7.320000000000000000e+02 7.330000000000000000e+02 7.340000000000000000e+02 7.350000000000000000e+02 7.360000000000000000e+02 7.370000000000000000e+02 7.380000000000000000e+02 7.390000000000000000e+02 7.400000000000000000e+02 7.410000000000000000e+02 7.420000000000000000e+02 7.430000000000000000e+02 7.440000000000000000e+02 7.450000000000000000e+02 7.460000000000000000e+02 7.470000000000000000e+02 7.480000000000000000e+02 7.490000000000000000e+02 7.500000000000000000e+02 7.510000000000000000e+02 7.520000000000000000e+02 7.530000000000000000e+02 7.540000000000000000e+02 7.550000000000000000e+02 7.560000000000000000e+02 7.570000000000000000e+02 7.580000000000000000e+02 7.590000000000000000e+02 7.600000000000000000e+02 7.610000000000000000e+02 7.620000000000000000e+02 7.630000000000000000e+02 7.640000000000000000e+02 7.650000000000000000e+02 7.660000000000000000e+02 7.670000000000000000e+02 7.680000000000000000e+02 7.690000000000000000e+02 7.700000000000000000e+02 7.710000000000000000e+02 7.720000000000000000e+02 7.730000000000000000e+02 7.740000000000000000e+02 7.750000000000000000e+02 7.760000000000000000e+02 7.770000000000000000e+02 7.780000000000000000e+02 7.790000000000000000e+02 7.800000000000000000e+02 7.810000000000000000e+02 7.820000000000000000e+02 7.830000000000000000e+02 7.840000000000000000e+02 7.850000000000000000e+02 7.860000000000000000e+02 7.870000000000000000e+02 7.880000000000000000e+02 7.890000000000000000e+02 7.900000000000000000e+02 7.910000000000000000e+02 7.920000000000000000e+02 7.930000000000000000e+02 7.940000000000000000e+02 7.950000000000000000e+02 7.960000000000000000e+02 7.970000000000000000e+02 7.980000000000000000e+02 7.990000000000000000e+02 8.000000000000000000e+02 8.010000000000000000e+02 8.020000000000000000e+02 8.030000000000000000e+02 8.040000000000000000e+02 8.050000000000000000e+02 8.060000000000000000e+02 8.070000000000000000e+02 8.080000000000000000e+02 8.090000000000000000e+02 8.100000000000000000e+02 8.110000000000000000e+02 8.120000000000000000e+02 8.130000000000000000e+02 8.140000000000000000e+02 8.150000000000000000e+02 8.160000000000000000e+02 8.170000000000000000e+02 8.180000000000000000e+02 8.190000000000000000e+02 8.200000000000000000e+02 8.210000000000000000e+02 8.220000000000000000e+02 8.230000000000000000e+02 8.240000000000000000e+02 8.250000000000000000e+02 8.260000000000000000e+02 8.270000000000000000e+02 8.280000000000000000e+02 8.290000000000000000e+02 8.300000000000000000e+02 8.310000000000000000e+02 8.320000000000000000e+02 8.330000000000000000e+02 8.340000000000000000e+02 8.350000000000000000e+02 8.360000000000000000e+02 8.370000000000000000e+02 8.380000000000000000e+02 8.390000000000000000e+02 8.400000000000000000e+02 8.410000000000000000e+02 8.420000000000000000e+02 8.430000000000000000e+02 8.440000000000000000e+02 8.450000000000000000e+02 8.460000000000000000e+02 8.470000000000000000e+02 8.480000000000000000e+02 8.490000000000000000e+02 8.500000000000000000e+02 8.510000000000000000e+02 8.520000000000000000e+02 8.530000000000000000e+02 8.540000000000000000e+02 8.550000000000000000e+02 8.560000000000000000e+02 8.570000000000000000e+02 8.580000000000000000e+02 8.590000000000000000e+02 8.600000000000000000e+02 8.610000000000000000e+02 8.620000000000000000e+02 8.630000000000000000e+02 8.640000000000000000e+02 8.650000000000000000e+02 8.660000000000000000e+02 8.670000000000000000e+02 8.680000000000000000e+02 8.690000000000000000e+02 8.700000000000000000e+02 8.710000000000000000e+02 8.720000000000000000e+02 8.730000000000000000e+02 8.740000000000000000e+02 8.750000000000000000e+02 8.760000000000000000e+02 8.770000000000000000e+02 8.780000000000000000e+02 8.790000000000000000e+02 8.800000000000000000e+02 8.810000000000000000e+02 8.820000000000000000e+02 8.830000000000000000e+02 8.840000000000000000e+02 8.850000000000000000e+02 8.860000000000000000e+02 8.870000000000000000e+02 8.880000000000000000e+02 8.890000000000000000e+02 8.900000000000000000e+02 8.910000000000000000e+02 8.920000000000000000e+02 8.930000000000000000e+02 8.940000000000000000e+02 8.950000000000000000e+02 8.960000000000000000e+02 8.970000000000000000e+02 8.980000000000000000e+02 8.990000000000000000e+02 9.000000000000000000e+02 9.010000000000000000e+02 9.020000000000000000e+02 9.030000000000000000e+02 9.040000000000000000e+02 9.050000000000000000e+02 9.060000000000000000e+02 9.070000000000000000e+02 9.080000000000000000e+02 9.090000000000000000e+02 9.100000000000000000e+02 9.110000000000000000e+02 9.120000000000000000e+02 9.130000000000000000e+02 9.140000000000000000e+02 9.150000000000000000e+02 9.160000000000000000e+02 9.170000000000000000e+02 9.180000000000000000e+02 9.190000000000000000e+02 9.200000000000000000e+02 9.210000000000000000e+02 9.220000000000000000e+02 9.230000000000000000e+02 9.240000000000000000e+02 9.250000000000000000e+02 9.260000000000000000e+02 9.270000000000000000e+02 9.280000000000000000e+02 9.290000000000000000e+02 9.300000000000000000e+02 9.310000000000000000e+02 9.320000000000000000e+02 9.330000000000000000e+02 9.340000000000000000e+02 9.350000000000000000e+02 9.360000000000000000e+02 9.370000000000000000e+02 9.380000000000000000e+02 9.390000000000000000e+02 9.400000000000000000e+02 9.410000000000000000e+02 9.420000000000000000e+02 9.430000000000000000e+02 9.440000000000000000e+02 9.450000000000000000e+02 9.460000000000000000e+02 9.470000000000000000e+02 9.480000000000000000e+02 9.490000000000000000e+02 9.500000000000000000e+02 9.510000000000000000e+02 9.520000000000000000e+02 9.530000000000000000e+02 9.540000000000000000e+02 9.550000000000000000e+02 9.560000000000000000e+02 9.570000000000000000e+02 9.580000000000000000e+02 9.590000000000000000e+02 9.600000000000000000e+02 9.610000000000000000e+02 9.620000000000000000e+02 9.630000000000000000e+02 9.640000000000000000e+02 9.650000000000000000e+02 9.660000000000000000e+02 9.670000000000000000e+02 9.680000000000000000e+02 9.690000000000000000e+02 9.700000000000000000e+02 9.710000000000000000e+02 9.720000000000000000e+02 9.730000000000000000e+02 9.740000000000000000e+02 9.750000000000000000e+02 9.760000000000000000e+02 9.770000000000000000e+02 9.780000000000000000e+02 9.790000000000000000e+02 9.800000000000000000e+02 9.810000000000000000e+02 9.820000000000000000e+02 9.830000000000000000e+02 9.840000000000000000e+02 9.850000000000000000e+02 9.860000000000000000e+02 9.870000000000000000e+02 9.880000000000000000e+02 9.890000000000000000e+02 9.900000000000000000e+02 9.910000000000000000e+02 9.920000000000000000e+02 9.930000000000000000e+02 9.940000000000000000e+02 9.950000000000000000e+02 9.960000000000000000e+02 9.970000000000000000e+02 9.980000000000000000e+02 9.990000000000000000e+02 1.000000000000000000e+03
1.000000000000000021e-02 1.000000000000000021e-02 1.000000000000000021e-02 1.000000000000000021e-02 1.000000000000000021e-02 1.000000000000000021e-02 1.000000000000000021e-02 1.000000000000000021e-02 1.000000000000000021e-02 1.000000000000000021e-02 1.000000000000000021e-02 1.000000000000000021e-02 1.000000000000000021e-02 1.000000000000000021e-02 1.000000000000000021e-02 1.000000000000000021e-02 1.000000000000000021e-02 1.000000000000000021e-02 1.000000000000000021e-02 1.000000000000000021e-02 1.000000000000000021e-02 1.000000000000000021e-02 1.000000000000000021e-02 1.000000000000000021e-02 1.000000000000000021e-02 1.000000000000000021e-02 1.000000000000000021e-02 1.000000000000000021e-02 1.000000000000000021e-02 1.000000000000000021e-02 1.000000000000000021e-02 1.000000000000000021e-02 1.000000000000000021e-02 1.000000000000000021e-02 1.000000000000000021e-02 1.000000000000000021e-02 1.000000000000000021e-02 1.000000000000000021e-02 1.000000000000000021e-02 1.000000000000000021e-02 1.000000000000000021e-02 1.000000000000000021e-02 1.000000000000000021e-02 1.000000000000000021e-02 1.000000000000000021e-02 1.000000000000000021e-02 1.000000000000000021e-02 1.000000000000000021e-02 1.000000000000000021e-02 1.000000000000000021e-02 1.000000000000000021e-02 1.000000000000000021e-02 1.000000000000000021e-02 1.000000000000000021e-02 1.000000000000000021e-02 1.000000000000000021e-02 1.000000000000000021e-02 1.000000000000000021e-02 1.000000000000000021e-02 1.000000000000000021e-02 1.000000000000000021e-02 1.000000000000000021e-02 1.000000000000000021e-02 1.000000000000000021e-02 1.000000000000000021e-02 1.000000000000000021e-02 1.000000000000000021e-02 1.000000000000000021e-02 1.000000000000000021e-02 1.000000000000000021e-02 1.000000000000000021e-02 1.000000000000000021e-02 1.000000000000000021e-02 1.000000000000000021e-02 1.000000000000000021e-02 1.000000000000000021e-02 1.000000000000000021e-02 1.000000000000000021e-02 1.000000000000000021e-02 1.000000000000000021e-02 1.000000000000000021e-02 1.000000000000000021e-02 1.000000000000000021e-02 1.000000000000000021e-02 1.000000000000000021e-02 1.000000000000000021e-02 1.000000000000000021e-02 1.000000000000000021e-02 1.000000000000000021e-02 1.000000000000000021e-02 1.000000000000000021e-02 1.000000000000000021e-02 1.000000000000000021e-02 1.000000000000000021e-02 1.000000000000000021e-02 1.000000000000000021e-02 1.000000000000000021e-02 1.000000000000000021e-02 1.000000000000000021e-02 1.000000000000000021e-02 1.000000000000000021e-02 1.000000000000000021e-02 1.000000000000000021e-02 1.000000000000000021e-02 1.000000000000000021e-02 1.000000000000000021e-02 1.000000000000000021e-02 1.000000000000000021e-02 1.000000000000000021e-02 1.000000000000000021e-02 1.000000000000000021e-02 1.000000000000000021e-02 1.000000000000000021e-02 1.000000000000000021e-02 1.000000000000000021e-02 1.000000000000000021e-02 1.000000000000000021e-02 1.000000000000000021e-02 1.000000000000000021e-02 1.000000000000000021e-02 1.000000000000000021e-02 1.000000000000000021e-02 1.000000000000000021e-02 1.000000000000000021e-02 1.000000000000000021e-02 1.000000000000000021e-02 1.000000000000000021e-02 1.000000000000000021e-02 1.000000000000000021e-02 1.000000000000000021e-02 1.000000000000000021e-02 1.000000000000000021e-02 1.000000000000000021e-02 1.000000000000000021e-02 1.000000000000000021e-02 1.000000000000000021e-02 1.000000000000000021e-02 1.000000000000000021e-02 1.000000000000000021e-02 1.000000000000000021e-02 1.000000000000000021e-02 1.000000000000000021e-02 1.000000000000000021e-02 1.000000000000000021e-02 1.000000000000000021e-02 1.000000000000000021e-02 1.000000000000000021e-02 1.000000000000000021e-02 1.000000000000000021e-02 1.000000000000000021e-02 1.000000000000000021e-02 1.000000000000000021e-02 1.000000000000000021e-02 1.000000000000000021e-02 1.000000000000000021e-02 1.000000000000000021e-02 1.000000000000000021e-02 1.000000000000000021e-02 1.000000000000000021e-02 1.000000000000000021e-02 1.000000000000000021e-02 1.000000000000000021e-02 1.000000000000000021e-02 1.000000000000000021e-02 1.000000000000000021e-02 1.000000000000000021e-02 1.000000000000000021e-02 1.000000000000000021e-02 1.000000000000000021e-02 1.000000000000000021e-02 1.000000000000000021e-02 1.000000000000000021e-02 1.000000000000000021e-02 1.000000000000000021e-02 1.000000000000000021e-02 1.000000000000000021e-02 1.000000000000000021e-02 1.000000000000000021e-02 1.000000000000000021e-02 1.000000000000000021e-02 1.000000000000000021e-02 1.000000000000000021e-02 1.000000000000000021e-02 1.000000000000000021e-02 1.000000000000000021e-02 1.000000000000000021e-02 1.000000000000000021e-02 1.000000000000000021e-02 1.000000000000000021e-02 1.000000000000000021e-02 1.000000000000000021e-02 1.000000000000000021e-02 1.000000000000000021e-02 1.000000000000000021e-02 1.000000000000000021e-02 1.000000000000000021e-02 1.000000000000000021e-02 1.000000000000000021e-02 1.000000000000000021e-02 1.000000000000000021e-02 1.000000000000000021e-02 1.000000000000000021e-02 1.000000000000000021e-02 1.000000000000000021e-02 1.000000000000000021e-02 1.000000000000000021e-02 1.000000000000000021e-02 1.000000000000000021e-02 1.000000000000000021e-02 1.000000000000000021e-02 1.000000000000000021e-02 1.000000000000000021e-02 1.000000000000000021e-02 1.000000000000000021e-02 1.000000000000000021e-02 1.000000000000000021e-02 1.000000000000000021e-02 1.000000000000000021e-02 1.000000000000000021e-02 1.000000000000000021e-02 1.000000000000000021e-02 1.000000000000000021e-02 1.000000000000000021e-02 1.000000000000000021e-02 1.000000000000000021e-02 1.000000000000000021e-02 1.000000000000000021e-02 1.000000000000000021e-02 1.000000000000000021e-02 1.000000000000000021e-02 1.000000000000000021e-02 1.000000000000000021e-02 1.000000000000000021e-02 1.000000000000000021e-02 1.000000000000000021e-02 1.000000000000000021e-02 1.000000000000000021e-02 1.000000000000000021e-02 1.000000000000000021e-02 1.000000000000000021e-02 1.000000000000000021e-02 1.000000000000000021e-02 1.000000000000000021e-02 1.000000000000000021e-02 1.000000000000000021e-02 1.000000000000000021e-02 1.000000000000000021e-02 1.000000000000000021e-02 1.000000000000000021e-02 1.000000000000000021e-02 1.000000000000000021e-02 1.000000000000000021e-02 1.000000000000000021e-02 1.000000000000000021e-02 1.000000000000000021e-02 1.000000000000000021e-02 1.000000000000000021e-02 1.000000000000000021e-02 1.000000000000000021e-02 1.000000000000000021e-02 1.000000000000000021e-02 1.000000000000000021e-02 1.000000000000000021e-02 1.000000000000000021e-02 1.000000000000000021e-02 1.000000000000000021e-02 1.000000000000000021e-02 1.000000000000000021e-02 1.000000000000000021e-02 1.000000000000000021e-02 1.000000000000000021e-02 1.000000000000000021e-02 1.000000000000000021e-02 1.000000000000000021e-02 1.000000000000000021e-02 1.000000000000000021e-02 1.000000000000000021e-02 1.000000000000000021e-02 1.000000000000000021e-02 1.000000000000000021e-02 1.000000000000000021e-02 1.000000000000000021e-02 1.000000000000000021e-02 1.000000000000000021e-02 1.000000000000000021e-02 1.000000000000000021e-02 1.000000000000000021e-02 1.000000000000000021e-02 1.000000000000000021e-02 1.000000000000000021e-02 1.000000000000000021e-02 1.000000000000000021e-02 1.000000000000000021e-02 1.000000000000000021e-02 1.000000000000000021e-02 1.000000000000000021e-02 1.000000000000000021e-02 1.000000000000000021e-02 1.000000000000000021e-02 1.000000000000000021e-02 1.000000000000000021e-02 1.000000000000000021e-02 1.000000000000000021e-02 1.000000000000000021e-02 1.000000000000000021e-02 1.000000000000000021e-02 1.000000000000000021e-02 1.000000000000000021e-02 1.000000000000000021e-02 1.000000000000000021e-02 1.000000000000000021e-02 1.000000000000000021e-02 1.000000000000000021e-02 1.000000000000000021e-02 1.000000000000000021e-02 1.000000000000000021e-02 1.000000000000000021e-02 1.000000000000000021e-02 1.000000000000000021e-02 1.000000000000000021e-02 1.000000000000000021e-02 1.000000000000000021e-02 1.000000000000000021e-02 1.000000000000000021e-02 1.000000000000000021e-02 1.000000000000000021e-02 1.000000000000000021e-02 1.000000000000000021e-02 1.000000000000000021e-02 1.000000000000000021e-02 1.000000000000000021e-02 1.000000000000000021e-02 1.000000000000000021e-02 1.000000000000000021e-02 1.000000000000000021e-02 1.000000000000000021e-02 1.000000000000000021e-02 1.000000000000000021e-02 1.000000000000000021e-02 1.000000000000000021e-02 1.000000000000000021e-02 1.000000000000000021e-02 1.000000000000000021e-02 1.000000000000000021e-02 1.000000000000000021e-02 1.000000000000000021e-02 1.000000000000000021e-02 1.000000000000000021e-02 1.000000000000000021e-02 1.000000000000000021e-02 1.000000000000000021e-02 1.000000000000000021e-02 1.000000000000000021e-02 1.000000000000000021e-02 1.000000000000000021e-02 1.000000000000000021e-02 1.000000000000000021e-02 1.000000000000000021e-02 1.000000000000000021e-02 1.000000000000000021e-02 1.000000000000000021e-02 1.000000000000000021e-02 1.000000000000000021e-02 1.000000000000000021e-02 1.000000000000000021e-02 1.000000000000000021e-02 1.000000000000000021e-02 1.000000000000000021e-02 1.000000000000000021e-02 1.000000000000000021e-02 1.000000000000000021e-02 1.000000000000000021e-02 1.000000000000000021e-02 1.000000000000000021e-02 1.000000000000000021e-02 1.000000000000000021e-02 1.000000000000000021e-02 1.000000000000000021e-02 1.000000000000000021e-02 1.000000000000000021e-02 1.000000000000000021e-02 1.000000000000000021e-02 1.000000000000000021e-02 1.000000000000000021e-02 1.000000000000000021e-02 1.000000000000000021e-02 1.000000000000000021e-02 1.000000000000000021e-02 1.000000000000000021e-02 1.000000000000000021e-02 1.000000000000000021e-02 1.000000000000000021e-02 1.000000000000000021e-02 1.000000000000000021e-02 1.000000000000000021e-02 1.000000000000000021e-02 1.000000000000000021e-02 1.000000000000000021e-02 1.000000000000000021e-02 1.000000000000000021e-02 1.000000000000000021e-02 1.000000000000000021e-02 1.000000000000000021e-02 1.000000000000000021e-02 1.000000000000000021e-02 1.000000000000000021e-02 1.000000000000000021e-02 1.000000000000000021e-02 1.000000000000000021e-02 1.000000000000000021e-02 1.000000000000000021e-02 1.000000000000000021e-02 1.000000000000000021e-02 1.000000000000000021e-02 1.000000000000000021e-02 1.000000000000000021e-02 1.000000000000000021e-02 1.000000000000000021e-02 1.000000000000000021e-02 1.000000000000000021e-02 1.000000000000000021e-02 1.000000000000000021e-02 1.000000000000000021e-02 1.000000000000000021e-02 1.000000000000000021e-02 1.000000000000000021e-02 1.000000000000000021e-02 1.000000000000000021e-02 1.000000000000000021e-02 1.000000000000000021e-02 1.000000000000000021e-02 1.000000000000000021e-02 1.000000000000000021e-02 1.000000000000000021e-02 1.000000000000000021e-02 1.000000000000000021e-02 1.000000000000000021e-02 1.000000000000000021e-02 1.000000000000000021e-02 1.000000000000000021e-02 1.000000000000000021e-02 1.000000000000000021e-02 1.000000000000000021e-02 1.000000000000000021e-02 1.000000000000000021e-02 1.000000000000000021e-02 1.000000000000000021e-02 1.000000000000000021e-02 1.000000000000000021e-02 1.000000000000000021e-02 1.000000000000000021e-02 1.000000000000000021e-02 1.000000000000000021e-02 1.000000000000000021e-02 1.000000000000000021e-02 1.000000000000000021e-02 1.000000000000000021e-02 1.000000000000000021e-02 1.000000000000000021e-02 1.000000000000000021e-02 1.000000000000000021e-02 1.000000000000000021e-02 1.000000000000000021e-02 1.000000000000000021e-02 1.000000000000000021e-02 1.000000000000000021e-02 1.000000000000000021e-02 1.000000000000000021e-02 1.000000000000000021e-02 1.000000000000000021e-02 1.000000000000000021e-02 1.000000000000000021e-02 1.000000000000000021e-02 1.000000000000000021e-02 1.000000000000000021e-02 1.000000000000000021e-02 1.000000000000000021e-02 1.000000000000000021e-02 1.000000000000000021e-02 1.000000000000000021e-02 1.000000000000000021e-02 1.000000000000000021e-02 1.000000000000000021e-02 1.000000000000000021e-02 1.000000000000000021e-02 1.000000000000000021e-02 1.000000000000000021e-02 1.000000000000000021e-02 1.000000000000000021e-02 1.000000000000000021e-02 1.000000000000000021e-02 1.000000000000000021e-02 1.000000000000000021e-02 1.000000000000000021e-02 1.000000000000000021e-02 1.000000000000000021e-02 1.000000000000000021e-02 1.000000000000000021e-02 1.000000000000000021e-02 1.000000000000000021e-02 1.000000000000000021e-02 1.000000000000000021e-02 1.000000000000000021e-02 1.000000000000000021e-02 1.000000000000000021e-02 1.000000000000000021e-02 1.000000000000000021e-02 1.000000000000000021e-02 1.000000000000000021e-02 1.000000000000000021e-02 1.000000000000000021e-02 1.000000000000000021e-02 1.000000000000000021e-02 1.000000000000000021e-02 1.000000000000000021e-02 1.000000000000000021e-02 1.000000000000000021e-02 1.000000000000000021e-02 1.000000000000000021e-02 1.000000000000000021e-02 1.000000000000000021e-02 1.000000000000000021e-02 1.000000000000000021e-02 1.000000000000000021e-02 1.000000000000000021e-02 1.000000000000000021e-02 1.000000000000000021e-02 1.000000000000000021e-02 1.000000000000000021e-02 1.000000000000000021e-02 1.000000000000000021e-02 1.000000000000000021e-02 1.000000000000000021e-02 1.000000000000000021e-02 1.000000000000000021e-02 1.000000000000000021e-02 1.000000000000000021e-02 1.000000000000000021e-02 1.000000000000000021e-02 1.000000000000000021e-02 1.000000000000000021e-02 1.000000000000000021e-02 1.000000000000000021e-02 1.000000000000000021e-02 1.000000000000000021e-02 1.000000000000000021e-02 1.000000000000000021e-02 1.000000000000000021e-02 1.000000000000000021e-02 1.000000000000000021e-02 1.000000000000000021e-02 1.000000000000000021e-02 1.000000000000000021e-02 1.000000000000000021e-02 1.000000000000000021e-02 1.000000000000000021e-02 1.000000000000000021e-02 1.000000000000000021e-02 1.000000000000000021e-02 1.000000000000000021e-02 1.000000000000000021e-02 1.000000000000000021e-02 1.000000000000000021e-02 1.000000000000000021e-02 1.000000000000000021e-02 1.000000000000000021e-02 1.000000000000000021e-02 1.000000000000000021e-02 1.000000000000000021e-02 1.000000000000000021e-02 1.000000000000000021e-02 1.000000000000000021e-02 1.000000000000000021e-02 1.000000000000000021e-02 1.000000000000000021e-02 1.000000000000000021e-02 1.000000000000000021e-02 1.000000000000000021e-02 1.000000000000000021e-02 1.000000000000000021e-02 1.000000000000000021e-02 1.000000000000000021e-02 1.000000000000000021e-02 1.000000000000000021e-02 1.000000000000000021e-02 1.000000000000000021e-02 1.000000000000000021e-02 1.000000000000000021e-02 1.000000000000000021e-02 1.000000000000000021e-02 1.000000000000000021e-02 1.000000000000000021e-02 1.000000000000000021e-02 1.000000000000000021e-02 1.000000000000000021e-02 1.000000000000000021e-02 1.000000000000000021e-02 1.000000000000000021e-02 1.000000000000000021e-02 1.000000000000000021e-02 1.000000000000000021e-02 1.000000000000000021e-02 1.000000000000000021e-02 1.000000000000000021e-02 1.000000000000000021e-02 1.000000000000000021e-02 1.000000000000000021e-02 1.000000000000000021e-02 1.000000000000000021e-02 1.000000000000000021e-02 1.000000000000000021e-02 1.000000000000000021e-02 1.000000000000000021e-02 1.000000000000000021e-02 1.000000000000000021e-02 1.000000000000000021e-02 1.000000000000000021e-02 1.000000000000000021e-02 1.000000000000000021e-02 1.000000000000000021e-02 1.000000000000000021e-02 1.000000000000000021e-02 1.000000000000000021e-02 1.000000000000000021e-02 1.000000000000000021e-02 1.000000000000000021e-02 1.000000000000000021e-02 1.000000000000000021e-02 1.000000000000000021e-02 1.000000000000000021e-02 1.000000000000000021e-02 1.000000000000000021e-02 1.000000000000000021e-02 1.000000000000000021e-02 1.000000000000000021e-02 1.000000000000000021e-02 1.000000000000000021e-02 1.000000000000000021e-02 1.000000000000000021e-02 1.000000000000000021e-02 1.000000000000000021e-02 1.000000000000000021e-02 1.000000000000000021e-02 1.000000000000000021e-02 1.000000000000000021e-02 1.000000000000000021e-02 1.000000000000000021e-02 1.000000000000000021e-02 1.000000000000000021e-02 1.000000000000000021e-02 1.000000000000000021e-02 1.000000000000000021e-02 1.000000000000000021e-02 1.000000000000000021e-02 1.000000000000000021e-02 1.000000000000000021e-02 1.000000000000000021e-02 1.000000000000000021e-02 1.000000000000000021e-02 1.000000000000000021e-02 1.000000000000000021e-02 1.000000000000000021e-02 1.000000000000000021e-02 1.000000000000000021e-02 1.000000000000000021e-02 1.000000000000000021e-02 1.000000000000000021e-02 1.000000000000000021e-02 1.000000000000000021e-02 1.000000000000000021e-02 1.000000000000000021e-02 1.000000000000000021e-02 1.000000000000000021e-02 1.000000000000000021e-02 1.000000000000000021e-02 1.000000000000000021e-02 1.000000000000000021e-02 1.000000000000000021e-02 1.000000000000000021e-02 1.000000000000000021e-02 1.000000000000000021e-02 1.000000000000000021e-02 1.000000000000000021e-02 1.000000000000000021e-02 1.000000000000000021e-02 1.000000000000000021e-02 1.000000000000000021e-02 1.000000000000000021e-02 1.000000000000000021e-02 1.000000000000000021e-02 1.000000000000000021e-02 1.000000000000000021e-02 1.000000000000000021e-02 1.000000000000000021e-02 1.000000000000000021e-02 1.000000000000000021e-02 1.000000000000000021e-02 1.000000000000000021e-02 1.000000000000000021e-02 1.000000000000000021e-02 1.000000000000000021e-02 1.000000000000000021e-02 1.000000000000000021e-02 1.000000000000000021e-02 1.000000000000000021e-02 1.000000000000000021e-02 1.000000000000000021e-02 1.000000000000000021e-02 1.000000000000000021e-02 1.000000000000000021e-02 1.000000000000000021e-02 1.000000000000000021e-02 1.000000000000000021e-02 1.000000000000000021e-02 1.000000000000000021e-02 1.000000000000000021e-02 1.000000000000000021e-02 1.000000000000000021e-02 1.000000000000000021e-02 1.000000000000000021e-02 1.000000000000000021e-02 1.000000000000000021e-02 1.000000000000000021e-02 1.000000000000000021e-02 1.000000000000000021e-02 1.000000000000000021e-02 1.000000000000000021e-02 1.000000000000000021e-02 1.000000000000000021e-02 1.000000000000000021e-02 1.000000000000000021e-02 1.000000000000000021e-02 1.000000000000000021e-02 1.000000000000000021e-02 1.000000000000000021e-02 1.000000000000000021e-02 1.000000000000000021e-02 1.000000000000000021e-02 1.000000000000000021e-02 1.000000000000000021e-02 1.000000000000000021e-02 1.000000000000000021e-02 1.000000000000000021e-02 1.000000000000000021e-02 1.000000000000000021e-02 1.000000000000000021e-02 1.000000000000000021e-02 1.000000000000000021e-02 1.000000000000000021e-02 1.000000000000000021e-02 1.000000000000000021e-02 1.000000000000000021e-02 1.000000000000000021e-02 1.000000000000000021e-02 1.000000000000000021e-02 1.000000000000000021e-02 1.000000000000000021e-02 1.000000000000000021e-02 1.000000000000000021e-02 1.000000000000000021e-02 1.000000000000000021e-02 1.000000000000000021e-02 1.000000000000000021e-02 1.000000000000000021e-02 1.000000000000000021e-02 1.000000000000000021e-02 1.000000000000000021e-02 1.000000000000000021e-02 1.000000000000000021e-02 1.000000000000000021e-02 1.000000000000000021e-02 1.000000000000000021e-02 1.000000000000000021e-02 1.000000000000000021e-02 1.000000000000000021e-02 1.000000000000000021e-02 1.000000000000000021e-02 1.000000000000000021e-02 1.000000000000000021e-02 1.000000000000000021e-02 1.000000000000000021e-02 1.000000000000000021e-02 1.000000000000000021e-02 1.000000000000000021e-02 1.000000000000000021e-02 1.000000000000000021e-02 1.000000000000000021e-02 1.000000000000000021e-02 1.000000000000000021e-02 1.000000000000000021e-02 1.000000000000000021e-02 1.000000000000000021e-02 1.000000000000000021e-02 1.000000000000000021e-02 1.000000000000000021e-02 1.000000000000000021e-02 1.000000000000000021e-02 1.000000000000000021e-02 1.000000000000000021e-02 1.000000000000000021e-02 1.000000000000000021e-02 1.000000000000000021e-02 1.000000000000000021e-02 1.000000000000000021e-02 1.000000000000000021e-02 1.000000000000000021e-02 1.000000000000000021e-02 1.000000000000000021e-02 1.000000000000000021e-02 1.000000000000000021e-02 1.000000000000000021e-02 1.000000000000000021e-02 1.000000000000000021e-02 1.000000000000000021e-02 1.000000000000000021e-02 1.000000000000000021e-02 1.000000000000000021e-02 1.000000000000000021e-02 1.000000000000000021e-02 1.000000000000000021e-02 1.000000000000000021e-02 1.000000000000000021e-02 1.000000000000000021e-02 1.000000000000000021e-02 1.000000000000000021e-02 1.000000000000000021e-02 1.000000000000000021e-02 1.000000000000000021e-02 1.000000000000000021e-02 1.000000000000000021e-02 1.000000000000000021e-02 1.000000000000000021e-02 1.000000000000000021e-02 1.000000000000000021e-02 1.000000000000000021e-02 1.000000000000000021e-02 1.000000000000000021e-02 1.000000000000000021e-02 1.000000000000000021e-02 1.000000000000000021e-02 1.000000000000000021e-02 1.000000000000000021e-02 1.000000000000000021e-02 1.000000000000000021e-02 1.000000000000000021e-02 1.000000000000000021e-02 1.000000000000000021e-02 1.000000000000000021e-02 1.000000000000000021e-02 1.000000000000000021e-02 1.000000000000000021e-02 1.000000000000000021e-02 1.000000000000000021e-02 1.000000000000000021e-02 1.000000000000000021e-02 1.000000000000000021e-02 1.000000000000000021e-02 1.000000000000000021e-02 1.000000000000000021e-02 1.000000000000000021e-02 1.000000000000000021e-02 1.000000000000000021e-02 1.000000000000000021e-02 1.000000000000000021e-02 1.000000000000000021e-02 1.000000000000000021e-02 1.000000000000000021e-02 1.000000000000000021e-02 1.000000000000000021e-02 1.000000000000000021e-02 1.000000000000000021e-02 1.000000000000000021e-02 1.000000000000000021e-02 1.000000000000000021e-02 1.000000000000000021e-02 1.000000000000000021e-02 1.000000000000000021e-02 1.000000000000000021e-02 1.000000000000000021e-02 1.000000000000000021e-02 1.000000000000000021e-02 1.000000000000000021e-02 1.000000000000000021e-02 1.000000000000000021e-02 1.000000000000000021e-02 1.000000000000000021e-02 1.000000000000000021e-02 1.000000000000000021e-02 1.000000000000000021e-02 1.000000000000000021e-02 1.000000000000000021e-02 1.000000000000000021e-02 1.000000000000000021e-02 1.000000000000000021e-02 1.000000000000000021e-02 1.000000000000000021e-02 1.000000000000000021e-02 1.000000000000000021e-02 1.000000000000000021e-02 1.000000000000000021e-02 1.000000000000000021e-02 1.000000000000000021e-02 1.000000000000000021e-02 1.000000000000000021e-02 1.000000000000000021e-02 1.000000000000000021e-02 1.000000000000000021e-02 1.000000000000000021e-02 1.000000000000000021e-02 1.000000000000000021e-02 1.000000000000000021e-02 1.000000000000000021e-02 1.000000000000000021e-02 1.000000000000000021e-02 1.000000000000000021e-02 1.000000000000000021e-02 1.000000000000000021e-02 1.000000000000000021e-02 1.000000000000000021e-02 1.000000000000000021e-02 1.000000000000000021e-02 1.000000000000000021e-02 1.000000000000000021e-02 1.000000000000000021e-02 1.000000000000000021e-02 1.000000000000000021e-02 1.000000000000000021e-02 1.000000000000000021e-02 1.000000000000000021e-02 1.000000000000000021e-02 1.000000000000000021e-02 1.000000000000000021e-02 1.000000000000000021e-02 1.000000000000000021e-02 1.000000000000000021e-02 1.000000000000000021e-02 1.000000000000000021e-02 1.000000000000000021e-02 1.000000000000000021e-02 1.000000000000000021e-02 1.000000000000000021e-02 1.000000000000000021e-02 1.000000000000000021e-02 1.000000000000000021e-02 1.000000000000000021e-02 1.000000000000000021e-02 1.000000000000000021e-02 1.000000000000000021e-02 1.000000000000000021e-02 1.000000000000000021e-02 1.000000000000000021e-02 1.000000000000000021e-02 1.000000000000000021e-02 1.000000000000000021e-02 1.000000000000000021e-02 1.000000000000000021e-02 1.000000000000000021e-02 1.000000000000000021e-02 1.000000000000000021e-02 1.000000000000000021e-02 1.000000000000000021e-02 1.000000000000000021e-02 1.000000000000000021e-02 1.000000000000000021e-02 1.000000000000000021e-02 1.000000000000000021e-02 1.000000000000000021e-02 1.000000000000000021e-02 1.000000000000000021e-02 1.000000000000000021e-02 1.000000000000000021e-02 1.000000000000000021e-02 1.000000000000000021e-02 1.000000000000000021e-02 1.000000000000000021e-02 1.000000000000000021e-02 1.000000000000000021e-02 1.000000000000000021e-02 1.000000000000000021e-02 1.000000000000000021e-02 1.000000000000000021e-02 1.000000000000000021e-02 1.000000000000000021e-02 1.000000000000000021e-02 1.000000000000000021e-02 1.000000000000000021e-02 1.000000000000000021e-02 1.000000000000000021e-02 1.000000000000000021e-02 1.000000000000000021e-02 1.000000000000000021e-02 1.000000000000000021e-02 1.000000000000000021e-02 1.000000000000000021e-02 1.000000000000000021e-02 1.000000000000000021e-02 1.000000000000000021e-02 1.000000000000000021e-02 1.000000000000000021e-02 1.000000000000000021e-02
-1.097089181666521114e+02 1.668189774961445835e+02 3.866479720744827375e+01 -8.686812092808434471e+00 -8.641804847230253017e+01 -1.316748888547974161e+01 -2.044864143694486813e+02 6.867082093104890372e-01 -8.330716707959940948e+01 -1.386643394060891765e+01 -1.951370830732447814e+01 6.426886970582781800e+00 -1.752720276428066937e+00 1.650172719073863448e+02 8.322694608021741658e+01 -3.816086107188997545e+01 -5.194808576564363989e+01 7.791007959861991594e+01 3.228592366764939214e+01 -2.495921941707695879e+01 -7.754056290132115237e+01 -7.257937777157121673e+01 -1.357075153931529954e+01 2.845643787161944971e+01 -1.917025621631111676e+02 -9.709492431727873907e+01 -2.566197818895725291e+01 1.983005329633003839e+02 6.959722426973928577e+01 7.547830011916926196e+01 7.897650692291198027e+01 1.162842087766337906e+00 -7.797669655875378680e+01 2.040591908486520367e+02 -2.408462537368353367e+02 5.789016760253512928e+01 -1.181443975408088534e+02 -3.411733164385428552e+01 3.970031897259689746e+00 1.246334246024741219e+02 -1.208750698862945541e+02 -1.341080371485026923e+01 7.607496033900565635e+01 1.707588844191665771e+02 7.017089024583953005e+01 -6.727197829111520377e+01 4.052032975938447379e+01 -2.792568004289737615e+01 -6.498070968997930663e+01 1.540198064895146217e+02 -6.937206946014724451e+01 -5.124744047008003633e+01 -1.370752798939274157e+02 5.693747676916265377e+00 -4.969937164751702596e+01 3.804068543191694118e+01 -8.727953349372630498e+01 -4.923570793877064489e+01 -9.975260199927980409e+01 -1.529153537967871159e+02 1.911844888292163702e+01 4.464253563843075057e+01 -1.211216662551950805e+02 1.264376962935327420e+01 -7.798442589736418995e+01 4.832260760599398708e+01 1.639421021060714452e+02 -1.419250411364005231e+02 -4.259649577882477445e+01 7.092114841787704904e+00 2.887385665572461679e+00 4.169888170729781507e+01 8.261846244087199409e+01 8.235156797582180443e-01 -8.676632157066320516e+00 -6.888070175460374855e+01 7.698332592902733040e+01 -3.221061379796870483e+01 2.587602423769056514e+01 1.023349486838599205e+02 8.677890641444416531e+01 -4.207142083392738385e+01 5.684211715222229344e+01 1.450430697722520677e+02 1.143317463258127447e+02 -3.942968858178248048e+00 1.713743725209673983e+02 -1.097187346976728577e+02 4.114553890155082883e+00 -4.125988667245889729e+01 2.034777758453833201e+02 -2.088003560907512934e+01 2.845276865493300278e+00 -7.554120393892111451e+01 -7.028898920195343791e+00 -6.279587080984421732e+01 6.668375218076208455e+01 -9.302712181288318050e+01 6.749797399638289619e+01 -4.698883313219061364e+01 -4.894789667689735069e+01 -9.018260811022085477e+01 5.221564998565870042e+01 -5.381180226297014002e+01 -1.469160376325314132e+02 -7.817435652823198211e+01 -1.029171155507060433e+02 -1.546863659482074809e+02 1.337347907652798540e+02 -2.702444491957192696e+01 3.152134466915908462e+01 8.821782366508587359e+01 -1.023710178068402996e+02 5.603551474117656994e+01 -4.261797756363574052e+01 -6.825499263597734512e+01 -8.865917090452921911e+01 1.999495976672685345e+02 -5.582274879149709790e+01 -4.870981263604307543e+01 -4.642383719610027271e+01 7.909866901336839362e+01 -4.074801614727113019e+01 1.357426966078855060e+02 -4.910091504750462832e+01 5.422890016259037083e+01 4.469560447114808710e+00 -7.979550098529286117e+01 6.768455791745741124e+01 2.729213473009890549e+02 -9.056740227900506568e+01 4.671480361775613233e+01 -7.503562780389084708e+01 4.451595591117300188e+01 1.290984849104572731e+02 -5.058878602605920349e+01 1.437462277164594404e+01 -2.650982867230652573e+01 -1.003301596099594803e+02 -1.705791315838152400e+01 4.228042928735546546e+00 -7.689499713476489973e+00 -1.470832876447544280e+01 1.163458844990216932e+02 1.283273817649256046e+02 1.835450436743718114e+02 -2.995912903493174895e+02 3.760921353510330789e+01 -1.552132360942634470e+01 -6.137750598091142251e+01 1.775624060387314103e+02 7.499539430635965687e+01 -2.564863857505101929e+00 -1.141716510071223922e+02 -1.072037338279865004e+01 9.857126184844534578e+01 -1.323385251425924025e+02 -1.660700273005145391e+02 1.057535144991989995e+01 4.178566697561286958e+01 -6.011807552495912432e+01 4.141271023427173503e+01 -1.054890625020603210e+02 -1.490731352903431457e+02 2.078558504850673216e+01 4.786598071276649335e+01 4.747151164122600520e+00 -8.224276267426485276e+01 -9.223549083787206371e+01 -8.308455236396640942e+01 -8.630369994291231706e+01 1.247335421609323269e+01 5.602701119068520086e+01 1.148905639701158634e+02 7.832814771669019649e+01 8.829331851740542447e+01 1.060228492838523806e+02 -7.378368253935973087e+01 -8.141266812492204963e+01 6.959625137727414312e+01 6.763366569150485930e+01 5.847012368175828811e+01 -9.266209593008561285e+00 -8.993619494932413261e+01 5.332704578711445720e+01 -1.768798129071109315e+02 6.637291781429613025e+01 -4.399926157832534557e+01 -9.531342758209852661e+01 7.336370494242646600e+01 -1.696184778557325856e+01 -7.626137102411588842e+01 -5.682539487486102558e+01 -9.067028386152832908e+00 2.401647098997387388e+02 7.611152411502122561e+01 5.429260319696066261e+01 -1.028562854905005253e+02 1.468497155097520874e+02 1.051503868295989186e+00 -8.953925567514292538e+01 1.544176660117158235e+02 -1.527802264128424667e+02 1.564114375554073355e+01 -3.225178233722914456e+01 -2.203242249278145835e+02 -1.336984371531382294e+02 -8.744366808370872945e+01 -2.942654969427763234e+01 -1.195152277556625222e+02 5.778938942640512266e+01 6.515702095550081197e+01 -2.766128537455754355e+01 -1.000112198574484381e+02 1.133783371980971282e+02 1.184837742300364454e+02 4.633117185309524899e+01 1.753870482144005649e+01 2.621327775634598538e+02 4.378542970515250943e+01 -1.198401426221371935e+02 -4.521210194522646475e+01 -1.693751271619929071e+02 3.197638928101102707e+01 1.538096296591008638e+02 -1.488288135089968875e+02 1.321968027546502640e+02 -9.129143104270285392e+01 -1.899320716356830019e+01 -7.919519652054604064e-01 5.307378131329222981e+01 -1.162795311893507666e+01 -2.290287850807350623e+01 -1.892308759101134186e+01 -1.272570737538271146e+02 4.659532772707880355e+01 -3.047133078522386640e+01 -1.299678104540388013e+01 -1.076537740099907303e+01 2.269437316798403401e+02 1.750006762318569997e+02 2.336524143296479110e+02 1.323841596429567460e+02 -8.696056016832940827e+01 7.550578342588659098e+01 2.123244591787945268e+01 4.776313499531229922e+01 -3.987016388039878478e+01 2.565904451788758820e+02 -2.342058290986500424e+01 -1.373752103292628135e+02 -1.501655281765982508e+01 -4.605468591929180633e+01 -7.775709330507230277e+01 4.336362998421726189e+01 -1.176904874442325166e+01 1.827988315956631595e+02 9.281397834542116243e+01 4.108052995909255856e+01 9.848727366892681800e+01 9.505219115649012451e+01 -2.310205955527962018e+01 1.403392118969717330e+02 2.665231409290194620e+01 9.005726540101031219e+01 4.792188960750068816e+01 6.963688686601540390e+00 -1.163588433831291979e+02 -1.164631029704621312e+02 -9.050752628920560028e+01 -1.564904169795743982e+01 8.715242784077548777e+01 -3.079969126917935185e+01 9.941216610217141181e+01 4.405294892830900721e+01 -7.311155454943393295e+01 -3.011117591624668677e+01 -5.890192945164745453e+01 1.766101608611354479e+01 -4.655396692602266029e+01 -1.126431059253103513e+02 1.221672496258921825e+02 1.219932663704225604e+02 -7.939014237715738886e+01 5.445153147121178705e+00 -4.556584601967607284e+01 -3.275349198620691027e+01 -1.140234321270332707e+01 -3.140292879060553943e+01 4.471888922544604128e+01 -1.413064839584189940e+02 -5.312916205074864706e+01 -1.526475083988137555e+02 1.749984284428237800e+02 -2.030031743670440747e+01 5.920607810996592946e+01 1.197138854258334106e+01 1.450680689171212236e+02 4.482348722100920924e+01 3.587171775010662600e+01 1.550471327364405738e+02 -4.947392080104879852e+01 -9.802980921332485309e+01 2.731272090571120259e+01 -1.586478476564124946e+02 -5.361567451783246696e+01 1.027159886897002394e+02 -1.280923603182107229e+02 -3.649444234716602153e+01 9.161921973067072145e+01 -9.479283939320943375e+01 -8.978492456370609887e+01 -8.292169314571050620e+01 -6.401390501811164313e+01 2.499004881066401254e+02 1.988367032112083166e+02 1.033077546270318834e+02 -1.025116333207765962e+02 7.506770051659107423e+01 -6.637775119035465821e+01 -3.144681699473874659e+01 1.665787381956862134e+01 -3.232957118386020312e+01 -9.396844333626813750e+01 -2.785966906812681998e+00 1.479896549895392077e+01 1.090197543185282143e+02 -1.287358415496384509e+02 4.201752812125549497e+01 6.386848250154519491e+01 3.457345958026135690e+01 -9.073487196804681787e+01 -1.486995118613918407e+02 1.933683425639531777e+02 -1.782237472482470864e+01 2.520785649050108290e+01 1.566673219465287730e+02 2.667690218181271433e+01 2.774464769501943096e+01 -4.455441377507486322e+01 8.861645956001281377e+01 -1.363367866104827328e+02 -3.079661467533160746e+01 -6.135858818943934700e+00 -5.338296308895200326e+01 6.264541446815306003e+00 2.125917585473349192e+01 -3.576899141546447680e+01 1.365769713931231344e+01 2.135686424369011149e+02 -2.737685138949917985e+01 -2.797073707437508361e+01 -1.015657484554905778e+02 -1.639710696668181589e+00 -8.066018772738743792e+01 6.377350004801793482e+00 1.119540660066066522e+02 -5.196097261793187982e+01 6.036556834051542531e+00 -5.424123638993474117e+01 3.315204999741084624e+00 8.707953554577865418e+01 -1.156880677511456099e+02 -9.669150978120764250e+01 -1.024253226884146528e+02 7.125567146467881230e+01 8.642620939910244715e+01 -9.210930999398435404e+01 6.253383864749069687e+01 2.578951930747300736e+01 3.862542171790908441e+01 -1.771784451782299996e+01 9.120092976278394303e+01 7.957355732727738484e+01 -7.712768738618889586e+01 1.179403011729079154e+01 8.073965364580760706e+01 7.271881706332354156e+01 -1.986525515636078865e+01 2.492465105881823817e+01 -1.323529915667154739e+02 4.844274119406198764e+01 -3.271675947097958925e+01 -3.261293006239519343e+01 1.728619449299176836e+02 4.733604305686213110e+01 1.199780708630312773e+02 1.906046918406351267e+02 -1.374207402890841934e+02 1.488033734504759309e+02 -6.330984531184201813e+01 -1.348834875870190615e+02 8.215901250210788476e+01 -1.338025480034987709e+02 -2.865633720184696642e+01 5.629671882832214891e+01 8.044288082572366605e+00 -1.678300573216515943e+02 8.409240543377299559e+01 2.518211186873037732e+01 6.895668881849351806e+01 3.622594950042404349e+01 9.450800217372014700e+00 -6.698475594237640962e+01 1.154908744825177109e+02 5.438450224305353942e+01 -6.199760199468306610e+01 -1.010434602238612172e+02 3.884675294963190595e+01 2.565762146331089255e+01 8.223548259870945287e+01 1.834132652090145257e+02 -2.457451610106206275e+01 -1.099360388631616701e+02 -8.453050996759044722e+01 -5.121503606919517182e+01 -4.425628094966470627e+01 -1.464272087022278299e+02 -2.247137696718566602e+01 1.292489863438925113e+02 7.438102577042046448e+01 -1.221169141927925921e+02 -1.495859817473144062e+02 -6.794891985886496855e+01 -7.617336317898900688e+01 1.464872434899280051e+02 -1.701062654366259324e+02 8.637427160799934711e+01 -4.597489448160959391e+00 -4.294125377388734677e+01 1.326564038481297558e+01 9.095944325431280220e+01 4.946266455320323985e+01 1.379067319865249601e+02 -1.587916941138409186e+02 -8.079387188339643444e+01 2.530607268460752124e+01 4.183857055700280370e+01 2.056716099904266457e+02 1.451380287747068110e+02 6.539453626598674418e+01 7.194367068905384599e+01 -3.403923272637756270e+01 1.514690359033825757e+02 -1.789525662659192733e+02 -6.327230091599762574e+01 -5.356116150945288013e+01 -5.167532176303451052e+01 -1.030320356153883239e+02 -1.495759861694597603e+01 -6.847760315816957188e+01 7.100526888214689336e+01 -9.128878740078633314e+00 -5.793913595322489130e+01 -6.211003239939105924e+01 1.797663016817145945e+02 5.888387807626806847e+01 -1.369161483782498223e+01 2.083884281681035304e+02 -1.080850653416650857e+02 -3.524540093511395611e+01 6.680011523948761010e+01 -1.340260102265329323e-01 1.492579598029081467e+01 -1.247916781316805981e+02 1.757504131875429891e+02 -4.884230818737079005e+01 -2.684852246937160203e+01 -1.094070259409570696e+02 1.254996727906192007e+02 9.558855660563351364e+01 -7.728726734872718396e+01 -3.749076676651205986e+01 3.883624367980952030e+01 -1.509164521104329424e+02 -1.742177326062767373e-01 -7.446092913696352866e+01 7.667106464832706969e+00 -1.077415477006874482e+02 -1.579890259117073299e+02 -7.043602626252497600e+01 1.476466874942967138e+02 5.635496215875522807e+01 -8.929467485184314057e+01 8.882788986299932787e+01 3.408898198716303796e+01 8.798029372518963953e+01 -4.194683225664238080e+01 -8.373311541901921373e+01 1.703078151795594692e+02 4.146461691803466465e+01 2.882201153963223916e+01 -7.266815329763596765e+01 -4.211872629877908025e+01 9.488304368090883401e+00 -7.134106370555596044e+00 -1.720070934195760799e+02 -3.444540834529003348e+01 6.409219081620797454e+01 1.110330515443994983e+02 1.549251423788596185e+02 -1.320983591551435588e+01 8.914280630354298296e+01 1.568706306546821736e+02 6.306142563557165204e+01 1.468839351147838670e+02 1.597140154484926633e+01 1.305226132051732577e+02 -8.342882015405059803e+01 5.301244340149268908e+01 2.913018882170592860e+01 7.535486700096790003e+01 -1.054825471974239974e+02 1.966521754101056274e+02 -1.278045704379089642e+02 8.765886857722674108e+01 -1.065864065475985285e+02 4.579886100169851915e+01 1.369516368529063932e+01 8.996523493393911508e+01 -7.305117748919901999e+01 -7.487493154516458560e+01 -1.105267067804848402e+01 8.831354410969957769e+01 -2.932611706258123263e+01 -1.615517609144200506e+01 -1.945089310963184914e+01 4.691765537492470273e+00 9.718302420807995645e+01 -6.193003969876698989e+01 -2.681171979098537772e+00 -1.916822892801773435e+02 1.205311286623053775e+02 -1.233256069182167778e+02 -7.295306069881233668e+01 -2.323774929021599789e+01 -1.065911844690907770e+02 -5.248711319982735546e+01 -5.784478804568191634e+01 -1.943589917718409410e+01 1.345263194638384903e+02 5.337726123259714228e+01 9.915048218006239722e+01 -1.343718198967407602e+02 -1.368167323688667523e+02 -2.829849294307444438e+02 1.008765286164595523e+02 1.029233785780383954e+02 4.176782492706464467e+01 -4.191333391679975762e+01 -3.671693056875420780e+01 -1.813338279543449119e+02 1.442575631531420015e+02 -1.060543171200539803e+02 1.056095796195579624e+02 -1.571932086805763333e+02 -1.413502891227293112e+01 -5.467880612011905583e+01 -1.177569374458986147e+02 -4.552264771933125331e+01 -1.236495479941851094e+01 -9.150831952445720674e+01 -1.021839594235216566e+02 -1.220420089780848372e+01 7.030365853362452810e+01 -1.230677830755635114e+02 -1.546214416919181112e+01 -7.283718848095422516e+01 -1.297849271236654545e+02 6.545117998035825835e+00 9.395917429242464891e+01 1.635000112056602006e+02 -1.883061751001350004e+01 -4.549177195117658812e+01 -1.226622324014834646e+02 -1.616469805924211869e+02 1.025515341615294034e+02 -7.187681250299807800e+01 7.806717396055755387e+01 9.289876334747630082e+00 2.888646456248920558e+01 7.298534291015106135e+01 -8.376866831569344640e+01 8.172515430828616445e+01 1.139572474755881757e+02 1.556759088126314339e+02 -1.152221044534578596e+02 1.027744917765663217e+02 -4.723751398106502108e+01 -8.977524290039882260e+01 2.121717889679959228e+02 4.867581291621685580e+01 8.253211424245613159e+01 2.100470426376167410e+01 -6.253064911537961734e+01 -3.454407473898366021e+01 -2.080258999145234498e+02 1.044534168553708753e+02 8.058131607933823659e+01 -7.485113420243767735e+01 -7.231154290351648228e+01 1.435668437376263284e+02 9.993462319293949747e+01 5.054592918493857212e+01 7.522196784317479512e+01 -7.781262017551376253e+00 1.020391686727831768e+02 -1.024064231320358402e+02 1.842908811212173532e+02 -3.904190568538203365e+01 -1.206379307204494324e+02 -3.727008267536928088e+01 7.094196200084330428e+01 1.456913687219162341e+02 1.273729061945709340e+01 1.718839808158615483e+02 5.161183344345597845e+01 3.325255732358220229e+01 -1.100704270530792570e+02 4.429490525769261922e+01 -1.236158886025797869e+02 4.717554662695233247e+01 3.817417258235975197e+01 -1.219891903353780407e+02 -8.409071680173268248e+01 3.940549212886843122e+01 8.628350005068773143e+00 -2.296151006500491931e+01 4.140626394690437451e+01 -2.116288377293859568e+01 -6.238818469057599714e+01 -2.590674017236279170e+01 -2.218519431049175594e+01 -3.938008170043023171e+01 1.856127105693282431e+01 -7.961876839473151790e+01 1.176208734093422379e+02 -7.346995785176630989e+01 -4.192540340813241784e+00 6.484930213383221087e+01 3.841593594694428848e+00 1.577861640465253323e+01 1.578718639209785479e+01 -1.158163957250731784e+02 -4.362723789996786117e+00 6.432169097603251373e+01 -2.288443856926597277e+02 -8.392401664440124875e+01 -1.114442058491283660e+02 4.330474904604349007e+01 9.513808618322438804e+01 -9.072868764899696714e+01 -1.659990433430764369e+02 -1.830861529341943594e+02 1.973740477557724660e+01 -1.432807371231894535e+02 -6.251581908705514223e+00 1.458664084411653050e+02 -7.003595957503330638e+00 3.667967704342746771e+01 -9.763535337075767018e+01 7.878944617861611732e+01 -1.169171606768836824e+02 -1.520639298614591972e+01 -2.985931644273744467e+01 5.674230707925894990e+01 -8.724759384063405676e+00 1.040743051943771320e+02 -1.201888073188538044e+02 -4.929770020162638389e+01 8.523265225675272916e+01 6.507834198567407213e+01 -8.097964688805622302e+01 -5.350226039503559150e+01 -4.853871158196461266e+01 -2.844252375207518071e+02 1.901680883434986242e+02 7.474752048132081939e+01 -2.316258007136208263e+01 -2.913393419674776652e+01 4.077401171604382313e+01 -8.257513131486820157e+01 9.766217814085936766e+01 5.933129236623042146e+01 8.039866503749748006e+01 -8.247575280439242817e+01 -2.601329372004088469e+01 3.267814710886620588e+01 1.703962777262082895e+01 -4.198885177086530263e+01 1.548016435649593348e+02 -1.694075881518111260e+01 3.469127145806699275e+01 -2.252092436975503631e+02 -8.295364786198645390e+01 -7.166061192529782886e+01 2.255313025861725507e+01 1.069440841313293902e+02 -2.269624344809271008e+02 -1.831898211413804916e+02 2.170774992089308171e+02 -1.034864995522882936e+01 9.407047021902616279e+01 6.137833680931327507e+01 -5.420750035318563675e+01 -1.282893080094209211e+02 -9.319089841827933185e+01 -4.921372959434170014e+01 -3.664719315147544165e+01 -3.834790470289757280e+01 1.581489992463172456e+01 3.641198536373042316e+01 1.633875493124748175e+02 1.206762030918475119e+02 6.822147423089083951e+00 -4.308223693359292561e+00 -1.554753975288677736e+02 1.171712880682833315e+02 1.560060438823010145e+02 -1.012988073920033258e+02 7.219750109342818689e+01 1.691917825614757120e+00 5.378125562515496227e+01 1.228038993828870389e+02 6.947305286447931394e+01 -1.312671082468965835e+02 1.579616659906984566e+01 -2.878053894411191038e+01 1.091393833258546486e+01 -2.265318062828859880e+01 4.441439338280309812e+01 -2.552910953699517904e+02 1.775129677879065184e+02 7.137439289449136304e+00 1.562269356499051014e+02 -1.032802659062590500e+01 1.040728119892646362e+02 7.022628579915750890e+01 -4.116841835536464345e+01 2.934886589121988010e+01 -7.141934004139162084e+01 -8.729578831066831412e+01 -7.069794524059841478e+01 -3.145325757153901947e+01 4.433182807085560739e+01 1.081249838806440096e+02 2.795508392624685712e+01 6.100416596815740178e+01 -1.029230953980663656e+02 -1.346618163749854773e+02 -1.324151223718974890e+01 4.556024425521538035e+01 -4.466281236502134533e+01 9.289789488246002236e+01 5.455675851241854701e+01 -2.715911290352710239e+01 2.942263342910178636e+01 6.031473671088832589e+01 -7.085141087339017929e+01 -1.314095869274207757e+02 1.396261337130869151e+02 7.680065326557004468e+00 4.929129765372158545e+01 -1.468020523652166958e+02 -5.252157398813407951e+01 -4.397174239577616439e-01 -6.469895828559876350e+01 4.196292496791645732e+00 5.539009160107783458e+01 1.834836205393150976e+02 3.851357787773246599e+01 -1.078924670334465752e+01 7.111393998369017311e+01 -4.477684945880605483e+01 -1.073197685326689879e+02 -1.361055302765210513e+02 9.227498527474427448e+00 2.474088711566081145e+01 2.346913864872716360e+01 -5.605667502272200409e+01 1.190875899385130054e+02 -7.968274462565891270e+01 1.265203456382202347e+02 8.607846514355924228e+01 -6.414377635164265712e+01 -8.357571632399405814e+01 8.306785653552333315e+01 2.017159190211451758e+01 -5.181282358225134033e+01 -5.313406197564815159e+01 1.349440233613692612e+02 5.658422637967674262e+01 7.888850221597276402e+01 2.581704721155607984e+01 -4.153664494999739532e+01 1.061099616600555464e+02 -5.390153269272657610e+01 5.480736349890502623e-01 7.563570600919160825e+01 9.841298050840798339e+01 2.525175712665979972e+02 -1.731567761384847302e+02 1.590950903438647401e+02 -6.680724904840329259e+01 -1.506003305851831087e+01 -2.481924889059508743e+01 -2.050692020792806147e+01 -5.455218574106369545e+01 9.199782044418942917e+01 1.821672233444898552e+02 -1.175984134922384925e+02 3.063015762725173374e+01 -1.256980667241984690e+02 6.954474329325053361e+01 -4.408170279478650855e+01 -8.030809667271300611e+01 -5.344753747299968438e+01 4.085566956222331214e+01 1.922524961297357038e+01 -8.115557526045137138e+01 -1.400230939577866707e+02 2.062096554077267285e+01 1.565488533572683991e+02 1.419380685067612191e+01 1.813395069824100005e+02 7.415039935820414208e+00 1.338450711685955241e+02 -3.440046594012706294e+01 9.025436082221388290e+01 -7.107707965399549721e+01 -1.123592985177470638e+02 4.920735129998147528e+01 -5.775426924933348971e+01 -7.820376767908585691e+01 7.259364620668580415e+01 6.436047014289568935e+00 -9.395810632555347297e+01 -1.500853580740197515e+02 1.474806711850072816e+02 -8.893522267774083900e+01 -2.351749150552782996e+00 1.198229748035799389e+02 5.790577196329820708e+01 -9.803440255615241483e+01 1.062172343491551985e+01 2.816596267772854958e+02 5.324957418820277155e+01 -1.575836922791636425e+02 -4.768818074374795657e+01 -6.147901455975217999e+01 9.620550212820580427e+00 1.075492507494983414e+02 -1.034913083922900512e+02 2.158313793000627356e+01 1.305349175158774813e+02 1.878500024407871294e+01 -2.114059537801895772e+02 4.835482572825171133e+01 7.554908835644452836e+01 -1.359792559124142919e+01 3.282602400778835516e+01 1.557444636252843795e-01 2.255375991207704800e+01 2.776598667722271330e+01 1.159607609066893446e+02 9.814892748531883626e+01 1.560733774443941613e+01 1.492030365305035957e+02 -6.409979839758051412e+01 2.469628064004793089e+02 6.511952204090344765e+01 1.419057964266517615e+02 -2.199945885347988650e+01 9.020082644673522054e+01 -4.905618772018530649e+01 -1.465994797235756266e+02 2.621704081270038600e+01 9.518238767909369358e+01 -8.773110581297724764e+01 -1.049143896230265938e+02 -6.665079611768673828e+01 3.666762447711118966e+01 -1.144077698320895848e+02 7.484432998393511127e+01 2.810608122796768882e+01 -9.778605953219515357e+01 1.902700814349230143e+02 -1.178346554544492442e+01 -1.019468591681760756e+02 -1.342195880419621012e+01 -2.047324082251542876e+01 -1.404863965527785865e+02 -4.010261324992268328e+01 6.162375893141533822e+01 1.320343438755393777e+02 2.908656905865386832e+01 2.680543210275824251e+01 4.487440764854957109e+01 -3.580493215733082479e+01 -1.458867558835310945e+02 1.590364237916548440e+01 3.103451956330275863e+01 1.333695939125852874e+02 -9.933544702560741513e+00 -7.628505364184741211e+01 7.335077254100249888e+01 9.884394425466793699e-01 3.193760824529043418e+01 1.395339632874325275e+02 -1.778731518066375372e+02 -9.304707208062097834e+01 1.249905016618732247e+02 -2.100670739835674397e+02 -1.790742924635395923e+02 8.861689366215665586e+01 1.499473983907769252e+02 6.173543606999030686e+01 -4.345691534643881582e+00 1.516558759323818038e+02 -2.137398654768266795e+02 1.043392542604502040e+02 4.126498926977753001e+01 1.237353079795065582e+02 -1.836340398590636482e+02 1.037311265556175215e+02 -2.751244496564693165e+01 -1.301804406574249242e+02 -5.184180934530800755e+00 -8.996897876366460878e+01 -1.583884671353384732e+01 -4.202932787905298895e+00 -1.199546739980222441e+02 -1.200767225630700636e+02 -6.092569936013622822e+01 -1.255268635654330325e+02 1.957044358771826751e+02 -1.568379519871456296e+02 -4.885572912489156039e+01 1.680037962617805363e+02 3.303674851306723070e+01 -2.882086231949596709e+02 -1.237666551794004732e+02 3.457849639489733562e+01 5.321795925888432777e+01 8.345901636003080881e+00 -1.505459000912275940e+02 3.474826330454907719e+01 7.290156586192598098e+00 -7.237455690182797241e+01 1.973936603516460480e+02 1.972570353594196035e+02 4.225643684198733929e+00 -2.030562896056247553e+02 1.226715946207989560e+02 2.995146332862411498e+01 3.683998414939766874e+00 7.459178010166192507e+01 -2.020218252007800288e+02 -1.343971295876300474e+02 1.373200986548538935e+02 1.067641315197915475e+02 5.152516637376206887e+01 1.394355693515107646e+02 -1.735734350194601063e+02 -1.991190150365774514e+01 -1.269849681068856881e+02 4.247955287570811578e+01 -1.011362391547257857e+02 8.476836474192113258e+01 -3.300763107138762109e+01 1.205796681217178801e+01 1.727651793804145655e+02 2.777150161694329711e+01 -2.566327981688695559e+02 -1.230485288693767387e+02 -8.115387464021064545e+01 1.539450616200178672e+02 1.220748937330185591e+01 -5.243519920175170768e+01 2.955255554293277243e+01 6.085594785105892868e+01 -3.852263365772860482e+01 1.046818667512549297e+02 -9.808892780665051703e+01 4.791732741605975576e+01 1.089829283071337898e+02 -3.454969806893825535e+01 -9.554088970318811391e+01 -1.104518516005776974e+02 1.166067225104375922e+02 -4.836398337917653834e+01 1.913750969809253206e+02 5.569855147337544565e+01 1.080280315785394549e+02 1.796036758195564573e+02 8.333127167264054336e+00 -1.210215433553677542e+02 -1.613799335803225858e+02 -1.111702321572351906e+02 4.137282297301711509e+01
-1.293942859357453479e+01 -4.594654597820798436e+00 9.848334866209216898e+01 -2.178202537099033691e+02 1.478104163635359498e+02 6.039523582179752736e+01 1.446930033780990925e+02 -1.228376176126532897e+02 -2.637966145191452227e+00 -2.288831056881348047e+01 -2.087375580829105957e+02 3.111780053454805284e+01 -1.742364317363213644e+01 1.163128478365399019e+02 -1.189583023200439982e+02 5.868814197407962752e+01 1.191479598370120101e+02 -4.369847370193671310e+01 -4.718672270610021258e+01 -2.568688053748966738e+01 5.869334363702814983e+01 5.999312593835534102e+01 3.083756570523832607e+01 -2.211098823080765783e+02 -4.905672802899924534e+01 8.703886600787443228e+01 9.423253233453051436e+00 -9.859420513949054055e+00 -6.326155828733283926e+01 -1.472301485193252546e+01 6.973774800410186003e+01 -1.382643338076868815e+02 -5.889385219684024975e+01 8.538746900025413922e+00 1.973582851714147637e+02 2.016355574797890426e+02 -3.053634434396445840e+01 5.313934855781136690e+01 -2.531339652902223070e-01 -1.327875470221549108e+02 9.125691745945755429e+01 1.019563971642512143e+02 1.031789594398718890e+02 1.110789651102214926e+01 5.884334464434251544e+01 4.575397413448983741e+01 3.696809050676935726e+01 2.790474050151559027e+01 1.048573588636363496e+02 8.529821273422351169e+01 6.236025021954952052e+01 1.549703917204922448e+02 2.355684659552291293e+02 1.859590956787013738e+02 -5.622597179031061643e+01 4.684293845898323383e+01 -6.111219803773431636e+01 5.362373404952422362e+01 -1.827242545137144987e+02 5.371950524093655588e+01 -1.946812929467218964e+02 -1.604149548448516214e+02 1.231195035946962335e+01 -8.799687920688706200e+00 1.611865028331400538e+02 -1.977336928245206593e+02 7.157496736144572935e+01 2.185357475275753245e+02 -7.005943112276828089e+00 -1.851985395638330090e+02 3.380507306377408128e+01 1.875101543699530282e+02 -5.810734078293279481e+01 -2.534554554744890709e+02 -9.753443595147463441e+01 8.445949007362813177e+00 -2.188173133874175278e+02 3.049503253454084017e+01 -1.706842545821846500e+02 -1.765120383101339314e+02 -5.436604152818230062e+01 1.450312478485201382e+02 6.609666883243245650e+01 1.009823628919584237e+01 -8.436183084089670103e+01 -4.054147926782414402e+01 6.066275615601570337e+01 -2.209375523673837165e+02 5.149848481951305246e+01 -7.136396840270029429e+01 -7.437925532733709133e+01 -1.683232411928659360e+02 6.193688162679569587e+01 8.828499975772118091e+01 -1.545614824526531663e+02 1.645366597979692074e+02 -3.798384956255529943e+01 -1.611326748243938667e+01 8.344714674520876940e+01 1.488997886745585504e+02 2.069210062420426510e+01 1.442680687795246115e+02 -1.761594640272323886e+01 -8.640929630668885864e+01 -1.868251857161846630e+01 9.629097060068605174e+01 4.405422499442709494e+01 9.583244505245357914e+01 9.246489337635993877e+01 -8.138631637372540695e+01 -1.664561915355040753e+02 1.205502126000839951e+02 5.314519287390508850e+01 1.587977900011460441e+01 2.995515541061829978e+01 -6.655134528371227987e+01 9.409308390000801126e+01 8.804419370729885941e+01 -1.343163579944711294e+01 -6.982198872004806844e+01 3.011132480552088708e+01 6.155662322974203349e+00 -6.027732658128675070e+01 1.661984106694995091e+02 -3.222138520458204880e+01 1.192021738183818229e+02 -6.872099619220578859e+01 3.763459501060430767e+01 -3.538064395005167739e+01 8.773373611071855294e+01 2.302089070383869895e+01 1.133436943399597965e+02 -1.137799234534851252e+02 7.291788787636504310e+01 1.211110997222081380e+02 -4.384810204521167520e+01 7.480646413069636402e+00 -1.249451345844554773e+01 1.145972341163686252e+02 3.542940740575315495e+00 1.654823746659612596e+02 -1.387794074587468174e+02 1.144965950629370326e+02 -8.961603798424798129e+01 9.402838809014569676e+01 -1.345531242725900256e+02 2.897695560280192595e+01 2.430223651567608201e+01 1.761955987592957573e+00 3.566193018835183182e+01 4.514308544458315708e+01 -1.217895419922880862e+01 1.066718988871579654e+01 1.061818830531524753e+02 1.250096996931999911e+02 -8.517786920854349830e+01 -5.324472550225198120e+01 4.651874111403525092e+01 1.499501178080536290e+00 -1.346130474429123467e+02 -5.417524121439499396e+01 -3.482472491722343477e+01 4.807233922599851894e+01 -6.442895602976534519e+01 2.253372352975358694e+01 1.577042263143057426e+02 -7.814553534036078020e+01 7.949571343727212991e+01 8.270733260925264574e+01 1.107675777578324094e+01 1.214714378914467687e+02 6.189030659882342178e+01 1.654157472505964392e+02 -3.405471976356154329e+01 1.107274676479803617e+02 5.471330967523505961e+01 -1.582685456436406390e+01 2.011078057051845462e+02 -1.367625678646854794e+02 4.818349863328460714e+01 -1.849070641982469567e+02 -8.299148678261305179e+01 4.046744763488051433e+01 -7.122193059418853522e+01 -1.537069505308927546e+02 1.966585997892297257e+02 -8.464186443146489580e+01 -4.686875173286802010e+01 -4.567345816168155181e+01 1.201682016912889850e+02 1.922603108413827044e+02 6.391927486039541151e+01 1.443792265592825004e+02 2.166741473989075644e+02 -1.588386670321991323e+00 1.608292975534716049e+02 6.999206039361175158e+01 1.879975639055620320e+02 -1.242135590312374376e+02 -1.169993907665437760e+01 6.269715906519072846e+00 1.875583910065124371e+02 -8.973133655990572777e+01 -5.974338227970147841e+01 -5.227643297936938893e+01 -1.323193763455577141e+02 4.610318330860151192e+00 -9.966641159322597332e+01 1.522165374651806644e+02 2.325996197733132931e+01 1.184750138483414084e+01 7.140128641036714896e+01 -4.860160211643369976e+00 1.155187936360438243e+02 -1.568796002495282380e+02 4.485068826670901387e+01 -1.686790739049670549e+02 1.159565274401661981e+02 9.486974803694573666e+01 -6.645509965310463940e+01 4.620212119573852050e+01 2.351648959452383849e+02 -3.008649950953024188e+01 4.113351728621753978e+01 -3.226908827265915392e+01 5.721741149094300027e+01 6.346795009077241900e+01 -6.201533139782930526e+00 1.006279135252371759e+02 1.002018111454410985e+02 -1.914292859923978369e+02 -1.513058463872197592e+02 -1.183186476119966386e+02 -9.318117481021230830e+00 -1.478782867985028133e+02 1.140841409981290582e+02 1.089369818639546139e+02 5.824228516245226217e+01 1.102131364769966559e+01 1.556672991269074373e+02 8.288741492155918422e+01 6.664130940259161662e+01 -1.003096584991352955e+02 1.504357429119798724e+02 -3.547357543805061297e+00 1.079365102178072107e+02 8.705680265146963137e+00 3.626741487819334964e+01 -7.470715351358406053e+01 -8.955693262762399343e+01 7.064626424853119602e+01 -3.802130209405713224e+00 1.442810080343350592e+02 -1.239643044442242292e+01 -2.810847858588817694e+00 4.523923599424982456e+01 2.232652669229677755e+01 1.394949021959821494e+02 1.446931498830146268e+01 3.535688356569588109e+01 -1.525506656027253314e+02 6.491194177467713189e+01 1.317699236739117339e+02 -1.737286148000485753e+01 -2.247226372346762275e+02 8.316906074306174901e+01 1.340658412075451906e+02 2.002950938805576797e+01 1.859283293145408607e+02 -4.151924046502338150e+00 4.215199802553799913e+01 -4.285027198818475824e+01 -1.361623822860225630e+02 5.499573634575157399e+01 -4.660166366977511387e+01 -7.950456712963232064e+01 4.044078423151614743e+01 -1.812378306015737905e+02 7.029057476877355271e+01 1.612031552259431919e+02 -9.922323441285672629e+01 1.695422614431339809e+02 -9.566174922569184957e+01 -5.850521358024238339e+00 -1.031999107339406763e+01 7.505302306004921320e+01 -4.563653662446924386e+01 -1.055293542727921761e+02 -8.669796406350918971e+01 1.426688132834555347e+02 5.783428767090957479e+01 -1.289239738336259791e+02 4.330272544154219361e+00 4.246243546284997450e+01 8.072383482313672687e+01 -3.942844778202496059e+01 5.861534311801869279e+01 -6.741281837771087737e+01 -1.586479779860857491e+02 -3.383922857904438075e+01 1.377375703709668073e+02 -1.107843009182812750e+02 -6.251692637150905618e+00 -1.591050971373165623e+02 -4.706171391554771155e+00 -1.424739268215519417e+02 3.215376951715415288e+01 5.877891235345796161e+01 -4.913736880607633850e+01 -8.042159355611579485e+01 5.503300043541216269e+00 7.261670416970491715e+01 -6.613948160497635342e+01 1.314293165728323061e+02 1.029775774388677974e+02 -1.245233079944497945e+02 -1.028688877306827578e+02 1.317429790967136682e+02 6.954807848824120242e+01 1.464494030673309339e+02 9.757337443907604779e+01 7.909702187298530873e+01 -5.873829156766622361e+01 -7.966174675983728548e+01 -7.507185224307093563e+01 1.991893034565273979e+02 2.977833292484641348e+01 -2.425635598271333748e+01 -6.669590941742393397e+01 -4.863262018025172750e+01 -1.277080558555496452e+02 -1.603357014166948957e+01 -1.701477158110658365e+02 1.212431003434088836e+02 4.459848710224046897e+01 -1.117272309436185367e+02 -4.692825576577807567e+01 1.161012695981340670e+02 -9.399089064079623768e+01 9.970267515680531289e+01 -1.148602658157844161e+02 -1.141493862668803594e+01 -9.258994936308525325e+01 8.699187311699323288e+01 -4.117694787761530506e+01 9.972665313228734618e+00 2.844478912824635941e+01 -1.227575742152830429e+02 1.211534294937531264e+01 4.687049651640195691e+01 -2.167957009440936744e+01 -6.662313681523301057e+01 1.963045439515932458e+02 8.378162009874608884e+01 4.565333802797204754e+01 -3.043946711927627646e+01 7.772752652223684322e+01 1.624002480359192475e+02 -8.938286895741744331e+01 2.029567407802276762e+02 -1.289628043979868437e+02 -1.781871739036336351e+02 1.470782168669448424e+02 -2.266730205855558040e+02 -9.334033550651913425e-01 -2.372896438399440910e+02 -1.481255452463013853e+02 6.952812394357049186e+01 -1.410672520902180622e+02 5.655053868668303352e+01 1.065035044835995279e+02 -1.553380837290263798e+02 -2.916701665646960251e+01 7.305752694846773920e+01 1.297335936805551739e+02 -1.802978746042911098e+02 8.475281915539862609e+01 -9.490348036541300303e+01 -9.550068093012203718e+00 -1.343100972917018687e+01 -7.708315496649484544e+01 -8.747388750894535292e+01 1.757024067539914540e+02 -2.102239150811844937e+01 1.303038673420790161e+00 1.261848324717801972e+02 -8.403002853600887079e+01 -3.336413957714586331e+01 -1.043681001849679149e+02 -4.733468050648384917e+01 5.001586385972143667e+00 5.756723178538069874e+01 -1.310605859123568280e+02 2.302419049669153992e+02 -5.233581320511284218e+01 1.191414588392662779e+02 -4.744570130622545179e+01 1.164207937463526719e+02 1.352685018853701422e+02 4.663763409625573786e+01 1.187236998952798643e+02 -4.204312843353209672e+01 1.361536093739814248e+02 -1.522338939663094948e+02 -6.362915266096666045e+01 -6.127520922290721472e+01 2.487500099817688692e+01 -1.579451120723852284e+02 7.060236569337745038e+01 -3.001689521072528066e+01 -8.043584946613579234e+01 8.720114549303582407e+01 -1.470814483322392618e+02 -8.879823431883093576e+01 -5.123741858369770341e+01 3.219646313520557612e+01 1.263614368343444454e+02 1.137385028824856050e+02 6.726835188453883063e+01 -1.533307473670468157e+00 1.702481179156717133e+02 1.192708819516581116e+02 -9.195880505823849660e+01 -7.604840924557663584e+01 5.376565021604265127e+01 9.693253331463612454e+00 9.537080561931807665e+01 1.622827718439299076e+02 6.871324923945326191e+01 2.377659068871863113e+01 -9.948528336015819207e+01 1.671924295419112241e+02 -1.106261191784036981e+02 -1.608369447151176814e+02 6.395793503910466171e+01 1.084894547181995534e+02 1.911396583083440603e+01 -1.350834816536070093e+02 2.891015590343311814e+01 4.125702293001583598e+01 -3.392058797321190200e-01 1.273430783103283090e+02 9.502710393297282110e+01 1.663924423931539209e+01 7.617875201091368353e+01 -1.040047614822084228e+02 -6.172398234909452164e+00 9.560475373743045679e+01 2.886320423487948617e+01 -6.321248647047411140e+01 1.925036804725499167e+02 2.246201578295008972e+02 -1.219494292573353107e+02 -2.684429998911240389e+01 -2.042255741822223456e+02 -7.013127598840142696e+01 1.521199804114616541e+02 3.281514651795670368e+00 -6.895899835400297206e+01 1.590816596310032196e+02 -6.069972540832073093e+01 -1.559890033228238053e+02 1.326213710487699586e+02 -6.525388515876673523e+01 3.350074268475375305e+01 8.383375340367840067e+01 1.338806118457033634e+01 -2.313057520384144254e+02 4.107962278771812237e+01 -5.981729539967791887e+00 8.747413616760002242e+01 -2.287592052168886525e+01 9.815765066128003014e+01 1.649116656428352101e+01 -8.222402337707963227e+01 -1.988225948343161420e+01 -1.700929290819190385e+02 1.116045582987718348e+02 2.453677876660502832e+01 -4.039532142764691969e+01 -5.027920728152226815e+01 -6.105515070143825085e+01 3.991114776799659580e+01 1.559654317391910467e+02 1.287892960120174735e+02 4.178272286237095301e+01 -1.920369680898753870e+02 -3.765191180375174440e+01 4.252926677372386877e+01 1.138699289441430551e+02 8.462896721295437885e+01 1.498647744293888628e+01 -1.805397344958652468e+02 1.278006276760465312e+02 -2.171505562660894384e+02 -1.997417534086503963e+02 -1.779270698150124508e+00 -7.159467235134616203e+01 -2.340061109952021923e+01 8.455211846949643473e+01 5.427013895724509496e+01 -1.079137888911419481e+02 -1.469966894297293720e+02 1.415444378558379945e+01 1.200408406377374320e+02 2.006911724353912518e+01 -5.503661763016803121e+01 -5.012102894298050870e+01 -1.138138357727008554e+01 1.566153422152372343e+02 2.170740278275309976e+01 -1.716170182647359468e+02 1.267891068969979642e+02 -6.602424104768138591e+01 -4.124297789115571433e+00 1.521510169717962810e+02 -5.166164831835268956e+01 -1.935628872983406978e+01 -1.085374732246789335e+02 -5.930920439226575525e+00 -2.356486825363009174e+01 1.301114583708556438e+02 1.186373554410408531e+02 6.677328889154246383e+01 6.465704226151834177e+01 -1.848480731305478741e+01 1.335659726949367609e+02 -1.114158831490666159e+02 -4.205878444485517953e+00 -8.996281649816948800e+01 1.552225460082950690e+02 7.206201724838562939e+01 5.105694760326660031e+01 8.160579514838770976e+00 -5.265805575651626924e+01 3.396899204702505415e+01 6.652064070043349098e+00 3.595445036817563000e+00 2.381483564991561863e+01 5.905486638057749360e+01 1.682032337145834617e+02 -3.838261483852706846e+01 -5.134977167499759787e+01 6.598241261918792588e+01 1.142664500973344133e+02 -1.265839068183845306e+01 9.083064452993008331e+01 1.028134090365176831e+02 2.082193117024713445e+02 -8.548836717101011118e+01 -1.211821656727788934e+02 -2.829356510116631540e+01 6.139810384060920256e+01 -1.002364149111479286e+01 1.060927661876546892e+02 3.678560173055022631e+01 -1.606128841733615218e+02 4.449651516677659657e+01 -8.834347527569630643e+01 -1.336003771269512583e+02 1.328107532244276001e+02 -7.508022372805213251e+01 5.841691722035836420e+01 1.097543652790383817e+02 -9.773050156194113924e+01 2.318961652885204927e+01 -7.120281398742517354e+01 3.975108757282107064e+01 -1.131142492866821812e+02 6.077400165837507728e+01 5.394949913483677761e+01 3.836311113714998111e+00 8.290816312010615263e+01 -1.508225740123322112e+02 7.532855435924189180e+01 -2.889126180115286147e+01 -1.654366759076923188e+02 9.253898792984789168e+01 2.403133987745574274e+01 -1.920613101802205733e+02 2.303891278240261329e+02 -5.249352089767288509e-01 1.029811079020822291e+02 -1.180919451602504608e+02 -1.901651396578564288e+02 -9.137981025061323237e+01 2.440663061948378676e+00 1.399138035988378590e+02 3.897566165233773194e+00 -9.358924907497481627e+01 4.932628111068132171e+01 1.341967680891166310e+02 6.362254243208157334e+01 -5.065541551554355237e+01 -5.791612705406801354e+01 8.274946943422021661e+01 3.009182342457974357e+01 -1.915099099779829430e+02 -2.030080448488379119e+01 1.655165881344457830e+02 9.675547858058280326e+01 -5.614193181126193366e+01 -1.094809457329092481e+02 -4.178781484178878003e+01 -4.708226679716234742e+01 -1.120713460478628463e+02 -1.807131250715546500e+01 -4.471130460600222989e+01 -1.112574080771719025e+02 -1.291695495174009807e+02 -2.638717194663323440e+01 -1.230617420629762790e+02 -1.310378262932892710e+02 -3.753532634138463919e+01 -5.418684036701989726e+01 -1.087126633548503065e+02 1.888541769957841723e+02 1.067789539972858925e+01 -2.853855663848231927e+01 -1.724944086166298263e+01 7.981055052856571308e+01 1.587149968705321967e+01 2.541112732282379483e+01 -2.156854359088212547e+01 -4.693654509086860571e+01 2.121753760305417913e+01 -1.474856898013465241e+02 -1.614999888294121604e+02 -9.171372175443910635e+01 -1.936149852061055014e+02 -9.091509442234735161e+01 8.702551476198620151e+01 6.227758815506741996e+01 -2.643279996021814071e+01 6.164967799306194252e+01 -1.588439855667227221e+02 -4.144944509997573334e+01 -1.178237144792130948e+02 -6.771796995932130869e+01 2.140324674591768144e+02 -2.082654134550881508e+02 2.082430895329174518e+02 2.534004367602301500e+01 -5.727756523379643738e+01 9.356174589114149853e+01 1.258820454575191690e+02 -5.264114826994924101e+01 -2.067078509370683435e+02 -1.512608053923883631e+02 1.037615584607961239e+02 8.497543174380329845e+01 -1.375422822118125339e+02 3.240838522797722732e+01 -4.025460091488793068e+01 -7.852517138521382378e+01 -2.883885798878135631e+01 -5.561641532636069485e+01 -8.768470012248151590e+01 -3.454550949737017618e+01 4.568544051334074929e+00 -3.315649474008461084e+01 -3.869769621129028891e-01 -1.454464062002947244e+01 9.329285430986888628e+01 1.289478443068497029e+02 1.335475254235246112e+01 1.704084542455284890e+01 -6.404545535674176904e+01 -1.988961782080960177e+02 3.434258024828508127e+01 -9.305756091391332063e+01 2.621152455627091271e+01 -8.269103316879398591e+00 1.055415226698143361e+00 7.337742286687709736e+01 1.236588420648854338e+02 -7.150071313199761391e+01 3.855152157760183229e+01 -1.956801203894324885e+02 9.819544146217177527e+00 7.066060392738433116e+00 -1.243393417241416756e+02 -3.420850975160826835e+01 -4.497265880510609293e+01 4.836826866851737350e+00 -1.037341011170993994e+02 2.744652147182117119e+01 -9.906627923119924617e+01 5.689985515787065395e+01 6.884713680006126424e+01 3.742610845970563105e+01 -2.943806388961222353e+01 1.090235568102267223e+02 6.196841250466639650e+01 8.115562329614149917e+01 -6.796566187052559371e+01 2.056583450831369220e+01 1.297138318433013353e+02 -5.931746172857914701e+01 -7.014190430400146781e+00 3.244170149387342406e+01 -1.302279159166811269e+02 9.918833474575721709e+01 9.082869573741180602e+01 -1.025666159895930605e+02 -8.349323985319648500e+01 -5.629673490767402910e+01 -4.622429011111672992e+01 -1.624410955707793391e+02 -1.377644238381012372e+02 -1.342768409680963089e+02 1.070869864530342568e+02 6.059117907202335118e+01 1.616518335684968122e+02 7.297093146330242419e+00 -8.684407538186916042e+01 1.898976023920298317e+01 1.400973599727721108e+01 -6.435775400541803037e+01 7.499986586400106603e+01 1.195633781447271247e+02 1.010239550239880835e+01 1.451870695745745650e+02 2.278204369302433108e+01 1.123318662837816220e+02 1.526958978697613212e+01 -2.103341443918313303e+02 2.210424685408903827e+02 -4.953028734522113297e+01 -1.508931476488176031e+02 -6.799442027234393038e+01 -4.340041233325401748e+01 4.168435664248896444e+01 2.577497665790345849e+01 4.606310175555059772e+01 -7.458019257938077828e+01 1.231424242352378968e+02 -8.677955466912355575e+01 -7.052326000505582115e+00 1.432210088996312152e+02 1.101770858874232317e+02 5.830028206861864248e+01 -1.778403242998978158e+02 2.554218305735735584e+01 1.409647317800707640e+02 2.351793774855653041e+01 9.790902739929626364e+01 1.067341155869397085e+02 -2.119714599317256329e+02 7.709066445680986135e+01 -5.786219633756149960e+01 -2.252661208918841851e+02 8.858344943307555752e+01 2.457542737436547498e+01 -1.215117808570483788e+02 -5.823290213932020265e+01 1.378312091707150557e+02 1.463243889730991611e+02 -7.511898729895142424e+01 -1.264454128116654914e+02 -8.246128565366009866e+01 -1.637548420141229997e+02 1.930221265880073744e+01 3.739014099596605689e+01 -1.671207553782141986e+01 -1.217976943590201344e+01 -8.798143708929811169e+01 -8.674894162334233272e+01 -2.418921778629389863e+01 1.310006125429023598e+02 1.331163746326086255e+02 7.920614563993926538e+01 9.472671188689081134e+01 -7.656983021163192404e+01 -1.758471734797951740e+02 -1.285762821228205333e+01 -2.250111860751336934e+01 -6.901902831328784771e+01 1.449233610048659582e+00 7.098667568167587660e+01 -5.141447971481863277e+01 2.397142613890699891e+01 7.693191306037306276e+01 6.810701463292627977e+01 1.073910749220162444e+02 -1.449252441172911006e+02 3.850930043743740327e+01 8.093985732731216842e+01 9.205942498767144855e+01 5.737709480932168304e+01 -1.002960984469030450e+02 1.330290832047253673e+02 1.238405911914909581e+02 9.311321487506344852e+01 9.864142694507046372e+01 -8.181838396862187324e+01 -1.444250877321442772e+01 -1.256950945355992033e+01 7.485419215997333708e+01 6.311999355388982025e+01 5.439739950051009743e+01 9.479357835855370240e+01 1.131734204261076968e+02 1.203856026331201434e+02 -6.302408466488872563e+01 7.830788165050952898e+01 6.338040935786224850e+01 -1.143101066537870025e+02 1.278596314227148270e+02 -9.746471486943189433e+00 -2.713311231102482424e+01 1.936794144168416381e+02 8.600838904641888405e+01 1.206519205726452242e+02 -1.403440020300411106e+02 -1.534442919198940558e+02 -1.495021796527547053e+02 -1.188339417419843613e+02 -4.308533297012500185e+01 1.068381655111902688e+02 -1.641660179546272218e+02 3.165603596404545428e+01 1.405549257850541096e+02 -5.780125207025209022e+01 -8.897993820691699796e+01 -3.422124918447340036e+01 1.323997461973046370e+02 2.215333625357951632e+02 -6.499528254481678857e+01 1.932381367612567047e+01 -2.699933523032144933e+01 6.680058646902385533e+01 5.876769200867773435e+01 -2.080248684046298138e+02 -8.651426322733961172e+01 1.342627606696893281e+02 1.364387181458452858e+02 9.227568284822844191e+01 -4.863878642370224981e+01 -7.400335402650912897e+01 -4.432336065281310056e+01 -1.724114590972866097e+02 6.948330648323216963e+01 -2.506190498661858612e+01 1.625205021998473285e+02 -2.729007805732173964e+01 -3.073544405618008000e+02 1.415532635914731827e+02 4.911250251173672154e+01 -1.152713853928058541e+02 -2.166015785183617481e+01 3.450694095562189290e+01 -2.029948242123017508e+02 -1.117015125731294631e+02 -1.071625751143870531e+02 -5.515104772363559960e+01 6.139310344814794007e+01 -1.611673996805207878e+02 1.055145027796391304e+02 -5.311538169474991378e+01 2.854415659900239710e+00 -1.304743180080498064e+02 -1.013549030113529170e+02 1.719922064718139438e+02 8.476792491566862964e+01 -4.131241847178326054e+01 3.635174076025050738e+01 -2.744339625401297056e+01 4.233426119976033419e+01 -1.023643155427794227e+02 9.675915380362026497e+01 4.941772389529315035e+01 -1.163584974149585207e+02 1.142625560091271382e+02 -4.807840926907343260e+01 9.778575860790692786e+01 -4.835606526812900796e+01 8.651007023524563522e+01 -1.501699025927619573e+02 1.397166799308574525e+02 2.424722072348545510e+01 9.855337038446647568e+01 1.277064526448771744e+02 -1.436121099053679018e+02 -8.412508385728217775e+01 -1.034555771873175303e+02 6.549709907992649960e+01 -1.678375189442866713e+02 1.484216214296313012e+02 1.394708246233194870e+02 5.190108049236951615e+01 -8.317553271998137632e+01 5.590687716655467199e+01 -1.051546238191216105e+02 -1.071859433474636347e+01 3.427372541661726757e+01 -1.800579169117772551e+02 -7.994653979505571328e+01 -1.326466270503652289e+01 1.001655869944033554e+02 -4.921872141584459115e+01 1.065828286230338051e+02 -6.306397458975766313e+01 -2.066697075950658871e+02 -1.050041633831205559e+02 -3.338868750657761098e+01 -5.901700390378684347e+01 2.950992648315622446e+01 5.041548097244894677e+01 6.220265138081140677e+00 2.486938502505431359e+01 -1.151082859786764487e+02 5.284547990801677031e+01 3.202058004790958279e+01 -7.081812900407227573e+01 9.100521733944482605e+00 5.531095310123876629e+01 -9.364773951005851416e+01 -5.407707115335393411e+01 -2.371801691813535840e+01 9.580787425327952178e+01 -1.682011817845678792e+01 4.118968680571332364e+00 -2.239956981298067262e+02 -9.332727325689963038e+01 9.717141927999564643e+01 -8.760892076583738231e+01 3.078131859882451593e+01 3.051082552178776908e+01 3.724881758999855919e+01 6.491714774603137528e+01 -1.743364434426538594e+02 1.414528837628008375e+02 8.008998891075852100e+01 -7.397261774406218571e+00 -7.939647428350873781e+01 1.099431659133079222e+02 6.101868927908488871e+01 -1.976246351925675810e+02 -4.950714102022949703e+01 -8.029002004607552578e+01 -5.092717213602680459e+01 -6.085422231011578020e+01 -9.732422547298770610e+01 -5.932611690856754905e+01 1.882237564560311682e+02 -1.678342773008258177e+02 6.435272803445083412e+01 2.726973659740939837e+01 -7.390001342597815892e+01 1.021358706901161995e+01 -3.875543145838030057e+01 3.375294433480751977e+00 -9.450631637686758779e+01 -1.942091121334377988e+02 1.808244821306111305e+01 4.119270374507868837e+01 -1.258016432387664274e+01 -8.837092312346618073e+00 -3.910724449684919080e+01 -1.867094507079750656e+02 -3.012378298939123766e+01 -6.426006308219947982e+01 1.371637580537970180e+01 -1.535156921918796513e+01 8.905410853137472316e+01 -6.198027891553542901e+01 -1.019566008357235489e+02 -3.512093909784673684e+01 -8.844452338255061719e+00 4.471159295277475110e+01 -2.176016649266254177e+01 -7.255537510291604519e+01 -1.561436589687546572e+01 1.972076651672677627e+01 4.671516098052703825e+01 -1.121124742792123783e+02 -1.367322092944030487e+02 2.265551404723460394e+02 -2.146979104575027293e+02 -7.469239674827771580e+01 -4.557168851236366436e+01 1.375669471678008051e+02 6.224495262332109746e+01 2.251707024321727602e+02 2.407724204010663698e+02 -6.133625690732206692e+01 1.273532913587507096e+02 -5.508885757360506830e+01 -4.015506112447702236e+01 -9.899980963699465519e+01 -7.854716299956017167e+01 -6.842890737491030961e+01 -8.757088699489197836e+01 -2.398380609430114987e+02 -2.664770045714043931e+02 1.325106603687292477e+02 -2.610791347384012795e+01 5.240851852377579689e+01 1.287824092622505248e+02
