# 
#                 ----------------------------------------------------
#                 Data from a 3D direct N-body simulation. 
# 
#                 rows are i-particle; 
#                 coumns are :mass, tag, x ,y, z, vx, vy, vz, ax, ay, az
# 
#                 NTHU, Computational Physics Lab
# 
#                 ----------------------------------------------------
#                 Time = 3.2999999999999736
1.000000000000000000e+00 2.000000000000000000e+00 3.000000000000000000e+00 4.000000000000000000e+00 5.000000000000000000e+00 6.000000000000000000e+00 7.000000000000000000e+00 8.000000000000000000e+00 9.000000000000000000e+00 1.000000000000000000e+01 1.100000000000000000e+01 1.200000000000000000e+01 1.300000000000000000e+01 1.400000000000000000e+01 1.500000000000000000e+01 1.600000000000000000e+01 1.700000000000000000e+01 1.800000000000000000e+01 1.900000000000000000e+01 2.000000000000000000e+01 2.100000000000000000e+01 2.200000000000000000e+01 2.300000000000000000e+01 2.400000000000000000e+01 2.500000000000000000e+01 2.600000000000000000e+01 2.700000000000000000e+01 2.800000000000000000e+01 2.900000000000000000e+01 3.000000000000000000e+01 3.100000000000000000e+01 3.200000000000000000e+01 3.300000000000000000e+01 3.400000000000000000e+01 3.500000000000000000e+01 3.600000000000000000e+01 3.700000000000000000e+01 3.800000000000000000e+01 3.900000000000000000e+01 4.000000000000000000e+01 4.100000000000000000e+01 4.200000000000000000e+01 4.300000000000000000e+01 4.400000000000000000e+01 4.500000000000000000e+01 4.600000000000000000e+01 4.700000000000000000e+01 4.800000000000000000e+01 4.900000000000000000e+01 5.000000000000000000e+01 5.100000000000000000e+01 5.200000000000000000e+01 5.300000000000000000e+01 5.400000000000000000e+01 5.500000000000000000e+01 5.600000000000000000e+01 5.700000000000000000e+01 5.800000000000000000e+01 5.900000000000000000e+01 6.000000000000000000e+01 6.100000000000000000e+01 6.200000000000000000e+01 6.300000000000000000e+01 6.400000000000000000e+01 6.500000000000000000e+01 6.600000000000000000e+01 6.700000000000000000e+01 6.800000000000000000e+01 6.900000000000000000e+01 7.000000000000000000e+01 7.100000000000000000e+01 7.200000000000000000e+01 7.300000000000000000e+01 7.400000000000000000e+01 7.500000000000000000e+01 7.600000000000000000e+01 7.700000000000000000e+01 7.800000000000000000e+01 7.900000000000000000e+01 8.000000000000000000e+01 8.100000000000000000e+01 8.200000000000000000e+01 8.300000000000000000e+01 8.400000000000000000e+01 8.500000000000000000e+01 8.600000000000000000e+01 8.700000000000000000e+01 8.800000000000000000e+01 8.900000000000000000e+01 9.000000000000000000e+01 9.100000000000000000e+01 9.200000000000000000e+01 9.300000000000000000e+01 9.400000000000000000e+01 9.500000000000000000e+01 9.600000000000000000e+01 9.700000000000000000e+01 9.800000000000000000e+01 9.900000000000000000e+01 1.000000000000000000e+02 1.010000000000000000e+02 1.020000000000000000e+02 1.030000000000000000e+02 1.040000000000000000e+02 1.050000000000000000e+02 1.060000000000000000e+02 1.070000000000000000e+02 1.080000000000000000e+02 1.090000000000000000e+02 1.100000000000000000e+02 1.110000000000000000e+02 1.120000000000000000e+02 1.130000000000000000e+02 1.140000000000000000e+02 1.150000000000000000e+02 1.160000000000000000e+02 1.170000000000000000e+02 1.180000000000000000e+02 1.190000000000000000e+02 1.200000000000000000e+02 1.210000000000000000e+02 1.220000000000000000e+02 1.230000000000000000e+02 1.240000000000000000e+02 1.250000000000000000e+02 1.260000000000000000e+02 1.270000000000000000e+02 1.280000000000000000e+02 1.290000000000000000e+02 1.300000000000000000e+02 1.310000000000000000e+02 1.320000000000000000e+02 1.330000000000000000e+02 1.340000000000000000e+02 1.350000000000000000e+02 1.360000000000000000e+02 1.370000000000000000e+02 1.380000000000000000e+02 1.390000000000000000e+02 1.400000000000000000e+02 1.410000000000000000e+02 1.420000000000000000e+02 1.430000000000000000e+02 1.440000000000000000e+02 1.450000000000000000e+02 1.460000000000000000e+02 1.470000000000000000e+02 1.480000000000000000e+02 1.490000000000000000e+02 1.500000000000000000e+02 1.510000000000000000e+02 1.520000000000000000e+02 1.530000000000000000e+02 1.540000000000000000e+02 1.550000000000000000e+02 1.560000000000000000e+02 1.570000000000000000e+02 1.580000000000000000e+02 1.590000000000000000e+02 1.600000000000000000e+02 1.610000000000000000e+02 1.620000000000000000e+02 1.630000000000000000e+02 1.640000000000000000e+02 1.650000000000000000e+02 1.660000000000000000e+02 1.670000000000000000e+02 1.680000000000000000e+02 1.690000000000000000e+02 1.700000000000000000e+02 1.710000000000000000e+02 1.720000000000000000e+02 1.730000000000000000e+02 1.740000000000000000e+02 1.750000000000000000e+02 1.760000000000000000e+02 1.770000000000000000e+02 1.780000000000000000e+02 1.790000000000000000e+02 1.800000000000000000e+02 1.810000000000000000e+02 1.820000000000000000e+02 1.830000000000000000e+02 1.840000000000000000e+02 1.850000000000000000e+02 1.860000000000000000e+02 1.870000000000000000e+02 1.880000000000000000e+02 1.890000000000000000e+02 1.900000000000000000e+02 1.910000000000000000e+02 1.920000000000000000e+02 1.930000000000000000e+02 1.940000000000000000e+02 1.950000000000000000e+02 1.960000000000000000e+02 1.970000000000000000e+02 1.980000000000000000e+02 1.990000000000000000e+02 2.000000000000000000e+02 2.010000000000000000e+02 2.020000000000000000e+02 2.030000000000000000e+02 2.040000000000000000e+02 2.050000000000000000e+02 2.060000000000000000e+02 2.070000000000000000e+02 2.080000000000000000e+02 2.090000000000000000e+02 2.100000000000000000e+02 2.110000000000000000e+02 2.120000000000000000e+02 2.130000000000000000e+02 2.140000000000000000e+02 2.150000000000000000e+02 2.160000000000000000e+02 2.170000000000000000e+02 2.180000000000000000e+02 2.190000000000000000e+02 2.200000000000000000e+02 2.210000000000000000e+02 2.220000000000000000e+02 2.230000000000000000e+02 2.240000000000000000e+02 2.250000000000000000e+02 2.260000000000000000e+02 2.270000000000000000e+02 2.280000000000000000e+02 2.290000000000000000e+02 2.300000000000000000e+02 2.310000000000000000e+02 2.320000000000000000e+02 2.330000000000000000e+02 2.340000000000000000e+02 2.350000000000000000e+02 2.360000000000000000e+02 2.370000000000000000e+02 2.380000000000000000e+02 2.390000000000000000e+02 2.400000000000000000e+02 2.410000000000000000e+02 2.420000000000000000e+02 2.430000000000000000e+02 2.440000000000000000e+02 2.450000000000000000e+02 2.460000000000000000e+02 2.470000000000000000e+02 2.480000000000000000e+02 2.490000000000000000e+02 2.500000000000000000e+02 2.510000000000000000e+02 2.520000000000000000e+02 2.530000000000000000e+02 2.540000000000000000e+02 2.550000000000000000e+02 2.560000000000000000e+02 2.570000000000000000e+02 2.580000000000000000e+02 2.590000000000000000e+02 2.600000000000000000e+02 2.610000000000000000e+02 2.620000000000000000e+02 2.630000000000000000e+02 2.640000000000000000e+02 2.650000000000000000e+02 2.660000000000000000e+02 2.670000000000000000e+02 2.680000000000000000e+02 2.690000000000000000e+02 2.700000000000000000e+02 2.710000000000000000e+02 2.720000000000000000e+02 2.730000000000000000e+02 2.740000000000000000e+02 2.750000000000000000e+02 2.760000000000000000e+02 2.770000000000000000e+02 2.780000000000000000e+02 2.790000000000000000e+02 2.800000000000000000e+02 2.810000000000000000e+02 2.820000000000000000e+02 2.830000000000000000e+02 2.840000000000000000e+02 2.850000000000000000e+02 2.860000000000000000e+02 2.870000000000000000e+02 2.880000000000000000e+02 2.890000000000000000e+02 2.900000000000000000e+02 2.910000000000000000e+02 2.920000000000000000e+02 2.930000000000000000e+02 2.940000000000000000e+02 2.950000000000000000e+02 2.960000000000000000e+02 2.970000000000000000e+02 2.980000000000000000e+02 2.990000000000000000e+02 3.000000000000000000e+02 3.010000000000000000e+02 3.020000000000000000e+02 3.030000000000000000e+02 3.040000000000000000e+02 3.050000000000000000e+02 3.060000000000000000e+02 3.070000000000000000e+02 3.080000000000000000e+02 3.090000000000000000e+02 3.100000000000000000e+02 3.110000000000000000e+02 3.120000000000000000e+02 3.130000000000000000e+02 3.140000000000000000e+02 3.150000000000000000e+02 3.160000000000000000e+02 3.170000000000000000e+02 3.180000000000000000e+02 3.190000000000000000e+02 3.200000000000000000e+02 3.210000000000000000e+02 3.220000000000000000e+02 3.230000000000000000e+02 3.240000000000000000e+02 3.250000000000000000e+02 3.260000000000000000e+02 3.270000000000000000e+02 3.280000000000000000e+02 3.290000000000000000e+02 3.300000000000000000e+02 3.310000000000000000e+02 3.320000000000000000e+02 3.330000000000000000e+02 3.340000000000000000e+02 3.350000000000000000e+02 3.360000000000000000e+02 3.370000000000000000e+02 3.380000000000000000e+02 3.390000000000000000e+02 3.400000000000000000e+02 3.410000000000000000e+02 3.420000000000000000e+02 3.430000000000000000e+02 3.440000000000000000e+02 3.450000000000000000e+02 3.460000000000000000e+02 3.470000000000000000e+02 3.480000000000000000e+02 3.490000000000000000e+02 3.500000000000000000e+02 3.510000000000000000e+02 3.520000000000000000e+02 3.530000000000000000e+02 3.540000000000000000e+02 3.550000000000000000e+02 3.560000000000000000e+02 3.570000000000000000e+02 3.580000000000000000e+02 3.590000000000000000e+02 3.600000000000000000e+02 3.610000000000000000e+02 3.620000000000000000e+02 3.630000000000000000e+02 3.640000000000000000e+02 3.650000000000000000e+02 3.660000000000000000e+02 3.670000000000000000e+02 3.680000000000000000e+02 3.690000000000000000e+02 3.700000000000000000e+02 3.710000000000000000e+02 3.720000000000000000e+02 3.730000000000000000e+02 3.740000000000000000e+02 3.750000000000000000e+02 3.760000000000000000e+02 3.770000000000000000e+02 3.780000000000000000e+02 3.790000000000000000e+02 3.800000000000000000e+02 3.810000000000000000e+02 3.820000000000000000e+02 3.830000000000000000e+02 3.840000000000000000e+02 3.850000000000000000e+02 3.860000000000000000e+02 3.870000000000000000e+02 3.880000000000000000e+02 3.890000000000000000e+02 3.900000000000000000e+02 3.910000000000000000e+02 3.920000000000000000e+02 3.930000000000000000e+02 3.940000000000000000e+02 3.950000000000000000e+02 3.960000000000000000e+02 3.970000000000000000e+02 3.980000000000000000e+02 3.990000000000000000e+02 4.000000000000000000e+02 4.010000000000000000e+02 4.020000000000000000e+02 4.030000000000000000e+02 4.040000000000000000e+02 4.050000000000000000e+02 4.060000000000000000e+02 4.070000000000000000e+02 4.080000000000000000e+02 4.090000000000000000e+02 4.100000000000000000e+02 4.110000000000000000e+02 4.120000000000000000e+02 4.130000000000000000e+02 4.140000000000000000e+02 4.150000000000000000e+02 4.160000000000000000e+02 4.170000000000000000e+02 4.180000000000000000e+02 4.190000000000000000e+02 4.200000000000000000e+02 4.210000000000000000e+02 4.220000000000000000e+02 4.230000000000000000e+02 4.240000000000000000e+02 4.250000000000000000e+02 4.260000000000000000e+02 4.270000000000000000e+02 4.280000000000000000e+02 4.290000000000000000e+02 4.300000000000000000e+02 4.310000000000000000e+02 4.320000000000000000e+02 4.330000000000000000e+02 4.340000000000000000e+02 4.350000000000000000e+02 4.360000000000000000e+02 4.370000000000000000e+02 4.380000000000000000e+02 4.390000000000000000e+02 4.400000000000000000e+02 4.410000000000000000e+02 4.420000000000000000e+02 4.430000000000000000e+02 4.440000000000000000e+02 4.450000000000000000e+02 4.460000000000000000e+02 4.470000000000000000e+02 4.480000000000000000e+02 4.490000000000000000e+02 4.500000000000000000e+02 4.510000000000000000e+02 4.520000000000000000e+02 4.530000000000000000e+02 4.540000000000000000e+02 4.550000000000000000e+02 4.560000000000000000e+02 4.570000000000000000e+02 4.580000000000000000e+02 4.590000000000000000e+02 4.600000000000000000e+02 4.610000000000000000e+02 4.620000000000000000e+02 4.630000000000000000e+02 4.640000000000000000e+02 4.650000000000000000e+02 4.660000000000000000e+02 4.670000000000000000e+02 4.680000000000000000e+02 4.690000000000000000e+02 4.700000000000000000e+02 4.710000000000000000e+02 4.720000000000000000e+02 4.730000000000000000e+02 4.740000000000000000e+02 4.750000000000000000e+02 4.760000000000000000e+02 4.770000000000000000e+02 4.780000000000000000e+02 4.790000000000000000e+02 4.800000000000000000e+02 4.810000000000000000e+02 4.820000000000000000e+02 4.830000000000000000e+02 4.840000000000000000e+02 4.850000000000000000e+02 4.860000000000000000e+02 4.870000000000000000e+02 4.880000000000000000e+02 4.890000000000000000e+02 4.900000000000000000e+02 4.910000000000000000e+02 4.920000000000000000e+02 4.930000000000000000e+02 4.940000000000000000e+02 4.950000000000000000e+02 4.960000000000000000e+02 4.970000000000000000e+02 4.980000000000000000e+02 4.990000000000000000e+02 5.000000000000000000e+02 5.010000000000000000e+02 5.020000000000000000e+02 5.030000000000000000e+02 5.040000000000000000e+02 5.050000000000000000e+02 5.060000000000000000e+02 5.070000000000000000e+02 5.080000000000000000e+02 5.090000000000000000e+02 5.100000000000000000e+02 5.110000000000000000e+02 5.120000000000000000e+02 5.130000000000000000e+02 5.140000000000000000e+02 5.150000000000000000e+02 5.160000000000000000e+02 5.170000000000000000e+02 5.180000000000000000e+02 5.190000000000000000e+02 5.200000000000000000e+02 5.210000000000000000e+02 5.220000000000000000e+02 5.230000000000000000e+02 5.240000000000000000e+02 5.250000000000000000e+02 5.260000000000000000e+02 5.270000000000000000e+02 5.280000000000000000e+02 5.290000000000000000e+02 5.300000000000000000e+02 5.310000000000000000e+02 5.320000000000000000e+02 5.330000000000000000e+02 5.340000000000000000e+02 5.350000000000000000e+02 5.360000000000000000e+02 5.370000000000000000e+02 5.380000000000000000e+02 5.390000000000000000e+02 5.400000000000000000e+02 5.410000000000000000e+02 5.420000000000000000e+02 5.430000000000000000e+02 5.440000000000000000e+02 5.450000000000000000e+02 5.460000000000000000e+02 5.470000000000000000e+02 5.480000000000000000e+02 5.490000000000000000e+02 5.500000000000000000e+02 5.510000000000000000e+02 5.520000000000000000e+02 5.530000000000000000e+02 5.540000000000000000e+02 5.550000000000000000e+02 5.560000000000000000e+02 5.570000000000000000e+02 5.580000000000000000e+02 5.590000000000000000e+02 5.600000000000000000e+02 5.610000000000000000e+02 5.620000000000000000e+02 5.630000000000000000e+02 5.640000000000000000e+02 5.650000000000000000e+02 5.660000000000000000e+02 5.670000000000000000e+02 5.680000000000000000e+02 5.690000000000000000e+02 5.700000000000000000e+02 5.710000000000000000e+02 5.720000000000000000e+02 5.730000000000000000e+02 5.740000000000000000e+02 5.750000000000000000e+02 5.760000000000000000e+02 5.770000000000000000e+02 5.780000000000000000e+02 5.790000000000000000e+02 5.800000000000000000e+02 5.810000000000000000e+02 5.820000000000000000e+02 5.830000000000000000e+02 5.840000000000000000e+02 5.850000000000000000e+02 5.860000000000000000e+02 5.870000000000000000e+02 5.880000000000000000e+02 5.890000000000000000e+02 5.900000000000000000e+02 5.910000000000000000e+02 5.920000000000000000e+02 5.930000000000000000e+02 5.940000000000000000e+02 5.950000000000000000e+02 5.960000000000000000e+02 5.970000000000000000e+02 5.980000000000000000e+02 5.990000000000000000e+02 6.000000000000000000e+02 6.010000000000000000e+02 6.020000000000000000e+02 6.030000000000000000e+02 6.040000000000000000e+02 6.050000000000000000e+02 6.060000000000000000e+02 6.070000000000000000e+02 6.080000000000000000e+02 6.090000000000000000e+02 6.100000000000000000e+02 6.110000000000000000e+02 6.120000000000000000e+02 6.130000000000000000e+02 6.140000000000000000e+02 6.150000000000000000e+02 6.160000000000000000e+02 6.170000000000000000e+02 6.180000000000000000e+02 6.190000000000000000e+02 6.200000000000000000e+02 6.210000000000000000e+02 6.220000000000000000e+02 6.230000000000000000e+02 6.240000000000000000e+02 6.250000000000000000e+02 6.260000000000000000e+02 6.270000000000000000e+02 6.280000000000000000e+02 6.290000000000000000e+02 6.300000000000000000e+02 6.310000000000000000e+02 6.320000000000000000e+02 6.330000000000000000e+02 6.340000000000000000e+02 6.350000000000000000e+02 6.360000000000000000e+02 6.370000000000000000e+02 6.380000000000000000e+02 6.390000000000000000e+02 6.400000000000000000e+02 6.410000000000000000e+02 6.420000000000000000e+02 6.430000000000000000e+02 6.440000000000000000e+02 6.450000000000000000e+02 6.460000000000000000e+02 6.470000000000000000e+02 6.480000000000000000e+02 6.490000000000000000e+02 6.500000000000000000e+02 6.510000000000000000e+02 6.520000000000000000e+02 6.530000000000000000e+02 6.540000000000000000e+02 6.550000000000000000e+02 6.560000000000000000e+02 6.570000000000000000e+02 6.580000000000000000e+02 6.590000000000000000e+02 6.600000000000000000e+02 6.610000000000000000e+02 6.620000000000000000e+02 6.630000000000000000e+02 6.640000000000000000e+02 6.650000000000000000e+02 6.660000000000000000e+02 6.670000000000000000e+02 6.680000000000000000e+02 6.690000000000000000e+02 6.700000000000000000e+02 6.710000000000000000e+02 6.720000000000000000e+02 6.730000000000000000e+02 6.740000000000000000e+02 6.750000000000000000e+02 6.760000000000000000e+02 6.770000000000000000e+02 6.780000000000000000e+02 6.790000000000000000e+02 6.800000000000000000e+02 6.810000000000000000e+02 6.820000000000000000e+02 6.830000000000000000e+02 6.840000000000000000e+02 6.850000000000000000e+02 6.860000000000000000e+02 6.870000000000000000e+02 6.880000000000000000e+02 6.890000000000000000e+02 6.900000000000000000e+02 6.910000000000000000e+02 6.920000000000000000e+02 6.930000000000000000e+02 6.940000000000000000e+02 6.950000000000000000e+02 6.960000000000000000e+02 6.970000000000000000e+02 6.980000000000000000e+02 6.990000000000000000e+02 7.000000000000000000e+02 7.010000000000000000e+02 7.020000000000000000e+02 7.030000000000000000e+02 7.040000000000000000e+02 7.050000000000000000e+02 7.060000000000000000e+02 7.070000000000000000e+02 7.080000000000000000e+02 7.090000000000000000e+02 7.100000000000000000e+02 7.110000000000000000e+02 7.120000000000000000e+02 7.130000000000000000e+02 7.140000000000000000e+02 7.150000000000000000e+02 7.160000000000000000e+02 7.170000000000000000e+02 7.180000000000000000e+02 7.190000000000000000e+02 7.200000000000000000e+02 7.210000000000000000e+02 7.220000000000000000e+02 7.230000000000000000e+02 7.240000000000000000e+02 7.250000000000000000e+02 7.260000000000000000e+02 7.270000000000000000e+02 7.280000000000000000e+02 7.290000000000000000e+02 7.300000000000000000e+02 7.310000000000000000e+02 7.320000000000000000e+02 7.330000000000000000e+02 7.340000000000000000e+02 7.350000000000000000e+02 7.360000000000000000e+02 7.370000000000000000e+02 7.380000000000000000e+02 7.390000000000000000e+02 7.400000000000000000e+02 7.410000000000000000e+02 7.420000000000000000e+02 7.430000000000000000e+02 7.440000000000000000e+02 7.450000000000000000e+02 7.460000000000000000e+02 7.470000000000000000e+02 7.480000000000000000e+02 7.490000000000000000e+02 7.500000000000000000e+02 7.510000000000000000e+02 7.520000000000000000e+02 7.530000000000000000e+02 7.540000000000000000e+02 7.550000000000000000e+02 7.560000000000000000e+02 7.570000000000000000e+02 7.580000000000000000e+02 7.590000000000000000e+02 7.600000000000000000e+02 7.610000000000000000e+02 7.620000000000000000e+02 7.630000000000000000e+02 7.640000000000000000e+02 7.650000000000000000e+02 7.660000000000000000e+02 7.670000000000000000e+02 7.680000000000000000e+02 7.690000000000000000e+02 7.700000000000000000e+02 7.710000000000000000e+02 7.720000000000000000e+02 7.730000000000000000e+02 7.740000000000000000e+02 7.750000000000000000e+02 7.760000000000000000e+02 7.770000000000000000e+02 7.780000000000000000e+02 7.790000000000000000e+02 7.800000000000000000e+02 7.810000000000000000e+02 7.820000000000000000e+02 7.830000000000000000e+02 7.840000000000000000e+02 7.850000000000000000e+02 7.860000000000000000e+02 7.870000000000000000e+02 7.880000000000000000e+02 7.890000000000000000e+02 7.900000000000000000e+02 7.910000000000000000e+02 7.920000000000000000e+02 7.930000000000000000e+02 7.940000000000000000e+02 7.950000000000000000e+02 7.960000000000000000e+02 7.970000000000000000e+02 7.980000000000000000e+02 7.990000000000000000e+02 8.000000000000000000e+02 8.010000000000000000e+02 8.020000000000000000e+02 8.030000000000000000e+02 8.040000000000000000e+02 8.050000000000000000e+02 8.060000000000000000e+02 8.070000000000000000e+02 8.080000000000000000e+02 8.090000000000000000e+02 8.100000000000000000e+02 8.110000000000000000e+02 8.120000000000000000e+02 8.130000000000000000e+02 8.140000000000000000e+02 8.150000000000000000e+02 8.160000000000000000e+02 8.170000000000000000e+02 8.180000000000000000e+02 8.190000000000000000e+02 8.200000000000000000e+02 8.210000000000000000e+02 8.220000000000000000e+02 8.230000000000000000e+02 8.240000000000000000e+02 8.250000000000000000e+02 8.260000000000000000e+02 8.270000000000000000e+02 8.280000000000000000e+02 8.290000000000000000e+02 8.300000000000000000e+02 8.310000000000000000e+02 8.320000000000000000e+02 8.330000000000000000e+02 8.340000000000000000e+02 8.350000000000000000e+02 8.360000000000000000e+02 8.370000000000000000e+02 8.380000000000000000e+02 8.390000000000000000e+02 8.400000000000000000e+02 8.410000000000000000e+02 8.420000000000000000e+02 8.430000000000000000e+02 8.440000000000000000e+02 8.450000000000000000e+02 8.460000000000000000e+02 8.470000000000000000e+02 8.480000000000000000e+02 8.490000000000000000e+02 8.500000000000000000e+02 8.510000000000000000e+02 8.520000000000000000e+02 8.530000000000000000e+02 8.540000000000000000e+02 8.550000000000000000e+02 8.560000000000000000e+02 8.570000000000000000e+02 8.580000000000000000e+02 8.590000000000000000e+02 8.600000000000000000e+02 8.610000000000000000e+02 8.620000000000000000e+02 8.630000000000000000e+02 8.640000000000000000e+02 8.650000000000000000e+02 8.660000000000000000e+02 8.670000000000000000e+02 8.680000000000000000e+02 8.690000000000000000e+02 8.700000000000000000e+02 8.710000000000000000e+02 8.720000000000000000e+02 8.730000000000000000e+02 8.740000000000000000e+02 8.750000000000000000e+02 8.760000000000000000e+02 8.770000000000000000e+02 8.780000000000000000e+02 8.790000000000000000e+02 8.800000000000000000e+02 8.810000000000000000e+02 8.820000000000000000e+02 8.830000000000000000e+02 8.840000000000000000e+02 8.850000000000000000e+02 8.860000000000000000e+02 8.870000000000000000e+02 8.880000000000000000e+02 8.890000000000000000e+02 8.900000000000000000e+02 8.910000000000000000e+02 8.920000000000000000e+02 8.930000000000000000e+02 8.940000000000000000e+02 8.950000000000000000e+02 8.960000000000000000e+02 8.970000000000000000e+02 8.980000000000000000e+02 8.990000000000000000e+02 9.000000000000000000e+02 9.010000000000000000e+02 9.020000000000000000e+02 9.030000000000000000e+02 9.040000000000000000e+02 9.050000000000000000e+02 9.060000000000000000e+02 9.070000000000000000e+02 9.080000000000000000e+02 9.090000000000000000e+02 9.100000000000000000e+02 9.110000000000000000e+02 9.120000000000000000e+02 9.130000000000000000e+02 9.140000000000000000e+02 9.150000000000000000e+02 9.160000000000000000e+02 9.170000000000000000e+02 9.180000000000000000e+02 9.190000000000000000e+02 9.200000000000000000e+02 9.210000000000000000e+02 9.220000000000000000e+02 9.230000000000000000e+02 9.240000000000000000e+02 9.250000000000000000e+02 9.260000000000000000e+02 9.270000000000000000e+02 9.280000000000000000e+02 9.290000000000000000e+02 9.300000000000000000e+02 9.310000000000000000e+02 9.320000000000000000e+02 9.330000000000000000e+02 9.340000000000000000e+02 9.350000000000000000e+02 9.360000000000000000e+02 9.370000000000000000e+02 9.380000000000000000e+02 9.390000000000000000e+02 9.400000000000000000e+02 9.410000000000000000e+02 9.420000000000000000e+02 9.430000000000000000e+02 9.440000000000000000e+02 9.450000000000000000e+02 9.460000000000000000e+02 9.470000000000000000e+02 9.480000000000000000e+02 9.490000000000000000e+02 9.500000000000000000e+02 9.510000000000000000e+02 9.520000000000000000e+02 9.530000000000000000e+02 9.540000000000000000e+02 9.550000000000000000e+02 9.560000000000000000e+02 9.570000000000000000e+02 9.580000000000000000e+02 9.590000000000000000e+02 9.600000000000000000e+02 9.610000000000000000e+02 9.620000000000000000e+02 9.630000000000000000e+02 9.640000000000000000e+02 9.650000000000000000e+02 9.660000000000000000e+02 9.670000000000000000e+02 9.680000000000000000e+02 9.690000000000000000e+02 9.700000000000000000e+02 9.710000000000000000e+02 9.720000000000000000e+02 9.730000000000000000e+02 9.740000000000000000e+02 9.750000000000000000e+02 9.760000000000000000e+02 9.770000000000000000e+02 9.780000000000000000e+02 9.790000000000000000e+02 9.800000000000000000e+02 9.810000000000000000e+02 9.820000000000000000e+02 9.830000000000000000e+02 9.840000000000000000e+02 9.850000000000000000e+02 9.860000000000000000e+02 9.870000000000000000e+02 9.880000000000000000e+02 9.890000000000000000e+02 9.900000000000000000e+02 9.910000000000000000e+02 9.920000000000000000e+02 9.930000000000000000e+02 9.940000000000000000e+02 9.950000000000000000e+02 9.960000000000000000e+02 9.970000000000000000e+02 9.980000000000000000e+02 9.990000000000000000e+02 1.000000000000000000e+03
1.000000000000000021e-02 1.000000000000000021e-02 1.000000000000000021e-02 1.000000000000000021e-02 1.000000000000000021e-02 1.000000000000000021e-02 1.000000000000000021e-02 1.000000000000000021e-02 1.000000000000000021e-02 1.000000000000000021e-02 1.000000000000000021e-02 1.000000000000000021e-02 1.000000000000000021e-02 1.000000000000000021e-02 1.000000000000000021e-02 1.000000000000000021e-02 1.000000000000000021e-02 1.000000000000000021e-02 1.000000000000000021e-02 1.000000000000000021e-02 1.000000000000000021e-02 1.000000000000000021e-02 1.000000000000000021e-02 1.000000000000000021e-02 1.000000000000000021e-02 1.000000000000000021e-02 1.000000000000000021e-02 1.000000000000000021e-02 1.000000000000000021e-02 1.000000000000000021e-02 1.000000000000000021e-02 1.000000000000000021e-02 1.000000000000000021e-02 1.000000000000000021e-02 1.000000000000000021e-02 1.000000000000000021e-02 1.000000000000000021e-02 1.000000000000000021e-02 1.000000000000000021e-02 1.000000000000000021e-02 1.000000000000000021e-02 1.000000000000000021e-02 1.000000000000000021e-02 1.000000000000000021e-02 1.000000000000000021e-02 1.000000000000000021e-02 1.000000000000000021e-02 1.000000000000000021e-02 1.000000000000000021e-02 1.000000000000000021e-02 1.000000000000000021e-02 1.000000000000000021e-02 1.000000000000000021e-02 1.000000000000000021e-02 1.000000000000000021e-02 1.000000000000000021e-02 1.000000000000000021e-02 1.000000000000000021e-02 1.000000000000000021e-02 1.000000000000000021e-02 1.000000000000000021e-02 1.000000000000000021e-02 1.000000000000000021e-02 1.000000000000000021e-02 1.000000000000000021e-02 1.000000000000000021e-02 1.000000000000000021e-02 1.000000000000000021e-02 1.000000000000000021e-02 1.000000000000000021e-02 1.000000000000000021e-02 1.000000000000000021e-02 1.000000000000000021e-02 1.000000000000000021e-02 1.000000000000000021e-02 1.000000000000000021e-02 1.000000000000000021e-02 1.000000000000000021e-02 1.000000000000000021e-02 1.000000000000000021e-02 1.000000000000000021e-02 1.000000000000000021e-02 1.000000000000000021e-02 1.000000000000000021e-02 1.000000000000000021e-02 1.000000000000000021e-02 1.000000000000000021e-02 1.000000000000000021e-02 1.000000000000000021e-02 1.000000000000000021e-02 1.000000000000000021e-02 1.000000000000000021e-02 1.000000000000000021e-02 1.000000000000000021e-02 1.000000000000000021e-02 1.000000000000000021e-02 1.000000000000000021e-02 1.000000000000000021e-02 1.000000000000000021e-02 1.000000000000000021e-02 1.000000000000000021e-02 1.000000000000000021e-02 1.000000000000000021e-02 1.000000000000000021e-02 1.000000000000000021e-02 1.000000000000000021e-02 1.000000000000000021e-02 1.000000000000000021e-02 1.000000000000000021e-02 1.000000000000000021e-02 1.000000000000000021e-02 1.000000000000000021e-02 1.000000000000000021e-02 1.000000000000000021e-02 1.000000000000000021e-02 1.000000000000000021e-02 1.000000000000000021e-02 1.000000000000000021e-02 1.000000000000000021e-02 1.000000000000000021e-02 1.000000000000000021e-02 1.000000000000000021e-02 1.000000000000000021e-02 1.000000000000000021e-02 1.000000000000000021e-02 1.000000000000000021e-02 1.000000000000000021e-02 1.000000000000000021e-02 1.000000000000000021e-02 1.000000000000000021e-02 1.000000000000000021e-02 1.000000000000000021e-02 1.000000000000000021e-02 1.000000000000000021e-02 1.000000000000000021e-02 1.000000000000000021e-02 1.000000000000000021e-02 1.000000000000000021e-02 1.000000000000000021e-02 1.000000000000000021e-02 1.000000000000000021e-02 1.000000000000000021e-02 1.000000000000000021e-02 1.000000000000000021e-02 1.000000000000000021e-02 1.000000000000000021e-02 1.000000000000000021e-02 1.000000000000000021e-02 1.000000000000000021e-02 1.000000000000000021e-02 1.000000000000000021e-02 1.000000000000000021e-02 1.000000000000000021e-02 1.000000000000000021e-02 1.000000000000000021e-02 1.000000000000000021e-02 1.000000000000000021e-02 1.000000000000000021e-02 1.000000000000000021e-02 1.000000000000000021e-02 1.000000000000000021e-02 1.000000000000000021e-02 1.000000000000000021e-02 1.000000000000000021e-02 1.000000000000000021e-02 1.000000000000000021e-02 1.000000000000000021e-02 1.000000000000000021e-02 1.000000000000000021e-02 1.000000000000000021e-02 1.000000000000000021e-02 1.000000000000000021e-02 1.000000000000000021e-02 1.000000000000000021e-02 1.000000000000000021e-02 1.000000000000000021e-02 1.000000000000000021e-02 1.000000000000000021e-02 1.000000000000000021e-02 1.000000000000000021e-02 1.000000000000000021e-02 1.000000000000000021e-02 1.000000000000000021e-02 1.000000000000000021e-02 1.000000000000000021e-02 1.000000000000000021e-02 1.000000000000000021e-02 1.000000000000000021e-02 1.000000000000000021e-02 1.000000000000000021e-02 1.000000000000000021e-02 1.000000000000000021e-02 1.000000000000000021e-02 1.000000000000000021e-02 1.000000000000000021e-02 1.000000000000000021e-02 1.000000000000000021e-02 1.000000000000000021e-02 1.000000000000000021e-02 1.000000000000000021e-02 1.000000000000000021e-02 1.000000000000000021e-02 1.000000000000000021e-02 1.000000000000000021e-02 1.000000000000000021e-02 1.000000000000000021e-02 1.000000000000000021e-02 1.000000000000000021e-02 1.000000000000000021e-02 1.000000000000000021e-02 1.000000000000000021e-02 1.000000000000000021e-02 1.000000000000000021e-02 1.000000000000000021e-02 1.000000000000000021e-02 1.000000000000000021e-02 1.000000000000000021e-02 1.000000000000000021e-02 1.000000000000000021e-02 1.000000000000000021e-02 1.000000000000000021e-02 1.000000000000000021e-02 1.000000000000000021e-02 1.000000000000000021e-02 1.000000000000000021e-02 1.000000000000000021e-02 1.000000000000000021e-02 1.000000000000000021e-02 1.000000000000000021e-02 1.000000000000000021e-02 1.000000000000000021e-02 1.000000000000000021e-02 1.000000000000000021e-02 1.000000000000000021e-02 1.000000000000000021e-02 1.000000000000000021e-02 1.000000000000000021e-02 1.000000000000000021e-02 1.000000000000000021e-02 1.000000000000000021e-02 1.000000000000000021e-02 1.000000000000000021e-02 1.000000000000000021e-02 1.000000000000000021e-02 1.000000000000000021e-02 1.000000000000000021e-02 1.000000000000000021e-02 1.000000000000000021e-02 1.000000000000000021e-02 1.000000000000000021e-02 1.000000000000000021e-02 1.000000000000000021e-02 1.000000000000000021e-02 1.000000000000000021e-02 1.000000000000000021e-02 1.000000000000000021e-02 1.000000000000000021e-02 1.000000000000000021e-02 1.000000000000000021e-02 1.000000000000000021e-02 1.000000000000000021e-02 1.000000000000000021e-02 1.000000000000000021e-02 1.000000000000000021e-02 1.000000000000000021e-02 1.000000000000000021e-02 1.000000000000000021e-02 1.000000000000000021e-02 1.000000000000000021e-02 1.000000000000000021e-02 1.000000000000000021e-02 1.000000000000000021e-02 1.000000000000000021e-02 1.000000000000000021e-02 1.000000000000000021e-02 1.000000000000000021e-02 1.000000000000000021e-02 1.000000000000000021e-02 1.000000000000000021e-02 1.000000000000000021e-02 1.000000000000000021e-02 1.000000000000000021e-02 1.000000000000000021e-02 1.000000000000000021e-02 1.000000000000000021e-02 1.000000000000000021e-02 1.000000000000000021e-02 1.000000000000000021e-02 1.000000000000000021e-02 1.000000000000000021e-02 1.000000000000000021e-02 1.000000000000000021e-02 1.000000000000000021e-02 1.000000000000000021e-02 1.000000000000000021e-02 1.000000000000000021e-02 1.000000000000000021e-02 1.000000000000000021e-02 1.000000000000000021e-02 1.000000000000000021e-02 1.000000000000000021e-02 1.000000000000000021e-02 1.000000000000000021e-02 1.000000000000000021e-02 1.000000000000000021e-02 1.000000000000000021e-02 1.000000000000000021e-02 1.000000000000000021e-02 1.000000000000000021e-02 1.000000000000000021e-02 1.000000000000000021e-02 1.000000000000000021e-02 1.000000000000000021e-02 1.000000000000000021e-02 1.000000000000000021e-02 1.000000000000000021e-02 1.000000000000000021e-02 1.000000000000000021e-02 1.000000000000000021e-02 1.000000000000000021e-02 1.000000000000000021e-02 1.000000000000000021e-02 1.000000000000000021e-02 1.000000000000000021e-02 1.000000000000000021e-02 1.000000000000000021e-02 1.000000000000000021e-02 1.000000000000000021e-02 1.000000000000000021e-02 1.000000000000000021e-02 1.000000000000000021e-02 1.000000000000000021e-02 1.000000000000000021e-02 1.000000000000000021e-02 1.000000000000000021e-02 1.000000000000000021e-02 1.000000000000000021e-02 1.000000000000000021e-02 1.000000000000000021e-02 1.000000000000000021e-02 1.000000000000000021e-02 1.000000000000000021e-02 1.000000000000000021e-02 1.000000000000000021e-02 1.000000000000000021e-02 1.000000000000000021e-02 1.000000000000000021e-02 1.000000000000000021e-02 1.000000000000000021e-02 1.000000000000000021e-02 1.000000000000000021e-02 1.000000000000000021e-02 1.000000000000000021e-02 1.000000000000000021e-02 1.000000000000000021e-02 1.000000000000000021e-02 1.000000000000000021e-02 1.000000000000000021e-02 1.000000000000000021e-02 1.000000000000000021e-02 1.000000000000000021e-02 1.000000000000000021e-02 1.000000000000000021e-02 1.000000000000000021e-02 1.000000000000000021e-02 1.000000000000000021e-02 1.000000000000000021e-02 1.000000000000000021e-02 1.000000000000000021e-02 1.000000000000000021e-02 1.000000000000000021e-02 1.000000000000000021e-02 1.000000000000000021e-02 1.000000000000000021e-02 1.000000000000000021e-02 1.000000000000000021e-02 1.000000000000000021e-02 1.000000000000000021e-02 1.000000000000000021e-02 1.000000000000000021e-02 1.000000000000000021e-02 1.000000000000000021e-02 1.000000000000000021e-02 1.000000000000000021e-02 1.000000000000000021e-02 1.000000000000000021e-02 1.000000000000000021e-02 1.000000000000000021e-02 1.000000000000000021e-02 1.000000000000000021e-02 1.000000000000000021e-02 1.000000000000000021e-02 1.000000000000000021e-02 1.000000000000000021e-02 1.000000000000000021e-02 1.000000000000000021e-02 1.000000000000000021e-02 1.000000000000000021e-02 1.000000000000000021e-02 1.000000000000000021e-02 1.000000000000000021e-02 1.000000000000000021e-02 1.000000000000000021e-02 1.000000000000000021e-02 1.000000000000000021e-02 1.000000000000000021e-02 1.000000000000000021e-02 1.000000000000000021e-02 1.000000000000000021e-02 1.000000000000000021e-02 1.000000000000000021e-02 1.000000000000000021e-02 1.000000000000000021e-02 1.000000000000000021e-02 1.000000000000000021e-02 1.000000000000000021e-02 1.000000000000000021e-02 1.000000000000000021e-02 1.000000000000000021e-02 1.000000000000000021e-02 1.000000000000000021e-02 1.000000000000000021e-02 1.000000000000000021e-02 1.000000000000000021e-02 1.000000000000000021e-02 1.000000000000000021e-02 1.000000000000000021e-02 1.000000000000000021e-02 1.000000000000000021e-02 1.000000000000000021e-02 1.000000000000000021e-02 1.000000000000000021e-02 1.000000000000000021e-02 1.000000000000000021e-02 1.000000000000000021e-02 1.000000000000000021e-02 1.000000000000000021e-02 1.000000000000000021e-02 1.000000000000000021e-02 1.000000000000000021e-02 1.000000000000000021e-02 1.000000000000000021e-02 1.000000000000000021e-02 1.000000000000000021e-02 1.000000000000000021e-02 1.000000000000000021e-02 1.000000000000000021e-02 1.000000000000000021e-02 1.000000000000000021e-02 1.000000000000000021e-02 1.000000000000000021e-02 1.000000000000000021e-02 1.000000000000000021e-02 1.000000000000000021e-02 1.000000000000000021e-02 1.000000000000000021e-02 1.000000000000000021e-02 1.000000000000000021e-02 1.000000000000000021e-02 1.000000000000000021e-02 1.000000000000000021e-02 1.000000000000000021e-02 1.000000000000000021e-02 1.000000000000000021e-02 1.000000000000000021e-02 1.000000000000000021e-02 1.000000000000000021e-02 1.000000000000000021e-02 1.000000000000000021e-02 1.000000000000000021e-02 1.000000000000000021e-02 1.000000000000000021e-02 1.000000000000000021e-02 1.000000000000000021e-02 1.000000000000000021e-02 1.000000000000000021e-02 1.000000000000000021e-02 1.000000000000000021e-02 1.000000000000000021e-02 1.000000000000000021e-02 1.000000000000000021e-02 1.000000000000000021e-02 1.000000000000000021e-02 1.000000000000000021e-02 1.000000000000000021e-02 1.000000000000000021e-02 1.000000000000000021e-02 1.000000000000000021e-02 1.000000000000000021e-02 1.000000000000000021e-02 1.000000000000000021e-02 1.000000000000000021e-02 1.000000000000000021e-02 1.000000000000000021e-02 1.000000000000000021e-02 1.000000000000000021e-02 1.000000000000000021e-02 1.000000000000000021e-02 1.000000000000000021e-02 1.000000000000000021e-02 1.000000000000000021e-02 1.000000000000000021e-02 1.000000000000000021e-02 1.000000000000000021e-02 1.000000000000000021e-02 1.000000000000000021e-02 1.000000000000000021e-02 1.000000000000000021e-02 1.000000000000000021e-02 1.000000000000000021e-02 1.000000000000000021e-02 1.000000000000000021e-02 1.000000000000000021e-02 1.000000000000000021e-02 1.000000000000000021e-02 1.000000000000000021e-02 1.000000000000000021e-02 1.000000000000000021e-02 1.000000000000000021e-02 1.000000000000000021e-02 1.000000000000000021e-02 1.000000000000000021e-02 1.000000000000000021e-02 1.000000000000000021e-02 1.000000000000000021e-02 1.000000000000000021e-02 1.000000000000000021e-02 1.000000000000000021e-02 1.000000000000000021e-02 1.000000000000000021e-02 1.000000000000000021e-02 1.000000000000000021e-02 1.000000000000000021e-02 1.000000000000000021e-02 1.000000000000000021e-02 1.000000000000000021e-02 1.000000000000000021e-02 1.000000000000000021e-02 1.000000000000000021e-02 1.000000000000000021e-02 1.000000000000000021e-02 1.000000000000000021e-02 1.000000000000000021e-02 1.000000000000000021e-02 1.000000000000000021e-02 1.000000000000000021e-02 1.000000000000000021e-02 1.000000000000000021e-02 1.000000000000000021e-02 1.000000000000000021e-02 1.000000000000000021e-02 1.000000000000000021e-02 1.000000000000000021e-02 1.000000000000000021e-02 1.000000000000000021e-02 1.000000000000000021e-02 1.000000000000000021e-02 1.000000000000000021e-02 1.000000000000000021e-02 1.000000000000000021e-02 1.000000000000000021e-02 1.000000000000000021e-02 1.000000000000000021e-02 1.000000000000000021e-02 1.000000000000000021e-02 1.000000000000000021e-02 1.000000000000000021e-02 1.000000000000000021e-02 1.000000000000000021e-02 1.000000000000000021e-02 1.000000000000000021e-02 1.000000000000000021e-02 1.000000000000000021e-02 1.000000000000000021e-02 1.000000000000000021e-02 1.000000000000000021e-02 1.000000000000000021e-02 1.000000000000000021e-02 1.000000000000000021e-02 1.000000000000000021e-02 1.000000000000000021e-02 1.000000000000000021e-02 1.000000000000000021e-02 1.000000000000000021e-02 1.000000000000000021e-02 1.000000000000000021e-02 1.000000000000000021e-02 1.000000000000000021e-02 1.000000000000000021e-02 1.000000000000000021e-02 1.000000000000000021e-02 1.000000000000000021e-02 1.000000000000000021e-02 1.000000000000000021e-02 1.000000000000000021e-02 1.000000000000000021e-02 1.000000000000000021e-02 1.000000000000000021e-02 1.000000000000000021e-02 1.000000000000000021e-02 1.000000000000000021e-02 1.000000000000000021e-02 1.000000000000000021e-02 1.000000000000000021e-02 1.000000000000000021e-02 1.000000000000000021e-02 1.000000000000000021e-02 1.000000000000000021e-02 1.000000000000000021e-02 1.000000000000000021e-02 1.000000000000000021e-02 1.000000000000000021e-02 1.000000000000000021e-02 1.000000000000000021e-02 1.000000000000000021e-02 1.000000000000000021e-02 1.000000000000000021e-02 1.000000000000000021e-02 1.000000000000000021e-02 1.000000000000000021e-02 1.000000000000000021e-02 1.000000000000000021e-02 1.000000000000000021e-02 1.000000000000000021e-02 1.000000000000000021e-02 1.000000000000000021e-02 1.000000000000000021e-02 1.000000000000000021e-02 1.000000000000000021e-02 1.000000000000000021e-02 1.000000000000000021e-02 1.000000000000000021e-02 1.000000000000000021e-02 1.000000000000000021e-02 1.000000000000000021e-02 1.000000000000000021e-02 1.000000000000000021e-02 1.000000000000000021e-02 1.000000000000000021e-02 1.000000000000000021e-02 1.000000000000000021e-02 1.000000000000000021e-02 1.000000000000000021e-02 1.000000000000000021e-02 1.000000000000000021e-02 1.000000000000000021e-02 1.000000000000000021e-02 1.000000000000000021e-02 1.000000000000000021e-02 1.000000000000000021e-02 1.000000000000000021e-02 1.000000000000000021e-02 1.000000000000000021e-02 1.000000000000000021e-02 1.000000000000000021e-02 1.000000000000000021e-02 1.000000000000000021e-02 1.000000000000000021e-02 1.000000000000000021e-02 1.000000000000000021e-02 1.000000000000000021e-02 1.000000000000000021e-02 1.000000000000000021e-02 1.000000000000000021e-02 1.000000000000000021e-02 1.000000000000000021e-02 1.000000000000000021e-02 1.000000000000000021e-02 1.000000000000000021e-02 1.000000000000000021e-02 1.000000000000000021e-02 1.000000000000000021e-02 1.000000000000000021e-02 1.000000000000000021e-02 1.000000000000000021e-02 1.000000000000000021e-02 1.000000000000000021e-02 1.000000000000000021e-02 1.000000000000000021e-02 1.000000000000000021e-02 1.000000000000000021e-02 1.000000000000000021e-02 1.000000000000000021e-02 1.000000000000000021e-02 1.000000000000000021e-02 1.000000000000000021e-02 1.000000000000000021e-02 1.000000000000000021e-02 1.000000000000000021e-02 1.000000000000000021e-02 1.000000000000000021e-02 1.000000000000000021e-02 1.000000000000000021e-02 1.000000000000000021e-02 1.000000000000000021e-02 1.000000000000000021e-02 1.000000000000000021e-02 1.000000000000000021e-02 1.000000000000000021e-02 1.000000000000000021e-02 1.000000000000000021e-02 1.000000000000000021e-02 1.000000000000000021e-02 1.000000000000000021e-02 1.000000000000000021e-02 1.000000000000000021e-02 1.000000000000000021e-02 1.000000000000000021e-02 1.000000000000000021e-02 1.000000000000000021e-02 1.000000000000000021e-02 1.000000000000000021e-02 1.000000000000000021e-02 1.000000000000000021e-02 1.000000000000000021e-02 1.000000000000000021e-02 1.000000000000000021e-02 1.000000000000000021e-02 1.000000000000000021e-02 1.000000000000000021e-02 1.000000000000000021e-02 1.000000000000000021e-02 1.000000000000000021e-02 1.000000000000000021e-02 1.000000000000000021e-02 1.000000000000000021e-02 1.000000000000000021e-02 1.000000000000000021e-02 1.000000000000000021e-02 1.000000000000000021e-02 1.000000000000000021e-02 1.000000000000000021e-02 1.000000000000000021e-02 1.000000000000000021e-02 1.000000000000000021e-02 1.000000000000000021e-02 1.000000000000000021e-02 1.000000000000000021e-02 1.000000000000000021e-02 1.000000000000000021e-02 1.000000000000000021e-02 1.000000000000000021e-02 1.000000000000000021e-02 1.000000000000000021e-02 1.000000000000000021e-02 1.000000000000000021e-02 1.000000000000000021e-02 1.000000000000000021e-02 1.000000000000000021e-02 1.000000000000000021e-02 1.000000000000000021e-02 1.000000000000000021e-02 1.000000000000000021e-02 1.000000000000000021e-02 1.000000000000000021e-02 1.000000000000000021e-02 1.000000000000000021e-02 1.000000000000000021e-02 1.000000000000000021e-02 1.000000000000000021e-02 1.000000000000000021e-02 1.000000000000000021e-02 1.000000000000000021e-02 1.000000000000000021e-02 1.000000000000000021e-02 1.000000000000000021e-02 1.000000000000000021e-02 1.000000000000000021e-02 1.000000000000000021e-02 1.000000000000000021e-02 1.000000000000000021e-02 1.000000000000000021e-02 1.000000000000000021e-02 1.000000000000000021e-02 1.000000000000000021e-02 1.000000000000000021e-02 1.000000000000000021e-02 1.000000000000000021e-02 1.000000000000000021e-02 1.000000000000000021e-02 1.000000000000000021e-02 1.000000000000000021e-02 1.000000000000000021e-02 1.000000000000000021e-02 1.000000000000000021e-02 1.000000000000000021e-02 1.000000000000000021e-02 1.000000000000000021e-02 1.000000000000000021e-02 1.000000000000000021e-02 1.000000000000000021e-02 1.000000000000000021e-02 1.000000000000000021e-02 1.000000000000000021e-02 1.000000000000000021e-02 1.000000000000000021e-02 1.000000000000000021e-02 1.000000000000000021e-02 1.000000000000000021e-02 1.000000000000000021e-02 1.000000000000000021e-02 1.000000000000000021e-02 1.000000000000000021e-02 1.000000000000000021e-02 1.000000000000000021e-02 1.000000000000000021e-02 1.000000000000000021e-02 1.000000000000000021e-02 1.000000000000000021e-02 1.000000000000000021e-02 1.000000000000000021e-02 1.000000000000000021e-02 1.000000000000000021e-02 1.000000000000000021e-02 1.000000000000000021e-02 1.000000000000000021e-02 1.000000000000000021e-02 1.000000000000000021e-02 1.000000000000000021e-02 1.000000000000000021e-02 1.000000000000000021e-02 1.000000000000000021e-02 1.000000000000000021e-02 1.000000000000000021e-02 1.000000000000000021e-02 1.000000000000000021e-02 1.000000000000000021e-02 1.000000000000000021e-02 1.000000000000000021e-02 1.000000000000000021e-02 1.000000000000000021e-02 1.000000000000000021e-02 1.000000000000000021e-02 1.000000000000000021e-02 1.000000000000000021e-02 1.000000000000000021e-02 1.000000000000000021e-02 1.000000000000000021e-02 1.000000000000000021e-02 1.000000000000000021e-02 1.000000000000000021e-02 1.000000000000000021e-02 1.000000000000000021e-02 1.000000000000000021e-02 1.000000000000000021e-02 1.000000000000000021e-02 1.000000000000000021e-02 1.000000000000000021e-02 1.000000000000000021e-02 1.000000000000000021e-02 1.000000000000000021e-02 1.000000000000000021e-02 1.000000000000000021e-02 1.000000000000000021e-02 1.000000000000000021e-02 1.000000000000000021e-02 1.000000000000000021e-02 1.000000000000000021e-02 1.000000000000000021e-02 1.000000000000000021e-02 1.000000000000000021e-02 1.000000000000000021e-02 1.000000000000000021e-02 1.000000000000000021e-02 1.000000000000000021e-02 1.000000000000000021e-02 1.000000000000000021e-02 1.000000000000000021e-02 1.000000000000000021e-02 1.000000000000000021e-02 1.000000000000000021e-02 1.000000000000000021e-02 1.000000000000000021e-02 1.000000000000000021e-02 1.000000000000000021e-02 1.000000000000000021e-02 1.000000000000000021e-02 1.000000000000000021e-02 1.000000000000000021e-02 1.000000000000000021e-02 1.000000000000000021e-02 1.000000000000000021e-02 1.000000000000000021e-02 1.000000000000000021e-02 1.000000000000000021e-02 1.000000000000000021e-02 1.000000000000000021e-02 1.000000000000000021e-02 1.000000000000000021e-02 1.000000000000000021e-02 1.000000000000000021e-02 1.000000000000000021e-02 1.000000000000000021e-02 1.000000000000000021e-02 1.000000000000000021e-02 1.000000000000000021e-02 1.000000000000000021e-02 1.000000000000000021e-02 1.000000000000000021e-02 1.000000000000000021e-02 1.000000000000000021e-02 1.000000000000000021e-02 1.000000000000000021e-02 1.000000000000000021e-02 1.000000000000000021e-02 1.000000000000000021e-02 1.000000000000000021e-02 1.000000000000000021e-02 1.000000000000000021e-02 1.000000000000000021e-02 1.000000000000000021e-02 1.000000000000000021e-02 1.000000000000000021e-02 1.000000000000000021e-02 1.000000000000000021e-02 1.000000000000000021e-02 1.000000000000000021e-02 1.000000000000000021e-02 1.000000000000000021e-02 1.000000000000000021e-02 1.000000000000000021e-02 1.000000000000000021e-02 1.000000000000000021e-02 1.000000000000000021e-02 1.000000000000000021e-02 1.000000000000000021e-02 1.000000000000000021e-02 1.000000000000000021e-02 1.000000000000000021e-02 1.000000000000000021e-02 1.000000000000000021e-02 1.000000000000000021e-02 1.000000000000000021e-02 1.000000000000000021e-02 1.000000000000000021e-02 1.000000000000000021e-02 1.000000000000000021e-02 1.000000000000000021e-02 1.000000000000000021e-02 1.000000000000000021e-02 1.000000000000000021e-02 1.000000000000000021e-02 1.000000000000000021e-02 1.000000000000000021e-02 1.000000000000000021e-02 1.000000000000000021e-02 1.000000000000000021e-02 1.000000000000000021e-02 1.000000000000000021e-02 1.000000000000000021e-02 1.000000000000000021e-02 1.000000000000000021e-02 1.000000000000000021e-02 1.000000000000000021e-02 1.000000000000000021e-02 1.000000000000000021e-02 1.000000000000000021e-02 1.000000000000000021e-02 1.000000000000000021e-02 1.000000000000000021e-02 1.000000000000000021e-02 1.000000000000000021e-02 1.000000000000000021e-02 1.000000000000000021e-02 1.000000000000000021e-02 1.000000000000000021e-02 1.000000000000000021e-02 1.000000000000000021e-02 1.000000000000000021e-02 1.000000000000000021e-02 1.000000000000000021e-02 1.000000000000000021e-02 1.000000000000000021e-02 1.000000000000000021e-02 1.000000000000000021e-02 1.000000000000000021e-02 1.000000000000000021e-02 1.000000000000000021e-02 1.000000000000000021e-02 1.000000000000000021e-02 1.000000000000000021e-02 1.000000000000000021e-02 1.000000000000000021e-02 1.000000000000000021e-02 1.000000000000000021e-02 1.000000000000000021e-02 1.000000000000000021e-02 1.000000000000000021e-02 1.000000000000000021e-02 1.000000000000000021e-02 1.000000000000000021e-02 1.000000000000000021e-02 1.000000000000000021e-02 1.000000000000000021e-02 1.000000000000000021e-02 1.000000000000000021e-02 1.000000000000000021e-02 1.000000000000000021e-02 1.000000000000000021e-02 1.000000000000000021e-02
-1.081227869833148958e+02 1.644579596179544012e+02 3.809388547965154714e+01 -8.555669135552106397e+00 -8.517637879841478821e+01 -1.297743876737335356e+01 -2.015767809406668221e+02 6.854300016087948588e-01 -8.210149750373346933e+01 -1.371389391603240782e+01 -1.924178465071052813e+01 6.348032082929278452e+00 -1.728228767518356523e+00 1.626538276836733985e+02 8.203930512873064629e+01 -3.763139058772582501e+01 -5.122596164333620550e+01 7.679474260884721559e+01 3.182800901734193388e+01 -2.460817215719697515e+01 -7.642338902479349372e+01 -7.153028183112620297e+01 -1.337026387685021689e+01 2.804919354770347795e+01 -1.889540247729871396e+02 -9.569556787589337432e+01 -2.529749535650640624e+01 1.954529284100010216e+02 6.860079782902121792e+01 7.441452634031372781e+01 7.785052020992013411e+01 1.144175420464942361e+00 -7.689956428057952564e+01 2.011695530457597840e+02 -2.374273237794544116e+02 5.708626413436748237e+01 -1.164310947380197376e+02 -3.363427588847279281e+01 3.915407212522613811e+00 1.228531182267743986e+02 -1.191388318923412442e+02 -1.320699680912256291e+01 7.497491516159836067e+01 1.683251171855316386e+02 6.915523329711238887e+01 -6.629022036961055164e+01 3.991812200716812953e+01 -2.753406164945359791e+01 -6.405112342629821853e+01 1.518134305558897381e+02 -6.834767328938166031e+01 -5.050402882543684768e+01 -1.351424848953585638e+02 5.641546822208250767e+00 -4.897949349304389699e+01 3.750268486831653547e+01 -8.603384459865550582e+01 -4.852591677474205056e+01 -9.832691426166519477e+01 -1.507354010880923454e+02 1.882828206254294656e+01 4.402513510910470274e+01 -1.193944189777268861e+02 1.245930989475475137e+01 -7.685423905173250603e+01 4.763430582810763525e+01 1.616225674952593749e+02 -1.399041699616360290e+02 -4.197939757968110541e+01 7.002165668610257576e+00 2.850849295528589789e+00 4.110779025478031201e+01 8.143716312582895966e+01 7.779921593741518926e-01 -8.568040060800580449e+00 -6.788719775715146909e+01 7.587549576693707820e+01 -3.172906149585302771e+01 2.551274893091066076e+01 1.008776839760961366e+02 8.552494728935552359e+01 -4.147754747069712522e+01 5.600889492379318568e+01 1.429656031810625336e+02 1.127017406818025904e+02 -3.874146728294309394e+00 1.689127899581184522e+02 -1.081558531783932438e+02 4.041576353447236869e+00 -4.067030678308152147e+01 2.005585942647092565e+02 -2.058161236239360647e+01 2.812901130917126125e+00 -7.446121363916489599e+01 -6.934767133194090327e+00 -6.188445622715641292e+01 6.573738816936305795e+01 -9.170159956069575458e+01 6.655983665583944742e+01 -4.632705775561204575e+01 -4.824022968922747623e+01 -8.889660469806113952e+01 5.145484346166659861e+01 -5.302613005771384991e+01 -1.448117597636785945e+02 -7.704722270480412760e+01 -1.014394923182607187e+02 -1.524712319041573778e+02 1.318131976673897725e+02 -2.661615194034118659e+01 3.107658321745646646e+01 8.695464510078065246e+01 -1.008907047945303788e+02 5.522334491278429880e+01 -4.200541581883812370e+01 -6.731013853186726692e+01 -8.741186920117895909e+01 1.970579261194878598e+02 -5.502103605266270137e+01 -4.802520251890194913e+01 -4.573933024717668872e+01 7.796268184618145369e+01 -4.017104959217520133e+01 1.337864311038948983e+02 -4.842174639847434037e+01 5.347084894258978949e+01 4.406002740664996864e+00 -7.862857796760408746e+01 6.669932414153331024e+01 2.690213906596834477e+02 -8.929008861919490414e+01 4.603627163404675571e+01 -7.397946262173715581e+01 4.388257052450411067e+01 1.272580112688401073e+02 -4.988611190069870105e+01 1.418108220959970822e+01 -2.614063615864877832e+01 -9.890589651915124136e+01 -1.683859470875071906e+01 4.181185628151927069e+00 -7.574793694631166474e+00 -1.449219789639553824e+01 1.146673656699887260e+02 1.265145315000768704e+02 1.809375575857721117e+02 -2.953411326543649693e+02 3.706843876734125587e+01 -1.530995942972134216e+01 -6.049751407197729947e+01 1.750368694793883719e+02 7.390034918777307382e+01 -2.543942895819597982e+00 -1.125331165477312965e+02 -1.055670011450117762e+01 9.716819438968056488e+01 -1.304362624843659830e+02 -1.636918814893510046e+02 1.042524184818847743e+01 4.118198528345211429e+01 -5.926805850844332468e+01 4.082366314804173868e+01 -1.039798696991493330e+02 -1.469349362698918355e+02 2.047794886522953561e+01 4.718054796223299974e+01 4.687827363227303756e+00 -8.104603676435961290e+01 -9.091246888800965564e+01 -8.187692093015373018e+01 -8.507100326873819540e+01 1.230864082748386146e+01 5.521707886718729696e+01 1.132513268268463378e+02 7.719968202677347335e+01 8.703536941261663173e+01 1.045218803087699229e+02 -7.272215433299056997e+01 -8.024179255195255678e+01 6.860040029716904542e+01 6.669996350374269412e+01 5.763231625658205104e+01 -9.129218877982292923e+00 -8.864725851685778935e+01 5.256875218154222296e+01 -1.743918795228854890e+02 6.543388624915328933e+01 -4.335708692870028358e+01 -9.394306158566752174e+01 7.231706207701851952e+01 -1.673184178964834601e+01 -7.515774110689909548e+01 -5.600026289282507719e+01 -8.947322717670811443e+00 2.367475469950305751e+02 7.506171088190360763e+01 5.352166457172713621e+01 -1.013733371884051593e+02 1.447604782398138354e+02 1.046925107412795208e+00 -8.825151550398381062e+01 1.522271858041790722e+02 -1.505965478728590483e+02 1.541953650673711707e+01 -3.177902110439117678e+01 -2.171897718576980196e+02 -1.317634950486439038e+02 -8.618595199349715585e+01 -2.904225104687996151e+01 -1.177906446483631413e+02 5.695336053090535700e+01 6.423065520681122109e+01 -2.727824292806781514e+01 -9.860263571709103303e+01 1.117548359473646968e+02 1.167694780784361797e+02 4.566575288465661941e+01 1.730395177070019130e+01 2.584051235075515933e+02 4.315156252503494727e+01 -1.181601113866171318e+02 -4.457883109280204792e+01 -1.669403075705312460e+02 3.152036884186543020e+01 1.515953859679621871e+02 -1.466645522262579107e+02 1.303061765299478054e+02 -8.998609660548885358e+01 -1.873444585375571592e+01 -8.016454744594939674e-01 5.232327337959843305e+01 -1.145067219034046957e+01 -2.258858952532086661e+01 -1.861878374162189331e+01 -1.254703520134238630e+02 4.591932400167628003e+01 -3.002692938261001743e+01 -1.278941013141943550e+01 -1.061500725181509530e+01 2.237084643304847305e+02 1.725256435628725171e+02 2.303199169103301358e+02 1.304956354649060870e+02 -8.572066302707509067e+01 7.441365091335258342e+01 2.094174013714095750e+01 4.705553331853930388e+01 -3.927804203429528940e+01 2.529211136197474161e+02 -2.309440198113323817e+01 -1.354165531072181921e+02 -1.479609211103522348e+01 -4.540358095959467732e+01 -7.663662028327061648e+01 4.274178320375823148e+01 -1.160037447561432877e+01 1.801857582361218135e+02 9.145986207352233066e+01 4.048897993503851467e+01 9.706054808268370948e+01 9.373856457434048650e+01 -2.277050105885485820e+01 1.383301095260604541e+02 2.628743841086903643e+01 8.878323362117885154e+01 4.725036117368131983e+01 6.859965434210535840e+00 -1.146886875222229207e+02 -1.148129732646456347e+02 -8.922421063857701995e+01 -1.542163675846939164e+01 8.591313772114780534e+01 -3.034671202879888696e+01 9.799010999204810446e+01 4.343067733932901575e+01 -7.206710164248691797e+01 -2.967213997621141885e+01 -5.805624173525533394e+01 1.741123468080262882e+01 -4.587433571728292492e+01 -1.110338329767923113e+02 1.204119609594838209e+02 1.202558369054873850e+02 -7.826788121263030007e+01 5.347557552840721762e+00 -4.492233634645922535e+01 -3.226687307297676455e+01 -1.123917133384214395e+01 -3.096335007287207119e+01 4.409819782506734498e+01 -1.393089422342438013e+02 -5.238039650776214984e+01 -1.504561515537286027e+02 1.724974150129827990e+02 -1.999093652910315910e+01 5.834492052619356883e+01 1.179150240554836593e+01 1.429890761140014206e+02 4.416632685994390073e+01 3.534439884630747741e+01 1.528408500257511093e+02 -4.876497462757772894e+01 -9.664279463381357971e+01 2.694178222750443297e+01 -1.563792682170021351e+02 -5.285291779466500373e+01 1.012608468281017338e+02 -1.262062865438963684e+02 -3.596923024947830072e+01 9.030346779935156576e+01 -9.341611041522793357e+01 -8.848084885220735885e+01 -8.172543869708187003e+01 -6.307719270533745970e+01 2.463374086690709248e+02 1.959894317488367790e+02 1.018132745669332309e+02 -1.010393257458797507e+02 7.398125656419888685e+01 -6.545305984611638905e+01 -3.105798096468388536e+01 1.642475510813207862e+01 -3.189491854707102192e+01 -9.261392732364652147e+01 -2.775498620095928182e+00 1.457084114464143987e+01 1.074726748959625553e+02 -1.268992957715568792e+02 4.144736056714091887e+01 6.296179020691470640e+01 3.406477418892481523e+01 -8.944250539514121101e+01 -1.465911944973167920e+02 1.905867624233315780e+02 -1.756294902442269290e+01 2.484678312393791799e+01 1.544543455373811298e+02 2.629332280708843328e+01 2.734297104382902077e+01 -4.392479836430933204e+01 8.735864245455788080e+01 -1.343844992560902654e+02 -3.035199483941007514e+01 -6.049429558091722114e+00 -5.261081923551001438e+01 6.214475968911410853e+00 2.093663459898000667e+01 -3.525753956855538718e+01 1.346226271133584262e+01 2.105179496732539803e+02 -2.699065457792758593e+01 -2.758471904512997597e+01 -1.001132763714463323e+02 -1.609784428549324353e+00 -7.949950914101690103e+01 6.275128434367412744e+00 1.103591408842125077e+02 -5.121326020051708383e+01 5.947041965704078059e+00 -5.345748577433946025e+01 3.260743418127292959e+00 8.582529215025572000e+01 -1.140274202217451460e+02 -9.531754938847639380e+01 -1.009682322613189456e+02 7.021845345313474240e+01 8.518592360276808506e+01 -9.076383064241595378e+01 6.165241411294402951e+01 2.542879138059858235e+01 3.807189270757049115e+01 -1.745865008859352585e+01 8.990158719255340714e+01 7.841954431885814358e+01 -7.601109920139150233e+01 1.160380509563657192e+01 7.957164047222495640e+01 7.166725332311932561e+01 -1.959070039169570521e+01 2.455867356907631205e+01 -1.304569871781036170e+02 4.775730207802806859e+01 -3.225240533751765781e+01 -3.215872058695607194e+01 1.703813487528426265e+02 4.664850382018438779e+01 1.182493537522908724e+02 1.878804761087900488e+02 -1.354417596050041368e+02 1.466807817526459985e+02 -6.242512501355113841e+01 -1.329547838181390773e+02 8.097781705693984122e+01 -1.318715482000839074e+02 -2.824942200531300429e+01 5.548075525553079501e+01 7.914463913307463905e+00 -1.654488591237804371e+02 8.290327424717118276e+01 2.482973087620292674e+01 6.796358323826969183e+01 3.571857967973054571e+01 9.311610380800319220e+00 -6.602258236949515435e+01 1.138218227034884933e+02 5.360747624814484880e+01 -6.110476561526620998e+01 -9.959582317939600671e+01 3.827443295112302479e+01 2.531209568667270560e+01 8.106419229480933097e+01 1.808078442911159982e+02 -2.421375034342917232e+01 -1.083659186255158318e+02 -8.329577117526802965e+01 -5.047875215410581262e+01 -4.360063942700315920e+01 -1.443208731439669350e+02 -2.215915503624322724e+01 1.274098362031066074e+02 7.330759638113431720e+01 -1.203640051707541545e+02 -1.474753543401014610e+02 -6.696401687407252723e+01 -7.505899724323549549e+01 1.444143786610959523e+02 -1.676728464308124842e+02 8.515103688056225906e+01 -4.531119322907097846e+00 -4.233251885908858725e+01 1.306815103030509739e+01 8.964179663764795691e+01 4.873611360444291307e+01 1.359294618829676722e+02 -1.565201216480948005e+02 -7.963529840792841696e+01 2.495846590213973215e+01 4.123550472921662902e+01 2.027096893561274271e+02 1.430649071789480899e+02 6.446843624871222289e+01 7.091212403288497512e+01 -3.349557386265855286e+01 1.492845439022495668e+02 -1.764080648839019148e+02 -6.237779834448741667e+01 -5.279111069839533599e+01 -5.093404682440496600e+01 -1.015424835095779201e+02 -1.474863419115271590e+01 -6.749095065188348030e+01 6.997846367097886855e+01 -8.990169522415031977e+00 -5.708989828654081577e+01 -6.118879391078242236e+01 1.771869055334696839e+02 5.805932764030703197e+01 -1.350902074521971663e+01 2.054068046260521498e+02 -1.065479872352682236e+02 -3.473572424243459267e+01 6.584605943800731609e+01 -1.351679231193948505e-01 1.472685192263246812e+01 -1.230293347007606002e+02 1.732362777567129513e+02 -4.812464630513701991e+01 -2.644547462078566369e+01 -1.078352700937081607e+02 1.237007660599336134e+02 9.419949886830100638e+01 -7.617202321973252310e+01 -3.697730478010552702e+01 3.828961204722272527e+01 -1.487448018329174602e+02 -1.900780743316706212e-01 -7.339382080866097624e+01 7.548843984466265589e+00 -1.061855859886796480e+02 -1.557231468705188320e+02 -6.943032487620253335e+01 1.455378536985110713e+02 5.553129647031609295e+01 -8.802516134448400464e+01 8.754433796676235602e+01 3.358767689137908974e+01 8.673938576221537744e+01 -4.134782227105030472e+01 -8.252377379544262226e+01 1.678762813445360678e+02 4.085911143919397404e+01 2.840528582940130420e+01 -7.161791507764446862e+01 -4.151700934774115836e+01 9.336293296735156844e+00 -7.037692162951598718e+00 -1.695509476648397253e+02 -3.395940032280853416e+01 6.316963245371236724e+01 1.094302172382724194e+02 1.527207931415635755e+02 -1.302806023859514895e+01 8.786963293290709487e+01 1.546395140473026117e+02 6.215357109258162183e+01 1.447470721122757595e+02 1.574435698868776612e+01 1.286608673219965340e+02 -8.223734592633135776e+01 5.224266569277203587e+01 2.869930720627380083e+01 7.427112741727417244e+01 -1.039762517670810666e+02 1.938566447363623411e+02 -1.259420521826926205e+02 8.641578918889253202e+01 -1.050369029943395418e+02 4.515411559939938968e+01 1.350287875598325549e+01 8.866780809464907520e+01 -7.199275367283729565e+01 -7.379986054975043430e+01 -1.088251387598699260e+01 8.704553604506165243e+01 -2.890749461295622069e+01 -1.591780112017833204e+01 -1.917067232435563540e+01 4.623514870696673107e+00 9.577947478522615654e+01 -6.102705571662183814e+01 -2.638433521923087000e+00 -1.889332098339152992e+02 1.188302735406866333e+02 -1.215611410341879264e+02 -7.190139475817551329e+01 -2.289644715875790837e+01 -1.050710027421006032e+02 -5.172885162728068309e+01 -5.702296792580640528e+01 -1.916639458832518983e+01 1.325820739551828638e+02 5.261144710337033104e+01 9.771924761615444766e+01 -1.324430788710911031e+02 -1.348471141621265303e+02 -2.789700645780873742e+02 9.944355278198952419e+01 1.014273259428625380e+02 4.118433664284233231e+01 -4.133054280899128230e+01 -3.617131027183796022e+01 -1.787420990495174067e+02 1.421658015636816685e+02 -1.045244408285883821e+02 1.040917262222103261e+02 -1.549187480057386779e+02 -1.393616523987228639e+01 -5.389263343471885293e+01 -1.160676282507305359e+02 -4.487112697533772376e+01 -1.220645428870349392e+01 -9.019988540815241151e+01 -1.007002762852340112e+02 -1.203124902499792093e+01 6.928519994242833491e+01 -1.212879014155441411e+02 -1.523205058586017202e+01 -7.178543882735806392e+01 -1.279135219096817053e+02 6.423748270623489631e+00 9.257659359432840063e+01 1.611573305297119418e+02 -1.855351211263901590e+01 -4.483322819668384795e+01 -1.209099518917749805e+02 -1.593445752190937696e+02 1.010916743228819143e+02 -7.084100959934706054e+01 7.693465066349786241e+01 9.154179483863682520e+00 2.845793604884034167e+01 7.193418123216210347e+01 -8.258026497584319259e+01 8.056096769985170170e+01 1.123280850720482533e+02 1.534750565691637689e+02 -1.135486019152655928e+02 1.013098874531866045e+02 -4.657050477866530258e+01 -8.849357347744515323e+01 2.091529267093889644e+02 4.796355666415173857e+01 8.135336733578552071e+01 2.067770069661273169e+01 -6.166989712362030218e+01 -3.404917255000545850e+01 -2.050582968230451684e+02 1.029645103021152153e+02 7.942072533753552932e+01 -7.377959180311135867e+01 -7.126241174711266524e+01 1.415106645164166821e+02 9.850522071232752808e+01 4.982577349814535950e+01 7.413866247216539307e+01 -7.652223997789289633e+00 1.005766245341261538e+02 -1.009590967652911218e+02 1.816332869504427094e+02 -3.848346602680896922e+01 -1.189187904921239323e+02 -3.675264603780753703e+01 6.992483344249700394e+01 1.436010504472614002e+02 1.252910390943788421e+01 1.694232657802987774e+02 5.086489065750959071e+01 3.278419490176146667e+01 -1.084884322563301851e+02 4.364837597949014025e+01 -1.218266717914170130e+02 4.650905473463874529e+01 3.760432846507989524e+01 -1.202555551394425351e+02 -8.288748638436729266e+01 3.885015853459760393e+01 8.504355206857864502e+00 -2.262229618574468759e+01 4.082458377100022062e+01 -2.086119108911724851e+01 -6.149286720472711210e+01 -2.556751342511505243e+01 -2.185344662660141068e+01 -3.881182184364504195e+01 1.828945400909564967e+01 -7.849168957644967293e+01 1.159306248704319415e+02 -7.239717136897368732e+01 -4.103622182706279986e+00 6.395571379865135242e+01 3.777630623607209692e+00 1.556015384595675144e+01 1.556587714421300284e+01 -1.141464679716495993e+02 -4.295785178085178124e+00 6.339590219902665069e+01 -2.255567162680392812e+02 -8.273373214274052145e+01 -1.098327475925500636e+02 4.268696300126908483e+01 9.376871495875525397e+01 -8.943340059193475611e+01 -1.636141562474708451e+02 -1.804755740107071915e+02 1.944730683771433633e+01 -1.412151176941377457e+02 -6.165218725758828455e+00 1.437730716990122914e+02 -6.889387392326488779e+00 3.614491210969113411e+01 -9.621224641333934358e+01 7.765902910426277117e+01 -1.152301811928236646e+02 -1.499737797529549965e+01 -2.941764561564788494e+01 5.593495833639318704e+01 -8.583823866967547289e+00 1.025751526232758977e+02 -1.184753221043842473e+02 -4.859186844497275359e+01 8.405118625107537866e+01 6.414659357445989940e+01 -7.980510581410759130e+01 -5.274346796812805138e+01 -4.785454119990590272e+01 -2.803690497595407578e+02 1.874505205235322194e+02 7.366186651314876599e+01 -2.281891032890914772e+01 -2.871979828884501984e+01 4.018986734395992499e+01 -8.136977024664216174e+01 9.624751583469891614e+01 5.849325247559264085e+01 7.921039619952129840e+01 -8.129052969441426058e+01 -2.561435771851691001e+01 3.219555242074698498e+01 1.679443417066146793e+01 -4.139892412276830669e+01 1.526042002662264281e+02 -1.669284232712959692e+01 3.420452080201200573e+01 -2.220039849241743752e+02 -8.175387914558550051e+01 -7.062508096870666918e+01 2.223398944692078771e+01 1.054098797719118181e+02 -2.237466923992832619e+02 -1.805734139393447037e+02 2.139572255277639670e+02 -1.019875317135239357e+01 9.271296296605278542e+01 6.047210982044303051e+01 -5.342069026721814851e+01 -1.264513988775041184e+02 -9.185614498809061956e+01 -4.850372206537396380e+01 -3.611237584095514563e+01 -3.780106796810272840e+01 1.557422356356512694e+01 3.591434182069429681e+01 1.610677806752618721e+02 1.189688842837132370e+02 6.746254371568472408e+00 -4.255128503222240788e+00 -1.532319374452542888e+02 1.154958915843520089e+02 1.537644615551867275e+02 -9.986659838941672263e+01 7.116070947071077057e+01 1.641794073379397201e+00 5.302862011656708319e+01 1.210253508967408607e+02 6.847938453321070540e+01 -1.293996729016990912e+02 1.555917309410155802e+01 -2.836986614650945171e+01 1.075988515757205022e+01 -2.230523400329144934e+01 4.377160545656355595e+01 -2.516786985893445774e+02 1.749587749767458718e+02 7.017382881522182814e+00 1.539831395956940128e+02 -1.016560242643284440e+01 1.025691430842442458e+02 6.921777253892756221e+01 -4.056430046533282052e+01 2.894610738374323589e+01 -7.041014251614156194e+01 -8.605720377944729194e+01 -6.967277321941021739e+01 -3.100577105893867369e+01 4.369026952485105397e+01 1.065674074743564574e+02 2.754257611292054975e+01 6.015488358865576402e+01 -1.014529357425130200e+02 -1.327309668250579193e+02 -1.305139471911395077e+01 4.489783263514622291e+01 -4.399573551412021288e+01 9.158653784299004030e+01 5.378583759141746157e+01 -2.676507994436405724e+01 2.899748446163578564e+01 5.945956036677377199e+01 -6.982717161187541421e+01 -1.295240443629555784e+02 1.376127268986413981e+02 7.568644210713546094e+00 4.858180350161565286e+01 -1.447059827961072358e+02 -5.177049262957569198e+01 -4.233016925818731679e-01 -6.380244092851208393e+01 4.131834506831698839e+00 5.460374898650190545e+01 1.808636915869197139e+02 3.796537175382682250e+01 -1.063269850998036148e+01 7.011678246748483900e+01 -4.413008714669515342e+01 -1.057840677410688102e+02 -1.341518222774097069e+02 9.091205076931915485e+00 2.438648769653676496e+01 2.314776686018617369e+01 -5.525677626242678997e+01 1.173786018600969356e+02 -7.853767943196665158e+01 1.247085619851987417e+02 8.484369682399446333e+01 -6.322472859837625947e+01 -8.240662150009241316e+01 8.188773333782802410e+01 1.986206391688293138e+01 -5.108541944643956612e+01 -5.237070247583894655e+01 1.330448354692129271e+02 5.578894200867134145e+01 7.777841468411489245e+01 2.544931936715581600e+01 -4.093158548726069057e+01 1.045783791588063565e+02 -5.313546525709475077e+01 5.520741006373005577e-01 7.454490794225890227e+01 9.701575544665887207e+01 2.489439642420787493e+02 -1.707109699143466344e+02 1.568208934530305783e+02 -6.583723197232419011e+01 -1.484873032042133723e+01 -2.449037264683364157e+01 -2.021373417632898750e+01 -5.375296480132818289e+01 9.070913138646747598e+01 1.795537410374770957e+02 -1.159090387248954528e+02 3.019301111234238633e+01 -1.239022016739159966e+02 6.855255591305339635e+01 -4.344051806501524027e+01 -7.917760552489221482e+01 -5.269505100462311020e+01 4.028123594098840954e+01 1.894203939954215699e+01 -7.998377411261731140e+01 -1.380134359677559246e+02 2.032242145883056494e+01 1.543080642065892505e+02 1.399127340942543896e+01 1.787435458585095773e+02 7.305455910333938263e+00 1.319343837444108374e+02 -3.390392784979279384e+01 8.897841940216586920e+01 -7.005720893342061117e+01 -1.107495751682550207e+02 4.850312744909265206e+01 -5.692037679855376098e+01 -7.709058466673039334e+01 7.153635309225231254e+01 6.354982612483889071e+00 -9.260105210786107932e+01 -1.479488089997095699e+02 1.453794197856265100e+02 -8.766177118058145368e+01 -2.328715755705513590e+00 1.181149835304526619e+02 5.706713808326340853e+01 -9.663853640922786781e+01 1.048184260186853578e+01 2.776323749510676180e+02 5.247738964411227869e+01 -1.553194345147855699e+02 -4.701132606635684397e+01 -6.058516193977876441e+01 9.476513096813814485e+00 1.060114175474417806e+02 -1.020210112990277480e+02 2.128484239488895469e+01 1.286591404711612938e+02 1.851420056898057709e+01 -2.083875232177034036e+02 4.764312553319389565e+01 7.447116936173374313e+01 -1.341059390677082952e+01 3.235052467181731117e+01 1.668448506133543285e-01 2.225330440740466287e+01 2.736891155957437149e+01 1.143138779073706814e+02 9.676085434120057016e+01 1.541464127104304893e+01 1.470711449528348567e+02 -6.318500424506433433e+01 2.434423101800523455e+02 6.419685325259051467e+01 1.398978239383386324e+02 -2.168189296403054200e+01 8.892145556962081798e+01 -4.832015903526289691e+01 -1.445110273457287633e+02 2.583212747626544470e+01 9.379226019357211896e+01 -8.646290050853632181e+01 -1.034196914942645265e+02 -6.570110043093036722e+01 3.615458101341359765e+01 -1.127585058383689471e+02 7.376502736855857734e+01 2.769233656355838136e+01 -9.638999272849692090e+01 1.875421442094846327e+02 -1.161418157516488314e+01 -1.005016312949485240e+02 -1.324298652545129862e+01 -2.018129687960023944e+01 -1.384745513135484316e+02 -3.952305144187539554e+01 6.074779962296000235e+01 1.301577871019157158e+02 2.868099754620452657e+01 2.641332748017724441e+01 4.423255571066147951e+01 -3.527791481821049757e+01 -1.438134785051790629e+02 1.569192206420169811e+01 3.057600344039952134e+01 1.314748503806505369e+02 -9.773028286794227526e+00 -7.518852473164398020e+01 7.229915839476876727e+01 9.661247206225019868e-01 3.143777969566535546e+01 1.375155018008458683e+02 -1.753060725093958467e+02 -9.172095206974000803e+01 1.232064772089118350e+02 -2.070625810379411007e+02 -1.765132328555088179e+02 8.736488202374147249e+01 1.478038200603168946e+02 6.086738674291438400e+01 -4.293857548902326293e+00 1.494697361597951328e+02 -2.107020192304308068e+02 1.028474727567755309e+02 4.067365611910935996e+01 1.219647947720391130e+02 -1.810084594684386161e+02 1.022201324634001480e+02 -2.709937109750991269e+01 -1.283159519727127531e+02 -5.108486576500225418e+00 -8.867618539200455530e+01 -1.557995230762726813e+01 -4.165430730024739070e+00 -1.182409246224142549e+02 -1.183603514607150231e+02 -6.005066354712148069e+01 -1.237242313203174007e+02 1.928995905854416151e+02 -1.546289812325157982e+02 -4.816240098747403664e+01 1.656041914771397217e+02 3.256694313183445644e+01 -2.840932551921566187e+02 -1.220160929036471913e+02 3.407592933932789947e+01 5.246369319513191698e+01 8.204488232682100701e+00 -1.483798376650935040e+02 3.425080020463556707e+01 7.199934693261375251e+00 -7.134100124812324850e+01 1.945827734581195045e+02 1.944272693734237976e+02 4.171615006846133511e+00 -2.001628079364630253e+02 1.209134634293975950e+02 2.951517897204499974e+01 3.652472011787034845e+00 7.350905153279640558e+01 -1.991432544337447723e+02 -1.324688931126829345e+02 1.353468814921926651e+02 1.052430611381737293e+02 5.077767397089651524e+01 1.374242611518623676e+02 -1.710932785333298796e+02 -1.963901048195409516e+01 -1.251581349447075837e+02 4.190035622374279711e+01 -9.969491505768607453e+01 8.356678704409063130e+01 -3.255219885900503130e+01 1.188684164047181291e+01 1.703021286541949735e+02 2.739455723642024054e+01 -2.529675368630551304e+02 -1.213032529319251580e+02 -7.998984617746299364e+01 1.517475706225588112e+02 1.203510963298263903e+01 -5.171298048914362511e+01 2.910827197819588363e+01 5.997428952964433790e+01 -3.795938743514891911e+01 1.031854972037044291e+02 -9.669190017692903893e+01 4.723313928323675270e+01 1.074285809695088005e+02 -3.408383736305331979e+01 -9.417726266724422146e+01 -1.088913924800765756e+02 1.149427546195221908e+02 -4.768245643144813783e+01 1.886420228139971300e+02 5.490347142438040606e+01 1.064807563832418396e+02 1.770737689298504449e+02 8.212022498113839220e+00 -1.193064752871410263e+02 -1.590603085623670836e+02 -1.095731098769702641e+02 4.079541064329345090e+01
-1.274343211767385498e+01 -4.540342463405223405e+00 9.706748317791733882e+01 -2.147167309418650234e+02 1.457002686298150991e+02 5.951990594568486870e+01 1.426296322683754454e+02 -1.210876350107101871e+02 -2.593796297898449232e+00 -2.255536604222352182e+01 -2.057604959753487890e+02 3.066204573659424071e+01 -1.717180538820390723e+01 1.146571838285700409e+02 -1.172770556899380523e+02 5.785161843569848372e+01 1.174348010269758191e+02 -4.307893964861526115e+01 -4.648559770879232644e+01 -2.529523837552412857e+01 5.786522376369953946e+01 5.911766199436518576e+01 3.040450453443544632e+01 -2.179390323982810855e+02 -4.833236283806957800e+01 8.581541403508533961e+01 9.292348583272330487e+00 -9.728596383934915437e+00 -6.235142464964617659e+01 -1.452778821154397093e+01 6.874006296070693622e+01 -1.362845723105877198e+02 -5.806896934584303693e+01 8.407732307063303878e+00 1.945603580568707685e+02 1.987580713997703867e+02 -3.012496788803157344e+01 5.237817959920931088e+01 -2.437229616655903486e-01 -1.308794997960915225e+02 8.994478115895650205e+01 1.004879939953420234e+02 1.016980394887882255e+02 1.094242783989150603e+01 5.799391255986247984e+01 4.509572602316627865e+01 3.643512575465832271e+01 2.751848004056581942e+01 1.033514399985514416e+02 8.406979340059847061e+01 6.145658825413908488e+01 1.527573530813064338e+02 2.322425952972999994e+02 1.833016311489474504e+02 -5.542453362106156334e+01 4.617262147589755017e+01 -6.022594885349568017e+01 5.284414273204309609e+01 -1.801256341426505116e+02 5.294904504727863781e+01 -1.918807634979693546e+02 -1.581204846319349429e+02 1.213931061093524733e+01 -8.683351225778375593e+00 1.588695415207008068e+02 -1.949192763155748480e+02 7.054535675422307861e+01 2.154218592555065754e+02 -6.927349922720750008e+00 -1.825795231090836523e+02 3.330120770319384604e+01 1.848118243177160878e+02 -5.727937763245574132e+01 -2.498580365474934410e+02 -9.613941410738324578e+01 8.350053044247104594e+00 -2.156861327304548013e+02 3.008259135595314504e+01 -1.682410824826014277e+02 -1.739743165974301462e+02 -5.361347872226035349e+01 1.429371212556343096e+02 6.513046571566468401e+01 9.958516027588762753e+00 -8.317167032866633747e+01 -3.995845838086953705e+01 5.978656319650251305e+01 -2.177956852051992200e+02 5.075848110673418034e+01 -7.031641197593678783e+01 -7.332845201289080705e+01 -1.659129533683910154e+02 6.103013942417919679e+01 8.700025241087391237e+01 -1.523395812898611439e+02 1.621899767347709655e+02 -3.743071213979838774e+01 -1.588388503529150597e+01 8.227964035310290569e+01 1.467787496498978612e+02 2.041638350048906858e+01 1.422077158228212568e+02 -1.737814120591856692e+01 -8.517122422468274578e+01 -1.841043230279405307e+01 9.490480487642676621e+01 4.342667550620549832e+01 9.446776167153117854e+01 9.114036641378376657e+01 -8.024220844670846020e+01 -1.640849818234305246e+02 1.188293489999466743e+02 5.238277710316398128e+01 1.567882424936986752e+01 2.952520249273221964e+01 -6.560244973358580012e+01 9.274783753200328817e+01 8.679914212878583157e+01 -1.325940919187252476e+01 -6.883264073782360981e+01 2.965860351453735433e+01 6.072018530631332567e+00 -5.939949478131618577e+01 1.638418152487343775e+02 -3.170606022298075999e+01 1.174986531257287936e+02 -6.773196771803591787e+01 3.709804498894337854e+01 -3.485895412943352767e+01 8.648958601249771050e+01 2.268648390459663844e+01 1.117267654128006313e+02 -1.121667422243596803e+02 7.187662762822431262e+01 1.193699060175795381e+02 -4.321135659313638655e+01 7.395899071812037207e+00 -1.235363144577792838e+01 1.129732590421795919e+02 3.528897067892777351e+00 1.630907818925766719e+02 -1.367926911951452951e+02 1.128431123161475540e+02 -8.830776672829109941e+01 9.269873470057525822e+01 -1.326266492224087585e+02 2.855694542587407625e+01 2.395931322197198199e+01 1.723447127794520917e+00 3.515097683503734061e+01 4.452868952727638430e+01 -1.198691477678976902e+01 1.054652326575250676e+01 1.046607639764693403e+02 1.232074593376281513e+02 -8.396997158373594061e+01 -5.246271466930997462e+01 4.583627219086528726e+01 1.469093447963715660e+00 -1.326935925922182946e+02 -5.341656552871991437e+01 -3.430682378286560663e+01 4.737221938548267275e+01 -6.348893665347934956e+01 2.220257089266136319e+01 1.554445019713096485e+02 -7.701573863504962958e+01 7.837242656609403468e+01 8.150899035802440551e+01 1.093576528830477557e+01 1.197334848814400061e+02 6.100175755547638801e+01 1.630420467758889629e+02 -3.359024908917662344e+01 1.091300896099733961e+02 5.393649352852748535e+01 -1.559420253368434039e+01 1.982314901208273170e+02 -1.347957900118905172e+02 4.750018277761066088e+01 -1.822685878342319938e+02 -8.180116779171515873e+01 3.989802051986083598e+01 -7.020961078019821855e+01 -1.515001715564662277e+02 1.938593302467628234e+02 -8.343442199652079694e+01 -4.620236644048498675e+01 -4.502024663935930704e+01 1.184563642923344702e+02 1.895143014610959256e+02 6.300495691715686064e+01 1.423191223829116439e+02 2.135924614573987128e+02 -1.555177398649626896e+00 1.585216768902918147e+02 6.899118700553951555e+01 1.853155298161429130e+02 -1.224532703551901847e+02 -1.151952647605262392e+01 6.188047273263416415e+00 1.848742646330176740e+02 -8.843325130992498373e+01 -5.891235308713608276e+01 -5.152338749729658929e+01 -1.304571805240577476e+02 4.547918246216738680e+00 -9.823913724549264259e+01 1.500710262065102256e+02 2.291822424619769549e+01 1.167028705913445918e+01 7.038063091929252835e+01 -4.780938526795126542e+00 1.138906967323289052e+02 -1.546544211865179648e+02 4.422001010333246285e+01 -1.662489295189234895e+02 1.143018758716366676e+02 9.354570935290402645e+01 -6.549436192229984499e+01 4.555745341646314017e+01 2.318120791785961501e+02 -2.966524240796908174e+01 4.054281646122397831e+01 -3.181196741577518594e+01 5.640433934227930735e+01 6.255213858399286408e+01 -6.118515947065547245e+00 9.917889753907776651e+01 9.874799250626352887e+01 -1.886935802816615819e+02 -1.491430104782407113e+02 -1.166417767097100011e+02 -9.174763543479590666e+00 -1.457543661410272762e+02 1.124569344077581405e+02 1.073703231155450339e+02 5.742370000396262242e+01 1.086566966763515474e+01 1.534383148012629192e+02 8.170251983575599297e+01 6.569648426842576328e+01 -9.885951741700812079e+01 1.483194036470437140e+02 -3.507758812745485510e+00 1.064080525751457316e+02 8.583891708013711153e+00 3.574834299578085250e+01 -7.362969383911141108e+01 -8.826978051314905827e+01 6.963900588858861340e+01 -3.760126837667853383e+00 1.421953215200459795e+02 -1.221187262701875653e+01 -2.765401709692038246e+00 4.459304772686075324e+01 2.200036736829050099e+01 1.375008110243660724e+02 1.428515742038734437e+01 3.485726176596181602e+01 -1.503588492411474249e+02 6.397099262734123926e+01 1.298774991772458520e+02 -1.709337998748302923e+01 -2.215011303262028548e+02 8.197529917743878514e+01 1.321564425502097890e+02 1.976606016517177622e+01 1.832891469671800166e+02 -4.133439246614989848e+00 4.154002256156591244e+01 -4.225297152871490880e+01 -1.341997591735725166e+02 5.422354016305767033e+01 -4.594115052179549963e+01 -7.834371431256892038e+01 3.986772520886695048e+01 -1.786364847392374600e+02 6.925831462146427953e+01 1.589240297731399778e+02 -9.780173992349288881e+01 1.671377561627351724e+02 -9.427129349000833258e+01 -5.758555069330859588e+00 -1.018276792387195151e+01 7.399643878044091139e+01 -4.500189816434921397e+01 -1.040079245017563778e+02 -8.547938308081725722e+01 1.406386710533361111e+02 5.701162900571046777e+01 -1.271163820591693110e+02 4.259881648414643784e+00 4.184542362425887774e+01 7.956568596794875248e+01 -3.886283576486911073e+01 5.776269394665361290e+01 -6.644961926766772820e+01 -1.563608767356022895e+02 -3.335137460417571020e+01 1.357593623166227417e+02 -1.092155697479031176e+02 -6.149768577695292393e+00 -1.568043183782241670e+02 -4.663835227179757403e+00 -1.404373050289969456e+02 3.171103789098531678e+01 5.796552755177552996e+01 -4.843175544586704007e+01 -7.925947090534971551e+01 5.428627658604563422e+00 7.158099926329545326e+01 -6.519215872820947766e+01 1.295351845717724757e+02 1.015235582781509862e+02 -1.227378906468871236e+02 -1.013994090200803413e+02 1.298532611266138304e+02 6.853756656061058550e+01 1.443548214136078798e+02 9.610348401202931257e+01 7.794832795673575276e+01 -5.790053759139406253e+01 -7.850520571728681318e+01 -7.398425243443239196e+01 1.963227354563526887e+02 2.937550430378528787e+01 -2.391481043546303553e+01 -6.571892337091041725e+01 -4.790178721570340770e+01 -1.258823680004254015e+02 -1.578988565835706659e+01 -1.677156659095531381e+02 1.195000772893046275e+02 4.394353874406958482e+01 -1.101132608292328428e+02 -4.626242161262834429e+01 1.144301862845546083e+02 -9.261925474246717727e+01 9.827705329469178253e+01 -1.132219373990914590e+02 -1.125590131261702531e+01 -9.126269084646601470e+01 8.575735638589564758e+01 -4.058278201462184853e+01 9.805882344417319985e+00 2.804664710617011281e+01 -1.209903943485219742e+02 1.193994354870518571e+01 4.621339550165948395e+01 -2.134726927033100452e+01 -6.566671222440865563e+01 1.935204619132576340e+02 8.258559884832993703e+01 4.498659145778034230e+01 -2.999922165463720702e+01 7.660056560214518129e+01 1.600766523166462605e+02 -8.808129439059898402e+01 2.000586193692916765e+02 -1.271174914987419271e+02 -1.756233837021174509e+02 1.449444855528258529e+02 -2.234321960540206078e+02 -9.027865787569363532e-01 -2.338937673752057833e+02 -1.459877432245699822e+02 6.853884298011813314e+01 -1.390306918989022904e+02 5.573423746983103655e+01 1.050025741258678806e+02 -1.530937296388438256e+02 -2.873213310334377013e+01 7.201736430561786051e+01 1.278680361750431729e+02 -1.777305133317154002e+02 8.355326199910486196e+01 -9.355079305663858236e+01 -9.403423175078552632e+00 -1.322542734525882757e+01 -7.597167368544396027e+01 -8.621054665257025817e+01 1.731887930108135834e+02 -2.073528122297781806e+01 1.291715240169926338e+00 1.243866182440724799e+02 -8.284984359189593306e+01 -3.288886625740826730e+01 -1.028920354974452493e+02 -4.665158360837186535e+01 4.917409042194261559e+00 5.673268444990571169e+01 -1.291853939491348058e+02 2.269517364825616426e+02 -5.157833555578466900e+01 1.174134408691386966e+02 -4.676383676264736522e+01 1.147381789757387480e+02 1.333565258759702203e+02 4.594567718197003359e+01 1.170049033425739538e+02 -4.144032286419754030e+01 1.342008793631784442e+02 -1.500707286746260820e+02 -6.271941151114324953e+01 -6.039646249540924572e+01 2.453611103850592912e+01 -1.556763478937710659e+02 6.958514298699347478e+01 -2.958900448483903034e+01 -7.928280542612273507e+01 8.594058278399715789e+01 -1.449765756870006612e+02 -8.753392181047813381e+01 -5.052312118312294587e+01 3.173092407664320902e+01 1.245439323983305542e+02 1.120920427271011732e+02 6.628895608323250599e+01 -1.492598049717444919e+00 1.678305047105380652e+02 1.175631875081690367e+02 -9.066197964090733308e+01 -7.494090427125442488e+01 5.289695602038220557e+01 9.538533140263156795e+00 9.400615353551755504e+01 1.599916847638027662e+02 6.773710730132644642e+01 2.345919816977703221e+01 -9.807650742938452026e+01 1.647893186448795291e+02 -1.090392484101388249e+02 -1.585356161795415062e+02 6.304936241283704135e+01 1.069494162109392335e+02 1.885028064846322948e+01 -1.331572755037221896e+02 2.848686095134069873e+01 4.065907238905253251e+01 -3.527546640438810610e-01 1.255328416100749109e+02 9.373831336374377088e+01 1.640462229717024201e+01 7.509093168681368979e+01 -1.024892944134751929e+02 -6.106757832493056704e+00 9.424803639878003025e+01 2.845559117755482248e+01 -6.230726608482714113e+01 1.897706602856636948e+02 2.214207481466197578e+02 -1.201858070159248939e+02 -2.647197139459862214e+01 -2.012890477475814635e+02 -6.912897676146620540e+01 1.499229610526096792e+02 3.217788573678891151e+00 -6.797457583738516007e+01 1.567913521912050498e+02 -5.981855998824203624e+01 -1.537636837901345359e+02 1.307284121091517193e+02 -6.430541409403220143e+01 3.304579563090718608e+01 8.262223081313784689e+01 1.320237367993755662e+01 -2.280076444490712504e+02 4.050662548054170742e+01 -5.913483785692471351e+00 8.623861776353808750e+01 -2.255097881480587318e+01 9.672912953929643720e+01 1.626821950941763717e+01 -8.101826291786713341e+01 -1.960245879878942077e+01 -1.676708867431369185e+02 1.100027738084350375e+02 2.419178294773410798e+01 -3.981166040555889651e+01 -4.955416477797049879e+01 -6.020197712087296082e+01 3.935215891179833392e+01 1.537402571390608728e+02 1.269442918856196059e+02 4.117373856461312442e+01 -1.892943938242280240e+02 -3.711472636125162694e+01 4.192657506847038462e+01 1.122316146276978088e+02 8.340096120835141846e+01 1.476409550103539736e+01 -1.779465431275702372e+02 1.259509192546995280e+02 -2.140352271745362032e+02 -1.968816017194940855e+02 -1.745108272794820392e+00 -7.056550131947824411e+01 -2.308363885079987199e+01 8.333527513593401181e+01 5.349087261293227868e+01 -1.063567349821293533e+02 -1.449008525048731144e+02 1.394540128867811291e+01 1.183189758707717232e+02 1.976577771262175887e+01 -5.424737349143862986e+01 -4.942021516277262805e+01 -1.118906417855359159e+01 1.543710998608116540e+02 2.139095203091286024e+01 -1.691874235591276374e+02 1.250035677331517405e+02 -6.509742044848474052e+01 -4.064150333685387473e+00 1.499748484822138437e+02 -5.090970544931167296e+01 -1.908511046434730574e+01 -1.069856708104759235e+02 -5.841937244216964586e+00 -2.322214109013086158e+01 1.282330419347078703e+02 1.169259375423272331e+02 6.581767210500942156e+01 6.374777337947111278e+01 -1.821738437030965940e+01 1.316297726860002228e+02 -1.098315322133210969e+02 -4.141413826868782344e+00 -8.867412885322794125e+01 1.529748360855858778e+02 7.102365258488997313e+01 5.031228579577469873e+01 8.031402553822850621e+00 -5.191576199382190282e+01 3.348099884880587496e+01 6.544670776363343379e+00 3.568983099367015299e+00 2.346516743401312866e+01 5.820785022738334646e+01 1.657955843424466593e+02 -3.784868819178198862e+01 -5.060628112040384963e+01 6.504106707393896158e+01 1.126250433835687232e+02 -1.248026240271972043e+01 8.954431996049891040e+01 1.013712282488190226e+02 2.052578957945154059e+02 -8.426054489043126239e+01 -1.194371054877937581e+02 -2.789303606855207462e+01 6.053186025000891135e+01 -9.881126661414706192e+00 1.045725637144802107e+02 3.626682016291628941e+01 -1.583126869473471174e+02 4.385668382325070525e+01 -8.707903941705166062e+01 -1.316860159466289133e+02 1.309127913035651432e+02 -7.401969284592250631e+01 5.759867309620494069e+01 1.081656352177652138e+02 -9.631370635243587230e+01 2.287130232850341116e+01 -7.018056640260483903e+01 3.919500691104478562e+01 -1.115237859636459348e+02 5.992005331802560164e+01 5.318786540755300507e+01 3.759012511376786936e+00 8.170626179197859074e+01 -1.486445338354482146e+02 7.424669057460374688e+01 -2.850646831726940533e+01 -1.630738635381335087e+02 9.123312908212818684e+01 2.370142354332184098e+01 -1.892959004662377822e+02 2.271162163068117650e+02 -5.208412748727131447e-01 1.015044701116122354e+02 -1.164012752428612600e+02 -1.874447285470766644e+02 -9.007512508507583959e+01 2.416940090856562140e+00 1.378993794562764492e+02 3.822774300682225679e+00 -9.225616243933431804e+01 4.859744541468251100e+01 1.322771201153985885e+02 6.270292020863674054e+01 -4.992001050644913818e+01 -5.709170648457693176e+01 8.156444918401881239e+01 2.964652464216991490e+01 -1.887902304385813181e+02 -2.000909320946970382e+01 1.631440629482755753e+02 9.535480264292387176e+01 -5.534793702290684081e+01 -1.079154526795597775e+02 -4.118568903626606925e+01 -4.640961556401880728e+01 -1.104671855739242119e+02 -1.779234664492511087e+01 -4.406967867537225203e+01 -1.096687814310748195e+02 -1.273426324293407532e+02 -2.602361335652423335e+01 -1.213107254495051848e+02 -1.291896367381746984e+02 -3.699891435842997822e+01 -5.340083970762655241e+01 -1.071733159179409398e+02 1.861422180866184988e+02 1.052038155898572391e+01 -2.812515672811341716e+01 -1.699647246443631232e+01 7.866488927007873144e+01 1.564863746477683293e+01 2.504572947564697927e+01 -2.123726473313304552e+01 -4.628707869908080141e+01 2.090803317402821548e+01 -1.453758273571510813e+02 -1.591726197151334929e+02 -9.037142783518517319e+01 -1.908325687484856985e+02 -8.960095500823675252e+01 8.575508400409324850e+01 6.138593141236043493e+01 -2.604659974696217972e+01 6.076192605366350818e+01 -1.565741667584075856e+02 -4.088149243775875163e+01 -1.161384464051597263e+02 -6.674135208220502591e+01 2.109813833782266954e+02 -2.052710640853694599e+02 2.052467392502458381e+02 2.496060086431803882e+01 -5.644046662097148470e+01 9.219500777170586048e+01 1.240696203081717641e+02 -5.188198695909515834e+01 -2.037534511715009558e+02 -1.490837769578717769e+02 1.022770481908079176e+02 8.375153983937131841e+01 -1.355548680110175042e+02 3.193095762720484032e+01 -3.968717780319629895e+01 -7.739687673844517235e+01 -2.842575261953698629e+01 -5.480936400148027587e+01 -8.641378869026866028e+01 -3.406069564862325194e+01 4.523865406211946549e+00 -3.265816652076918558e+01 -3.694461178385873290e-01 -1.431626496844658192e+01 9.193258649387115611e+01 1.271092226382287009e+02 1.315816386132449445e+01 1.680220476227561122e+01 -6.314140608721319836e+01 -1.960567757544111203e+02 3.384610129136468970e+01 -9.171028268629746094e+01 2.584082349620289776e+01 -8.124372569529910493e+00 1.058751231491624312e+00 7.236750535422176256e+01 1.218876293075867494e+02 -7.048465508359083742e+01 3.799758559526512869e+01 -1.928971391245708560e+02 9.686575203774939524e+00 6.935415353839133878e+00 -1.225598970107885890e+02 -3.370919580004331806e+01 -4.432710812187365690e+01 4.763332036861668506e+00 -1.022387955195827942e+02 2.704954070379188735e+01 -9.763832128428585122e+01 5.605438402493597039e+01 6.786989462373365711e+01 3.689678667700126624e+01 -2.901365725009452845e+01 1.074709831137203651e+02 6.109195469926307709e+01 7.999634677962907858e+01 -6.699903132375546022e+01 2.025125678467822965e+01 1.278481026046840867e+02 -5.847774368196857608e+01 -6.916181593299658203e+00 3.197390044254328245e+01 -1.283741191682787814e+02 9.776045937942998876e+01 8.952885875525214487e+01 -1.011179589354222372e+02 -8.229576710963873154e+01 -5.549897577617021938e+01 -4.559553705854545314e+01 -1.600961949802425295e+02 -1.357833890510307526e+02 -1.323650270680140295e+02 1.055575266125391920e+02 5.974102567518465889e+01 1.593522990687164054e+02 7.197835509896172823e+00 -8.558010272949714192e+01 1.873045120595564583e+01 1.380735442045970274e+01 -6.346253036461622798e+01 7.393015119491703047e+01 1.178554608722467663e+02 9.943830308189390621e+00 1.430907123546058983e+02 2.244724456893374764e+01 1.107211833074917138e+02 1.503965900298589098e+01 -2.073328980821268601e+02 2.178865367996764633e+02 -4.882238898721656284e+01 -1.487139284613257360e+02 -6.702262270244052900e+01 -4.275254673935840088e+01 4.111223452667572786e+01 2.541362931115553181e+01 4.542144538486979854e+01 -7.350696363289925728e+01 1.213973537558536577e+02 -8.554904600557323135e+01 -6.953321591907817734e+00 1.411645442210248405e+02 1.085904024556316330e+02 5.748455706623398953e+01 -1.753068470968048587e+02 2.517742629964491385e+01 1.389404129464665516e+02 2.317732714982529529e+01 9.651004583653585200e+01 1.052026638730886390e+02 -2.089724143910115970e+02 7.598797703240246904e+01 -5.703356182894688686e+01 -2.220547496805018000e+02 8.731801285034141813e+01 2.421802904238296961e+01 -1.197673684915700250e+02 -5.739456801907047634e+01 1.358355180932476287e+02 1.442381512446107763e+02 -7.406116789208884654e+01 -1.246385779634197633e+02 -8.127519631300449987e+01 -1.614012733666483541e+02 1.903063170627631351e+01 3.686759952706837140e+01 -1.649450036057161739e+01 -1.200935939622903703e+01 -8.674123203112775116e+01 -8.548741878373712666e+01 -2.385080730832472540e+01 1.291305938968010594e+02 1.311876357908901412e+02 7.806273145230157695e+01 9.337779464558016684e+01 -7.544307284660428081e+01 -1.733462033180557000e+02 -1.265770703732717095e+01 -2.215733386082342804e+01 -6.804066972232480737e+01 1.422878045471461572e+00 6.995755341704881403e+01 -5.066885898905784558e+01 2.365150525927629843e+01 7.582883782764899649e+01 6.713091013051601408e+01 1.058566254190710225e+02 -1.428312649916938994e+02 3.795201966663926640e+01 7.977542811726240757e+01 9.073419270181280183e+01 5.654171755203450545e+01 -9.885075156705424604e+01 1.311087451149309118e+02 1.220681438224020496e+02 9.177937474697105813e+01 9.722447134100674759e+01 -8.063440455042565702e+01 -1.422917977615480289e+01 -1.239771761485521218e+01 7.376776682074704183e+01 6.221409566762808652e+01 5.363421849709349232e+01 9.341996544675600944e+01 1.115573514227495480e+02 1.186829862685543162e+02 -6.209000565935699001e+01 7.718768993800652822e+01 6.246124277653721890e+01 -1.126673097299017741e+02 1.260218965118054655e+02 -9.600206356070158265e+00 -2.674750832119412181e+01 1.909140703948556563e+02 8.478981877404565637e+01 1.189350552009108100e+02 -1.383448345877258987e+02 -1.512573226188326316e+02 -1.473375079091648558e+02 -1.171259935992070922e+02 -4.246941202090925316e+01 1.052905021972721897e+02 -1.618283852453892280e+02 3.119329406357789836e+01 1.385436412736814020e+02 -5.698127980613241306e+01 -8.770415327670404793e+01 -3.374130442651451744e+01 1.304959996995561653e+02 2.183601607355041665e+02 -6.408939143917638148e+01 1.905190564123539332e+01 -2.660577897873736219e+01 6.585045216071448237e+01 5.791928749242033803e+01 -2.050603190215782377e+02 -8.528429664634742835e+01 1.323560243197101727e+02 1.344911845212865558e+02 9.095947081661402933e+01 -4.795931001115442172e+01 -7.294009884168131919e+01 -4.367828672311192406e+01 -1.699740168986247681e+02 6.848211250120159832e+01 -2.469544094181796368e+01 1.601990601937009160e+02 -2.690805270259365400e+01 -3.029960796667456293e+02 1.395294559907209191e+02 4.838192863743972083e+01 -1.136177008280826755e+02 -2.136598831716807112e+01 3.400908764201969348e+01 -2.001054702023928940e+02 -1.100978127786317771e+02 -1.056527962504106739e+02 -5.434587369288395564e+01 6.050622567780829542e+01 -1.588786521814001844e+02 1.039908517320113646e+02 -5.235917011887905659e+01 2.820675329585169866e+00 -1.286104816894589646e+02 -9.993526947911514924e+01 1.695294362644243051e+02 8.355827960675689781e+01 -4.072066065810834345e+01 3.581982856428162876e+01 -2.704544200699051970e+01 4.175766095352418006e+01 -1.009021842076037387e+02 9.540711212755813619e+01 4.870275389821603795e+01 -1.146887102861873444e+02 1.126238026583035889e+02 -4.737760452986648829e+01 9.638053738326397024e+01 -4.765788139732845963e+01 8.526188124562399651e+01 -1.480102916330379230e+02 1.377252206723089500e+02 2.389520025861505914e+01 9.714992173554294652e+01 1.258815503314193336e+02 -1.415584986169749300e+02 -8.292269971230811620e+01 -1.019756043605404585e+02 6.455305304876520722e+01 -1.654343466147400363e+02 1.463197891356401783e+02 1.374538105334939075e+02 5.115204115417411401e+01 -8.198344578942005967e+01 5.510994774669906349e+01 -1.036623494557162530e+02 -1.055344145627563712e+01 3.377422473347140652e+01 -1.774737507652603767e+02 -7.878776118403763462e+01 -1.307386867732685154e+01 9.871691694100411496e+01 -4.851682795026618322e+01 1.050712248452650783e+02 -6.215041001672328491e+01 -2.036892987384445348e+02 -1.034933163313695843e+02 -3.288998216295257038e+01 -5.816309246092692575e+01 2.907931033689055766e+01 4.970967858656423033e+01 6.124623897571002118e+00 2.454500014002151431e+01 -1.134800302012295674e+02 5.210778185294558540e+01 3.156515729764845446e+01 -6.978900746247343534e+01 8.979677001882858889e+00 5.454491064877408490e+01 -9.230209659615533724e+01 -5.331266662645376186e+01 -2.339172714179788670e+01 9.442650031912434372e+01 -1.658080015826766029e+01 4.061154312912135467e+00 -2.208231547479987853e+02 -9.198504515219390498e+01 9.578915844901651155e+01 -8.632977695345870472e+01 3.033922607625277834e+01 3.007110856678971089e+01 3.670131555885640040e+01 6.398721670073756229e+01 -1.718444533640131624e+02 1.394387979711474372e+02 7.897576464130473539e+01 -7.301678410867704194e+00 -7.826069094997241393e+01 1.083503688131644367e+02 6.014853788471525320e+01 -1.948173052695499621e+02 -4.879435713370424565e+01 -7.915376670127831460e+01 -5.018385893808287079e+01 -5.997045128774932721e+01 -9.591299175214791717e+01 -5.847274529965402223e+01 1.855513535278178665e+02 -1.654189397804800592e+02 6.342562284695678443e+01 2.688202362096986420e+01 -7.285040557878333800e+01 1.007417879046353448e+01 -3.821092080107910505e+01 3.331940351477203244e+00 -9.316568312129709284e+01 -1.914462130791218044e+02 1.782524486174837008e+01 4.059654607300480222e+01 -1.239883189365822425e+01 -8.686311656599883690e+00 -3.854781019399404585e+01 -1.840306023447529924e+02 -2.968569077611621765e+01 -6.333738334752334254e+01 1.350714970976479457e+01 -1.513517290535892990e+01 8.780075085533587753e+01 -6.109700856850729878e+01 -1.004938074847695617e+02 -3.459919749322563121e+01 -8.703204762423398577e+00 4.404505687210470910e+01 -2.143905165591630890e+01 -7.155281535393095282e+01 -1.539507237282811758e+01 1.942908438873072186e+01 4.604730727601383222e+01 -1.104982839457275361e+02 -1.347731692451426966e+02 2.233230870811916020e+02 -2.116378207448286730e+02 -7.361358935193162267e+01 -4.490996440590048877e+01 1.355950563110264682e+02 6.135262233276414179e+01 2.219811832789017672e+02 2.373395371566019207e+02 -6.047179541955225091e+01 1.255215795573499378e+02 -5.433475758683231760e+01 -3.958664429668640139e+01 -9.757190617057821669e+01 -7.742286001803694262e+01 -6.743830419541622234e+01 -8.633240718986522211e+01 -2.364168083497768293e+02 -2.626561222887447116e+02 1.306089451622438560e+02 -2.574072658337962238e+01 5.166234788645058984e+01 1.269632575313844143e+02
