# 
#                 ----------------------------------------------------
#                 Data from a 3D direct N-body simulation. 
# 
#                 rows are i-particle; 
#                 coumns are :mass, tag, x ,y, z, vx, vy, vz, ax, ay, az
# 
#                 NTHU, Computational Physics Lab
# 
#                 ----------------------------------------------------
#                 Time = 9.799999999999836
1.000000000000000000e+00 2.000000000000000000e+00 3.000000000000000000e+00 4.000000000000000000e+00 5.000000000000000000e+00 6.000000000000000000e+00 7.000000000000000000e+00 8.000000000000000000e+00 9.000000000000000000e+00 1.000000000000000000e+01 1.100000000000000000e+01 1.200000000000000000e+01 1.300000000000000000e+01 1.400000000000000000e+01 1.500000000000000000e+01 1.600000000000000000e+01 1.700000000000000000e+01 1.800000000000000000e+01 1.900000000000000000e+01 2.000000000000000000e+01 2.100000000000000000e+01 2.200000000000000000e+01 2.300000000000000000e+01 2.400000000000000000e+01 2.500000000000000000e+01 2.600000000000000000e+01 2.700000000000000000e+01 2.800000000000000000e+01 2.900000000000000000e+01 3.000000000000000000e+01 3.100000000000000000e+01 3.200000000000000000e+01 3.300000000000000000e+01 3.400000000000000000e+01 3.500000000000000000e+01 3.600000000000000000e+01 3.700000000000000000e+01 3.800000000000000000e+01 3.900000000000000000e+01 4.000000000000000000e+01 4.100000000000000000e+01 4.200000000000000000e+01 4.300000000000000000e+01 4.400000000000000000e+01 4.500000000000000000e+01 4.600000000000000000e+01 4.700000000000000000e+01 4.800000000000000000e+01 4.900000000000000000e+01 5.000000000000000000e+01 5.100000000000000000e+01 5.200000000000000000e+01 5.300000000000000000e+01 5.400000000000000000e+01 5.500000000000000000e+01 5.600000000000000000e+01 5.700000000000000000e+01 5.800000000000000000e+01 5.900000000000000000e+01 6.000000000000000000e+01 6.100000000000000000e+01 6.200000000000000000e+01 6.300000000000000000e+01 6.400000000000000000e+01 6.500000000000000000e+01 6.600000000000000000e+01 6.700000000000000000e+01 6.800000000000000000e+01 6.900000000000000000e+01 7.000000000000000000e+01 7.100000000000000000e+01 7.200000000000000000e+01 7.300000000000000000e+01 7.400000000000000000e+01 7.500000000000000000e+01 7.600000000000000000e+01 7.700000000000000000e+01 7.800000000000000000e+01 7.900000000000000000e+01 8.000000000000000000e+01 8.100000000000000000e+01 8.200000000000000000e+01 8.300000000000000000e+01 8.400000000000000000e+01 8.500000000000000000e+01 8.600000000000000000e+01 8.700000000000000000e+01 8.800000000000000000e+01 8.900000000000000000e+01 9.000000000000000000e+01 9.100000000000000000e+01 9.200000000000000000e+01 9.300000000000000000e+01 9.400000000000000000e+01 9.500000000000000000e+01 9.600000000000000000e+01 9.700000000000000000e+01 9.800000000000000000e+01 9.900000000000000000e+01 1.000000000000000000e+02 1.010000000000000000e+02 1.020000000000000000e+02 1.030000000000000000e+02 1.040000000000000000e+02 1.050000000000000000e+02 1.060000000000000000e+02 1.070000000000000000e+02 1.080000000000000000e+02 1.090000000000000000e+02 1.100000000000000000e+02 1.110000000000000000e+02 1.120000000000000000e+02 1.130000000000000000e+02 1.140000000000000000e+02 1.150000000000000000e+02 1.160000000000000000e+02 1.170000000000000000e+02 1.180000000000000000e+02 1.190000000000000000e+02 1.200000000000000000e+02 1.210000000000000000e+02 1.220000000000000000e+02 1.230000000000000000e+02 1.240000000000000000e+02 1.250000000000000000e+02 1.260000000000000000e+02 1.270000000000000000e+02 1.280000000000000000e+02 1.290000000000000000e+02 1.300000000000000000e+02 1.310000000000000000e+02 1.320000000000000000e+02 1.330000000000000000e+02 1.340000000000000000e+02 1.350000000000000000e+02 1.360000000000000000e+02 1.370000000000000000e+02 1.380000000000000000e+02 1.390000000000000000e+02 1.400000000000000000e+02 1.410000000000000000e+02 1.420000000000000000e+02 1.430000000000000000e+02 1.440000000000000000e+02 1.450000000000000000e+02 1.460000000000000000e+02 1.470000000000000000e+02 1.480000000000000000e+02 1.490000000000000000e+02 1.500000000000000000e+02 1.510000000000000000e+02 1.520000000000000000e+02 1.530000000000000000e+02 1.540000000000000000e+02 1.550000000000000000e+02 1.560000000000000000e+02 1.570000000000000000e+02 1.580000000000000000e+02 1.590000000000000000e+02 1.600000000000000000e+02 1.610000000000000000e+02 1.620000000000000000e+02 1.630000000000000000e+02 1.640000000000000000e+02 1.650000000000000000e+02 1.660000000000000000e+02 1.670000000000000000e+02 1.680000000000000000e+02 1.690000000000000000e+02 1.700000000000000000e+02 1.710000000000000000e+02 1.720000000000000000e+02 1.730000000000000000e+02 1.740000000000000000e+02 1.750000000000000000e+02 1.760000000000000000e+02 1.770000000000000000e+02 1.780000000000000000e+02 1.790000000000000000e+02 1.800000000000000000e+02 1.810000000000000000e+02 1.820000000000000000e+02 1.830000000000000000e+02 1.840000000000000000e+02 1.850000000000000000e+02 1.860000000000000000e+02 1.870000000000000000e+02 1.880000000000000000e+02 1.890000000000000000e+02 1.900000000000000000e+02 1.910000000000000000e+02 1.920000000000000000e+02 1.930000000000000000e+02 1.940000000000000000e+02 1.950000000000000000e+02 1.960000000000000000e+02 1.970000000000000000e+02 1.980000000000000000e+02 1.990000000000000000e+02 2.000000000000000000e+02 2.010000000000000000e+02 2.020000000000000000e+02 2.030000000000000000e+02 2.040000000000000000e+02 2.050000000000000000e+02 2.060000000000000000e+02 2.070000000000000000e+02 2.080000000000000000e+02 2.090000000000000000e+02 2.100000000000000000e+02 2.110000000000000000e+02 2.120000000000000000e+02 2.130000000000000000e+02 2.140000000000000000e+02 2.150000000000000000e+02 2.160000000000000000e+02 2.170000000000000000e+02 2.180000000000000000e+02 2.190000000000000000e+02 2.200000000000000000e+02 2.210000000000000000e+02 2.220000000000000000e+02 2.230000000000000000e+02 2.240000000000000000e+02 2.250000000000000000e+02 2.260000000000000000e+02 2.270000000000000000e+02 2.280000000000000000e+02 2.290000000000000000e+02 2.300000000000000000e+02 2.310000000000000000e+02 2.320000000000000000e+02 2.330000000000000000e+02 2.340000000000000000e+02 2.350000000000000000e+02 2.360000000000000000e+02 2.370000000000000000e+02 2.380000000000000000e+02 2.390000000000000000e+02 2.400000000000000000e+02 2.410000000000000000e+02 2.420000000000000000e+02 2.430000000000000000e+02 2.440000000000000000e+02 2.450000000000000000e+02 2.460000000000000000e+02 2.470000000000000000e+02 2.480000000000000000e+02 2.490000000000000000e+02 2.500000000000000000e+02 2.510000000000000000e+02 2.520000000000000000e+02 2.530000000000000000e+02 2.540000000000000000e+02 2.550000000000000000e+02 2.560000000000000000e+02 2.570000000000000000e+02 2.580000000000000000e+02 2.590000000000000000e+02 2.600000000000000000e+02 2.610000000000000000e+02 2.620000000000000000e+02 2.630000000000000000e+02 2.640000000000000000e+02 2.650000000000000000e+02 2.660000000000000000e+02 2.670000000000000000e+02 2.680000000000000000e+02 2.690000000000000000e+02 2.700000000000000000e+02 2.710000000000000000e+02 2.720000000000000000e+02 2.730000000000000000e+02 2.740000000000000000e+02 2.750000000000000000e+02 2.760000000000000000e+02 2.770000000000000000e+02 2.780000000000000000e+02 2.790000000000000000e+02 2.800000000000000000e+02 2.810000000000000000e+02 2.820000000000000000e+02 2.830000000000000000e+02 2.840000000000000000e+02 2.850000000000000000e+02 2.860000000000000000e+02 2.870000000000000000e+02 2.880000000000000000e+02 2.890000000000000000e+02 2.900000000000000000e+02 2.910000000000000000e+02 2.920000000000000000e+02 2.930000000000000000e+02 2.940000000000000000e+02 2.950000000000000000e+02 2.960000000000000000e+02 2.970000000000000000e+02 2.980000000000000000e+02 2.990000000000000000e+02 3.000000000000000000e+02 3.010000000000000000e+02 3.020000000000000000e+02 3.030000000000000000e+02 3.040000000000000000e+02 3.050000000000000000e+02 3.060000000000000000e+02 3.070000000000000000e+02 3.080000000000000000e+02 3.090000000000000000e+02 3.100000000000000000e+02 3.110000000000000000e+02 3.120000000000000000e+02 3.130000000000000000e+02 3.140000000000000000e+02 3.150000000000000000e+02 3.160000000000000000e+02 3.170000000000000000e+02 3.180000000000000000e+02 3.190000000000000000e+02 3.200000000000000000e+02 3.210000000000000000e+02 3.220000000000000000e+02 3.230000000000000000e+02 3.240000000000000000e+02 3.250000000000000000e+02 3.260000000000000000e+02 3.270000000000000000e+02 3.280000000000000000e+02 3.290000000000000000e+02 3.300000000000000000e+02 3.310000000000000000e+02 3.320000000000000000e+02 3.330000000000000000e+02 3.340000000000000000e+02 3.350000000000000000e+02 3.360000000000000000e+02 3.370000000000000000e+02 3.380000000000000000e+02 3.390000000000000000e+02 3.400000000000000000e+02 3.410000000000000000e+02 3.420000000000000000e+02 3.430000000000000000e+02 3.440000000000000000e+02 3.450000000000000000e+02 3.460000000000000000e+02 3.470000000000000000e+02 3.480000000000000000e+02 3.490000000000000000e+02 3.500000000000000000e+02 3.510000000000000000e+02 3.520000000000000000e+02 3.530000000000000000e+02 3.540000000000000000e+02 3.550000000000000000e+02 3.560000000000000000e+02 3.570000000000000000e+02 3.580000000000000000e+02 3.590000000000000000e+02 3.600000000000000000e+02 3.610000000000000000e+02 3.620000000000000000e+02 3.630000000000000000e+02 3.640000000000000000e+02 3.650000000000000000e+02 3.660000000000000000e+02 3.670000000000000000e+02 3.680000000000000000e+02 3.690000000000000000e+02 3.700000000000000000e+02 3.710000000000000000e+02 3.720000000000000000e+02 3.730000000000000000e+02 3.740000000000000000e+02 3.750000000000000000e+02 3.760000000000000000e+02 3.770000000000000000e+02 3.780000000000000000e+02 3.790000000000000000e+02 3.800000000000000000e+02 3.810000000000000000e+02 3.820000000000000000e+02 3.830000000000000000e+02 3.840000000000000000e+02 3.850000000000000000e+02 3.860000000000000000e+02 3.870000000000000000e+02 3.880000000000000000e+02 3.890000000000000000e+02 3.900000000000000000e+02 3.910000000000000000e+02 3.920000000000000000e+02 3.930000000000000000e+02 3.940000000000000000e+02 3.950000000000000000e+02 3.960000000000000000e+02 3.970000000000000000e+02 3.980000000000000000e+02 3.990000000000000000e+02 4.000000000000000000e+02 4.010000000000000000e+02 4.020000000000000000e+02 4.030000000000000000e+02 4.040000000000000000e+02 4.050000000000000000e+02 4.060000000000000000e+02 4.070000000000000000e+02 4.080000000000000000e+02 4.090000000000000000e+02 4.100000000000000000e+02 4.110000000000000000e+02 4.120000000000000000e+02 4.130000000000000000e+02 4.140000000000000000e+02 4.150000000000000000e+02 4.160000000000000000e+02 4.170000000000000000e+02 4.180000000000000000e+02 4.190000000000000000e+02 4.200000000000000000e+02 4.210000000000000000e+02 4.220000000000000000e+02 4.230000000000000000e+02 4.240000000000000000e+02 4.250000000000000000e+02 4.260000000000000000e+02 4.270000000000000000e+02 4.280000000000000000e+02 4.290000000000000000e+02 4.300000000000000000e+02 4.310000000000000000e+02 4.320000000000000000e+02 4.330000000000000000e+02 4.340000000000000000e+02 4.350000000000000000e+02 4.360000000000000000e+02 4.370000000000000000e+02 4.380000000000000000e+02 4.390000000000000000e+02 4.400000000000000000e+02 4.410000000000000000e+02 4.420000000000000000e+02 4.430000000000000000e+02 4.440000000000000000e+02 4.450000000000000000e+02 4.460000000000000000e+02 4.470000000000000000e+02 4.480000000000000000e+02 4.490000000000000000e+02 4.500000000000000000e+02 4.510000000000000000e+02 4.520000000000000000e+02 4.530000000000000000e+02 4.540000000000000000e+02 4.550000000000000000e+02 4.560000000000000000e+02 4.570000000000000000e+02 4.580000000000000000e+02 4.590000000000000000e+02 4.600000000000000000e+02 4.610000000000000000e+02 4.620000000000000000e+02 4.630000000000000000e+02 4.640000000000000000e+02 4.650000000000000000e+02 4.660000000000000000e+02 4.670000000000000000e+02 4.680000000000000000e+02 4.690000000000000000e+02 4.700000000000000000e+02 4.710000000000000000e+02 4.720000000000000000e+02 4.730000000000000000e+02 4.740000000000000000e+02 4.750000000000000000e+02 4.760000000000000000e+02 4.770000000000000000e+02 4.780000000000000000e+02 4.790000000000000000e+02 4.800000000000000000e+02 4.810000000000000000e+02 4.820000000000000000e+02 4.830000000000000000e+02 4.840000000000000000e+02 4.850000000000000000e+02 4.860000000000000000e+02 4.870000000000000000e+02 4.880000000000000000e+02 4.890000000000000000e+02 4.900000000000000000e+02 4.910000000000000000e+02 4.920000000000000000e+02 4.930000000000000000e+02 4.940000000000000000e+02 4.950000000000000000e+02 4.960000000000000000e+02 4.970000000000000000e+02 4.980000000000000000e+02 4.990000000000000000e+02 5.000000000000000000e+02 5.010000000000000000e+02 5.020000000000000000e+02 5.030000000000000000e+02 5.040000000000000000e+02 5.050000000000000000e+02 5.060000000000000000e+02 5.070000000000000000e+02 5.080000000000000000e+02 5.090000000000000000e+02 5.100000000000000000e+02 5.110000000000000000e+02 5.120000000000000000e+02 5.130000000000000000e+02 5.140000000000000000e+02 5.150000000000000000e+02 5.160000000000000000e+02 5.170000000000000000e+02 5.180000000000000000e+02 5.190000000000000000e+02 5.200000000000000000e+02 5.210000000000000000e+02 5.220000000000000000e+02 5.230000000000000000e+02 5.240000000000000000e+02 5.250000000000000000e+02 5.260000000000000000e+02 5.270000000000000000e+02 5.280000000000000000e+02 5.290000000000000000e+02 5.300000000000000000e+02 5.310000000000000000e+02 5.320000000000000000e+02 5.330000000000000000e+02 5.340000000000000000e+02 5.350000000000000000e+02 5.360000000000000000e+02 5.370000000000000000e+02 5.380000000000000000e+02 5.390000000000000000e+02 5.400000000000000000e+02 5.410000000000000000e+02 5.420000000000000000e+02 5.430000000000000000e+02 5.440000000000000000e+02 5.450000000000000000e+02 5.460000000000000000e+02 5.470000000000000000e+02 5.480000000000000000e+02 5.490000000000000000e+02 5.500000000000000000e+02 5.510000000000000000e+02 5.520000000000000000e+02 5.530000000000000000e+02 5.540000000000000000e+02 5.550000000000000000e+02 5.560000000000000000e+02 5.570000000000000000e+02 5.580000000000000000e+02 5.590000000000000000e+02 5.600000000000000000e+02 5.610000000000000000e+02 5.620000000000000000e+02 5.630000000000000000e+02 5.640000000000000000e+02 5.650000000000000000e+02 5.660000000000000000e+02 5.670000000000000000e+02 5.680000000000000000e+02 5.690000000000000000e+02 5.700000000000000000e+02 5.710000000000000000e+02 5.720000000000000000e+02 5.730000000000000000e+02 5.740000000000000000e+02 5.750000000000000000e+02 5.760000000000000000e+02 5.770000000000000000e+02 5.780000000000000000e+02 5.790000000000000000e+02 5.800000000000000000e+02 5.810000000000000000e+02 5.820000000000000000e+02 5.830000000000000000e+02 5.840000000000000000e+02 5.850000000000000000e+02 5.860000000000000000e+02 5.870000000000000000e+02 5.880000000000000000e+02 5.890000000000000000e+02 5.900000000000000000e+02 5.910000000000000000e+02 5.920000000000000000e+02 5.930000000000000000e+02 5.940000000000000000e+02 5.950000000000000000e+02 5.960000000000000000e+02 5.970000000000000000e+02 5.980000000000000000e+02 5.990000000000000000e+02 6.000000000000000000e+02 6.010000000000000000e+02 6.020000000000000000e+02 6.030000000000000000e+02 6.040000000000000000e+02 6.050000000000000000e+02 6.060000000000000000e+02 6.070000000000000000e+02 6.080000000000000000e+02 6.090000000000000000e+02 6.100000000000000000e+02 6.110000000000000000e+02 6.120000000000000000e+02 6.130000000000000000e+02 6.140000000000000000e+02 6.150000000000000000e+02 6.160000000000000000e+02 6.170000000000000000e+02 6.180000000000000000e+02 6.190000000000000000e+02 6.200000000000000000e+02 6.210000000000000000e+02 6.220000000000000000e+02 6.230000000000000000e+02 6.240000000000000000e+02 6.250000000000000000e+02 6.260000000000000000e+02 6.270000000000000000e+02 6.280000000000000000e+02 6.290000000000000000e+02 6.300000000000000000e+02 6.310000000000000000e+02 6.320000000000000000e+02 6.330000000000000000e+02 6.340000000000000000e+02 6.350000000000000000e+02 6.360000000000000000e+02 6.370000000000000000e+02 6.380000000000000000e+02 6.390000000000000000e+02 6.400000000000000000e+02 6.410000000000000000e+02 6.420000000000000000e+02 6.430000000000000000e+02 6.440000000000000000e+02 6.450000000000000000e+02 6.460000000000000000e+02 6.470000000000000000e+02 6.480000000000000000e+02 6.490000000000000000e+02 6.500000000000000000e+02 6.510000000000000000e+02 6.520000000000000000e+02 6.530000000000000000e+02 6.540000000000000000e+02 6.550000000000000000e+02 6.560000000000000000e+02 6.570000000000000000e+02 6.580000000000000000e+02 6.590000000000000000e+02 6.600000000000000000e+02 6.610000000000000000e+02 6.620000000000000000e+02 6.630000000000000000e+02 6.640000000000000000e+02 6.650000000000000000e+02 6.660000000000000000e+02 6.670000000000000000e+02 6.680000000000000000e+02 6.690000000000000000e+02 6.700000000000000000e+02 6.710000000000000000e+02 6.720000000000000000e+02 6.730000000000000000e+02 6.740000000000000000e+02 6.750000000000000000e+02 6.760000000000000000e+02 6.770000000000000000e+02 6.780000000000000000e+02 6.790000000000000000e+02 6.800000000000000000e+02 6.810000000000000000e+02 6.820000000000000000e+02 6.830000000000000000e+02 6.840000000000000000e+02 6.850000000000000000e+02 6.860000000000000000e+02 6.870000000000000000e+02 6.880000000000000000e+02 6.890000000000000000e+02 6.900000000000000000e+02 6.910000000000000000e+02 6.920000000000000000e+02 6.930000000000000000e+02 6.940000000000000000e+02 6.950000000000000000e+02 6.960000000000000000e+02 6.970000000000000000e+02 6.980000000000000000e+02 6.990000000000000000e+02 7.000000000000000000e+02 7.010000000000000000e+02 7.020000000000000000e+02 7.030000000000000000e+02 7.040000000000000000e+02 7.050000000000000000e+02 7.060000000000000000e+02 7.070000000000000000e+02 7.080000000000000000e+02 7.090000000000000000e+02 7.100000000000000000e+02 7.110000000000000000e+02 7.120000000000000000e+02 7.130000000000000000e+02 7.140000000000000000e+02 7.150000000000000000e+02 7.160000000000000000e+02 7.170000000000000000e+02 7.180000000000000000e+02 7.190000000000000000e+02 7.200000000000000000e+02 7.210000000000000000e+02 7.220000000000000000e+02 7.230000000000000000e+02 7.240000000000000000e+02 7.250000000000000000e+02 7.260000000000000000e+02 7.270000000000000000e+02 7.280000000000000000e+02 7.290000000000000000e+02 7.300000000000000000e+02 7.310000000000000000e+02 7.320000000000000000e+02 7.330000000000000000e+02 7.340000000000000000e+02 7.350000000000000000e+02 7.360000000000000000e+02 7.370000000000000000e+02 7.380000000000000000e+02 7.390000000000000000e+02 7.400000000000000000e+02 7.410000000000000000e+02 7.420000000000000000e+02 7.430000000000000000e+02 7.440000000000000000e+02 7.450000000000000000e+02 7.460000000000000000e+02 7.470000000000000000e+02 7.480000000000000000e+02 7.490000000000000000e+02 7.500000000000000000e+02 7.510000000000000000e+02 7.520000000000000000e+02 7.530000000000000000e+02 7.540000000000000000e+02 7.550000000000000000e+02 7.560000000000000000e+02 7.570000000000000000e+02 7.580000000000000000e+02 7.590000000000000000e+02 7.600000000000000000e+02 7.610000000000000000e+02 7.620000000000000000e+02 7.630000000000000000e+02 7.640000000000000000e+02 7.650000000000000000e+02 7.660000000000000000e+02 7.670000000000000000e+02 7.680000000000000000e+02 7.690000000000000000e+02 7.700000000000000000e+02 7.710000000000000000e+02 7.720000000000000000e+02 7.730000000000000000e+02 7.740000000000000000e+02 7.750000000000000000e+02 7.760000000000000000e+02 7.770000000000000000e+02 7.780000000000000000e+02 7.790000000000000000e+02 7.800000000000000000e+02 7.810000000000000000e+02 7.820000000000000000e+02 7.830000000000000000e+02 7.840000000000000000e+02 7.850000000000000000e+02 7.860000000000000000e+02 7.870000000000000000e+02 7.880000000000000000e+02 7.890000000000000000e+02 7.900000000000000000e+02 7.910000000000000000e+02 7.920000000000000000e+02 7.930000000000000000e+02 7.940000000000000000e+02 7.950000000000000000e+02 7.960000000000000000e+02 7.970000000000000000e+02 7.980000000000000000e+02 7.990000000000000000e+02 8.000000000000000000e+02 8.010000000000000000e+02 8.020000000000000000e+02 8.030000000000000000e+02 8.040000000000000000e+02 8.050000000000000000e+02 8.060000000000000000e+02 8.070000000000000000e+02 8.080000000000000000e+02 8.090000000000000000e+02 8.100000000000000000e+02 8.110000000000000000e+02 8.120000000000000000e+02 8.130000000000000000e+02 8.140000000000000000e+02 8.150000000000000000e+02 8.160000000000000000e+02 8.170000000000000000e+02 8.180000000000000000e+02 8.190000000000000000e+02 8.200000000000000000e+02 8.210000000000000000e+02 8.220000000000000000e+02 8.230000000000000000e+02 8.240000000000000000e+02 8.250000000000000000e+02 8.260000000000000000e+02 8.270000000000000000e+02 8.280000000000000000e+02 8.290000000000000000e+02 8.300000000000000000e+02 8.310000000000000000e+02 8.320000000000000000e+02 8.330000000000000000e+02 8.340000000000000000e+02 8.350000000000000000e+02 8.360000000000000000e+02 8.370000000000000000e+02 8.380000000000000000e+02 8.390000000000000000e+02 8.400000000000000000e+02 8.410000000000000000e+02 8.420000000000000000e+02 8.430000000000000000e+02 8.440000000000000000e+02 8.450000000000000000e+02 8.460000000000000000e+02 8.470000000000000000e+02 8.480000000000000000e+02 8.490000000000000000e+02 8.500000000000000000e+02 8.510000000000000000e+02 8.520000000000000000e+02 8.530000000000000000e+02 8.540000000000000000e+02 8.550000000000000000e+02 8.560000000000000000e+02 8.570000000000000000e+02 8.580000000000000000e+02 8.590000000000000000e+02 8.600000000000000000e+02 8.610000000000000000e+02 8.620000000000000000e+02 8.630000000000000000e+02 8.640000000000000000e+02 8.650000000000000000e+02 8.660000000000000000e+02 8.670000000000000000e+02 8.680000000000000000e+02 8.690000000000000000e+02 8.700000000000000000e+02 8.710000000000000000e+02 8.720000000000000000e+02 8.730000000000000000e+02 8.740000000000000000e+02 8.750000000000000000e+02 8.760000000000000000e+02 8.770000000000000000e+02 8.780000000000000000e+02 8.790000000000000000e+02 8.800000000000000000e+02 8.810000000000000000e+02 8.820000000000000000e+02 8.830000000000000000e+02 8.840000000000000000e+02 8.850000000000000000e+02 8.860000000000000000e+02 8.870000000000000000e+02 8.880000000000000000e+02 8.890000000000000000e+02 8.900000000000000000e+02 8.910000000000000000e+02 8.920000000000000000e+02 8.930000000000000000e+02 8.940000000000000000e+02 8.950000000000000000e+02 8.960000000000000000e+02 8.970000000000000000e+02 8.980000000000000000e+02 8.990000000000000000e+02 9.000000000000000000e+02 9.010000000000000000e+02 9.020000000000000000e+02 9.030000000000000000e+02 9.040000000000000000e+02 9.050000000000000000e+02 9.060000000000000000e+02 9.070000000000000000e+02 9.080000000000000000e+02 9.090000000000000000e+02 9.100000000000000000e+02 9.110000000000000000e+02 9.120000000000000000e+02 9.130000000000000000e+02 9.140000000000000000e+02 9.150000000000000000e+02 9.160000000000000000e+02 9.170000000000000000e+02 9.180000000000000000e+02 9.190000000000000000e+02 9.200000000000000000e+02 9.210000000000000000e+02 9.220000000000000000e+02 9.230000000000000000e+02 9.240000000000000000e+02 9.250000000000000000e+02 9.260000000000000000e+02 9.270000000000000000e+02 9.280000000000000000e+02 9.290000000000000000e+02 9.300000000000000000e+02 9.310000000000000000e+02 9.320000000000000000e+02 9.330000000000000000e+02 9.340000000000000000e+02 9.350000000000000000e+02 9.360000000000000000e+02 9.370000000000000000e+02 9.380000000000000000e+02 9.390000000000000000e+02 9.400000000000000000e+02 9.410000000000000000e+02 9.420000000000000000e+02 9.430000000000000000e+02 9.440000000000000000e+02 9.450000000000000000e+02 9.460000000000000000e+02 9.470000000000000000e+02 9.480000000000000000e+02 9.490000000000000000e+02 9.500000000000000000e+02 9.510000000000000000e+02 9.520000000000000000e+02 9.530000000000000000e+02 9.540000000000000000e+02 9.550000000000000000e+02 9.560000000000000000e+02 9.570000000000000000e+02 9.580000000000000000e+02 9.590000000000000000e+02 9.600000000000000000e+02 9.610000000000000000e+02 9.620000000000000000e+02 9.630000000000000000e+02 9.640000000000000000e+02 9.650000000000000000e+02 9.660000000000000000e+02 9.670000000000000000e+02 9.680000000000000000e+02 9.690000000000000000e+02 9.700000000000000000e+02 9.710000000000000000e+02 9.720000000000000000e+02 9.730000000000000000e+02 9.740000000000000000e+02 9.750000000000000000e+02 9.760000000000000000e+02 9.770000000000000000e+02 9.780000000000000000e+02 9.790000000000000000e+02 9.800000000000000000e+02 9.810000000000000000e+02 9.820000000000000000e+02 9.830000000000000000e+02 9.840000000000000000e+02 9.850000000000000000e+02 9.860000000000000000e+02 9.870000000000000000e+02 9.880000000000000000e+02 9.890000000000000000e+02 9.900000000000000000e+02 9.910000000000000000e+02 9.920000000000000000e+02 9.930000000000000000e+02 9.940000000000000000e+02 9.950000000000000000e+02 9.960000000000000000e+02 9.970000000000000000e+02 9.980000000000000000e+02 9.990000000000000000e+02 1.000000000000000000e+03
1.000000000000000021e-02 1.000000000000000021e-02 1.000000000000000021e-02 1.000000000000000021e-02 1.000000000000000021e-02 1.000000000000000021e-02 1.000000000000000021e-02 1.000000000000000021e-02 1.000000000000000021e-02 1.000000000000000021e-02 1.000000000000000021e-02 1.000000000000000021e-02 1.000000000000000021e-02 1.000000000000000021e-02 1.000000000000000021e-02 1.000000000000000021e-02 1.000000000000000021e-02 1.000000000000000021e-02 1.000000000000000021e-02 1.000000000000000021e-02 1.000000000000000021e-02 1.000000000000000021e-02 1.000000000000000021e-02 1.000000000000000021e-02 1.000000000000000021e-02 1.000000000000000021e-02 1.000000000000000021e-02 1.000000000000000021e-02 1.000000000000000021e-02 1.000000000000000021e-02 1.000000000000000021e-02 1.000000000000000021e-02 1.000000000000000021e-02 1.000000000000000021e-02 1.000000000000000021e-02 1.000000000000000021e-02 1.000000000000000021e-02 1.000000000000000021e-02 1.000000000000000021e-02 1.000000000000000021e-02 1.000000000000000021e-02 1.000000000000000021e-02 1.000000000000000021e-02 1.000000000000000021e-02 1.000000000000000021e-02 1.000000000000000021e-02 1.000000000000000021e-02 1.000000000000000021e-02 1.000000000000000021e-02 1.000000000000000021e-02 1.000000000000000021e-02 1.000000000000000021e-02 1.000000000000000021e-02 1.000000000000000021e-02 1.000000000000000021e-02 1.000000000000000021e-02 1.000000000000000021e-02 1.000000000000000021e-02 1.000000000000000021e-02 1.000000000000000021e-02 1.000000000000000021e-02 1.000000000000000021e-02 1.000000000000000021e-02 1.000000000000000021e-02 1.000000000000000021e-02 1.000000000000000021e-02 1.000000000000000021e-02 1.000000000000000021e-02 1.000000000000000021e-02 1.000000000000000021e-02 1.000000000000000021e-02 1.000000000000000021e-02 1.000000000000000021e-02 1.000000000000000021e-02 1.000000000000000021e-02 1.000000000000000021e-02 1.000000000000000021e-02 1.000000000000000021e-02 1.000000000000000021e-02 1.000000000000000021e-02 1.000000000000000021e-02 1.000000000000000021e-02 1.000000000000000021e-02 1.000000000000000021e-02 1.000000000000000021e-02 1.000000000000000021e-02 1.000000000000000021e-02 1.000000000000000021e-02 1.000000000000000021e-02 1.000000000000000021e-02 1.000000000000000021e-02 1.000000000000000021e-02 1.000000000000000021e-02 1.000000000000000021e-02 1.000000000000000021e-02 1.000000000000000021e-02 1.000000000000000021e-02 1.000000000000000021e-02 1.000000000000000021e-02 1.000000000000000021e-02 1.000000000000000021e-02 1.000000000000000021e-02 1.000000000000000021e-02 1.000000000000000021e-02 1.000000000000000021e-02 1.000000000000000021e-02 1.000000000000000021e-02 1.000000000000000021e-02 1.000000000000000021e-02 1.000000000000000021e-02 1.000000000000000021e-02 1.000000000000000021e-02 1.000000000000000021e-02 1.000000000000000021e-02 1.000000000000000021e-02 1.000000000000000021e-02 1.000000000000000021e-02 1.000000000000000021e-02 1.000000000000000021e-02 1.000000000000000021e-02 1.000000000000000021e-02 1.000000000000000021e-02 1.000000000000000021e-02 1.000000000000000021e-02 1.000000000000000021e-02 1.000000000000000021e-02 1.000000000000000021e-02 1.000000000000000021e-02 1.000000000000000021e-02 1.000000000000000021e-02 1.000000000000000021e-02 1.000000000000000021e-02 1.000000000000000021e-02 1.000000000000000021e-02 1.000000000000000021e-02 1.000000000000000021e-02 1.000000000000000021e-02 1.000000000000000021e-02 1.000000000000000021e-02 1.000000000000000021e-02 1.000000000000000021e-02 1.000000000000000021e-02 1.000000000000000021e-02 1.000000000000000021e-02 1.000000000000000021e-02 1.000000000000000021e-02 1.000000000000000021e-02 1.000000000000000021e-02 1.000000000000000021e-02 1.000000000000000021e-02 1.000000000000000021e-02 1.000000000000000021e-02 1.000000000000000021e-02 1.000000000000000021e-02 1.000000000000000021e-02 1.000000000000000021e-02 1.000000000000000021e-02 1.000000000000000021e-02 1.000000000000000021e-02 1.000000000000000021e-02 1.000000000000000021e-02 1.000000000000000021e-02 1.000000000000000021e-02 1.000000000000000021e-02 1.000000000000000021e-02 1.000000000000000021e-02 1.000000000000000021e-02 1.000000000000000021e-02 1.000000000000000021e-02 1.000000000000000021e-02 1.000000000000000021e-02 1.000000000000000021e-02 1.000000000000000021e-02 1.000000000000000021e-02 1.000000000000000021e-02 1.000000000000000021e-02 1.000000000000000021e-02 1.000000000000000021e-02 1.000000000000000021e-02 1.000000000000000021e-02 1.000000000000000021e-02 1.000000000000000021e-02 1.000000000000000021e-02 1.000000000000000021e-02 1.000000000000000021e-02 1.000000000000000021e-02 1.000000000000000021e-02 1.000000000000000021e-02 1.000000000000000021e-02 1.000000000000000021e-02 1.000000000000000021e-02 1.000000000000000021e-02 1.000000000000000021e-02 1.000000000000000021e-02 1.000000000000000021e-02 1.000000000000000021e-02 1.000000000000000021e-02 1.000000000000000021e-02 1.000000000000000021e-02 1.000000000000000021e-02 1.000000000000000021e-02 1.000000000000000021e-02 1.000000000000000021e-02 1.000000000000000021e-02 1.000000000000000021e-02 1.000000000000000021e-02 1.000000000000000021e-02 1.000000000000000021e-02 1.000000000000000021e-02 1.000000000000000021e-02 1.000000000000000021e-02 1.000000000000000021e-02 1.000000000000000021e-02 1.000000000000000021e-02 1.000000000000000021e-02 1.000000000000000021e-02 1.000000000000000021e-02 1.000000000000000021e-02 1.000000000000000021e-02 1.000000000000000021e-02 1.000000000000000021e-02 1.000000000000000021e-02 1.000000000000000021e-02 1.000000000000000021e-02 1.000000000000000021e-02 1.000000000000000021e-02 1.000000000000000021e-02 1.000000000000000021e-02 1.000000000000000021e-02 1.000000000000000021e-02 1.000000000000000021e-02 1.000000000000000021e-02 1.000000000000000021e-02 1.000000000000000021e-02 1.000000000000000021e-02 1.000000000000000021e-02 1.000000000000000021e-02 1.000000000000000021e-02 1.000000000000000021e-02 1.000000000000000021e-02 1.000000000000000021e-02 1.000000000000000021e-02 1.000000000000000021e-02 1.000000000000000021e-02 1.000000000000000021e-02 1.000000000000000021e-02 1.000000000000000021e-02 1.000000000000000021e-02 1.000000000000000021e-02 1.000000000000000021e-02 1.000000000000000021e-02 1.000000000000000021e-02 1.000000000000000021e-02 1.000000000000000021e-02 1.000000000000000021e-02 1.000000000000000021e-02 1.000000000000000021e-02 1.000000000000000021e-02 1.000000000000000021e-02 1.000000000000000021e-02 1.000000000000000021e-02 1.000000000000000021e-02 1.000000000000000021e-02 1.000000000000000021e-02 1.000000000000000021e-02 1.000000000000000021e-02 1.000000000000000021e-02 1.000000000000000021e-02 1.000000000000000021e-02 1.000000000000000021e-02 1.000000000000000021e-02 1.000000000000000021e-02 1.000000000000000021e-02 1.000000000000000021e-02 1.000000000000000021e-02 1.000000000000000021e-02 1.000000000000000021e-02 1.000000000000000021e-02 1.000000000000000021e-02 1.000000000000000021e-02 1.000000000000000021e-02 1.000000000000000021e-02 1.000000000000000021e-02 1.000000000000000021e-02 1.000000000000000021e-02 1.000000000000000021e-02 1.000000000000000021e-02 1.000000000000000021e-02 1.000000000000000021e-02 1.000000000000000021e-02 1.000000000000000021e-02 1.000000000000000021e-02 1.000000000000000021e-02 1.000000000000000021e-02 1.000000000000000021e-02 1.000000000000000021e-02 1.000000000000000021e-02 1.000000000000000021e-02 1.000000000000000021e-02 1.000000000000000021e-02 1.000000000000000021e-02 1.000000000000000021e-02 1.000000000000000021e-02 1.000000000000000021e-02 1.000000000000000021e-02 1.000000000000000021e-02 1.000000000000000021e-02 1.000000000000000021e-02 1.000000000000000021e-02 1.000000000000000021e-02 1.000000000000000021e-02 1.000000000000000021e-02 1.000000000000000021e-02 1.000000000000000021e-02 1.000000000000000021e-02 1.000000000000000021e-02 1.000000000000000021e-02 1.000000000000000021e-02 1.000000000000000021e-02 1.000000000000000021e-02 1.000000000000000021e-02 1.000000000000000021e-02 1.000000000000000021e-02 1.000000000000000021e-02 1.000000000000000021e-02 1.000000000000000021e-02 1.000000000000000021e-02 1.000000000000000021e-02 1.000000000000000021e-02 1.000000000000000021e-02 1.000000000000000021e-02 1.000000000000000021e-02 1.000000000000000021e-02 1.000000000000000021e-02 1.000000000000000021e-02 1.000000000000000021e-02 1.000000000000000021e-02 1.000000000000000021e-02 1.000000000000000021e-02 1.000000000000000021e-02 1.000000000000000021e-02 1.000000000000000021e-02 1.000000000000000021e-02 1.000000000000000021e-02 1.000000000000000021e-02 1.000000000000000021e-02 1.000000000000000021e-02 1.000000000000000021e-02 1.000000000000000021e-02 1.000000000000000021e-02 1.000000000000000021e-02 1.000000000000000021e-02 1.000000000000000021e-02 1.000000000000000021e-02 1.000000000000000021e-02 1.000000000000000021e-02 1.000000000000000021e-02 1.000000000000000021e-02 1.000000000000000021e-02 1.000000000000000021e-02 1.000000000000000021e-02 1.000000000000000021e-02 1.000000000000000021e-02 1.000000000000000021e-02 1.000000000000000021e-02 1.000000000000000021e-02 1.000000000000000021e-02 1.000000000000000021e-02 1.000000000000000021e-02 1.000000000000000021e-02 1.000000000000000021e-02 1.000000000000000021e-02 1.000000000000000021e-02 1.000000000000000021e-02 1.000000000000000021e-02 1.000000000000000021e-02 1.000000000000000021e-02 1.000000000000000021e-02 1.000000000000000021e-02 1.000000000000000021e-02 1.000000000000000021e-02 1.000000000000000021e-02 1.000000000000000021e-02 1.000000000000000021e-02 1.000000000000000021e-02 1.000000000000000021e-02 1.000000000000000021e-02 1.000000000000000021e-02 1.000000000000000021e-02 1.000000000000000021e-02 1.000000000000000021e-02 1.000000000000000021e-02 1.000000000000000021e-02 1.000000000000000021e-02 1.000000000000000021e-02 1.000000000000000021e-02 1.000000000000000021e-02 1.000000000000000021e-02 1.000000000000000021e-02 1.000000000000000021e-02 1.000000000000000021e-02 1.000000000000000021e-02 1.000000000000000021e-02 1.000000000000000021e-02 1.000000000000000021e-02 1.000000000000000021e-02 1.000000000000000021e-02 1.000000000000000021e-02 1.000000000000000021e-02 1.000000000000000021e-02 1.000000000000000021e-02 1.000000000000000021e-02 1.000000000000000021e-02 1.000000000000000021e-02 1.000000000000000021e-02 1.000000000000000021e-02 1.000000000000000021e-02 1.000000000000000021e-02 1.000000000000000021e-02 1.000000000000000021e-02 1.000000000000000021e-02 1.000000000000000021e-02 1.000000000000000021e-02 1.000000000000000021e-02 1.000000000000000021e-02 1.000000000000000021e-02 1.000000000000000021e-02 1.000000000000000021e-02 1.000000000000000021e-02 1.000000000000000021e-02 1.000000000000000021e-02 1.000000000000000021e-02 1.000000000000000021e-02 1.000000000000000021e-02 1.000000000000000021e-02 1.000000000000000021e-02 1.000000000000000021e-02 1.000000000000000021e-02 1.000000000000000021e-02 1.000000000000000021e-02 1.000000000000000021e-02 1.000000000000000021e-02 1.000000000000000021e-02 1.000000000000000021e-02 1.000000000000000021e-02 1.000000000000000021e-02 1.000000000000000021e-02 1.000000000000000021e-02 1.000000000000000021e-02 1.000000000000000021e-02 1.000000000000000021e-02 1.000000000000000021e-02 1.000000000000000021e-02 1.000000000000000021e-02 1.000000000000000021e-02 1.000000000000000021e-02 1.000000000000000021e-02 1.000000000000000021e-02 1.000000000000000021e-02 1.000000000000000021e-02 1.000000000000000021e-02 1.000000000000000021e-02 1.000000000000000021e-02 1.000000000000000021e-02 1.000000000000000021e-02 1.000000000000000021e-02 1.000000000000000021e-02 1.000000000000000021e-02 1.000000000000000021e-02 1.000000000000000021e-02 1.000000000000000021e-02 1.000000000000000021e-02 1.000000000000000021e-02 1.000000000000000021e-02 1.000000000000000021e-02 1.000000000000000021e-02 1.000000000000000021e-02 1.000000000000000021e-02 1.000000000000000021e-02 1.000000000000000021e-02 1.000000000000000021e-02 1.000000000000000021e-02 1.000000000000000021e-02 1.000000000000000021e-02 1.000000000000000021e-02 1.000000000000000021e-02 1.000000000000000021e-02 1.000000000000000021e-02 1.000000000000000021e-02 1.000000000000000021e-02 1.000000000000000021e-02 1.000000000000000021e-02 1.000000000000000021e-02 1.000000000000000021e-02 1.000000000000000021e-02 1.000000000000000021e-02 1.000000000000000021e-02 1.000000000000000021e-02 1.000000000000000021e-02 1.000000000000000021e-02 1.000000000000000021e-02 1.000000000000000021e-02 1.000000000000000021e-02 1.000000000000000021e-02 1.000000000000000021e-02 1.000000000000000021e-02 1.000000000000000021e-02 1.000000000000000021e-02 1.000000000000000021e-02 1.000000000000000021e-02 1.000000000000000021e-02 1.000000000000000021e-02 1.000000000000000021e-02 1.000000000000000021e-02 1.000000000000000021e-02 1.000000000000000021e-02 1.000000000000000021e-02 1.000000000000000021e-02 1.000000000000000021e-02 1.000000000000000021e-02 1.000000000000000021e-02 1.000000000000000021e-02 1.000000000000000021e-02 1.000000000000000021e-02 1.000000000000000021e-02 1.000000000000000021e-02 1.000000000000000021e-02 1.000000000000000021e-02 1.000000000000000021e-02 1.000000000000000021e-02 1.000000000000000021e-02 1.000000000000000021e-02 1.000000000000000021e-02 1.000000000000000021e-02 1.000000000000000021e-02 1.000000000000000021e-02 1.000000000000000021e-02 1.000000000000000021e-02 1.000000000000000021e-02 1.000000000000000021e-02 1.000000000000000021e-02 1.000000000000000021e-02 1.000000000000000021e-02 1.000000000000000021e-02 1.000000000000000021e-02 1.000000000000000021e-02 1.000000000000000021e-02 1.000000000000000021e-02 1.000000000000000021e-02 1.000000000000000021e-02 1.000000000000000021e-02 1.000000000000000021e-02 1.000000000000000021e-02 1.000000000000000021e-02 1.000000000000000021e-02 1.000000000000000021e-02 1.000000000000000021e-02 1.000000000000000021e-02 1.000000000000000021e-02 1.000000000000000021e-02 1.000000000000000021e-02 1.000000000000000021e-02 1.000000000000000021e-02 1.000000000000000021e-02 1.000000000000000021e-02 1.000000000000000021e-02 1.000000000000000021e-02 1.000000000000000021e-02 1.000000000000000021e-02 1.000000000000000021e-02 1.000000000000000021e-02 1.000000000000000021e-02 1.000000000000000021e-02 1.000000000000000021e-02 1.000000000000000021e-02 1.000000000000000021e-02 1.000000000000000021e-02 1.000000000000000021e-02 1.000000000000000021e-02 1.000000000000000021e-02 1.000000000000000021e-02 1.000000000000000021e-02 1.000000000000000021e-02 1.000000000000000021e-02 1.000000000000000021e-02 1.000000000000000021e-02 1.000000000000000021e-02 1.000000000000000021e-02 1.000000000000000021e-02 1.000000000000000021e-02 1.000000000000000021e-02 1.000000000000000021e-02 1.000000000000000021e-02 1.000000000000000021e-02 1.000000000000000021e-02 1.000000000000000021e-02 1.000000000000000021e-02 1.000000000000000021e-02 1.000000000000000021e-02 1.000000000000000021e-02 1.000000000000000021e-02 1.000000000000000021e-02 1.000000000000000021e-02 1.000000000000000021e-02 1.000000000000000021e-02 1.000000000000000021e-02 1.000000000000000021e-02 1.000000000000000021e-02 1.000000000000000021e-02 1.000000000000000021e-02 1.000000000000000021e-02 1.000000000000000021e-02 1.000000000000000021e-02 1.000000000000000021e-02 1.000000000000000021e-02 1.000000000000000021e-02 1.000000000000000021e-02 1.000000000000000021e-02 1.000000000000000021e-02 1.000000000000000021e-02 1.000000000000000021e-02 1.000000000000000021e-02 1.000000000000000021e-02 1.000000000000000021e-02 1.000000000000000021e-02 1.000000000000000021e-02 1.000000000000000021e-02 1.000000000000000021e-02 1.000000000000000021e-02 1.000000000000000021e-02 1.000000000000000021e-02 1.000000000000000021e-02 1.000000000000000021e-02 1.000000000000000021e-02 1.000000000000000021e-02 1.000000000000000021e-02 1.000000000000000021e-02 1.000000000000000021e-02 1.000000000000000021e-02 1.000000000000000021e-02 1.000000000000000021e-02 1.000000000000000021e-02 1.000000000000000021e-02 1.000000000000000021e-02 1.000000000000000021e-02 1.000000000000000021e-02 1.000000000000000021e-02 1.000000000000000021e-02 1.000000000000000021e-02 1.000000000000000021e-02 1.000000000000000021e-02 1.000000000000000021e-02 1.000000000000000021e-02 1.000000000000000021e-02 1.000000000000000021e-02 1.000000000000000021e-02 1.000000000000000021e-02 1.000000000000000021e-02 1.000000000000000021e-02 1.000000000000000021e-02 1.000000000000000021e-02 1.000000000000000021e-02 1.000000000000000021e-02 1.000000000000000021e-02 1.000000000000000021e-02 1.000000000000000021e-02 1.000000000000000021e-02 1.000000000000000021e-02 1.000000000000000021e-02 1.000000000000000021e-02 1.000000000000000021e-02 1.000000000000000021e-02 1.000000000000000021e-02 1.000000000000000021e-02 1.000000000000000021e-02 1.000000000000000021e-02 1.000000000000000021e-02 1.000000000000000021e-02 1.000000000000000021e-02 1.000000000000000021e-02 1.000000000000000021e-02 1.000000000000000021e-02 1.000000000000000021e-02 1.000000000000000021e-02 1.000000000000000021e-02 1.000000000000000021e-02 1.000000000000000021e-02 1.000000000000000021e-02 1.000000000000000021e-02 1.000000000000000021e-02 1.000000000000000021e-02 1.000000000000000021e-02 1.000000000000000021e-02 1.000000000000000021e-02 1.000000000000000021e-02 1.000000000000000021e-02 1.000000000000000021e-02 1.000000000000000021e-02 1.000000000000000021e-02 1.000000000000000021e-02 1.000000000000000021e-02 1.000000000000000021e-02 1.000000000000000021e-02 1.000000000000000021e-02 1.000000000000000021e-02 1.000000000000000021e-02 1.000000000000000021e-02 1.000000000000000021e-02 1.000000000000000021e-02 1.000000000000000021e-02 1.000000000000000021e-02 1.000000000000000021e-02 1.000000000000000021e-02 1.000000000000000021e-02 1.000000000000000021e-02 1.000000000000000021e-02 1.000000000000000021e-02 1.000000000000000021e-02 1.000000000000000021e-02 1.000000000000000021e-02 1.000000000000000021e-02 1.000000000000000021e-02 1.000000000000000021e-02 1.000000000000000021e-02 1.000000000000000021e-02 1.000000000000000021e-02 1.000000000000000021e-02 1.000000000000000021e-02 1.000000000000000021e-02 1.000000000000000021e-02 1.000000000000000021e-02 1.000000000000000021e-02 1.000000000000000021e-02 1.000000000000000021e-02 1.000000000000000021e-02 1.000000000000000021e-02 1.000000000000000021e-02 1.000000000000000021e-02 1.000000000000000021e-02 1.000000000000000021e-02 1.000000000000000021e-02 1.000000000000000021e-02 1.000000000000000021e-02 1.000000000000000021e-02 1.000000000000000021e-02 1.000000000000000021e-02 1.000000000000000021e-02 1.000000000000000021e-02 1.000000000000000021e-02 1.000000000000000021e-02 1.000000000000000021e-02 1.000000000000000021e-02 1.000000000000000021e-02 1.000000000000000021e-02 1.000000000000000021e-02 1.000000000000000021e-02 1.000000000000000021e-02 1.000000000000000021e-02 1.000000000000000021e-02 1.000000000000000021e-02 1.000000000000000021e-02 1.000000000000000021e-02 1.000000000000000021e-02 1.000000000000000021e-02 1.000000000000000021e-02 1.000000000000000021e-02 1.000000000000000021e-02 1.000000000000000021e-02 1.000000000000000021e-02 1.000000000000000021e-02 1.000000000000000021e-02 1.000000000000000021e-02 1.000000000000000021e-02 1.000000000000000021e-02 1.000000000000000021e-02 1.000000000000000021e-02 1.000000000000000021e-02 1.000000000000000021e-02 1.000000000000000021e-02 1.000000000000000021e-02 1.000000000000000021e-02 1.000000000000000021e-02 1.000000000000000021e-02 1.000000000000000021e-02 1.000000000000000021e-02 1.000000000000000021e-02 1.000000000000000021e-02 1.000000000000000021e-02 1.000000000000000021e-02 1.000000000000000021e-02 1.000000000000000021e-02 1.000000000000000021e-02 1.000000000000000021e-02 1.000000000000000021e-02 1.000000000000000021e-02 1.000000000000000021e-02 1.000000000000000021e-02 1.000000000000000021e-02 1.000000000000000021e-02 1.000000000000000021e-02 1.000000000000000021e-02 1.000000000000000021e-02 1.000000000000000021e-02 1.000000000000000021e-02 1.000000000000000021e-02 1.000000000000000021e-02 1.000000000000000021e-02 1.000000000000000021e-02 1.000000000000000021e-02 1.000000000000000021e-02 1.000000000000000021e-02 1.000000000000000021e-02 1.000000000000000021e-02 1.000000000000000021e-02 1.000000000000000021e-02 1.000000000000000021e-02 1.000000000000000021e-02 1.000000000000000021e-02 1.000000000000000021e-02 1.000000000000000021e-02 1.000000000000000021e-02 1.000000000000000021e-02 1.000000000000000021e-02 1.000000000000000021e-02 1.000000000000000021e-02 1.000000000000000021e-02 1.000000000000000021e-02 1.000000000000000021e-02 1.000000000000000021e-02 1.000000000000000021e-02 1.000000000000000021e-02 1.000000000000000021e-02 1.000000000000000021e-02 1.000000000000000021e-02 1.000000000000000021e-02 1.000000000000000021e-02 1.000000000000000021e-02 1.000000000000000021e-02 1.000000000000000021e-02 1.000000000000000021e-02 1.000000000000000021e-02 1.000000000000000021e-02 1.000000000000000021e-02 1.000000000000000021e-02 1.000000000000000021e-02 1.000000000000000021e-02 1.000000000000000021e-02 1.000000000000000021e-02 1.000000000000000021e-02 1.000000000000000021e-02 1.000000000000000021e-02 1.000000000000000021e-02 1.000000000000000021e-02 1.000000000000000021e-02 1.000000000000000021e-02 1.000000000000000021e-02 1.000000000000000021e-02 1.000000000000000021e-02 1.000000000000000021e-02 1.000000000000000021e-02 1.000000000000000021e-02 1.000000000000000021e-02 1.000000000000000021e-02 1.000000000000000021e-02 1.000000000000000021e-02 1.000000000000000021e-02 1.000000000000000021e-02 1.000000000000000021e-02 1.000000000000000021e-02 1.000000000000000021e-02 1.000000000000000021e-02 1.000000000000000021e-02 1.000000000000000021e-02 1.000000000000000021e-02 1.000000000000000021e-02 1.000000000000000021e-02 1.000000000000000021e-02 1.000000000000000021e-02 1.000000000000000021e-02 1.000000000000000021e-02 1.000000000000000021e-02 1.000000000000000021e-02 1.000000000000000021e-02 1.000000000000000021e-02 1.000000000000000021e-02 1.000000000000000021e-02 1.000000000000000021e-02 1.000000000000000021e-02 1.000000000000000021e-02 1.000000000000000021e-02 1.000000000000000021e-02 1.000000000000000021e-02 1.000000000000000021e-02 1.000000000000000021e-02 1.000000000000000021e-02 1.000000000000000021e-02 1.000000000000000021e-02 1.000000000000000021e-02 1.000000000000000021e-02 1.000000000000000021e-02 1.000000000000000021e-02 1.000000000000000021e-02 1.000000000000000021e-02 1.000000000000000021e-02 1.000000000000000021e-02 1.000000000000000021e-02 1.000000000000000021e-02 1.000000000000000021e-02 1.000000000000000021e-02 1.000000000000000021e-02 1.000000000000000021e-02 1.000000000000000021e-02 1.000000000000000021e-02 1.000000000000000021e-02 1.000000000000000021e-02 1.000000000000000021e-02 1.000000000000000021e-02 1.000000000000000021e-02 1.000000000000000021e-02 1.000000000000000021e-02 1.000000000000000021e-02 1.000000000000000021e-02 1.000000000000000021e-02 1.000000000000000021e-02 1.000000000000000021e-02 1.000000000000000021e-02 1.000000000000000021e-02 1.000000000000000021e-02 1.000000000000000021e-02 1.000000000000000021e-02 1.000000000000000021e-02 1.000000000000000021e-02 1.000000000000000021e-02 1.000000000000000021e-02 1.000000000000000021e-02 1.000000000000000021e-02 1.000000000000000021e-02 1.000000000000000021e-02 1.000000000000000021e-02 1.000000000000000021e-02 1.000000000000000021e-02 1.000000000000000021e-02 1.000000000000000021e-02 1.000000000000000021e-02 1.000000000000000021e-02 1.000000000000000021e-02 1.000000000000000021e-02 1.000000000000000021e-02 1.000000000000000021e-02 1.000000000000000021e-02 1.000000000000000021e-02 1.000000000000000021e-02 1.000000000000000021e-02 1.000000000000000021e-02 1.000000000000000021e-02 1.000000000000000021e-02 1.000000000000000021e-02 1.000000000000000021e-02 1.000000000000000021e-02 1.000000000000000021e-02 1.000000000000000021e-02 1.000000000000000021e-02 1.000000000000000021e-02 1.000000000000000021e-02 1.000000000000000021e-02 1.000000000000000021e-02 1.000000000000000021e-02 1.000000000000000021e-02 1.000000000000000021e-02 1.000000000000000021e-02 1.000000000000000021e-02 1.000000000000000021e-02 1.000000000000000021e-02 1.000000000000000021e-02 1.000000000000000021e-02 1.000000000000000021e-02 1.000000000000000021e-02 1.000000000000000021e-02 1.000000000000000021e-02 1.000000000000000021e-02 1.000000000000000021e-02 1.000000000000000021e-02 1.000000000000000021e-02 1.000000000000000021e-02 1.000000000000000021e-02 1.000000000000000021e-02 1.000000000000000021e-02 1.000000000000000021e-02 1.000000000000000021e-02 1.000000000000000021e-02 1.000000000000000021e-02 1.000000000000000021e-02 1.000000000000000021e-02 1.000000000000000021e-02 1.000000000000000021e-02 1.000000000000000021e-02 1.000000000000000021e-02 1.000000000000000021e-02 1.000000000000000021e-02 1.000000000000000021e-02
-1.167149236577258904e+02 1.772473851428378282e+02 4.118656873088780657e+01 -9.266081303164231286e+00 -9.190252215979485584e+01 -1.400694226562966449e+01 -2.173377468484194424e+02 6.924259435895813164e-01 -8.863255849686112242e+01 -1.454020702672288401e+01 -2.071476985922297587e+01 6.775173995518844805e+00 -1.860731077181632998e+00 1.754563556840415686e+02 8.847275070923338092e+01 -4.049970743432550080e+01 -5.513763077553519310e+01 8.283666273071843023e+01 3.430866265485698818e+01 -2.650972953696239998e+01 -8.247515680439607877e+01 -7.721316228277946436e+01 -1.445613095814181648e+01 3.025513972101146365e+01 -2.038425438621395074e+02 -1.032761491322273599e+02 -2.727197705010154749e+01 2.108780226124186754e+02 7.399844785241050715e+01 8.017680224852114179e+01 8.395025468379267863e+01 1.245327101828002103e+00 -8.273467500512431627e+01 2.168222674543218318e+02 -2.559468354228531837e+02 6.144086515736260878e+01 -1.257121069186848388e+02 -3.625089048666319513e+01 4.211358301342377430e+00 1.324968731436509302e+02 -1.285439369320541232e+02 -1.431092131877052154e+01 8.093400389303607767e+01 1.815085132534785828e+02 7.465699376149859745e+01 -7.160816741017627862e+01 4.318074729464916572e+01 -2.965561453916262025e+01 -6.908672192431065184e+01 1.637650248258970862e+02 -7.389666803571741127e+01 -5.453065779069605412e+01 -1.456119488509065718e+02 5.924343130102326604e+00 -5.287927907746473011e+01 4.041700083444725067e+01 -9.278166837492260299e+01 -5.237060441901359553e+01 -1.060497523341156523e+02 -1.625444876981298705e+02 2.039996283298642510e+01 4.736962794381934572e+01 -1.287510468877048311e+02 1.345853401854915354e+01 -8.297640517011832628e+01 5.136281048515233039e+01 1.741872395412238745e+02 -1.508508973975335721e+02 -4.532278031394156415e+01 7.489637400395637634e+00 3.048955208952123908e+00 4.430969983534448886e+01 8.783621038903156375e+01 1.024559657194362039e+00 -9.156258468130708650e+00 -7.326872651814488790e+01 8.187640577464895841e+01 -3.433827659147650735e+01 2.748047115471445778e+01 1.087715230603990619e+02 9.231741435778970128e+01 -4.469462633145716524e+01 6.052232870319468105e+01 1.542191244630274980e+02 1.215312131559312832e+02 -4.246870988426866944e+00 1.822470090617505036e+02 -1.166217321674311762e+02 4.437056513181889983e+00 -4.386432427604206907e+01 2.163714242163657957e+02 -2.219813658769914966e+01 2.988301515467409519e+00 -8.031123369020455982e+01 -7.444666431206136359e+00 -6.682177540895007439e+01 7.086401757131524448e+01 -9.888208404751863156e+01 7.164154399821983077e+01 -4.991179069168427418e+01 -5.207379637197883682e+01 -9.586292931583844279e+01 5.557626876143292804e+01 -5.728230463558517727e+01 -1.562105641480873430e+02 -8.315273394191417822e+01 -1.094439705872847099e+02 -1.644703253157040308e+02 1.422222022327107993e+02 -2.882814635736296793e+01 3.348565221642277834e+01 9.379761723318644329e+01 -1.089099819818690946e+02 5.962299927781593567e+01 -4.532359729170227780e+01 -7.242840067720996444e+01 -9.416842788428630229e+01 2.127217888897334035e+02 -5.936395856313956898e+01 -5.173335508463050303e+01 -4.944729143468808275e+01 8.411629925177800260e+01 -4.329647552451611858e+01 1.443832454065051820e+02 -5.210106110905891086e+01 5.757725077550313131e+01 4.750275563040083249e+00 -8.494991021539954090e+01 7.203596310804016412e+01 2.901466172190897623e+02 -9.620944543141629879e+01 4.971220582952947353e+01 -7.970084072502385197e+01 4.731370803667209657e+01 1.372276839497753826e+02 -5.369260458914619960e+01 1.522963820449851013e+01 -2.814034281678969762e+01 -1.066209540374618996e+02 -1.802465330577218694e+01 4.435073720462450630e+00 -8.196130965543691360e+00 -1.566300429299897345e+01 1.237599623792681172e+02 1.363346831642907659e+02 1.950619669428532177e+02 -3.183632772539448865e+02 3.999764410942478321e+01 -1.645645823208588254e+01 -6.526473070431330825e+01 1.887160602580662214e+02 7.983243783343144173e+01 -2.657685297833369820e+00 -1.214091113327513227e+02 -1.144316438894722943e+01 1.047686116727731616e+02 -1.407408791595448747e+02 -1.765739577432351268e+02 1.123852349796061212e+01 4.445265440663573742e+01 -6.387261370112042869e+01 4.401457097447108424e+01 -1.121550077593557262e+02 -1.585176359244102287e+02 2.214453273197426242e+01 5.089367956484807110e+01 5.009331073627032893e+00 -8.752868726687124479e+01 -9.807950822857040407e+01 -8.841924498054612513e+01 -9.174855429578755661e+01 1.320092070790431116e+01 5.960440500408439135e+01 1.221310517640323212e+02 8.331260372822393379e+01 9.384994290540171846e+01 1.126528155444623138e+02 -7.847230913847835154e+01 -8.658443642070169233e+01 7.399522619119393596e+01 7.175772285062437561e+01 6.217095320033157435e+01 -9.870809828007139686e+00 -9.562946498151168839e+01 5.667645290697922178e+01 -1.878685376828441065e+02 7.052060105457060502e+01 -4.683552158161435841e+01 -1.013665412874612599e+02 7.798652170520207960e+01 -1.797788121689765006e+01 -8.113637581308104529e+01 -6.047006932768019993e+01 -9.595807972409895470e+00 2.552578203373567760e+02 8.074841023767625359e+01 5.769812287415800967e+01 -1.094064678604761696e+02 1.560777117508584126e+02 1.071923373420680115e+00 -9.522693157162977684e+01 1.640928038929037598e+02 -1.624256256083084793e+02 1.661985415951306067e+01 -3.434024458139780478e+01 -2.341685467000913263e+02 -1.422454707919555403e+02 -9.299926332152277553e+01 -3.112394944498612404e+01 -1.271326341666862589e+02 6.148291547681186131e+01 6.924888765627675014e+01 -2.935206729739857323e+01 -1.062327571133004369e+02 1.205493030065307778e+02 1.260558273900659998e+02 4.927030356368629072e+01 1.857520423272018206e+01 2.785968299931636807e+02 4.658557392226109783e+01 -1.272609327858630195e+02 -4.800910870284472765e+01 -1.801298397588336115e+02 3.399088152464125301e+01 1.635900912211052969e+02 -1.583884488526651353e+02 1.405478039037115536e+02 -9.705740040453783024e+01 -2.013622665144756496e+01 -7.487904632381472414e-01 5.638876662501834858e+01 -1.241129969521433907e+01 -2.429098663368762701e+01 -2.026761455721402072e+01 -1.351488918176209211e+02 4.958151987100468006e+01 -3.243420281642980996e+01 -1.391280206940217212e+01 -1.142875891471685001e+01 2.412333311891511300e+02 1.859323923933325204e+02 2.483716050665317994e+02 1.407259213320223807e+02 -9.243723261627117438e+01 8.033010572469206068e+01 2.251637828458228441e+01 5.088859328139192684e+01 -4.248571554920417270e+01 2.727972261985622708e+02 -2.486126532892295771e+01 -1.460269225338483352e+02 -1.599029335747658997e+01 -4.893048250326852866e+01 -8.270687238454516432e+01 4.611061207957911279e+01 -1.251388158132802353e+01 1.943409125685370213e+02 9.879520997528670989e+01 4.369394666221543844e+01 1.047892009456995766e+02 1.008544071968634910e+02 -2.456650965678413812e+01 1.492136359102873087e+02 2.826419849486600455e+01 9.568447160764725368e+01 5.088824946573992491e+01 7.422223323629697944e+00 -1.237365784590472941e+02 -1.237516838239896231e+02 -9.617565295915352408e+01 -1.665400234442457972e+01 9.262654996585270339e+01 -3.280067066292524203e+01 1.056937053855240265e+02 4.680158584655880816e+01 -7.772531438935962456e+01 -3.205048643833772815e+01 -6.263714915022866592e+01 1.876484766611462973e+01 -4.955591409519824708e+01 -1.197513048442970955e+02 1.299203490884335110e+02 1.296675536084298415e+02 -8.434734683482056994e+01 5.876391894260703630e+00 -4.840865200168011029e+01 -3.490286961128830967e+01 -1.212323125962997672e+01 -3.334431374441754770e+01 4.746054256101372459e+01 -1.501301887213301711e+02 -5.643629320530245508e+01 -1.623268556177589517e+02 1.860469041670216370e+02 -2.166692639710258916e+01 6.301068773098288034e+01 1.276613138495090816e+01 1.542510759908232671e+02 4.772652339039354530e+01 3.820136683407814360e+01 1.647918622750238171e+02 -5.260521282228097562e+01 -1.041570124800108630e+02 2.895098435860654718e+01 -1.686678634000574846e+02 -5.698475274178131400e+01 1.091436898555913899e+02 -1.364235729562977895e+02 -3.881451805622075568e+01 9.743095895738342449e+01 -1.008742037195180643e+02 -9.554528824325400649e+01 -8.820600206213345018e+01 -6.815166798853567798e+01 2.656380540319337911e+02 2.114127598906768810e+02 1.099088596214092490e+02 -1.090146613287988799e+02 7.986692576108974606e+01 -7.046199463893937320e+01 -3.316346736194423528e+01 1.768789983608521510e+01 -3.424951160192697586e+01 -9.995131944362050547e+01 -2.831998273808375099e+00 1.580667749262661914e+01 1.158534599821745417e+02 -1.368476817317968539e+02 4.453578864675623805e+01 6.787374087812199264e+01 3.682004419084406521e+01 -9.644334799836114769e+01 -1.580116132755880756e+02 2.056543713956453701e+02 -1.896806558674257914e+01 2.680291351779214182e+01 1.664417453385568422e+02 2.837179996899477885e+01 2.951890839272596878e+01 -4.733574744354781672e+01 9.417252368360131243e+01 -1.449604792430911573e+02 -3.276037963063346581e+01 -6.517590432219646956e+00 -5.679390876685114620e+01 6.485577547359190120e+00 2.268393782041943041e+01 -3.802789521934881378e+01 1.452100756923952396e+01 2.270431173361288870e+02 -2.908261307750914781e+01 -2.967565484771231965e+01 -1.079810406372159690e+02 -1.771760223470423945e+00 -8.578688807617581347e+01 6.829288150548064706e+00 1.189991990936663200e+02 -5.526344588899989674e+01 6.432105023004065281e+00 -5.770291737922389075e+01 3.555914350247330269e+00 9.261961832926166949e+01 -1.230234889782166050e+02 -1.027601798035527167e+02 -1.088610671840053925e+02 7.583690060020843760e+01 9.190467149807949454e+01 -9.805271486770188005e+01 6.642699453831524181e+01 2.738311638456860564e+01 4.107005358501076131e+01 -1.886267864714587716e+01 9.694060458164121030e+01 8.467113445969059171e+01 -8.205998966373111614e+01 1.263420987419270958e+01 8.589884070700504992e+01 7.736402478102576197e+01 -2.107769486062802855e+01 2.654055635556829884e+01 -1.407278830755723789e+02 5.147044480873019268e+01 -3.476787085049969050e+01 -3.461931021296621225e+01 1.838187001294289189e+02 5.037324008683555832e+01 1.276143525449603260e+02 2.026374166656275406e+02 -1.461619724747701810e+02 1.581795974317465436e+02 -6.721812167423229312e+01 -1.434026143969900886e+02 8.737653836723720246e+01 -1.423314451267800678e+02 -3.045319505082813194e+01 5.990059005562574157e+01 8.617941027089480954e+00 -1.783476947296254025e+02 8.934530596552986026e+01 2.673863732805245164e+01 7.334338869357115698e+01 3.846721626781054226e+01 1.006540192973248438e+01 -7.123497473618070330e+01 1.228633405347524103e+02 5.781712997054294334e+01 -6.594148990820542622e+01 -1.074378557483804855e+02 4.137491970795258567e+01 2.718387015851382316e+01 8.740941660433234972e+01 1.949212454675177071e+02 -2.616767079659707917e+01 -1.168715752821490383e+02 -8.998471763275360047e+01 -5.446741331639498895e+01 -4.715246720222337729e+01 -1.557311605680811510e+02 -2.385034992672886034e+01 1.373717599947415806e+02 7.912263578177787338e+01 -1.298597010134125185e+02 -1.589089818579656992e+02 -7.229961567958621060e+01 -8.109556648723774686e+01 1.556431110924400514e+02 -1.808545186433751155e+02 9.177726759152132274e+01 -4.890794317528309954e+00 -4.563024668826493269e+01 1.413828905199086883e+01 9.677953876608010830e+01 5.267202635021578772e+01 1.466403270625969526e+02 -1.688256649784962633e+02 -8.591141715277660751e+01 2.684163915874181328e+01 4.450236371258002066e+01 2.187544053455087578e+02 1.542949900268760928e+02 6.948554755266111727e+01 7.650020625515558947e+01 -3.644254043651795882e+01 1.611180732464518428e+02 -1.901917562877477508e+02 -6.722387010633856619e+01 -5.696284444508643929e+01 -5.494936113713788473e+01 -1.096124926176283338e+02 -1.588031077565093341e+01 -7.283570396227234767e+01 7.554056131788563277e+01 -9.741705768723376124e+00 -6.169074540294850095e+01 -6.617904393744051106e+01 1.911594500188755035e+02 6.252527140696113150e+01 -1.449780175637654267e+01 2.215584858328032283e+02 -1.148743937368229808e+02 -3.749688252331215921e+01 7.101427680665581477e+01 -1.292263339773302155e-01 1.580449897426596451e+01 -1.325765514417699080e+02 1.868556679387585859e+02 -5.201250884945311981e+01 -2.862875669833235293e+01 -1.163497346603116966e+02 1.334468944130880459e+02 1.017244697233926303e+02 -8.221336227543739028e+01 -3.975892232687780847e+01 4.125050921240380575e+01 -1.605089549962692672e+02 -1.036829083806102975e-01 -7.917440251030645015e+01 8.189450738647153116e+00 -1.146139489919613084e+02 -1.679977640096968798e+02 -7.487660512232292831e+01 1.569615319987139230e+02 5.999382641670291605e+01 -9.490242216586487700e+01 9.449725358283363619e+01 3.630370384238062087e+01 9.346142144080259584e+01 -4.459307654225585793e+01 -8.907526163048244428e+01 1.810478734108745016e+02 4.413909917627745472e+01 3.066275661858945156e+01 -7.730712335887618281e+01 -4.477655573090920171e+01 1.015982956731281384e+01 -7.560086718810267392e+00 -1.828561759477740623e+02 -3.659246687597401859e+01 6.816746543540810421e+01 1.181130422963486950e+02 1.646619597304155604e+02 -1.401278217455420716e+01 9.476661036845142405e+01 1.667260994190851022e+02 6.707154983822158556e+01 1.563225170432237405e+02 1.697424939101576058e+01 1.387460706338729324e+02 -8.869184899504685404e+01 5.641325425086241552e+01 3.103333699536566925e+01 8.014144169881927837e+01 -1.121358340353663863e+02 2.089997023542792078e+02 -1.360318858112767089e+02 9.314960665793816474e+01 -1.134309185550675352e+02 4.864733054052291550e+01 1.454452556688409715e+01 9.569617927734459784e+01 -7.772669460052649981e+01 -7.962339625137647658e+01 -1.180438288729890139e+01 9.391456204240280670e+01 -3.117532669272025458e+01 -1.720367395344905503e+01 -2.068849200338572558e+01 4.992934603335301702e+00 1.033829086239603896e+02 -6.591875300926457726e+01 -2.870022372135089483e+00 -2.038251624185369622e+02 1.280441369196614119e+02 -1.311193056238639372e+02 -7.760130021220409446e+01 -2.474550482418301556e+01 -1.133060411285638622e+02 -5.583661770294074955e+01 -6.147511799947969990e+01 -2.062642728436574657e+01 1.431143467238770768e+02 5.676005072931534556e+01 1.054724190718728067e+02 -1.428914878624283631e+02 -1.455168557491543311e+02 -3.007176207403897479e+02 1.072058546779983033e+02 1.095305668412803044e+02 4.434504556154085719e+01 -4.448778034873033249e+01 -3.912707059321873260e+01 -1.927812713797604260e+02 1.534970497260868569e+02 -1.128121787780741130e+02 1.123155201959840213e+02 -1.672400958230433048e+02 -1.501340774375237608e+01 -5.815149052015683395e+01 -1.252185051456982876e+02 -4.840050250713508007e+01 -1.306524831977938739e+01 -9.728807646344873206e+01 -1.087374636559459589e+02 -1.296809372312895370e+01 7.480243098457847850e+01 -1.309299371063495983e+02 -1.647855002618561926e+01 -7.748327760256188412e+01 -1.380510803400528914e+02 7.081416255400930559e+00 1.000659886494437529e+02 1.738479607644871692e+02 -2.005459420897159717e+01 -4.840063313446445648e+01 -1.304022735187263322e+02 -1.718168799919487242e+02 1.089997865044069840e+02 -7.645225602889064476e+01 8.306985873102877349e+01 9.889435988067646122e+00 3.077914586283505827e+01 7.762890784623483853e+01 -8.901797931398743913e+01 8.686765001222104843e+01 1.211532809047107833e+02 1.653972416560445993e+02 -1.226148920092721681e+02 1.092438078729244921e+02 -5.018391580308689015e+01 -9.543673850704310269e+01 2.255054780989231631e+02 5.182165012383374147e+01 8.773910047389043143e+01 2.244924774036590875e+01 -6.633259852188159300e+01 -3.673007945911982830e+01 -2.211335781836223191e+02 1.110297191915302761e+02 8.570806243713934691e+01 -7.958423129692228315e+01 -7.694599197090204257e+01 1.526488163858578275e+02 1.062485644553386948e+02 5.372728105536126009e+01 8.000723107112887078e+01 -8.351316125161426740e+00 1.084999579084830401e+02 -1.087997233946905311e+02 1.960293807915610955e+02 -4.150874626960111868e+01 -1.282311872593356270e+02 -3.955557362773340913e+01 7.543478038080451142e+01 1.549243863420446132e+02 1.365665996125800596e+01 1.827527594214382134e+02 5.491112258266458213e+01 3.532138924444741690e+01 -1.170582614822890690e+02 4.715097448961829940e+01 -1.315188929370852406e+02 5.011953501236111919e+01 4.069180767142439947e+01 -1.296467137793940196e+02 -8.940494782033646004e+01 4.185937584717188997e+01 9.176098282049105492e+00 -2.445984220083225580e+01 4.397593168735618718e+01 -2.249582985206006214e+01 -6.634289081241684016e+01 -2.740452832839732622e+01 -2.365067060456388148e+01 -4.189048048362696619e+01 1.976216814798530663e+01 -8.459720249704326989e+01 1.250871102671351451e+02 -7.820866935238771589e+01 -4.585266646501099608e+00 6.879622402464941899e+01 4.124023856224337869e+00 1.674346894420823162e+01 1.676454979907786935e+01 -1.231926972705688144e+02 -4.658426297339707922e+00 6.841058183644270230e+01 -2.433656693702396865e+02 -8.918156230622786040e+01 -1.185621176032634452e+02 4.603272569041234163e+01 1.011873481798559453e+02 -9.645036524685968971e+01 -1.765328379718137626e+02 -1.946170835980472589e+02 2.101891321544045610e+01 -1.524048441594649148e+02 -6.632937101168781879e+00 1.551127305933139553e+02 -7.508156343500075103e+00 3.904408279782788327e+01 -1.039219618906822689e+02 8.378279271300797859e+01 -1.243683873836718448e+02 -1.612961427171737938e+01 -3.181027412650671948e+01 6.030869165875843407e+01 -9.347298292201902115e+00 1.106963277525962610e+02 -1.277571655687441705e+02 -5.241543205994670274e+01 9.045126866456720904e+01 6.919413805011654972e+01 -8.616790460068361313e+01 -5.685389347460601073e+01 -5.156098494484155736e+01 -3.023404789417494953e+02 2.021714626654175504e+02 7.954403249709966417e+01 -2.468029550527124272e+01 -3.096311096923481188e+01 4.335219834893315749e+01 -8.789927286611276713e+01 1.039107052691777966e+02 6.303292465307953307e+01 8.564733282560730743e+01 -8.771122909000521872e+01 -2.777739524055651543e+01 3.480979877944047018e+01 1.812259459287269436e+01 -4.459472811295191974e+01 1.645080195452877092e+02 -1.803610515927732294e+01 3.684136248686464654e+01 -2.393665540649530215e+02 -8.825350908846324671e+01 -7.623493813509176675e+01 2.396265616478919824e+01 1.137207823131666942e+02 -2.411660124882681941e+02 -1.947461227699569406e+02 2.308593713922140580e+02 -1.101089920609209827e+01 1.000668256035711181e+02 6.538167303567369970e+01 -5.768335124691088112e+01 -1.364078924725669708e+02 -9.908694327763298304e+01 -5.235015956924285518e+01 -3.900941867743721048e+01 -4.076321048209667453e+01 1.687806678536949434e+01 3.861057744421715654e+01 1.736339730684785820e+02 1.282172014794112727e+02 7.156374706531603458e+00 -4.542942291558166978e+00 -1.653852035981252300e+02 1.245718199911306812e+02 1.659075413055842318e+02 -1.076248455328242812e+02 7.677693284553593855e+01 1.913936672217181556e+00 5.710579943246430901e+01 1.306600634383887609e+02 7.386180660511446661e+01 -1.395160171858429692e+02 1.684291276972270524e+01 -3.059439706842441709e+01 1.159239775568593878e+01 -2.419044345378533123e+01 4.725391166080044769e+01 -2.712462219644727952e+02 1.887949426413699712e+02 7.667315995005801632e+00 1.661379854747259799e+02 -1.104559320395141953e+01 1.107147286190510584e+02 7.468100189355753571e+01 -4.383718020273506966e+01 3.112796677680406177e+01 -7.587595336781741651e+01 -9.276695036036755937e+01 -7.522617312143795232e+01 -3.342814156627758138e+01 4.716512131230581417e+01 1.150043520570028193e+02 2.977742177037707805e+01 6.475544470780185691e+01 -1.094165519862702212e+02 -1.431902499425138728e+02 -1.408160975088719624e+01 4.848607987780911799e+01 -4.760927672229032481e+01 9.869009083254881887e+01 5.796204836150283057e+01 -2.889958340997443287e+01 3.130053549901130339e+01 6.409184596614505836e+01 -7.537554330210510045e+01 -1.397380431977487945e+02 1.485189350296364523e+02 8.172229271856783939e+00 5.242555052816121730e+01 -1.560605057270888665e+02 -5.583933173044151488e+01 -5.124086037926079973e-01 -6.865862092584607979e+01 4.481192232341967951e+00 5.886324102902869981e+01 1.950555203218674478e+02 4.093519843138078329e+01 -1.148073703442980076e+01 7.551832124141348856e+01 -4.763364806838710308e+01 -1.141027817283482619e+02 -1.447352498711655926e+02 9.829328854485142486e+00 2.630619656605032120e+01 2.488845451667295094e+01 -5.958995007694747414e+01 1.266363130789677172e+02 -8.474078655480820998e+01 1.345231628356703197e+02 9.153258068554067961e+01 -6.820439683052879332e+01 -8.873952076294857250e+01 8.827971176176971824e+01 2.153860964355196472e+01 -5.502566228102197243e+01 -5.650582083411089229e+01 1.433327980919629567e+02 6.009768808853032596e+01 8.379155612527840447e+01 2.744123101832241929e+01 -4.420950753575338865e+01 1.128751766862172730e+02 -5.728540614137438070e+01 5.301360422463388122e-01 8.045398005881455106e+01 1.045847016616746998e+02 2.683016537098018830e+02 -1.839596394646726196e+02 1.691401996854053209e+02 -7.109200877371607419e+01 -1.599358934175232960e+01 -2.627190418755157353e+01 -2.180217539906254487e+01 -5.808239721975203196e+01 9.768976753579781303e+01 1.937107410550710256e+02 -1.250603929223298678e+02 3.256093267267466018e+01 -1.336302375339068078e+02 7.392766182676716369e+01 -4.691410042184886464e+01 -8.530144917672203064e+01 -5.677089583829873476e+01 4.339304984008681743e+01 2.047597448108546558e+01 -8.633158114861437582e+01 -1.488996964746161211e+02 2.193993369030386020e+01 1.664461553520932284e+02 1.508796528355676081e+01 1.928054960695875764e+02 7.899252836600844319e+00 1.422846024791321327e+02 -3.659364312366334104e+01 9.589055683169385702e+01 -7.558188632515114591e+01 -1.194693708766793350e+02 5.231801458866397070e+01 -6.143740044407148559e+01 -8.312062068752508992e+01 7.726392292298264408e+01 6.794119482144150624e+00 -9.995204940153618622e+01 -1.595225671824969425e+02 1.567618992012104400e+02 -9.456018757202426173e+01 -2.453701731139809272e+00 1.273671552459294247e+02 6.161002611887119684e+01 -1.042001026074275956e+02 1.123968221122035516e+01 2.994471488004348885e+02 5.666013304207388757e+01 -1.675846089105930332e+02 -5.067816854132737348e+01 -6.542715728062313474e+01 1.025709044540074011e+01 1.143419950640031004e+02 -1.099854216120052399e+02 2.290082222527060907e+01 1.388201764508205542e+02 1.998157634796843141e+01 -2.247380338396150705e+02 5.149829021493251702e+01 8.031031110230635761e+01 -1.442522137813891092e+01 3.492646277618322870e+01 1.068495189161794562e-01 2.388047874234463919e+01 2.951980231466167481e+01 1.232352544902393845e+02 1.042802489020194088e+02 1.645856733433708285e+01 1.586197094851117129e+02 -6.814028903180145846e+01 2.625120210174398494e+02 6.919460780140001077e+01 1.507678449940707992e+02 -2.340212729912088108e+01 9.585201822273982941e+01 -5.230728932279806997e+01 -1.558239406072691224e+02 2.791733365896810426e+01 1.013225508891929252e+02 -9.333270935445304417e+01 -1.115161104056246444e+02 -7.084574067071648074e+01 3.893357531703237129e+01 -1.216931426231220286e+02 7.961164779145347836e+01 2.993390301975270518e+01 -1.039524640927820229e+02 2.023191211982422999e+02 -1.253113789183564286e+01 -1.083302075639751223e+02 -1.421261310267512812e+01 -2.176300967942012221e+01 -1.493722857145187675e+02 -4.266244502200146371e+01 6.549281104220609961e+01 1.403231165831759881e+02 3.087818470139673011e+01 2.853731631741560193e+01 4.770936890753274184e+01 -3.813310145495299963e+01 -1.550446433946014508e+02 1.684061759097548716e+01 3.305963513623821370e+01 1.417385071398787773e+02 -1.064248554766117572e+01 -8.112829815913703158e+01 7.799618189406353963e+01 1.087065977361312052e+00 3.414525035365841887e+01 1.484563704273222129e+02 -1.892118276827393686e+02 -9.890473229262008203e+01 1.328704411225548938e+02 -2.233375279562413880e+02 -1.903861078254121821e+02 9.414692101780919131e+01 1.594154369366020205e+02 6.556948609828559427e+01 -4.574728779820127933e+00 1.613120703201367689e+02 -2.271578251463058677e+02 1.109285837890566029e+02 4.387697081844149949e+01 1.315558421909731521e+02 -1.952306865846124140e+02 1.104052066903997371e+02 -2.933704815899925933e+01 -1.384162859699012813e+02 -5.518944379356825358e+00 -9.567951821744426866e+01 -1.698240097293521700e+01 -4.368626129803043767e+00 -1.275241428899649065e+02 -1.276578756037178266e+02 -6.479083219424008178e+01 -1.334889571440346003e+02 2.080929029756961199e+02 -1.665946357276174012e+02 -5.191829819677151647e+01 1.786024411532038414e+02 3.511187859694987168e+01 -3.063852387501850103e+02 -1.314988396115493003e+02 3.679862291907022609e+01 5.654961580311886138e+01 8.970790934049583498e+00 -1.601130296589257966e+02 3.694553895845880476e+01 7.688688725366612076e+00 -7.693986125486493677e+01 2.098090331806754989e+02 2.097558239550198778e+02 4.464236090112461142e+00 -2.158366695558743515e+02 1.304370989054987717e+02 3.187861813777363196e+01 3.823271795731682854e+00 7.937419846529044776e+01 -2.147359537221347807e+02 -1.429140940428473527e+02 1.460358056187435523e+02 1.134824271606645283e+02 5.482696369258790980e+01 1.483193060187651326e+02 -1.845281007002036802e+02 -2.111735602614631802e+01 -1.350540508107553705e+02 4.503731164973325463e+01 -1.075024733305888986e+02 9.007575465737703269e+01 -3.501907402637500866e+01 1.281392611005425763e+01 1.836443095693828411e+02 2.943641457578786103e+01 -2.728211799966485387e+02 -1.307572987109393807e+02 -8.629542879250794840e+01 1.636512277600780294e+02 1.296888726952479054e+01 -5.562512382348256779e+01 3.151492828306962934e+01 6.475018294220438975e+01 -4.101060577734867962e+01 1.112913052031060488e+02 -1.042596923452149724e+02 5.093925992815861292e+01 1.158481972611263444e+02 -3.660700607604524492e+01 -1.015639532942294068e+02 -1.173444308831406744e+02 1.239562715054293989e+02 -5.137430260726211628e+01 2.034468297792736848e+02 5.921058107333236364e+01 1.148623527333738679e+02 1.907776467344653781e+02 8.868016983180648793e+00 -1.285964032563859689e+02 -1.716255081252250250e+02 -1.182246750484156905e+02 4.392292507127452694e+01
-1.380522708584904024e+01 -4.834549459011720174e+00 1.047372415923705091e+02 -2.315279601590548282e+02 1.571308302078728047e+02 6.426170871028625697e+01 1.538064970776027849e+02 -1.305671934293380616e+02 -2.833109956395875706e+00 -2.435885642616052849e+01 -2.218868550629137246e+02 3.313094420720538125e+01 -1.853613584933057012e+01 1.236256846992574907e+02 -1.263843127940032787e+02 6.238321916826090074e+01 1.267148716841651748e+02 -4.643507495256567807e+01 -5.028376393691500112e+01 -2.741695479976526428e+01 6.235106099541977898e+01 6.386024143572252854e+01 3.275048643765281753e+01 -2.351149803200234203e+02 -5.225619266973153998e+01 9.244292967226034818e+01 1.000146545162589007e+01 -1.043729037629152145e+01 -6.728155991605159159e+01 -1.558494471045982799e+01 7.414449027292005212e+01 -1.470086893613953976e+02 -6.253715649446788660e+01 9.117398794104904169e+00 2.097160391675429025e+02 2.143449843920825799e+02 -3.235336389641815202e+01 5.650143425799502239e+01 -2.948748887823771647e-01 -1.412151025137848137e+02 9.705254786398715794e+01 1.084421412292897315e+02 1.097200353904354984e+02 1.183873769058221725e+01 6.259519078742479081e+01 4.866128379758465883e+01 3.932258357518016112e+01 2.961102599462317286e+01 1.115089316664014092e+02 9.072390756965681646e+01 6.635195221808407950e+01 1.647450016416081269e+02 2.502580017511582184e+02 1.976967918555075983e+02 -5.976595670004054739e+01 4.980366260350181307e+01 -6.502672111346667805e+01 5.706713496280061548e+01 -1.942020611837448314e+02 5.712253019020658229e+01 -2.070510254311980418e+02 -1.705496404092207570e+02 1.307451233842692240e+01 -9.313527555906631505e+00 1.714203810245705029e+02 -2.101648270055951855e+02 7.612260669137891966e+01 2.322892193999143728e+02 -7.353335733077012826e+00 -1.967659180302408686e+02 3.603091280275070574e+01 1.994286019676264345e+02 -6.176427964801747095e+01 -2.693442461406187363e+02 -1.036964318535274572e+02 8.869549078305961842e+00 -2.326471750503218630e+02 3.231694437978314483e+01 -1.814756660773847443e+02 -1.877208296828346192e+02 -5.769001548381901046e+01 1.542810891254903538e+02 7.036450825092028083e+01 1.071532267152717033e+01 -8.961855048238334120e+01 -4.311664485198740948e+01 6.453279651362741731e+01 -2.348146917571778545e+02 5.476639991963779863e+01 -7.599140526134176810e+01 -7.902050054968175630e+01 -1.789694660314729049e+02 6.594257422955128334e+01 9.395994910959336721e+01 -1.643755116449103468e+02 1.749020923407940700e+02 -4.042698768624648409e+01 -1.712645837465285581e+01 8.860381188873347469e+01 1.582682823648245005e+02 2.190960275059654094e+01 1.533684752188441678e+02 -1.866640875795997090e+01 -9.187775738963144079e+01 -1.988438061550774805e+01 1.024135192034521964e+02 4.682623157346053944e+01 1.018600761978615452e+02 9.831510464557119633e+01 -8.643963830495266620e+01 -1.769296162931388210e+02 1.281512672784645588e+02 5.651214424566414607e+01 1.676751088295290870e+01 3.185422394952831837e+01 -7.074277205518716016e+01 1.000350459297264791e+02 9.354341363393943709e+01 -1.419250224805182903e+01 -7.419210875685929807e+01 3.211116883280298850e+01 6.525071604983468276e+00 -6.415459079169525580e+01 1.766072297166024896e+02 -3.449733434846832836e+01 1.267265870365637710e+02 -7.308939257014321811e+01 4.000424889104601078e+01 -3.768530060952620886e+01 9.322886932409846850e+01 2.449802254857259243e+01 1.204862402182940286e+02 -1.209056168233776845e+02 7.751695538288566922e+01 1.288018718786882744e+02 -4.666075259759433180e+01 7.854764645304531001e+00 -1.311643367500681201e+01 1.217702733105245727e+02 3.603051407112089155e+00 1.760459902043670581e+02 -1.475548565162320074e+02 1.218000995880770461e+02 -9.539455110272815830e+01 9.990140088393117423e+01 -1.430621359819681118e+02 3.083203419597672479e+01 2.581658488863904211e+01 1.933914900374243295e+00 3.791878633852415703e+01 4.785523668438451494e+01 -1.302731815887130296e+01 1.119962864311858652e+01 1.129006344425407917e+02 1.329704125908570802e+02 -9.051298658322730262e+01 -5.669896211230934568e+01 4.953320751369896868e+01 1.633753151256759795e+00 -1.430915572286756685e+02 -5.752633720295772690e+01 -3.711239398361873043e+01 5.116492391667051720e+01 -6.858100072319481910e+01 2.399634286108250691e+01 1.676854317193217128e+02 -8.313580731814178648e+01 8.445725698126931036e+01 8.800057876701259829e+01 1.169959746667632849e+01 1.291480026707581032e+02 6.581457980904802696e+01 1.759001559054804034e+02 -3.610617989985760801e+01 1.177831535384056565e+02 5.814447183805847885e+01 -1.685459781662392942e+01 2.138122484486091537e+02 -1.454497786810926527e+02 5.120156993957209579e+01 -1.965608805416761982e+02 -8.824917112805805175e+01 4.298234247709473976e+01 -7.569341123516123560e+01 -1.634539438565661555e+02 2.090224771462367812e+02 -8.997507572055553737e+01 -4.981273928383156147e+01 -4.855881992810476788e+01 1.277294237044348648e+02 2.043893273860460624e+02 6.795777888473510586e+01 1.534790426433673645e+02 2.302858687804386193e+02 -1.735106850631914055e+00 1.710218812858895774e+02 7.441279392286416794e+01 1.998438574538645867e+02 -1.319886238167753447e+02 -1.249668613491382274e+01 6.630421433963356925e+00 1.994138606589626477e+02 -9.546508615193577896e+01 -6.341388784923675814e+01 -5.560237011087323111e+01 -1.405443766135879571e+02 4.886071512451504617e+00 -1.059707826153314159e+02 1.616932741222176730e+02 2.476931177398857997e+01 1.263043758936457728e+01 7.590947352789747526e+01 -5.210526001071328572e+00 1.227100775810319675e+02 -1.667079231890591871e+02 4.763628595256606246e+01 -1.794127067748147510e+02 1.232651057094408600e+02 1.007177034030605398e+02 -7.069876080616172942e+01 4.904953835237090232e+01 2.499738670669338774e+02 -3.194717413406515760e+01 4.374261975345743991e+01 -3.428783238506087372e+01 6.080884281544329895e+01 6.751312972639873067e+01 -6.568164255060061407e+00 1.070287143687765337e+02 1.066237450142196650e+02 -2.035126027381186873e+02 -1.608590776782389753e+02 -1.257254344664604133e+02 -9.951079548618400494e+00 -1.572595171948237862e+02 1.212714176257573797e+02 1.158569119567507926e+02 6.185807865102687231e+01 1.170865305685169666e+01 1.655123414823090116e+02 8.812059817182897348e+01 7.081444348335871553e+01 -1.067148726037951150e+02 1.597836066496413707e+02 -3.722540190479375788e+00 1.146878232888709164e+02 9.243337912150156654e+00 3.856057475740362150e+01 -7.946606705370322743e+01 -9.524252996433790486e+01 7.509523965436315507e+01 -3.987732200331692400e+00 1.534936515276419868e+02 -1.321170109516931035e+01 -3.011641908821082847e+00 4.809447514130819457e+01 2.376712448679877809e+01 1.483030696876664365e+02 1.528253308859587989e+01 3.756340912888968120e+01 -1.622320940841360937e+02 6.906806473148758130e+01 1.401287206202814275e+02 -1.860914461443496037e+01 -2.389515738973138639e+02 8.844239128933607219e+01 1.425001576372046941e+02 2.119316553407031734e+01 1.975853215686383351e+02 -4.233505312537886311e+00 4.485487469095067325e+01 -4.548856896763756197e+01 -1.448311387167553619e+02 5.840655179828692667e+01 -4.951940187332048282e+01 -8.463252198829404449e+01 4.297186997388512708e+01 -1.927274536969273413e+02 7.485075167317613420e+01 1.712703651209949669e+02 -1.055021359437177750e+02 1.801628431641391899e+02 -1.018040216553766442e+02 -6.257115292491073788e+00 -1.092606669055128066e+01 7.971988528476838098e+01 -4.843983888645976776e+01 -1.122500091631827246e+02 -9.208043829224889976e+01 1.516362146955315495e+02 6.146813179722092713e+01 -1.369076896605147908e+02 4.641087685706009935e+00 4.518927256611011245e+01 8.583939361879403407e+01 -4.192645839307959221e+01 6.238156118695843588e+01 -7.166724674537866235e+01 -1.687502430909159159e+02 -3.599428454276679190e+01 1.464750605946624660e+02 -1.177138895792983391e+02 -6.701311428871103537e+00 -1.692677766551936145e+02 -4.893152525048584778e+00 -1.514698142781323611e+02 3.410933649450922900e+01 6.237201939262016026e+01 -5.225437082446001114e+01 -8.555503416320222243e+01 5.833185018254719800e+00 7.719188169556962009e+01 -7.032416649079469551e+01 1.397957932767809552e+02 1.093997554791766902e+02 -1.324092459295513891e+02 -1.093598543272645855e+02 1.400897385911071069e+02 7.401190409159639216e+01 1.557011325098572172e+02 1.040672278340696408e+02 8.417127266455968027e+01 -6.243924728064622087e+01 -8.477033171253928856e+01 -7.987627580955972917e+01 2.118508895744332676e+02 3.155757280969892520e+01 -2.576489946471208015e+01 -7.101140737184249474e+01 -5.186105034367718503e+01 -1.357719612370362086e+02 -1.711011430772752817e+01 -1.808895885258774001e+02 1.289418049783589595e+02 4.749197532761407103e+01 -1.188562122992077548e+02 -4.986944253485376777e+01 1.234826530713493042e+02 -1.000495743601088776e+02 1.059999399842423315e+02 -1.220968087713806085e+02 -1.211758214426181013e+01 -9.845355410491879411e+01 9.244471344537059565e+01 -4.380185458259930442e+01 1.070926791079483564e+01 3.020275795242390160e+01 -1.305631914199435641e+02 1.289008172312161982e+01 4.977278721003501971e+01 -2.314776555144955239e+01 -7.084840867149715393e+01 2.086017226426269531e+02 8.906499066019540578e+01 4.859830618520238232e+01 -3.238432275201360966e+01 8.270529236266474982e+01 1.726631777144712885e+02 -9.513214915504646285e+01 2.157578449996067036e+02 -1.371139827713563193e+02 -1.895112513221670838e+02 1.565030458911093660e+02 -2.409873802345020124e+02 -1.069425957746107603e+00 -2.522885289516207195e+02 -1.575684466081704329e+02 7.389809268409874221e+01 -1.500625385838532964e+02 6.015627934587032399e+01 1.131330034573801697e+02 -1.652515255801177716e+02 -3.108805093389220175e+01 7.765196232267771848e+01 1.379738836750653377e+02 -1.916378775858181598e+02 9.005104488875282698e+01 -1.008785531321572790e+02 -1.019741630239008678e+01 -1.433799542613982858e+01 -8.199256909831278506e+01 -9.305455777108973336e+01 1.868051708792954457e+02 -2.229066935708961594e+01 1.352931100330773129e+00 1.341275336336610451e+02 -8.924261856503478896e+01 -3.546331027535352121e+01 -1.108881303185152944e+02 -5.035213446443460583e+01 5.373508098614272477e+00 6.125358482524985959e+01 -1.393433450384048342e+02 2.447740314342009356e+02 -5.568153968503443707e+01 1.267744331569110159e+02 -5.045774401995478087e+01 1.238527232443501305e+02 1.437136526650215842e+02 4.969438902935328883e+01 1.263158515155314916e+02 -4.470601745308439234e+01 1.447790193796052449e+02 -1.617887824458009618e+02 -6.764759350211481603e+01 -6.515673535575272979e+01 2.637199175199249623e+01 -1.679662368809918576e+02 7.509568180806297732e+01 -3.190648857142793560e+01 -8.552908074640583891e+01 9.276894903340402720e+01 -1.563784177577088883e+02 -9.438287339389864883e+01 -5.439265777258970758e+01 3.425285622394137874e+01 1.343897317309050266e+02 1.210108699545571511e+02 7.159456399757807787e+01 -1.714384355230333279e+00 1.809270727686556484e+02 1.268139313331295597e+02 -9.768687281968159652e+01 -8.094057556942317433e+01 5.760287236215673090e+01 1.037650286319039417e+01 1.013985968915695395e+02 1.724023503873867185e+02 7.302501051090536066e+01 2.517894043114521452e+01 -1.057080941697653742e+02 1.778073345985086746e+02 -1.176352832051167496e+02 -1.710018184737184299e+02 6.797117482392853560e+01 1.152918310252843810e+02 2.027883992169146410e+01 -1.435918362261635650e+02 3.077983379724548030e+01 4.389814255774506790e+01 -2.793709405429321557e-01 1.353391261320017520e+02 1.007189623924960529e+02 1.767551301848607181e+01 8.098361092572575615e+01 -1.106987983304697138e+02 -6.462310315579813391e+00 1.015977498383543036e+02 3.066292835654241244e+01 -6.721082040183677009e+01 2.045753411374235498e+02 2.387514989293759697e+02 -1.297394991202361325e+02 -2.848899770910579221e+01 -2.171961800899572097e+02 -7.455837685223004030e+01 1.618252383356389998e+02 3.563135734446230884e+00 -7.330720578116937247e+01 1.691980912203398759e+02 -6.459217164109347209e+01 -1.658186473461211108e+02 1.409825537372818189e+02 -6.944319043289557669e+01 3.551005022373067987e+01 8.918546138484114749e+01 1.420882596376479512e+01 -2.458732806190354836e+02 4.361051911652614876e+01 -6.281868237504873775e+00 9.293156616210625032e+01 -2.431114654233329730e+01 1.044678370758054626e+02 1.747593264811391833e+01 -8.754979337040235521e+01 -2.111810061912514769e+01 -1.807911341085605272e+02 1.186801650538501178e+02 2.606156493582307476e+01 -4.297347080955746179e+01 -5.347952771087590662e+01 -6.482368827125232258e+01 4.238044181076217143e+01 1.657941878354892538e+02 1.369389713518660017e+02 4.447302663754101815e+01 -2.041508458574296583e+02 -4.002478500699558595e+01 4.519143703937923107e+01 1.211061232988757439e+02 9.005319101216927891e+01 1.596892455591268600e+01 -1.919938156482732552e+02 1.359712067060810909e+02 -2.309109756036237400e+02 -2.123751454135604320e+02 -1.930308127774036597e+00 -7.614108258848114019e+01 -2.480077561874147207e+01 8.992704893508637554e+01 5.771245158175766932e+01 -1.147916561192367766e+02 -1.562540322963182291e+02 1.507760212792408261e+01 1.276465970098548155e+02 2.140907665094373513e+01 -5.852337776694320581e+01 -5.321650518657479978e+01 -1.223140281008495833e+01 1.665281176923006967e+02 2.310499102553819029e+01 -1.823479020478276027e+02 1.346757959217723908e+02 -7.011791422412764518e+01 -4.390235884753168172e+00 1.617633803215400121e+02 -5.498317058908790500e+01 -2.055429692313874668e+01 -1.153921734239345369e+02 -6.323873565173079747e+00 -2.507887664535908456e+01 1.384087961142992356e+02 1.261973967576759890e+02 7.099402281857835817e+01 6.867372639136173973e+01 -1.966625901303625312e+01 1.421183130156740617e+02 -1.184142265723350960e+02 -4.490672047122202137e+00 -9.565507676138781790e+01 1.651511601876769078e+02 7.664837826224271566e+01 5.434608929687512813e+01 8.731258562156531511e+00 -5.593906200709292875e+01 3.612459546938202237e+01 7.126095182485558510e+00 3.712123543041602858e+00 2.535935609144130254e+01 6.279605833097098611e+01 1.788379335638688303e+02 -4.074123151194687864e+01 -5.463393390842979613e+01 7.014047419688800744e+01 1.215166136955576093e+02 -1.344516599244099631e+01 9.651142425123633473e+01 1.091824047726849756e+02 2.212997529732841429e+02 -9.091175690692261924e+01 -1.288905827734434411e+02 -3.006267536056929401e+01 6.522436207259791274e+01 -1.065334663001831395e+01 1.128092406224853050e+02 3.907657899731119500e+01 -1.707729164498404373e+02 4.732276429587169275e+01 -9.392886425742318579e+01 -1.420560975027796928e+02 1.411942711519481009e+02 -7.976460096958751933e+01 6.203110821841418954e+01 1.167722463017758372e+02 -1.039890227178655095e+02 2.459540186748233026e+01 -7.571873077087521153e+01 4.220755374528282289e+01 -1.201393901599756475e+02 6.454599471513407138e+01 5.731396234260450484e+01 4.177581352524255109e+00 8.821745095376171264e+01 -1.604432683086052123e+02 8.010664435912242709e+01 -3.059098768673990421e+01 -1.758731768099789861e+02 9.830722781419484591e+01 2.548877499742949482e+01 -2.042759324693180076e+02 2.448450893976720408e+02 -5.427535146633558627e-01 1.095034714739017829e+02 -1.255594995410411059e+02 -2.021810693686210811e+02 -9.714277494154731585e+01 2.545560329385280873e+00 1.488117913074381988e+02 4.227395431946522564e+00 -9.947765222713405819e+01 5.254528190489509853e+01 1.426757909172789027e+02 6.768447049361292045e+01 -5.390371946193514674e+01 -6.155789058769733657e+01 8.798446876421304808e+01 3.205865455400258668e+01 -2.035224636629768042e+02 -2.158941998736816004e+01 1.759960998060077486e+02 1.029424307759408208e+02 -5.964879269441262011e+01 -1.163960289702857693e+02 -4.444753321560587267e+01 -5.005350581125004794e+01 -1.191569441964878280e+02 -1.930377555731285710e+01 -4.754536612919350347e+01 -1.182744069480344962e+02 -1.372384481497698516e+02 -2.799313086332159628e+01 -1.307959796790340761e+02 -1.392014424425379673e+02 -3.990457315821302586e+01 -5.765869173837850781e+01 -1.155117957431464788e+02 2.008331686948859556e+02 1.137330560054829753e+01 -3.036490032558944563e+01 -1.836706335659096112e+01 8.487106042447899767e+01 1.685698312865552850e+01 2.702524685217807843e+01 -2.303170615085533157e+01 -4.980560039232089053e+01 2.258518479789679034e+01 -1.568052098038913584e+02 -1.717803358103570588e+02 -9.764248460861837486e+01 -2.059053288971716995e+02 -9.672005390279014136e+01 9.263686569596816867e+01 6.621639187478507438e+01 -2.813914733930378276e+01 6.557113123806615818e+01 -1.688692189544429709e+02 -4.395792975007694281e+01 -1.252678187449483715e+02 -7.203218326005152505e+01 2.275089599837722574e+02 -2.214913975756262232e+02 2.214780477378917283e+02 2.701651221408566528e+01 -6.097530857675404548e+01 9.959887276959160829e+01 1.338880187086838873e+02 -5.599440736567388655e+01 -2.197572993445513134e+02 -1.608766854874965020e+02 1.103188075366665117e+02 9.038185752961678077e+01 -1.463207418265657793e+02 3.451719399435308588e+01 -4.276102220937172405e+01 -8.350927980686654450e+01 -3.066388273638683870e+01 -5.918127584068967906e+01 -9.329839374757604276e+01 -3.668685494694283733e+01 4.766887157469859915e+00 -3.535770398407630921e+01 -4.643121440129207578e-01 -1.555318323201107056e+01 9.930111396532343804e+01 1.370693208881044995e+02 1.422308705718324973e+01 1.809494319664953821e+01 -6.803878510113969469e+01 -2.114374847191507172e+02 3.653567831390486731e+01 -9.900879985463720345e+01 2.784896638456344675e+01 -8.908465836123220072e+00 1.040410741698392760e+00 7.783817574499481395e+01 1.314818454511318180e+02 -7.598856766121737394e+01 4.099838683303654818e+01 -2.079720583496374218e+02 1.040695353476641216e+01 7.641025778042131122e+00 -1.321989706427615090e+02 -3.641373647295831262e+01 -4.782428295421034647e+01 5.161347866000564721e+00 -1.103391137623440130e+02 2.919938612700032010e+01 -1.053740695383048092e+02 6.063440747512365192e+01 7.316370673795570667e+01 3.976496411531088171e+01 -3.131285889121576105e+01 1.158813997294796252e+02 6.583954275639028708e+01 8.627627057813826639e+01 -7.223520459722148246e+01 2.195529457108063554e+01 1.379545242196122672e+02 -6.302621338236799176e+01 -7.447164036970518985e+00 3.450801352572965897e+01 -1.384159967495681087e+02 1.054952738237126795e+02 9.657072175036323358e+01 -1.089649266681341402e+02 -8.878232348755359737e+01 -5.982078678176351616e+01 -4.900158143068377825e+01 -1.727984672356268732e+02 -1.465152818987931767e+02 -1.427215442456673600e+02 1.138422656425512542e+02 6.434620550279065299e+01 1.718085656513461572e+02 7.735986163245740066e+00 -9.242746116445685800e+01 2.013534420976603911e+01 1.490371519277138646e+01 -6.831206494224046821e+01 7.972497165430331734e+01 1.271072788901413162e+02 1.080252582218894197e+01 1.544469129298407779e+02 2.426079124978625501e+01 1.194461251988239354e+02 1.628517649752270913e+01 -2.235904432406111937e+02 2.349819465266267287e+02 -5.265739301406916439e+01 -1.605190408765268444e+02 -7.228703264836366316e+01 -4.626193709553255218e+01 4.421134887111671929e+01 2.737134573916200964e+01 4.889653647090446498e+01 -7.932056880247318986e+01 1.308506277966071139e+02 -9.221507522392181500e+01 -7.489657548609144122e+00 1.523045769115566088e+02 1.171854713194988591e+02 6.190344744879204342e+01 -1.890304640583304945e+02 2.715409283854508615e+01 1.499064869227256054e+02 2.502252474178881769e+01 1.040886567062224515e+02 1.134984982380340597e+02 -2.252179424336185320e+02 8.196109147689210772e+01 -6.152250871199451865e+01 -2.394504321345279152e+02 9.417302148919884530e+01 2.615412711784055944e+01 -1.292173135007264477e+02 -6.193585392930354772e+01 1.466465307520156500e+02 1.555390355878813011e+02 -7.979166674323722930e+01 -1.344261302092057235e+02 -8.770016029755691989e+01 -1.741507262849617064e+02 2.050181798531339794e+01 3.969820231578189862e+01 -1.767325089315996678e+01 -1.293258168751764892e+01 -9.345939501304702901e+01 -9.232138225383782526e+01 -2.568370217487331075e+01 1.392602258740122636e+02 1.416353710841604823e+02 8.425670365465894918e+01 1.006850364589949436e+02 -8.154676103768169071e+01 -1.868936371467605966e+02 -1.374057872681314940e+01 -2.401958534615844343e+01 -7.334087629848188783e+01 1.565334173183783761e+00 7.553249604899984604e+01 -5.470806817779043740e+01 2.538434531047574083e+01 8.180406108321886904e+01 7.241847028954417453e+01 1.141692240424723792e+02 -1.541748713756999507e+02 4.097079460942924811e+01 8.608256006428615592e+01 9.791326689332174738e+01 6.106686404487420816e+01 -1.066802077020718826e+02 1.415113196285929860e+02 1.316698869291388974e+02 9.900476712621410513e+01 1.049002067337006423e+02 -8.704812666996022585e+01 -1.538464462876202710e+01 -1.332824013426171383e+01 7.965305779187701773e+01 6.712138529650445662e+01 5.776826033140267924e+01 1.008605867376038105e+02 1.203115711376705121e+02 1.279060929967400710e+02 -6.715015906407057855e+01 8.325590070921680308e+01 6.743989408654972806e+01 -1.215669343049058142e+02 1.359770867304750084e+02 -1.039258351048928475e+01 -2.883631385400543579e+01 2.058936220883051362e+02 9.139120799449170818e+01 1.282350416463816600e+02 -1.491744382818420149e+02 -1.631040511305098164e+02 -1.590635506844340341e+02 -1.263779867735996589e+02 -4.580520869913170401e+01 1.136742348802553835e+02 -1.744910530401349433e+02 3.369996581599627206e+01 1.494386161073353776e+02 -6.142330332052963371e+01 -9.461492471627576606e+01 -3.634096225181100692e+01 1.408085870939121946e+02 2.355489012290609594e+02 -6.899645022304245856e+01 2.052492165969125537e+01 -2.873774320960936635e+01 7.099733098504343332e+01 6.251496222296484007e+01 -2.211188722509361924e+02 -9.194692644807967952e+01 1.426849480184407071e+02 1.450409446329419154e+02 9.808938642739670399e+01 -5.164004198166777115e+01 -7.869968895731500425e+01 -4.717272696780726449e+01 -1.831772840478516571e+02 7.390547814742677701e+01 -2.668057560311659415e+01 1.727741233134146341e+02 -2.897737706199182028e+01 -3.266042970504287268e+02 1.504921641650250024e+02 5.233959867646414921e+01 -1.225756502938744461e+02 -2.296022701782262132e+01 3.670613593264543084e+01 -2.157567736566170424e+02 -1.187849896133939751e+02 -1.138312112006018424e+02 -5.870775317406047122e+01 6.531045512492576677e+01 -1.712765440829941213e+02 1.122447059398316469e+02 -5.645561100730493820e+01 3.003293997288639883e+00 -1.387068240015651099e+02 -1.076258355998159715e+02 1.828703808216338018e+02 9.011087681833063812e+01 -4.392649450932111677e+01 3.870096355565923574e+01 -2.920111638230544315e+01 4.488112734662791325e+01 -1.088222304591034231e+02 1.027301842389786515e+02 5.257847319470926806e+01 -1.237337045734850278e+02 1.215006974138755282e+02 -5.117381464993923146e+01 1.039928197928812352e+02 -5.144090199198799951e+01 9.202315125362804338e+01 -1.597086829724788117e+02 1.485129992855043213e+02 2.580212332878595305e+01 1.047523631197798011e+02 1.357674412984974310e+02 -1.526828507182196404e+02 -8.943594129836911577e+01 -1.099924901529793999e+02 6.966695898365264839e+01 -1.784522715170108711e+02 1.577048277620357055e+02 1.483801605433534121e+02 5.521023312547578143e+01 -8.844098779805307231e+01 5.942707755862958408e+01 -1.117462741650064686e+02 -1.144802129940657665e+01 3.647992431394038704e+01 -1.914717625178679157e+02 -8.506514702406516903e+01 -1.410759034330384765e+01 1.065643976317162185e+02 -5.231891147588913071e+01 1.132596415581379290e+02 -6.709911129965453824e+01 -2.198337686035839624e+02 -1.116773768456225326e+02 -3.559146076782496237e+01 -6.278860312356576401e+01 3.141246645150773276e+01 5.352994608221410999e+01 6.642687597799861621e+00 2.630210873635246216e+01 -1.223004357328778724e+02 5.610369828193408637e+01 3.403209231540848378e+01 -7.536404062036980633e+01 9.634409861799070995e+00 5.869477366608613522e+01 -9.959108572034413953e+01 -5.745336203406680653e+01 -2.515930834509832081e+01 1.019093539311692496e+02 -1.787714828134927458e+01 4.374329784097056972e+00 -2.380081188461549004e+02 -9.925605086350168449e+01 1.032771350503010410e+02 -9.325861827813530169e+01 3.273414988119173330e+01 3.245315926122724193e+01 3.966710296824344795e+01 6.902468925335138294e+01 -1.853431809224084077e+02 1.503491780151522903e+02 8.501168165109471886e+01 -7.819433109594179143e+00 -8.441303210019057701e+01 1.169782825423945667e+02 6.486220793586572597e+01 -2.100241210786064414e+02 -5.265549295422006537e+01 -8.530861466027928941e+01 -5.421065867360578494e+01 -6.475788306105144443e+01 -1.035576388468177669e+02 -6.309518581662260317e+01 2.000272922388062113e+02 -1.785025941424728728e+02 6.844774372611669833e+01 2.898216984078743863e+01 -7.853608334648791356e+01 1.082930260634800312e+01 -4.116043858675269718e+01 3.566818935144401959e+00 -1.004279408278022458e+02 -2.064127198720965737e+02 1.921821305622076181e+01 4.382582579375173992e+01 -1.338096906807931497e+01 -9.503051503647091280e+00 -4.157811497710169846e+01 -1.985416263629671221e+02 -3.205889074316541354e+01 -6.833554523351260457e+01 1.464048262167023751e+01 -1.630725787116840308e+01 9.459026797559856448e+01 -6.588141952511148247e+01 -1.084175761748135045e+02 -3.742548213279082603e+01 -9.468346073923013861e+00 4.765582769965129017e+01 -2.317857998777067152e+01 -7.698343776559067919e+01 -1.658292065214389766e+01 2.100910478081986810e+01 4.966506219024219604e+01 -1.192421701042561750e+02 -1.453852589797167809e+02 2.408305235712331864e+02 -2.282140137639968600e+02 -7.945740424508157673e+01 -4.849455027517672789e+01 1.462767482622156479e+02 6.618632888088301058e+01 2.392582805193367221e+02 2.559348007501655502e+02 -6.515445274020564170e+01 1.354438334084521500e+02 -5.841976272208803778e+01 -4.266578943550812397e+01 -1.053068996978882126e+02 -8.351306502970119539e+01 -7.280434370377993503e+01 -9.304092044595886080e+01 -2.549488347164967763e+02 -2.833531345802405781e+02 1.409097807263070479e+02 -2.772975683892832777e+01 5.570435065802909236e+01 1.368176183155608214e+02
