# 
#                 ----------------------------------------------------
#                 Data from a 3D direct N-body simulation. 
# 
#                 rows are i-particle; 
#                 coumns are :mass, tag, x ,y, z, vx, vy, vz, ax, ay, az
# 
#                 NTHU, Computational Physics Lab
# 
#                 ----------------------------------------------------
#                 Time = 0.7000000000000004
1.000000000000000000e+00 2.000000000000000000e+00 3.000000000000000000e+00 4.000000000000000000e+00 5.000000000000000000e+00 6.000000000000000000e+00 7.000000000000000000e+00 8.000000000000000000e+00 9.000000000000000000e+00 1.000000000000000000e+01 1.100000000000000000e+01 1.200000000000000000e+01 1.300000000000000000e+01 1.400000000000000000e+01 1.500000000000000000e+01 1.600000000000000000e+01 1.700000000000000000e+01 1.800000000000000000e+01 1.900000000000000000e+01 2.000000000000000000e+01 2.100000000000000000e+01 2.200000000000000000e+01 2.300000000000000000e+01 2.400000000000000000e+01 2.500000000000000000e+01 2.600000000000000000e+01 2.700000000000000000e+01 2.800000000000000000e+01 2.900000000000000000e+01 3.000000000000000000e+01 3.100000000000000000e+01 3.200000000000000000e+01 3.300000000000000000e+01 3.400000000000000000e+01 3.500000000000000000e+01 3.600000000000000000e+01 3.700000000000000000e+01 3.800000000000000000e+01 3.900000000000000000e+01 4.000000000000000000e+01 4.100000000000000000e+01 4.200000000000000000e+01 4.300000000000000000e+01 4.400000000000000000e+01 4.500000000000000000e+01 4.600000000000000000e+01 4.700000000000000000e+01 4.800000000000000000e+01 4.900000000000000000e+01 5.000000000000000000e+01 5.100000000000000000e+01 5.200000000000000000e+01 5.300000000000000000e+01 5.400000000000000000e+01 5.500000000000000000e+01 5.600000000000000000e+01 5.700000000000000000e+01 5.800000000000000000e+01 5.900000000000000000e+01 6.000000000000000000e+01 6.100000000000000000e+01 6.200000000000000000e+01 6.300000000000000000e+01 6.400000000000000000e+01 6.500000000000000000e+01 6.600000000000000000e+01 6.700000000000000000e+01 6.800000000000000000e+01 6.900000000000000000e+01 7.000000000000000000e+01 7.100000000000000000e+01 7.200000000000000000e+01 7.300000000000000000e+01 7.400000000000000000e+01 7.500000000000000000e+01 7.600000000000000000e+01 7.700000000000000000e+01 7.800000000000000000e+01 7.900000000000000000e+01 8.000000000000000000e+01 8.100000000000000000e+01 8.200000000000000000e+01 8.300000000000000000e+01 8.400000000000000000e+01 8.500000000000000000e+01 8.600000000000000000e+01 8.700000000000000000e+01 8.800000000000000000e+01 8.900000000000000000e+01 9.000000000000000000e+01 9.100000000000000000e+01 9.200000000000000000e+01 9.300000000000000000e+01 9.400000000000000000e+01 9.500000000000000000e+01 9.600000000000000000e+01 9.700000000000000000e+01 9.800000000000000000e+01 9.900000000000000000e+01 1.000000000000000000e+02 1.010000000000000000e+02 1.020000000000000000e+02 1.030000000000000000e+02 1.040000000000000000e+02 1.050000000000000000e+02 1.060000000000000000e+02 1.070000000000000000e+02 1.080000000000000000e+02 1.090000000000000000e+02 1.100000000000000000e+02 1.110000000000000000e+02 1.120000000000000000e+02 1.130000000000000000e+02 1.140000000000000000e+02 1.150000000000000000e+02 1.160000000000000000e+02 1.170000000000000000e+02 1.180000000000000000e+02 1.190000000000000000e+02 1.200000000000000000e+02 1.210000000000000000e+02 1.220000000000000000e+02 1.230000000000000000e+02 1.240000000000000000e+02 1.250000000000000000e+02 1.260000000000000000e+02 1.270000000000000000e+02 1.280000000000000000e+02 1.290000000000000000e+02 1.300000000000000000e+02 1.310000000000000000e+02 1.320000000000000000e+02 1.330000000000000000e+02 1.340000000000000000e+02 1.350000000000000000e+02 1.360000000000000000e+02 1.370000000000000000e+02 1.380000000000000000e+02 1.390000000000000000e+02 1.400000000000000000e+02 1.410000000000000000e+02 1.420000000000000000e+02 1.430000000000000000e+02 1.440000000000000000e+02 1.450000000000000000e+02 1.460000000000000000e+02 1.470000000000000000e+02 1.480000000000000000e+02 1.490000000000000000e+02 1.500000000000000000e+02 1.510000000000000000e+02 1.520000000000000000e+02 1.530000000000000000e+02 1.540000000000000000e+02 1.550000000000000000e+02 1.560000000000000000e+02 1.570000000000000000e+02 1.580000000000000000e+02 1.590000000000000000e+02 1.600000000000000000e+02 1.610000000000000000e+02 1.620000000000000000e+02 1.630000000000000000e+02 1.640000000000000000e+02 1.650000000000000000e+02 1.660000000000000000e+02 1.670000000000000000e+02 1.680000000000000000e+02 1.690000000000000000e+02 1.700000000000000000e+02 1.710000000000000000e+02 1.720000000000000000e+02 1.730000000000000000e+02 1.740000000000000000e+02 1.750000000000000000e+02 1.760000000000000000e+02 1.770000000000000000e+02 1.780000000000000000e+02 1.790000000000000000e+02 1.800000000000000000e+02 1.810000000000000000e+02 1.820000000000000000e+02 1.830000000000000000e+02 1.840000000000000000e+02 1.850000000000000000e+02 1.860000000000000000e+02 1.870000000000000000e+02 1.880000000000000000e+02 1.890000000000000000e+02 1.900000000000000000e+02 1.910000000000000000e+02 1.920000000000000000e+02 1.930000000000000000e+02 1.940000000000000000e+02 1.950000000000000000e+02 1.960000000000000000e+02 1.970000000000000000e+02 1.980000000000000000e+02 1.990000000000000000e+02 2.000000000000000000e+02 2.010000000000000000e+02 2.020000000000000000e+02 2.030000000000000000e+02 2.040000000000000000e+02 2.050000000000000000e+02 2.060000000000000000e+02 2.070000000000000000e+02 2.080000000000000000e+02 2.090000000000000000e+02 2.100000000000000000e+02 2.110000000000000000e+02 2.120000000000000000e+02 2.130000000000000000e+02 2.140000000000000000e+02 2.150000000000000000e+02 2.160000000000000000e+02 2.170000000000000000e+02 2.180000000000000000e+02 2.190000000000000000e+02 2.200000000000000000e+02 2.210000000000000000e+02 2.220000000000000000e+02 2.230000000000000000e+02 2.240000000000000000e+02 2.250000000000000000e+02 2.260000000000000000e+02 2.270000000000000000e+02 2.280000000000000000e+02 2.290000000000000000e+02 2.300000000000000000e+02 2.310000000000000000e+02 2.320000000000000000e+02 2.330000000000000000e+02 2.340000000000000000e+02 2.350000000000000000e+02 2.360000000000000000e+02 2.370000000000000000e+02 2.380000000000000000e+02 2.390000000000000000e+02 2.400000000000000000e+02 2.410000000000000000e+02 2.420000000000000000e+02 2.430000000000000000e+02 2.440000000000000000e+02 2.450000000000000000e+02 2.460000000000000000e+02 2.470000000000000000e+02 2.480000000000000000e+02 2.490000000000000000e+02 2.500000000000000000e+02 2.510000000000000000e+02 2.520000000000000000e+02 2.530000000000000000e+02 2.540000000000000000e+02 2.550000000000000000e+02 2.560000000000000000e+02 2.570000000000000000e+02 2.580000000000000000e+02 2.590000000000000000e+02 2.600000000000000000e+02 2.610000000000000000e+02 2.620000000000000000e+02 2.630000000000000000e+02 2.640000000000000000e+02 2.650000000000000000e+02 2.660000000000000000e+02 2.670000000000000000e+02 2.680000000000000000e+02 2.690000000000000000e+02 2.700000000000000000e+02 2.710000000000000000e+02 2.720000000000000000e+02 2.730000000000000000e+02 2.740000000000000000e+02 2.750000000000000000e+02 2.760000000000000000e+02 2.770000000000000000e+02 2.780000000000000000e+02 2.790000000000000000e+02 2.800000000000000000e+02 2.810000000000000000e+02 2.820000000000000000e+02 2.830000000000000000e+02 2.840000000000000000e+02 2.850000000000000000e+02 2.860000000000000000e+02 2.870000000000000000e+02 2.880000000000000000e+02 2.890000000000000000e+02 2.900000000000000000e+02 2.910000000000000000e+02 2.920000000000000000e+02 2.930000000000000000e+02 2.940000000000000000e+02 2.950000000000000000e+02 2.960000000000000000e+02 2.970000000000000000e+02 2.980000000000000000e+02 2.990000000000000000e+02 3.000000000000000000e+02 3.010000000000000000e+02 3.020000000000000000e+02 3.030000000000000000e+02 3.040000000000000000e+02 3.050000000000000000e+02 3.060000000000000000e+02 3.070000000000000000e+02 3.080000000000000000e+02 3.090000000000000000e+02 3.100000000000000000e+02 3.110000000000000000e+02 3.120000000000000000e+02 3.130000000000000000e+02 3.140000000000000000e+02 3.150000000000000000e+02 3.160000000000000000e+02 3.170000000000000000e+02 3.180000000000000000e+02 3.190000000000000000e+02 3.200000000000000000e+02 3.210000000000000000e+02 3.220000000000000000e+02 3.230000000000000000e+02 3.240000000000000000e+02 3.250000000000000000e+02 3.260000000000000000e+02 3.270000000000000000e+02 3.280000000000000000e+02 3.290000000000000000e+02 3.300000000000000000e+02 3.310000000000000000e+02 3.320000000000000000e+02 3.330000000000000000e+02 3.340000000000000000e+02 3.350000000000000000e+02 3.360000000000000000e+02 3.370000000000000000e+02 3.380000000000000000e+02 3.390000000000000000e+02 3.400000000000000000e+02 3.410000000000000000e+02 3.420000000000000000e+02 3.430000000000000000e+02 3.440000000000000000e+02 3.450000000000000000e+02 3.460000000000000000e+02 3.470000000000000000e+02 3.480000000000000000e+02 3.490000000000000000e+02 3.500000000000000000e+02 3.510000000000000000e+02 3.520000000000000000e+02 3.530000000000000000e+02 3.540000000000000000e+02 3.550000000000000000e+02 3.560000000000000000e+02 3.570000000000000000e+02 3.580000000000000000e+02 3.590000000000000000e+02 3.600000000000000000e+02 3.610000000000000000e+02 3.620000000000000000e+02 3.630000000000000000e+02 3.640000000000000000e+02 3.650000000000000000e+02 3.660000000000000000e+02 3.670000000000000000e+02 3.680000000000000000e+02 3.690000000000000000e+02 3.700000000000000000e+02 3.710000000000000000e+02 3.720000000000000000e+02 3.730000000000000000e+02 3.740000000000000000e+02 3.750000000000000000e+02 3.760000000000000000e+02 3.770000000000000000e+02 3.780000000000000000e+02 3.790000000000000000e+02 3.800000000000000000e+02 3.810000000000000000e+02 3.820000000000000000e+02 3.830000000000000000e+02 3.840000000000000000e+02 3.850000000000000000e+02 3.860000000000000000e+02 3.870000000000000000e+02 3.880000000000000000e+02 3.890000000000000000e+02 3.900000000000000000e+02 3.910000000000000000e+02 3.920000000000000000e+02 3.930000000000000000e+02 3.940000000000000000e+02 3.950000000000000000e+02 3.960000000000000000e+02 3.970000000000000000e+02 3.980000000000000000e+02 3.990000000000000000e+02 4.000000000000000000e+02 4.010000000000000000e+02 4.020000000000000000e+02 4.030000000000000000e+02 4.040000000000000000e+02 4.050000000000000000e+02 4.060000000000000000e+02 4.070000000000000000e+02 4.080000000000000000e+02 4.090000000000000000e+02 4.100000000000000000e+02 4.110000000000000000e+02 4.120000000000000000e+02 4.130000000000000000e+02 4.140000000000000000e+02 4.150000000000000000e+02 4.160000000000000000e+02 4.170000000000000000e+02 4.180000000000000000e+02 4.190000000000000000e+02 4.200000000000000000e+02 4.210000000000000000e+02 4.220000000000000000e+02 4.230000000000000000e+02 4.240000000000000000e+02 4.250000000000000000e+02 4.260000000000000000e+02 4.270000000000000000e+02 4.280000000000000000e+02 4.290000000000000000e+02 4.300000000000000000e+02 4.310000000000000000e+02 4.320000000000000000e+02 4.330000000000000000e+02 4.340000000000000000e+02 4.350000000000000000e+02 4.360000000000000000e+02 4.370000000000000000e+02 4.380000000000000000e+02 4.390000000000000000e+02 4.400000000000000000e+02 4.410000000000000000e+02 4.420000000000000000e+02 4.430000000000000000e+02 4.440000000000000000e+02 4.450000000000000000e+02 4.460000000000000000e+02 4.470000000000000000e+02 4.480000000000000000e+02 4.490000000000000000e+02 4.500000000000000000e+02 4.510000000000000000e+02 4.520000000000000000e+02 4.530000000000000000e+02 4.540000000000000000e+02 4.550000000000000000e+02 4.560000000000000000e+02 4.570000000000000000e+02 4.580000000000000000e+02 4.590000000000000000e+02 4.600000000000000000e+02 4.610000000000000000e+02 4.620000000000000000e+02 4.630000000000000000e+02 4.640000000000000000e+02 4.650000000000000000e+02 4.660000000000000000e+02 4.670000000000000000e+02 4.680000000000000000e+02 4.690000000000000000e+02 4.700000000000000000e+02 4.710000000000000000e+02 4.720000000000000000e+02 4.730000000000000000e+02 4.740000000000000000e+02 4.750000000000000000e+02 4.760000000000000000e+02 4.770000000000000000e+02 4.780000000000000000e+02 4.790000000000000000e+02 4.800000000000000000e+02 4.810000000000000000e+02 4.820000000000000000e+02 4.830000000000000000e+02 4.840000000000000000e+02 4.850000000000000000e+02 4.860000000000000000e+02 4.870000000000000000e+02 4.880000000000000000e+02 4.890000000000000000e+02 4.900000000000000000e+02 4.910000000000000000e+02 4.920000000000000000e+02 4.930000000000000000e+02 4.940000000000000000e+02 4.950000000000000000e+02 4.960000000000000000e+02 4.970000000000000000e+02 4.980000000000000000e+02 4.990000000000000000e+02 5.000000000000000000e+02 5.010000000000000000e+02 5.020000000000000000e+02 5.030000000000000000e+02 5.040000000000000000e+02 5.050000000000000000e+02 5.060000000000000000e+02 5.070000000000000000e+02 5.080000000000000000e+02 5.090000000000000000e+02 5.100000000000000000e+02 5.110000000000000000e+02 5.120000000000000000e+02 5.130000000000000000e+02 5.140000000000000000e+02 5.150000000000000000e+02 5.160000000000000000e+02 5.170000000000000000e+02 5.180000000000000000e+02 5.190000000000000000e+02 5.200000000000000000e+02 5.210000000000000000e+02 5.220000000000000000e+02 5.230000000000000000e+02 5.240000000000000000e+02 5.250000000000000000e+02 5.260000000000000000e+02 5.270000000000000000e+02 5.280000000000000000e+02 5.290000000000000000e+02 5.300000000000000000e+02 5.310000000000000000e+02 5.320000000000000000e+02 5.330000000000000000e+02 5.340000000000000000e+02 5.350000000000000000e+02 5.360000000000000000e+02 5.370000000000000000e+02 5.380000000000000000e+02 5.390000000000000000e+02 5.400000000000000000e+02 5.410000000000000000e+02 5.420000000000000000e+02 5.430000000000000000e+02 5.440000000000000000e+02 5.450000000000000000e+02 5.460000000000000000e+02 5.470000000000000000e+02 5.480000000000000000e+02 5.490000000000000000e+02 5.500000000000000000e+02 5.510000000000000000e+02 5.520000000000000000e+02 5.530000000000000000e+02 5.540000000000000000e+02 5.550000000000000000e+02 5.560000000000000000e+02 5.570000000000000000e+02 5.580000000000000000e+02 5.590000000000000000e+02 5.600000000000000000e+02 5.610000000000000000e+02 5.620000000000000000e+02 5.630000000000000000e+02 5.640000000000000000e+02 5.650000000000000000e+02 5.660000000000000000e+02 5.670000000000000000e+02 5.680000000000000000e+02 5.690000000000000000e+02 5.700000000000000000e+02 5.710000000000000000e+02 5.720000000000000000e+02 5.730000000000000000e+02 5.740000000000000000e+02 5.750000000000000000e+02 5.760000000000000000e+02 5.770000000000000000e+02 5.780000000000000000e+02 5.790000000000000000e+02 5.800000000000000000e+02 5.810000000000000000e+02 5.820000000000000000e+02 5.830000000000000000e+02 5.840000000000000000e+02 5.850000000000000000e+02 5.860000000000000000e+02 5.870000000000000000e+02 5.880000000000000000e+02 5.890000000000000000e+02 5.900000000000000000e+02 5.910000000000000000e+02 5.920000000000000000e+02 5.930000000000000000e+02 5.940000000000000000e+02 5.950000000000000000e+02 5.960000000000000000e+02 5.970000000000000000e+02 5.980000000000000000e+02 5.990000000000000000e+02 6.000000000000000000e+02 6.010000000000000000e+02 6.020000000000000000e+02 6.030000000000000000e+02 6.040000000000000000e+02 6.050000000000000000e+02 6.060000000000000000e+02 6.070000000000000000e+02 6.080000000000000000e+02 6.090000000000000000e+02 6.100000000000000000e+02 6.110000000000000000e+02 6.120000000000000000e+02 6.130000000000000000e+02 6.140000000000000000e+02 6.150000000000000000e+02 6.160000000000000000e+02 6.170000000000000000e+02 6.180000000000000000e+02 6.190000000000000000e+02 6.200000000000000000e+02 6.210000000000000000e+02 6.220000000000000000e+02 6.230000000000000000e+02 6.240000000000000000e+02 6.250000000000000000e+02 6.260000000000000000e+02 6.270000000000000000e+02 6.280000000000000000e+02 6.290000000000000000e+02 6.300000000000000000e+02 6.310000000000000000e+02 6.320000000000000000e+02 6.330000000000000000e+02 6.340000000000000000e+02 6.350000000000000000e+02 6.360000000000000000e+02 6.370000000000000000e+02 6.380000000000000000e+02 6.390000000000000000e+02 6.400000000000000000e+02 6.410000000000000000e+02 6.420000000000000000e+02 6.430000000000000000e+02 6.440000000000000000e+02 6.450000000000000000e+02 6.460000000000000000e+02 6.470000000000000000e+02 6.480000000000000000e+02 6.490000000000000000e+02 6.500000000000000000e+02 6.510000000000000000e+02 6.520000000000000000e+02 6.530000000000000000e+02 6.540000000000000000e+02 6.550000000000000000e+02 6.560000000000000000e+02 6.570000000000000000e+02 6.580000000000000000e+02 6.590000000000000000e+02 6.600000000000000000e+02 6.610000000000000000e+02 6.620000000000000000e+02 6.630000000000000000e+02 6.640000000000000000e+02 6.650000000000000000e+02 6.660000000000000000e+02 6.670000000000000000e+02 6.680000000000000000e+02 6.690000000000000000e+02 6.700000000000000000e+02 6.710000000000000000e+02 6.720000000000000000e+02 6.730000000000000000e+02 6.740000000000000000e+02 6.750000000000000000e+02 6.760000000000000000e+02 6.770000000000000000e+02 6.780000000000000000e+02 6.790000000000000000e+02 6.800000000000000000e+02 6.810000000000000000e+02 6.820000000000000000e+02 6.830000000000000000e+02 6.840000000000000000e+02 6.850000000000000000e+02 6.860000000000000000e+02 6.870000000000000000e+02 6.880000000000000000e+02 6.890000000000000000e+02 6.900000000000000000e+02 6.910000000000000000e+02 6.920000000000000000e+02 6.930000000000000000e+02 6.940000000000000000e+02 6.950000000000000000e+02 6.960000000000000000e+02 6.970000000000000000e+02 6.980000000000000000e+02 6.990000000000000000e+02 7.000000000000000000e+02 7.010000000000000000e+02 7.020000000000000000e+02 7.030000000000000000e+02 7.040000000000000000e+02 7.050000000000000000e+02 7.060000000000000000e+02 7.070000000000000000e+02 7.080000000000000000e+02 7.090000000000000000e+02 7.100000000000000000e+02 7.110000000000000000e+02 7.120000000000000000e+02 7.130000000000000000e+02 7.140000000000000000e+02 7.150000000000000000e+02 7.160000000000000000e+02 7.170000000000000000e+02 7.180000000000000000e+02 7.190000000000000000e+02 7.200000000000000000e+02 7.210000000000000000e+02 7.220000000000000000e+02 7.230000000000000000e+02 7.240000000000000000e+02 7.250000000000000000e+02 7.260000000000000000e+02 7.270000000000000000e+02 7.280000000000000000e+02 7.290000000000000000e+02 7.300000000000000000e+02 7.310000000000000000e+02 7.320000000000000000e+02 7.330000000000000000e+02 7.340000000000000000e+02 7.350000000000000000e+02 7.360000000000000000e+02 7.370000000000000000e+02 7.380000000000000000e+02 7.390000000000000000e+02 7.400000000000000000e+02 7.410000000000000000e+02 7.420000000000000000e+02 7.430000000000000000e+02 7.440000000000000000e+02 7.450000000000000000e+02 7.460000000000000000e+02 7.470000000000000000e+02 7.480000000000000000e+02 7.490000000000000000e+02 7.500000000000000000e+02 7.510000000000000000e+02 7.520000000000000000e+02 7.530000000000000000e+02 7.540000000000000000e+02 7.550000000000000000e+02 7.560000000000000000e+02 7.570000000000000000e+02 7.580000000000000000e+02 7.590000000000000000e+02 7.600000000000000000e+02 7.610000000000000000e+02 7.620000000000000000e+02 7.630000000000000000e+02 7.640000000000000000e+02 7.650000000000000000e+02 7.660000000000000000e+02 7.670000000000000000e+02 7.680000000000000000e+02 7.690000000000000000e+02 7.700000000000000000e+02 7.710000000000000000e+02 7.720000000000000000e+02 7.730000000000000000e+02 7.740000000000000000e+02 7.750000000000000000e+02 7.760000000000000000e+02 7.770000000000000000e+02 7.780000000000000000e+02 7.790000000000000000e+02 7.800000000000000000e+02 7.810000000000000000e+02 7.820000000000000000e+02 7.830000000000000000e+02 7.840000000000000000e+02 7.850000000000000000e+02 7.860000000000000000e+02 7.870000000000000000e+02 7.880000000000000000e+02 7.890000000000000000e+02 7.900000000000000000e+02 7.910000000000000000e+02 7.920000000000000000e+02 7.930000000000000000e+02 7.940000000000000000e+02 7.950000000000000000e+02 7.960000000000000000e+02 7.970000000000000000e+02 7.980000000000000000e+02 7.990000000000000000e+02 8.000000000000000000e+02 8.010000000000000000e+02 8.020000000000000000e+02 8.030000000000000000e+02 8.040000000000000000e+02 8.050000000000000000e+02 8.060000000000000000e+02 8.070000000000000000e+02 8.080000000000000000e+02 8.090000000000000000e+02 8.100000000000000000e+02 8.110000000000000000e+02 8.120000000000000000e+02 8.130000000000000000e+02 8.140000000000000000e+02 8.150000000000000000e+02 8.160000000000000000e+02 8.170000000000000000e+02 8.180000000000000000e+02 8.190000000000000000e+02 8.200000000000000000e+02 8.210000000000000000e+02 8.220000000000000000e+02 8.230000000000000000e+02 8.240000000000000000e+02 8.250000000000000000e+02 8.260000000000000000e+02 8.270000000000000000e+02 8.280000000000000000e+02 8.290000000000000000e+02 8.300000000000000000e+02 8.310000000000000000e+02 8.320000000000000000e+02 8.330000000000000000e+02 8.340000000000000000e+02 8.350000000000000000e+02 8.360000000000000000e+02 8.370000000000000000e+02 8.380000000000000000e+02 8.390000000000000000e+02 8.400000000000000000e+02 8.410000000000000000e+02 8.420000000000000000e+02 8.430000000000000000e+02 8.440000000000000000e+02 8.450000000000000000e+02 8.460000000000000000e+02 8.470000000000000000e+02 8.480000000000000000e+02 8.490000000000000000e+02 8.500000000000000000e+02 8.510000000000000000e+02 8.520000000000000000e+02 8.530000000000000000e+02 8.540000000000000000e+02 8.550000000000000000e+02 8.560000000000000000e+02 8.570000000000000000e+02 8.580000000000000000e+02 8.590000000000000000e+02 8.600000000000000000e+02 8.610000000000000000e+02 8.620000000000000000e+02 8.630000000000000000e+02 8.640000000000000000e+02 8.650000000000000000e+02 8.660000000000000000e+02 8.670000000000000000e+02 8.680000000000000000e+02 8.690000000000000000e+02 8.700000000000000000e+02 8.710000000000000000e+02 8.720000000000000000e+02 8.730000000000000000e+02 8.740000000000000000e+02 8.750000000000000000e+02 8.760000000000000000e+02 8.770000000000000000e+02 8.780000000000000000e+02 8.790000000000000000e+02 8.800000000000000000e+02 8.810000000000000000e+02 8.820000000000000000e+02 8.830000000000000000e+02 8.840000000000000000e+02 8.850000000000000000e+02 8.860000000000000000e+02 8.870000000000000000e+02 8.880000000000000000e+02 8.890000000000000000e+02 8.900000000000000000e+02 8.910000000000000000e+02 8.920000000000000000e+02 8.930000000000000000e+02 8.940000000000000000e+02 8.950000000000000000e+02 8.960000000000000000e+02 8.970000000000000000e+02 8.980000000000000000e+02 8.990000000000000000e+02 9.000000000000000000e+02 9.010000000000000000e+02 9.020000000000000000e+02 9.030000000000000000e+02 9.040000000000000000e+02 9.050000000000000000e+02 9.060000000000000000e+02 9.070000000000000000e+02 9.080000000000000000e+02 9.090000000000000000e+02 9.100000000000000000e+02 9.110000000000000000e+02 9.120000000000000000e+02 9.130000000000000000e+02 9.140000000000000000e+02 9.150000000000000000e+02 9.160000000000000000e+02 9.170000000000000000e+02 9.180000000000000000e+02 9.190000000000000000e+02 9.200000000000000000e+02 9.210000000000000000e+02 9.220000000000000000e+02 9.230000000000000000e+02 9.240000000000000000e+02 9.250000000000000000e+02 9.260000000000000000e+02 9.270000000000000000e+02 9.280000000000000000e+02 9.290000000000000000e+02 9.300000000000000000e+02 9.310000000000000000e+02 9.320000000000000000e+02 9.330000000000000000e+02 9.340000000000000000e+02 9.350000000000000000e+02 9.360000000000000000e+02 9.370000000000000000e+02 9.380000000000000000e+02 9.390000000000000000e+02 9.400000000000000000e+02 9.410000000000000000e+02 9.420000000000000000e+02 9.430000000000000000e+02 9.440000000000000000e+02 9.450000000000000000e+02 9.460000000000000000e+02 9.470000000000000000e+02 9.480000000000000000e+02 9.490000000000000000e+02 9.500000000000000000e+02 9.510000000000000000e+02 9.520000000000000000e+02 9.530000000000000000e+02 9.540000000000000000e+02 9.550000000000000000e+02 9.560000000000000000e+02 9.570000000000000000e+02 9.580000000000000000e+02 9.590000000000000000e+02 9.600000000000000000e+02 9.610000000000000000e+02 9.620000000000000000e+02 9.630000000000000000e+02 9.640000000000000000e+02 9.650000000000000000e+02 9.660000000000000000e+02 9.670000000000000000e+02 9.680000000000000000e+02 9.690000000000000000e+02 9.700000000000000000e+02 9.710000000000000000e+02 9.720000000000000000e+02 9.730000000000000000e+02 9.740000000000000000e+02 9.750000000000000000e+02 9.760000000000000000e+02 9.770000000000000000e+02 9.780000000000000000e+02 9.790000000000000000e+02 9.800000000000000000e+02 9.810000000000000000e+02 9.820000000000000000e+02 9.830000000000000000e+02 9.840000000000000000e+02 9.850000000000000000e+02 9.860000000000000000e+02 9.870000000000000000e+02 9.880000000000000000e+02 9.890000000000000000e+02 9.900000000000000000e+02 9.910000000000000000e+02 9.920000000000000000e+02 9.930000000000000000e+02 9.940000000000000000e+02 9.950000000000000000e+02 9.960000000000000000e+02 9.970000000000000000e+02 9.980000000000000000e+02 9.990000000000000000e+02 1.000000000000000000e+03
1.000000000000000021e-02 1.000000000000000021e-02 1.000000000000000021e-02 1.000000000000000021e-02 1.000000000000000021e-02 1.000000000000000021e-02 1.000000000000000021e-02 1.000000000000000021e-02 1.000000000000000021e-02 1.000000000000000021e-02 1.000000000000000021e-02 1.000000000000000021e-02 1.000000000000000021e-02 1.000000000000000021e-02 1.000000000000000021e-02 1.000000000000000021e-02 1.000000000000000021e-02 1.000000000000000021e-02 1.000000000000000021e-02 1.000000000000000021e-02 1.000000000000000021e-02 1.000000000000000021e-02 1.000000000000000021e-02 1.000000000000000021e-02 1.000000000000000021e-02 1.000000000000000021e-02 1.000000000000000021e-02 1.000000000000000021e-02 1.000000000000000021e-02 1.000000000000000021e-02 1.000000000000000021e-02 1.000000000000000021e-02 1.000000000000000021e-02 1.000000000000000021e-02 1.000000000000000021e-02 1.000000000000000021e-02 1.000000000000000021e-02 1.000000000000000021e-02 1.000000000000000021e-02 1.000000000000000021e-02 1.000000000000000021e-02 1.000000000000000021e-02 1.000000000000000021e-02 1.000000000000000021e-02 1.000000000000000021e-02 1.000000000000000021e-02 1.000000000000000021e-02 1.000000000000000021e-02 1.000000000000000021e-02 1.000000000000000021e-02 1.000000000000000021e-02 1.000000000000000021e-02 1.000000000000000021e-02 1.000000000000000021e-02 1.000000000000000021e-02 1.000000000000000021e-02 1.000000000000000021e-02 1.000000000000000021e-02 1.000000000000000021e-02 1.000000000000000021e-02 1.000000000000000021e-02 1.000000000000000021e-02 1.000000000000000021e-02 1.000000000000000021e-02 1.000000000000000021e-02 1.000000000000000021e-02 1.000000000000000021e-02 1.000000000000000021e-02 1.000000000000000021e-02 1.000000000000000021e-02 1.000000000000000021e-02 1.000000000000000021e-02 1.000000000000000021e-02 1.000000000000000021e-02 1.000000000000000021e-02 1.000000000000000021e-02 1.000000000000000021e-02 1.000000000000000021e-02 1.000000000000000021e-02 1.000000000000000021e-02 1.000000000000000021e-02 1.000000000000000021e-02 1.000000000000000021e-02 1.000000000000000021e-02 1.000000000000000021e-02 1.000000000000000021e-02 1.000000000000000021e-02 1.000000000000000021e-02 1.000000000000000021e-02 1.000000000000000021e-02 1.000000000000000021e-02 1.000000000000000021e-02 1.000000000000000021e-02 1.000000000000000021e-02 1.000000000000000021e-02 1.000000000000000021e-02 1.000000000000000021e-02 1.000000000000000021e-02 1.000000000000000021e-02 1.000000000000000021e-02 1.000000000000000021e-02 1.000000000000000021e-02 1.000000000000000021e-02 1.000000000000000021e-02 1.000000000000000021e-02 1.000000000000000021e-02 1.000000000000000021e-02 1.000000000000000021e-02 1.000000000000000021e-02 1.000000000000000021e-02 1.000000000000000021e-02 1.000000000000000021e-02 1.000000000000000021e-02 1.000000000000000021e-02 1.000000000000000021e-02 1.000000000000000021e-02 1.000000000000000021e-02 1.000000000000000021e-02 1.000000000000000021e-02 1.000000000000000021e-02 1.000000000000000021e-02 1.000000000000000021e-02 1.000000000000000021e-02 1.000000000000000021e-02 1.000000000000000021e-02 1.000000000000000021e-02 1.000000000000000021e-02 1.000000000000000021e-02 1.000000000000000021e-02 1.000000000000000021e-02 1.000000000000000021e-02 1.000000000000000021e-02 1.000000000000000021e-02 1.000000000000000021e-02 1.000000000000000021e-02 1.000000000000000021e-02 1.000000000000000021e-02 1.000000000000000021e-02 1.000000000000000021e-02 1.000000000000000021e-02 1.000000000000000021e-02 1.000000000000000021e-02 1.000000000000000021e-02 1.000000000000000021e-02 1.000000000000000021e-02 1.000000000000000021e-02 1.000000000000000021e-02 1.000000000000000021e-02 1.000000000000000021e-02 1.000000000000000021e-02 1.000000000000000021e-02 1.000000000000000021e-02 1.000000000000000021e-02 1.000000000000000021e-02 1.000000000000000021e-02 1.000000000000000021e-02 1.000000000000000021e-02 1.000000000000000021e-02 1.000000000000000021e-02 1.000000000000000021e-02 1.000000000000000021e-02 1.000000000000000021e-02 1.000000000000000021e-02 1.000000000000000021e-02 1.000000000000000021e-02 1.000000000000000021e-02 1.000000000000000021e-02 1.000000000000000021e-02 1.000000000000000021e-02 1.000000000000000021e-02 1.000000000000000021e-02 1.000000000000000021e-02 1.000000000000000021e-02 1.000000000000000021e-02 1.000000000000000021e-02 1.000000000000000021e-02 1.000000000000000021e-02 1.000000000000000021e-02 1.000000000000000021e-02 1.000000000000000021e-02 1.000000000000000021e-02 1.000000000000000021e-02 1.000000000000000021e-02 1.000000000000000021e-02 1.000000000000000021e-02 1.000000000000000021e-02 1.000000000000000021e-02 1.000000000000000021e-02 1.000000000000000021e-02 1.000000000000000021e-02 1.000000000000000021e-02 1.000000000000000021e-02 1.000000000000000021e-02 1.000000000000000021e-02 1.000000000000000021e-02 1.000000000000000021e-02 1.000000000000000021e-02 1.000000000000000021e-02 1.000000000000000021e-02 1.000000000000000021e-02 1.000000000000000021e-02 1.000000000000000021e-02 1.000000000000000021e-02 1.000000000000000021e-02 1.000000000000000021e-02 1.000000000000000021e-02 1.000000000000000021e-02 1.000000000000000021e-02 1.000000000000000021e-02 1.000000000000000021e-02 1.000000000000000021e-02 1.000000000000000021e-02 1.000000000000000021e-02 1.000000000000000021e-02 1.000000000000000021e-02 1.000000000000000021e-02 1.000000000000000021e-02 1.000000000000000021e-02 1.000000000000000021e-02 1.000000000000000021e-02 1.000000000000000021e-02 1.000000000000000021e-02 1.000000000000000021e-02 1.000000000000000021e-02 1.000000000000000021e-02 1.000000000000000021e-02 1.000000000000000021e-02 1.000000000000000021e-02 1.000000000000000021e-02 1.000000000000000021e-02 1.000000000000000021e-02 1.000000000000000021e-02 1.000000000000000021e-02 1.000000000000000021e-02 1.000000000000000021e-02 1.000000000000000021e-02 1.000000000000000021e-02 1.000000000000000021e-02 1.000000000000000021e-02 1.000000000000000021e-02 1.000000000000000021e-02 1.000000000000000021e-02 1.000000000000000021e-02 1.000000000000000021e-02 1.000000000000000021e-02 1.000000000000000021e-02 1.000000000000000021e-02 1.000000000000000021e-02 1.000000000000000021e-02 1.000000000000000021e-02 1.000000000000000021e-02 1.000000000000000021e-02 1.000000000000000021e-02 1.000000000000000021e-02 1.000000000000000021e-02 1.000000000000000021e-02 1.000000000000000021e-02 1.000000000000000021e-02 1.000000000000000021e-02 1.000000000000000021e-02 1.000000000000000021e-02 1.000000000000000021e-02 1.000000000000000021e-02 1.000000000000000021e-02 1.000000000000000021e-02 1.000000000000000021e-02 1.000000000000000021e-02 1.000000000000000021e-02 1.000000000000000021e-02 1.000000000000000021e-02 1.000000000000000021e-02 1.000000000000000021e-02 1.000000000000000021e-02 1.000000000000000021e-02 1.000000000000000021e-02 1.000000000000000021e-02 1.000000000000000021e-02 1.000000000000000021e-02 1.000000000000000021e-02 1.000000000000000021e-02 1.000000000000000021e-02 1.000000000000000021e-02 1.000000000000000021e-02 1.000000000000000021e-02 1.000000000000000021e-02 1.000000000000000021e-02 1.000000000000000021e-02 1.000000000000000021e-02 1.000000000000000021e-02 1.000000000000000021e-02 1.000000000000000021e-02 1.000000000000000021e-02 1.000000000000000021e-02 1.000000000000000021e-02 1.000000000000000021e-02 1.000000000000000021e-02 1.000000000000000021e-02 1.000000000000000021e-02 1.000000000000000021e-02 1.000000000000000021e-02 1.000000000000000021e-02 1.000000000000000021e-02 1.000000000000000021e-02 1.000000000000000021e-02 1.000000000000000021e-02 1.000000000000000021e-02 1.000000000000000021e-02 1.000000000000000021e-02 1.000000000000000021e-02 1.000000000000000021e-02 1.000000000000000021e-02 1.000000000000000021e-02 1.000000000000000021e-02 1.000000000000000021e-02 1.000000000000000021e-02 1.000000000000000021e-02 1.000000000000000021e-02 1.000000000000000021e-02 1.000000000000000021e-02 1.000000000000000021e-02 1.000000000000000021e-02 1.000000000000000021e-02 1.000000000000000021e-02 1.000000000000000021e-02 1.000000000000000021e-02 1.000000000000000021e-02 1.000000000000000021e-02 1.000000000000000021e-02 1.000000000000000021e-02 1.000000000000000021e-02 1.000000000000000021e-02 1.000000000000000021e-02 1.000000000000000021e-02 1.000000000000000021e-02 1.000000000000000021e-02 1.000000000000000021e-02 1.000000000000000021e-02 1.000000000000000021e-02 1.000000000000000021e-02 1.000000000000000021e-02 1.000000000000000021e-02 1.000000000000000021e-02 1.000000000000000021e-02 1.000000000000000021e-02 1.000000000000000021e-02 1.000000000000000021e-02 1.000000000000000021e-02 1.000000000000000021e-02 1.000000000000000021e-02 1.000000000000000021e-02 1.000000000000000021e-02 1.000000000000000021e-02 1.000000000000000021e-02 1.000000000000000021e-02 1.000000000000000021e-02 1.000000000000000021e-02 1.000000000000000021e-02 1.000000000000000021e-02 1.000000000000000021e-02 1.000000000000000021e-02 1.000000000000000021e-02 1.000000000000000021e-02 1.000000000000000021e-02 1.000000000000000021e-02 1.000000000000000021e-02 1.000000000000000021e-02 1.000000000000000021e-02 1.000000000000000021e-02 1.000000000000000021e-02 1.000000000000000021e-02 1.000000000000000021e-02 1.000000000000000021e-02 1.000000000000000021e-02 1.000000000000000021e-02 1.000000000000000021e-02 1.000000000000000021e-02 1.000000000000000021e-02 1.000000000000000021e-02 1.000000000000000021e-02 1.000000000000000021e-02 1.000000000000000021e-02 1.000000000000000021e-02 1.000000000000000021e-02 1.000000000000000021e-02 1.000000000000000021e-02 1.000000000000000021e-02 1.000000000000000021e-02 1.000000000000000021e-02 1.000000000000000021e-02 1.000000000000000021e-02 1.000000000000000021e-02 1.000000000000000021e-02 1.000000000000000021e-02 1.000000000000000021e-02 1.000000000000000021e-02 1.000000000000000021e-02 1.000000000000000021e-02 1.000000000000000021e-02 1.000000000000000021e-02 1.000000000000000021e-02 1.000000000000000021e-02 1.000000000000000021e-02 1.000000000000000021e-02 1.000000000000000021e-02 1.000000000000000021e-02 1.000000000000000021e-02 1.000000000000000021e-02 1.000000000000000021e-02 1.000000000000000021e-02 1.000000000000000021e-02 1.000000000000000021e-02 1.000000000000000021e-02 1.000000000000000021e-02 1.000000000000000021e-02 1.000000000000000021e-02 1.000000000000000021e-02 1.000000000000000021e-02 1.000000000000000021e-02 1.000000000000000021e-02 1.000000000000000021e-02 1.000000000000000021e-02 1.000000000000000021e-02 1.000000000000000021e-02 1.000000000000000021e-02 1.000000000000000021e-02 1.000000000000000021e-02 1.000000000000000021e-02 1.000000000000000021e-02 1.000000000000000021e-02 1.000000000000000021e-02 1.000000000000000021e-02 1.000000000000000021e-02 1.000000000000000021e-02 1.000000000000000021e-02 1.000000000000000021e-02 1.000000000000000021e-02 1.000000000000000021e-02 1.000000000000000021e-02 1.000000000000000021e-02 1.000000000000000021e-02 1.000000000000000021e-02 1.000000000000000021e-02 1.000000000000000021e-02 1.000000000000000021e-02 1.000000000000000021e-02 1.000000000000000021e-02 1.000000000000000021e-02 1.000000000000000021e-02 1.000000000000000021e-02 1.000000000000000021e-02 1.000000000000000021e-02 1.000000000000000021e-02 1.000000000000000021e-02 1.000000000000000021e-02 1.000000000000000021e-02 1.000000000000000021e-02 1.000000000000000021e-02 1.000000000000000021e-02 1.000000000000000021e-02 1.000000000000000021e-02 1.000000000000000021e-02 1.000000000000000021e-02 1.000000000000000021e-02 1.000000000000000021e-02 1.000000000000000021e-02 1.000000000000000021e-02 1.000000000000000021e-02 1.000000000000000021e-02 1.000000000000000021e-02 1.000000000000000021e-02 1.000000000000000021e-02 1.000000000000000021e-02 1.000000000000000021e-02 1.000000000000000021e-02 1.000000000000000021e-02 1.000000000000000021e-02 1.000000000000000021e-02 1.000000000000000021e-02 1.000000000000000021e-02 1.000000000000000021e-02 1.000000000000000021e-02 1.000000000000000021e-02 1.000000000000000021e-02 1.000000000000000021e-02 1.000000000000000021e-02 1.000000000000000021e-02 1.000000000000000021e-02 1.000000000000000021e-02 1.000000000000000021e-02 1.000000000000000021e-02 1.000000000000000021e-02 1.000000000000000021e-02 1.000000000000000021e-02 1.000000000000000021e-02 1.000000000000000021e-02 1.000000000000000021e-02 1.000000000000000021e-02 1.000000000000000021e-02 1.000000000000000021e-02 1.000000000000000021e-02 1.000000000000000021e-02 1.000000000000000021e-02 1.000000000000000021e-02 1.000000000000000021e-02 1.000000000000000021e-02 1.000000000000000021e-02 1.000000000000000021e-02 1.000000000000000021e-02 1.000000000000000021e-02 1.000000000000000021e-02 1.000000000000000021e-02 1.000000000000000021e-02 1.000000000000000021e-02 1.000000000000000021e-02 1.000000000000000021e-02 1.000000000000000021e-02 1.000000000000000021e-02 1.000000000000000021e-02 1.000000000000000021e-02 1.000000000000000021e-02 1.000000000000000021e-02 1.000000000000000021e-02 1.000000000000000021e-02 1.000000000000000021e-02 1.000000000000000021e-02 1.000000000000000021e-02 1.000000000000000021e-02 1.000000000000000021e-02 1.000000000000000021e-02 1.000000000000000021e-02 1.000000000000000021e-02 1.000000000000000021e-02 1.000000000000000021e-02 1.000000000000000021e-02 1.000000000000000021e-02 1.000000000000000021e-02 1.000000000000000021e-02 1.000000000000000021e-02 1.000000000000000021e-02 1.000000000000000021e-02 1.000000000000000021e-02 1.000000000000000021e-02 1.000000000000000021e-02 1.000000000000000021e-02 1.000000000000000021e-02 1.000000000000000021e-02 1.000000000000000021e-02 1.000000000000000021e-02 1.000000000000000021e-02 1.000000000000000021e-02 1.000000000000000021e-02 1.000000000000000021e-02 1.000000000000000021e-02 1.000000000000000021e-02 1.000000000000000021e-02 1.000000000000000021e-02 1.000000000000000021e-02 1.000000000000000021e-02 1.000000000000000021e-02 1.000000000000000021e-02 1.000000000000000021e-02 1.000000000000000021e-02 1.000000000000000021e-02 1.000000000000000021e-02 1.000000000000000021e-02 1.000000000000000021e-02 1.000000000000000021e-02 1.000000000000000021e-02 1.000000000000000021e-02 1.000000000000000021e-02 1.000000000000000021e-02 1.000000000000000021e-02 1.000000000000000021e-02 1.000000000000000021e-02 1.000000000000000021e-02 1.000000000000000021e-02 1.000000000000000021e-02 1.000000000000000021e-02 1.000000000000000021e-02 1.000000000000000021e-02 1.000000000000000021e-02 1.000000000000000021e-02 1.000000000000000021e-02 1.000000000000000021e-02 1.000000000000000021e-02 1.000000000000000021e-02 1.000000000000000021e-02 1.000000000000000021e-02 1.000000000000000021e-02 1.000000000000000021e-02 1.000000000000000021e-02 1.000000000000000021e-02 1.000000000000000021e-02 1.000000000000000021e-02 1.000000000000000021e-02 1.000000000000000021e-02 1.000000000000000021e-02 1.000000000000000021e-02 1.000000000000000021e-02 1.000000000000000021e-02 1.000000000000000021e-02 1.000000000000000021e-02 1.000000000000000021e-02 1.000000000000000021e-02 1.000000000000000021e-02 1.000000000000000021e-02 1.000000000000000021e-02 1.000000000000000021e-02 1.000000000000000021e-02 1.000000000000000021e-02 1.000000000000000021e-02 1.000000000000000021e-02 1.000000000000000021e-02 1.000000000000000021e-02 1.000000000000000021e-02 1.000000000000000021e-02 1.000000000000000021e-02 1.000000000000000021e-02 1.000000000000000021e-02 1.000000000000000021e-02 1.000000000000000021e-02 1.000000000000000021e-02 1.000000000000000021e-02 1.000000000000000021e-02 1.000000000000000021e-02 1.000000000000000021e-02 1.000000000000000021e-02 1.000000000000000021e-02 1.000000000000000021e-02 1.000000000000000021e-02 1.000000000000000021e-02 1.000000000000000021e-02 1.000000000000000021e-02 1.000000000000000021e-02 1.000000000000000021e-02 1.000000000000000021e-02 1.000000000000000021e-02 1.000000000000000021e-02 1.000000000000000021e-02 1.000000000000000021e-02 1.000000000000000021e-02 1.000000000000000021e-02 1.000000000000000021e-02 1.000000000000000021e-02 1.000000000000000021e-02 1.000000000000000021e-02 1.000000000000000021e-02 1.000000000000000021e-02 1.000000000000000021e-02 1.000000000000000021e-02 1.000000000000000021e-02 1.000000000000000021e-02 1.000000000000000021e-02 1.000000000000000021e-02 1.000000000000000021e-02 1.000000000000000021e-02 1.000000000000000021e-02 1.000000000000000021e-02 1.000000000000000021e-02 1.000000000000000021e-02 1.000000000000000021e-02 1.000000000000000021e-02 1.000000000000000021e-02 1.000000000000000021e-02 1.000000000000000021e-02 1.000000000000000021e-02 1.000000000000000021e-02 1.000000000000000021e-02 1.000000000000000021e-02 1.000000000000000021e-02 1.000000000000000021e-02 1.000000000000000021e-02 1.000000000000000021e-02 1.000000000000000021e-02 1.000000000000000021e-02 1.000000000000000021e-02 1.000000000000000021e-02 1.000000000000000021e-02 1.000000000000000021e-02 1.000000000000000021e-02 1.000000000000000021e-02 1.000000000000000021e-02 1.000000000000000021e-02 1.000000000000000021e-02 1.000000000000000021e-02 1.000000000000000021e-02 1.000000000000000021e-02 1.000000000000000021e-02 1.000000000000000021e-02 1.000000000000000021e-02 1.000000000000000021e-02 1.000000000000000021e-02 1.000000000000000021e-02 1.000000000000000021e-02 1.000000000000000021e-02 1.000000000000000021e-02 1.000000000000000021e-02 1.000000000000000021e-02 1.000000000000000021e-02 1.000000000000000021e-02 1.000000000000000021e-02 1.000000000000000021e-02 1.000000000000000021e-02 1.000000000000000021e-02 1.000000000000000021e-02 1.000000000000000021e-02 1.000000000000000021e-02 1.000000000000000021e-02 1.000000000000000021e-02 1.000000000000000021e-02 1.000000000000000021e-02 1.000000000000000021e-02 1.000000000000000021e-02 1.000000000000000021e-02 1.000000000000000021e-02 1.000000000000000021e-02 1.000000000000000021e-02 1.000000000000000021e-02 1.000000000000000021e-02 1.000000000000000021e-02 1.000000000000000021e-02 1.000000000000000021e-02 1.000000000000000021e-02 1.000000000000000021e-02 1.000000000000000021e-02 1.000000000000000021e-02 1.000000000000000021e-02 1.000000000000000021e-02 1.000000000000000021e-02 1.000000000000000021e-02 1.000000000000000021e-02 1.000000000000000021e-02 1.000000000000000021e-02 1.000000000000000021e-02 1.000000000000000021e-02 1.000000000000000021e-02 1.000000000000000021e-02 1.000000000000000021e-02 1.000000000000000021e-02 1.000000000000000021e-02 1.000000000000000021e-02 1.000000000000000021e-02 1.000000000000000021e-02 1.000000000000000021e-02 1.000000000000000021e-02 1.000000000000000021e-02 1.000000000000000021e-02 1.000000000000000021e-02 1.000000000000000021e-02 1.000000000000000021e-02 1.000000000000000021e-02 1.000000000000000021e-02 1.000000000000000021e-02 1.000000000000000021e-02 1.000000000000000021e-02 1.000000000000000021e-02 1.000000000000000021e-02 1.000000000000000021e-02 1.000000000000000021e-02 1.000000000000000021e-02 1.000000000000000021e-02 1.000000000000000021e-02 1.000000000000000021e-02 1.000000000000000021e-02 1.000000000000000021e-02 1.000000000000000021e-02 1.000000000000000021e-02 1.000000000000000021e-02 1.000000000000000021e-02 1.000000000000000021e-02 1.000000000000000021e-02 1.000000000000000021e-02 1.000000000000000021e-02 1.000000000000000021e-02 1.000000000000000021e-02 1.000000000000000021e-02 1.000000000000000021e-02 1.000000000000000021e-02 1.000000000000000021e-02 1.000000000000000021e-02 1.000000000000000021e-02 1.000000000000000021e-02 1.000000000000000021e-02 1.000000000000000021e-02 1.000000000000000021e-02 1.000000000000000021e-02 1.000000000000000021e-02 1.000000000000000021e-02 1.000000000000000021e-02 1.000000000000000021e-02 1.000000000000000021e-02 1.000000000000000021e-02 1.000000000000000021e-02 1.000000000000000021e-02 1.000000000000000021e-02 1.000000000000000021e-02 1.000000000000000021e-02 1.000000000000000021e-02 1.000000000000000021e-02 1.000000000000000021e-02 1.000000000000000021e-02 1.000000000000000021e-02 1.000000000000000021e-02 1.000000000000000021e-02 1.000000000000000021e-02 1.000000000000000021e-02 1.000000000000000021e-02 1.000000000000000021e-02 1.000000000000000021e-02 1.000000000000000021e-02 1.000000000000000021e-02 1.000000000000000021e-02 1.000000000000000021e-02 1.000000000000000021e-02 1.000000000000000021e-02 1.000000000000000021e-02 1.000000000000000021e-02 1.000000000000000021e-02 1.000000000000000021e-02 1.000000000000000021e-02 1.000000000000000021e-02 1.000000000000000021e-02 1.000000000000000021e-02 1.000000000000000021e-02 1.000000000000000021e-02 1.000000000000000021e-02 1.000000000000000021e-02 1.000000000000000021e-02 1.000000000000000021e-02 1.000000000000000021e-02 1.000000000000000021e-02 1.000000000000000021e-02 1.000000000000000021e-02 1.000000000000000021e-02 1.000000000000000021e-02 1.000000000000000021e-02 1.000000000000000021e-02 1.000000000000000021e-02 1.000000000000000021e-02 1.000000000000000021e-02 1.000000000000000021e-02 1.000000000000000021e-02 1.000000000000000021e-02 1.000000000000000021e-02 1.000000000000000021e-02 1.000000000000000021e-02 1.000000000000000021e-02 1.000000000000000021e-02 1.000000000000000021e-02 1.000000000000000021e-02 1.000000000000000021e-02 1.000000000000000021e-02 1.000000000000000021e-02 1.000000000000000021e-02 1.000000000000000021e-02 1.000000000000000021e-02 1.000000000000000021e-02 1.000000000000000021e-02 1.000000000000000021e-02 1.000000000000000021e-02 1.000000000000000021e-02 1.000000000000000021e-02 1.000000000000000021e-02 1.000000000000000021e-02 1.000000000000000021e-02 1.000000000000000021e-02 1.000000000000000021e-02 1.000000000000000021e-02 1.000000000000000021e-02 1.000000000000000021e-02 1.000000000000000021e-02 1.000000000000000021e-02 1.000000000000000021e-02 1.000000000000000021e-02 1.000000000000000021e-02 1.000000000000000021e-02 1.000000000000000021e-02 1.000000000000000021e-02 1.000000000000000021e-02 1.000000000000000021e-02 1.000000000000000021e-02 1.000000000000000021e-02 1.000000000000000021e-02 1.000000000000000021e-02 1.000000000000000021e-02 1.000000000000000021e-02 1.000000000000000021e-02 1.000000000000000021e-02 1.000000000000000021e-02 1.000000000000000021e-02 1.000000000000000021e-02 1.000000000000000021e-02 1.000000000000000021e-02 1.000000000000000021e-02 1.000000000000000021e-02 1.000000000000000021e-02 1.000000000000000021e-02 1.000000000000000021e-02 1.000000000000000021e-02 1.000000000000000021e-02 1.000000000000000021e-02 1.000000000000000021e-02 1.000000000000000021e-02 1.000000000000000021e-02 1.000000000000000021e-02 1.000000000000000021e-02 1.000000000000000021e-02 1.000000000000000021e-02 1.000000000000000021e-02 1.000000000000000021e-02 1.000000000000000021e-02 1.000000000000000021e-02 1.000000000000000021e-02 1.000000000000000021e-02 1.000000000000000021e-02 1.000000000000000021e-02 1.000000000000000021e-02 1.000000000000000021e-02 1.000000000000000021e-02 1.000000000000000021e-02 1.000000000000000021e-02 1.000000000000000021e-02 1.000000000000000021e-02 1.000000000000000021e-02 1.000000000000000021e-02 1.000000000000000021e-02 1.000000000000000021e-02 1.000000000000000021e-02 1.000000000000000021e-02 1.000000000000000021e-02 1.000000000000000021e-02 1.000000000000000021e-02 1.000000000000000021e-02 1.000000000000000021e-02 1.000000000000000021e-02 1.000000000000000021e-02 1.000000000000000021e-02 1.000000000000000021e-02 1.000000000000000021e-02 1.000000000000000021e-02 1.000000000000000021e-02 1.000000000000000021e-02 1.000000000000000021e-02 1.000000000000000021e-02 1.000000000000000021e-02 1.000000000000000021e-02 1.000000000000000021e-02 1.000000000000000021e-02 1.000000000000000021e-02 1.000000000000000021e-02 1.000000000000000021e-02 1.000000000000000021e-02 1.000000000000000021e-02 1.000000000000000021e-02 1.000000000000000021e-02 1.000000000000000021e-02 1.000000000000000021e-02 1.000000000000000021e-02 1.000000000000000021e-02 1.000000000000000021e-02 1.000000000000000021e-02 1.000000000000000021e-02 1.000000000000000021e-02 1.000000000000000021e-02 1.000000000000000021e-02 1.000000000000000021e-02 1.000000000000000021e-02 1.000000000000000021e-02 1.000000000000000021e-02 1.000000000000000021e-02 1.000000000000000021e-02 1.000000000000000021e-02 1.000000000000000021e-02 1.000000000000000021e-02 1.000000000000000021e-02 1.000000000000000021e-02 1.000000000000000021e-02 1.000000000000000021e-02 1.000000000000000021e-02 1.000000000000000021e-02 1.000000000000000021e-02 1.000000000000000021e-02 1.000000000000000021e-02 1.000000000000000021e-02 1.000000000000000021e-02 1.000000000000000021e-02 1.000000000000000021e-02 1.000000000000000021e-02 1.000000000000000021e-02 1.000000000000000021e-02 1.000000000000000021e-02 1.000000000000000021e-02 1.000000000000000021e-02 1.000000000000000021e-02 1.000000000000000021e-02 1.000000000000000021e-02 1.000000000000000021e-02 1.000000000000000021e-02 1.000000000000000021e-02 1.000000000000000021e-02
-1.046863521083565729e+02 1.593425992154566018e+02 3.685698545896657663e+01 -8.271542850811316683e+00 -8.248622784478780545e+01 -1.256568372160591629e+01 -1.952727143386631496e+02 6.826830133470309647e-01 -7.948932146448741776e+01 -1.338340721395030108e+01 -1.865263690455569190e+01 6.177183339376083993e+00 -1.675114539568051120e+00 1.575331978117254721e+02 7.946620338902182823e+01 -3.648431275072465496e+01 -4.966140956344323598e+01 7.437833675690568214e+01 3.083594766706963952e+01 -2.384758586347908604e+01 -7.400297172903516696e+01 -6.925732627071224101e+01 -1.293584090533082609e+01 2.716684299111156520e+01 -1.829990478831837493e+02 -9.266385509814729460e+01 -2.450784399741791475e+01 1.892832940569669802e+02 6.644197872476824784e+01 7.210973374498595945e+01 7.541107949389147791e+01 1.103743482832374223e+00 -7.456597710553293723e+01 1.949088280926573304e+02 -2.300197370116999025e+02 5.534451150095128469e+01 -1.127191302405872761e+02 -3.258767433669531499e+01 3.797074511189665103e+00 1.189959198833330447e+02 -1.153771317156318190e+02 -1.276540600405004611e+01 7.259164122258262353e+01 1.630521059305986000e+02 6.695473115397730623e+01 -6.416310596740737537e+01 3.861354410738848486e+01 -2.668564513603756794e+01 -6.203712463734171223e+01 1.470330699397521528e+02 -6.612820432733900589e+01 -4.889324708058686753e+01 -1.309548110898435880e+02 5.528457835276783250e+00 -4.741989520049846618e+01 3.633706203629466813e+01 -8.333495749105364325e+01 -4.698803148073611169e+01 -9.523803594131895522e+01 -1.460124818702937546e+02 1.819956990959039800e+01 4.268750791449512860e+01 -1.156522671731662371e+02 1.205966794708120204e+01 -7.440559937225296494e+01 4.614304790414423962e+01 1.565970712509372049e+02 -1.355257210932326757e+02 -4.064258415477844011e+01 6.807351531507336517e+00 2.771748778404631963e+00 3.982714265412288768e+01 7.887778679351549727e+01 6.793522273257283084e-01 -8.332760612193808925e+00 -6.573462029970937692e+01 7.347524741234178691e+01 -3.068594500841675909e+01 2.472564673471470087e+01 9.772037634069960177e+01 8.280809403182800565e+01 -4.019090304877074971e+01 5.420362557386290092e+01 1.384646034584293375e+02 1.091701449069010721e+02 -3.725012732757237099e+00 1.635795605226889506e+02 -1.047696932912367060e+02 3.883514959765849373e+00 -3.939302608785618531e+01 1.942338846401236765e+02 -1.993504882021474955e+01 2.742764059810563371e+00 -7.212125676510248695e+01 -6.730820647826736725e+00 -5.990987578095067079e+01 6.368708516137910891e+01 -8.882981094134116518e+01 6.452724585360489584e+01 -4.489324696079527399e+01 -4.670706623572409200e+01 -8.611040962114714148e+01 4.980654953629966286e+01 -5.132397920972471184e+01 -1.402526860235429069e+02 -7.460516201526280611e+01 -9.823818667509480917e+01 -1.476719135652818977e+02 1.276498616087187656e+02 -2.573164309371652081e+01 3.011291635829294933e+01 8.421799139476982532e+01 -9.768364194207232742e+01 5.346376052407107693e+01 -4.067824159357245151e+01 -6.526304787556180997e+01 -8.470948739252946780e+01 1.907928355709033781e+02 -5.328408778048212469e+01 -4.654183288068789182e+01 -4.425629898746208823e+01 7.550148530486130483e+01 -3.892101398435899995e+01 1.295479717221925000e+02 -4.695036335610426192e+01 5.182849471670228070e+01 4.268294967907111825e+00 -7.610039845868193709e+01 6.456463582395190315e+01 2.605716267696533350e+02 -8.652275096478396677e+01 4.456628977788856361e+01 -7.169125352302172871e+01 4.251032751952340760e+01 1.232704541316881972e+02 -4.836375667840474790e+01 1.376180929081535709e+01 -2.534069158951238521e+01 -9.582008563344957963e+01 -1.636284837916842250e+01 4.079685448324627650e+00 -7.326267770868184037e+00 -1.402394453896860504e+01 1.110307657724779347e+02 1.225868574160311653e+02 1.752881667118292910e+02 -2.861325984303035170e+02 3.589676324734519142e+01 -1.485246792336283050e+01 -5.859104665896173003e+01 1.695646481307392435e+02 7.152793477422011392e+01 -2.498740407452557211e+00 -1.089831431204977576e+02 -1.020204427485825782e+01 9.412835899151821195e+01 -1.263149073188881317e+02 -1.585393711902617895e+02 1.010006281388986871e+01 3.987423316758608394e+01 -5.742644630078305568e+01 3.954746754402624731e+01 -1.007100575012403709e+02 -1.423024146791502460e+02 1.981147164482097622e+01 4.569555796054437735e+01 4.559343805503428548e+00 -7.845324931691821746e+01 -8.804612798120540162e+01 -7.926069072431127438e+01 -8.240029703417489770e+01 1.195178559748763902e+01 5.346228490961463109e+01 1.096998068687413763e+02 7.475479595796200272e+01 8.431002354862062020e+01 1.012699923937657758e+02 -7.042224132684049209e+01 -7.770501910183097038e+01 6.644291776374322467e+01 6.467700557775249592e+01 5.581722494676667878e+01 -8.832267285176390814e+00 -8.585470723085742861e+01 5.092586854170162525e+01 -1.690014657169154191e+02 6.339940839468881961e+01 -4.196570602485133605e+01 -9.097413982692953027e+01 7.004937908017397774e+01 -1.623354882526999177e+01 -7.276674101622045043e+01 -5.421258162340868125e+01 -8.687984933794798081e+00 2.293438914156696171e+02 7.278718045719242014e+01 5.185146394877081377e+01 -9.816043678321494781e+01 1.402339611408779660e+02 1.037064194640266113e+00 -8.546146019851558151e+01 1.474813046732080011e+02 -1.458654966978388359e+02 1.493937035591509321e+01 -3.075483846239871966e+01 -2.103986069607602758e+02 -1.275714407817020941e+02 -8.346111076738363010e+01 -2.820962878879138813e+01 -1.140542014512281099e+02 5.514229011771426769e+01 6.222365827422160578e+01 -2.644801899410536805e+01 -9.555079221055501648e+01 1.082374045592366940e+02 1.130553478669242082e+02 4.422407266307074281e+01 1.679522018123197924e+01 2.503286157746785534e+02 4.177835738474018257e+01 -1.145202453511539176e+02 -4.320676289487363420e+01 -1.616651505736087699e+02 3.053244836576903154e+01 1.467981305873053088e+02 -1.419755695351808811e+02 1.262100463627502904e+02 -8.715810152800904120e+01 -1.817384526327395733e+01 -8.225404305129743188e-01 5.069724740494405779e+01 -1.106667209685140207e+01 -2.190763011281906714e+01 -1.795961698428363817e+01 -1.215992645556127343e+02 4.445480564865937367e+01 -2.906408996561960478e+01 -1.234014743914145917e+01 -1.028897573328277382e+01 2.166988730637833669e+02 1.671631711714844073e+02 2.230997092630751979e+02 1.264040734465679350e+02 -8.303436088968922490e+01 7.204759162529983030e+01 2.031187241995448645e+01 4.552246540308030376e+01 -3.799521827355913928e+01 2.449710698565211544e+02 -2.238769186750984375e+01 -1.311730974483590160e+02 -1.431843982962830530e+01 -4.399287935892315460e+01 -7.420924488436540400e+01 4.139460055831634833e+01 -1.123486550198264489e+01 1.745244094958287917e+02 8.852611340363992554e+01 3.920752216110701482e+01 9.396948029651787238e+01 9.089248664375170961e+01 -2.205214489602384376e+01 1.339773278401566472e+02 2.549700150101904583e+01 8.602290302735588057e+01 4.579551911362414529e+01 6.635360735245117603e+00 -1.110703903300087205e+02 -1.112378462892238247e+02 -8.644373840619429927e+01 -1.492910811217882916e+01 8.322819115373432908e+01 -2.936535623443102949e+01 9.490923237032157544e+01 4.208250555829167894e+01 -6.980435371277322076e+01 -2.872096865694424395e+01 -5.622394881312155945e+01 1.687023687180158049e+01 -4.440187565009050275e+01 -1.075472527481739462e+02 1.166090123487792169e+02 1.164916067912120639e+02 -7.583648561099083452e+01 5.136160314580441089e+00 -4.352826290980371482e+01 -3.121257575372600002e+01 -1.088569725435825752e+01 -3.001090225211589768e+01 4.275344861207254610e+01 -1.349813187618330801e+02 -5.075809688997992453e+01 -1.457084750810860498e+02 1.670792518365933006e+02 -1.932066469643051576e+01 5.647943756269408055e+01 1.140182450364599021e+01 1.384848346209936949e+02 4.274265742283419911e+01 3.420207716064984282e+01 1.480606678261962088e+02 -4.722895968689353197e+01 -9.363796799946040039e+01 2.613806631821427828e+01 -1.514641533042668584e+02 -5.120035072098588103e+01 9.810829352347724353e+01 -1.221201135502984130e+02 -3.483138987410514886e+01 8.745282623331485183e+01 -9.043344760614412792e+01 -8.565556636776942412e+01 -7.913381680662614315e+01 -6.104783969792356402e+01 2.386175978169961525e+02 1.898205307763099086e+02 9.857538267426596690e+01 -9.784942942135435828e+01 7.162753040789905867e+01 -6.344962048238347307e+01 -3.021516990726337326e+01 1.591979338185840653e+01 -3.095324222142302162e+01 -8.967927514195149286e+01 -2.752754209595039470e+00 1.407662173259847727e+01 1.041209070964334984e+02 -1.229202452779614276e+02 4.021200267139376905e+01 6.099750607818583603e+01 3.296258786164405308e+01 -8.664253877768948087e+01 -1.420232863659894065e+02 1.845602262452272555e+02 -1.700083042032214919e+01 2.406455494338407775e+01 1.496597024281705330e+02 2.546246645901044658e+01 2.647273043919858537e+01 -4.256079581876436890e+01 8.463358909089230053e+01 -1.301548793273966282e+02 -2.938865929522284048e+01 -5.862169459555981454e+00 -5.093803854487489247e+01 6.105973476798417288e+00 2.023785961247875775e+01 -3.414939148815575010e+01 1.303886569117735306e+01 2.039082944199694509e+02 -2.615391360029019552e+01 -2.674834887169997799e+01 -9.696631736421421977e+01 -1.544905190942347017e+00 -7.698481972135381568e+01 6.053790545343662011e+00 1.069037412036412320e+02 -4.959324109172390393e+01 5.753151533227438108e+00 -5.175939494069918823e+01 3.142795934744808228e+00 8.310792264566704546e+01 -1.104296264346305634e+02 -9.234074148571174590e+01 -9.781128840723721396e+01 6.797120409439726529e+01 8.249880205799877331e+01 -8.784889291713581372e+01 5.974272201199341481e+01 2.464733239320848668e+01 3.687254192525684715e+01 -1.689708060755651431e+01 8.708662691914253173e+01 7.591939439161940584e+01 -7.359204192543371903e+01 1.119165736575915560e+01 7.704108833197794581e+01 6.938911225189522725e+01 -1.899577800612190970e+01 2.376555115815210328e+01 -1.263492463159000607e+02 4.627229073036465934e+01 -3.124637127059468611e+01 -3.117468771410258910e+01 1.650069666102766632e+02 4.515900692998204846e+01 1.145041434812795984e+02 1.819782465501671425e+02 -1.311541942698989089e+02 1.420822761016610229e+02 -6.050846304278022103e+01 -1.287761362742961069e+02 7.841873847352016469e+01 -1.276878120652283712e+02 -2.736766281193300188e+01 5.371284630021542483e+01 7.633259329080033240e+00 -1.602898056330211318e+02 8.032709946602099649e+01 2.406629332676231314e+01 6.581200359891130347e+01 3.461939645470517490e+01 9.009986127941706613e+00 -6.393806305145396607e+01 1.102057969653767344e+02 5.192415576457564441e+01 -5.917044927329281734e+01 -9.645948114138501239e+01 3.703453534225359789e+01 2.456351061214694909e+01 7.852662294117688191e+01 1.751629832369863209e+02 -2.343202193930084931e+01 -1.049642498909547754e+02 -8.062074423357148589e+01 -4.888361160067820776e+01 -4.218021729772499384e+01 -1.397574445021737688e+02 -2.148267391780801816e+01 1.234249811192848085e+02 7.098202654892220664e+01 -1.165662737095715471e+02 -1.429026557572285299e+02 -6.483027863148630843e+01 -7.264466677783987336e+01 1.399233921133773890e+02 -1.624006397196634168e+02 8.250081071959118617e+01 -4.387368424226220753e+00 -4.101372024137285877e+01 1.264038148811852658e+01 8.678704687963811182e+01 4.716205185394129273e+01 1.316455775433882138e+02 -1.515987483720463729e+02 -7.712521321065872826e+01 2.420541040212893691e+01 3.992893973369180571e+01 1.962924964323547670e+02 1.385733513639794126e+02 6.246211302675037302e+01 6.867727278307670247e+01 -3.231842471979042131e+01 1.445517439323882343e+02 -1.708952790806138182e+02 -6.043997087246201971e+01 -5.112286314079875638e+01 -4.932797051814526412e+01 -9.831561351240358704e+01 -1.429581201104213939e+01 -6.535332242148024307e+01 6.775379170645541649e+01 -8.689694124671564879e+00 -5.525013326541004233e+01 -5.919284133605329146e+01 1.715984651148744717e+02 5.627269278113124074e+01 -1.311331758750522880e+01 1.989469970860016872e+02 -1.032178262509993800e+02 -3.363154941885271398e+01 6.377906636690530462e+01 -1.377168990813859017e-01 1.429581719653585736e+01 -1.192112907028488848e+02 1.677893408052954953e+02 -4.656987154035613230e+01 -2.557223699951868667e+01 -1.044300415181541695e+02 1.198037537751366273e+02 9.119015311496373499e+01 -7.375579464519937289e+01 -3.586491714233775951e+01 3.710523573367761685e+01 -1.440398819913580724e+02 -2.242934267606253862e-01 -7.108187961974243763e+01 7.292614631031241856e+00 -1.028144100576258069e+02 -1.508140826755823412e+02 -6.725083974685301769e+01 1.409689685224406048e+02 5.374699779546980949e+01 -8.527477341633559149e+01 8.476341545027882773e+01 3.250170845688520416e+01 8.405089076759753652e+01 -4.005015736751926880e+01 -7.990380699307131351e+01 1.626081995218841598e+02 3.954723402925536391e+01 2.750244349632109930e+01 -6.934252780433860153e+01 -4.021336522003244340e+01 9.006979832444887535e+00 -6.828841488452601638e+00 -1.642296390902059215e+02 -3.290654525118257112e+01 6.117095384312286654e+01 1.059576573732351932e+02 1.479449931219630798e+02 -1.263424443495324745e+01 8.511128189581373249e+01 1.498058496929935757e+02 6.018668660923533054e+01 1.401174403269078823e+02 1.525244855861287263e+01 1.246273147098042244e+02 -7.965602812381852971e+01 5.057510469837703937e+01 2.776575762800093727e+01 7.192304120492576658e+01 -1.007127603864397827e+02 1.877998457344420160e+02 -1.219069640318449643e+02 8.372259533780463414e+01 -1.016799126766002530e+02 4.375742718949118881e+01 1.308629284577871665e+01 8.585691436506739649e+01 -6.969975258782331196e+01 -7.147061217719894444e+01 -1.051389863856613971e+01 8.429838496341187692e+01 -2.800056938908160120e+01 -1.540351675198559001e+01 -1.856351404938859417e+01 4.475555054893327167e+00 9.273872118110709550e+01 -5.907075464016493527e+01 -2.545860810760050441e+00 -1.829772115323432615e+02 1.151453639638895368e+02 -1.177383288600374840e+02 -6.962390023154381424e+01 -2.215706328614642473e+01 -1.017774958673404200e+02 -5.008611023159383535e+01 -5.524255110596352836e+01 -1.858253587828470543e+01 1.283698339856596249e+02 5.095232045270572030e+01 9.461844014581852491e+01 -1.282644672695138013e+02 -1.305799090507103983e+02 -2.702713051267735409e+02 9.633887725379011613e+01 9.818591416758629009e+01 3.992015758241097956e+01 -4.006796853120174262e+01 -3.498923249001714453e+01 -1.731268837869277490e+02 1.376339203564538707e+02 -1.012099893784331783e+02 1.008035321726571851e+02 -1.499911680676741526e+02 -1.350531397169562808e+01 -5.218938934844684496e+01 -1.124075968304847919e+02 -4.345959276289967477e+01 -1.186311363107121686e+01 -8.736520297961835979e+01 -9.748580265136710921e+01 -1.165652731321215541e+01 6.707871843532204537e+01 -1.174318023312752501e+02 -1.473356268165470517e+01 -6.950691278429836473e+01 -1.238590510420433901e+02 6.160856712246708611e+00 8.958113006839124637e+01 1.560818641156157582e+02 -1.795314556806054185e+01 -4.340647362810038601e+01 -1.171135920055299380e+02 -1.543563193244063996e+02 9.792881037996971827e+01 -6.859697003337579702e+01 7.448106816985391276e+01 8.860241378635933529e+00 2.752946185081401254e+01 6.965695218522448329e+01 -8.000555412606290417e+01 7.803877019425164008e+01 1.087984076582517474e+02 1.487068212147523241e+02 -1.099231393799502143e+02 9.813677751224503254e+01 -4.512545743120391961e+01 -8.571686632428331620e+01 2.026121753918282877e+02 4.642034538285809475e+01 7.879967910775579298e+01 1.996927840413418664e+01 -5.980502503938819814e+01 -3.297694081312460668e+01 -1.986287255692921292e+02 9.973863796970412920e+01 7.690636097940281957e+01 -7.145805567882361231e+01 -6.898953686772776450e+01 1.370557697653769083e+02 9.540841231514733067e+01 4.826564042262401699e+01 7.179170565601361886e+01 -7.372683372492025988e+00 9.740815441006546394e+01 -9.782351213667195111e+01 1.758754103976150134e+02 -3.727363672121228433e+01 -1.151941050280087353e+02 -3.563157628761667439e+01 6.772120929093674135e+01 1.390722672639006987e+02 1.207799386193788038e+01 1.640919076110371861e+02 4.924660449241046933e+01 3.176948244025583890e+01 -1.050609898267998972e+02 4.224774212045156219e+01 -1.179502295107580636e+02 4.506508149447197553e+01 3.636991934079290445e+01 -1.164995399717554960e+02 -8.028047879595888503e+01 3.764729252139355964e+01 8.235731986375437685e+00 -2.188737513584384331e+01 3.956445262463801527e+01 -2.020766400044538003e+01 -5.955313090053637382e+01 -2.483237822908104775e+01 -2.113473896060515855e+01 -3.758077182594338694e+01 1.770063172474547386e+01 -7.604983940861990277e+01 1.122687197466231339e+02 -7.007297674629000994e+01 -3.910967607250682043e+00 6.201967976401922300e+01 3.639021761368816055e+00 1.508681079036771244e+01 1.508634549045898687e+01 -1.105285337258586367e+02 -4.150769711050521948e+00 6.139001938632917188e+01 -2.184336623396201844e+02 -8.015492286952834888e+01 -1.063414512852922513e+02 4.134824991339861100e+01 9.080211906137209610e+01 -8.662720004616254244e+01 -1.584470666301812685e+02 -1.748195887030051665e+02 1.881883601559385610e+01 -1.367399039414668778e+02 -5.978073045563883525e+00 1.392377403637418070e+02 -6.641978382153444826e+00 3.498704335406998922e+01 -9.312922362472163229e+01 7.520999849007007754e+01 -1.115751832337312521e+02 -1.454453397972334905e+01 -2.846076748377556598e+01 5.418588590579752662e+01 -8.278482232728856971e+00 9.932722465059849526e+01 -1.147629139125854749e+02 -4.706266063333139016e+01 8.149148898379316108e+01 6.212798415326339807e+01 -7.726048324609953966e+01 -5.109951044277907073e+01 -4.637233340237766299e+01 -2.715807698982698639e+02 1.815626981693997664e+02 7.131008593132769136e+01 -2.207424749094897010e+01 -2.782252785664280026e+01 3.892365891669856381e+01 -7.875829713417259370e+01 9.318254709432237348e+01 5.667758862580379997e+01 7.663596153015382129e+01 -7.872277390259937135e+01 -2.475064800475330529e+01 3.114999246477899675e+01 1.626318942600854811e+01 -4.012085750630808434e+01 1.478433789445595323e+02 -1.615580797645493405e+01 3.314997986119283979e+01 -2.150594889046246010e+02 -7.915465143354512634e+01 -6.838165533922402517e+01 2.154251272514342830e+01 1.020859645219993581e+02 -2.167794713243953879e+02 -1.749046867376693797e+02 2.071968371899587567e+02 -9.874040249404322012e+00 8.977191238523261063e+01 5.850887296195438125e+01 -5.171617496455696994e+01 -1.224696180504416532e+02 -8.896445204154876762e+01 -4.696554624934809397e+01 -3.495364044421143745e+01 -3.661628944732667179e+01 1.505281363816643569e+01 3.483631941317030112e+01 1.560418543604676529e+02 1.152697971753281649e+02 6.581527949015478107e+00 -4.140155252885141302e+00 -1.483714743598186772e+02 1.118661316848759810e+02 1.489080605713049863e+02 -9.676361749859617589e+01 6.891440952015481969e+01 1.533383730124630251e+00 5.139803506965175472e+01 1.171721091135560471e+02 6.632645292487309518e+01 -1.253538925666173185e+02 1.504569448781214547e+01 -2.748009150697298608e+01 1.042558554666112514e+01 -2.155150336392738808e+01 4.237906423352797702e+01 -2.438519542608443942e+02 1.694249852667012703e+02 6.757146752543662593e+00 1.491218773889652027e+02 -9.813743352037931800e+00 9.931141329038898391e+01 6.703279345056876082e+01 -3.925555491904412264e+01 2.807354245382307667e+01 -6.822334226785784494e+01 -8.337383615258744385e+01 -6.745168564374503717e+01 -3.003575709835131846e+01 4.230014535432420786e+01 1.031926813368342550e+02 2.664894120726096105e+01 5.831485829250160435e+01 -9.826766724575426792e+01 -1.285476174334551445e+02 -1.263959913504278276e+01 4.346266423006586166e+01 -4.255046636031359952e+01 8.874537750646902623e+01 5.211562859277417914e+01 -2.591139061554377321e+01 2.807637834375901775e+01 5.760670321504424862e+01 -6.760811247799031776e+01 -1.254389003017096229e+02 1.332504240614703974e+02 7.327248495442530540e+00 4.704476757075980231e+01 -1.401647490916485026e+02 -5.014329852563400181e+01 -3.877912956959450042e-01 -6.186000071605057826e+01 3.992240696679822953e+00 5.290004194867510989e+01 1.751873473758826663e+02 3.677770890074246779e+01 -1.029353205522287595e+01 6.795635711015292202e+01 -4.272885046099814588e+01 -1.024568190456513577e+02 -1.299190481709866276e+02 8.795861404665155092e+00 2.361863532007273037e+01 2.245144380551727536e+01 -5.352378245976250071e+01 1.136760073597894234e+02 -7.605691127986527533e+01 1.207832686116122574e+02 8.216853524741989645e+01 -6.123391538915537069e+01 -7.987367603754715617e+01 7.933069284246681718e+01 1.919140059655274655e+01 -4.950941922117185356e+01 -5.071683555800604637e+01 1.289301423403845490e+02 5.406612071362791028e+01 7.537327670739951202e+01 2.465259177484033515e+01 -3.962078282480561597e+01 1.012601746699951661e+02 -5.147577772514032546e+01 5.606586125776853446e-01 7.218169203383821753e+01 9.398863312678540183e+01 2.412013494427442311e+02 -1.654118932527494223e+02 1.518936947797876655e+02 -6.373568820444940997e+01 -1.439100189077540826e+01 -2.377784531791063927e+01 -1.957860600405527052e+01 -5.202141769509319147e+01 8.791704404602444356e+01 1.738913924410070138e+02 -1.122489030224423772e+02 2.924587403427123533e+01 -1.200112939746876748e+02 6.640305401757288450e+01 -4.205143748481499699e+01 -7.672831590289057146e+01 -5.106462595899949264e+01 3.903672175547398382e+01 1.832837589237362508e+01 -7.744504130832946487e+01 -1.336593658257361881e+02 1.967569832391487239e+01 1.494531698885518836e+02 1.355233851948695367e+01 1.731191156358309229e+02 7.068090398032524035e+00 1.277947649152995240e+02 -3.282813661000822947e+01 8.621412300254689853e+01 -6.784760574635362218e+01 -1.072619833584668356e+02 4.697741456442769703e+01 -5.511364253343813857e+01 -7.467877898547453697e+01 6.924573085315881826e+01 6.179354936515172980e+00 -8.966085663430563102e+01 -1.433198609600042062e+02 1.408269235685375236e+02 -8.490279688372368128e+01 -2.278877421631805067e+00 1.144145061896542472e+02 5.525018652157608301e+01 -9.361435227433031514e+01 1.017881426787154275e+01 2.689068146305465916e+02 5.080434686082430318e+01 -1.504136797116990181e+02 -4.554497551941531697e+01 -5.864857171084623388e+01 9.164549081893095916e+00 1.026796452380459925e+02 -9.883546032221569533e+01 2.063860092706088523e+01 1.245951347879118174e+02 1.792763583120086679e+01 -2.018477993219430573e+02 4.610114601270650780e+01 7.213580568704666973e+01 -1.300468179633699428e+01 3.132037383821018750e+01 1.909363683960678959e-01 2.160222731806772245e+01 2.650860291587742879e+01 1.107458653546496095e+02 9.375356833144655866e+01 1.499718077414365069e+01 1.424522986532674338e+02 -6.120299593862407761e+01 2.358146781278644255e+02 6.219772891116774360e+01 1.355454228433256674e+02 -2.099385996743207272e+01 8.614968083599812587e+01 -4.672552477334877352e+01 -1.399861896272805666e+02 2.499823256524841142e+01 9.078045124678796185e+01 -8.371523429572664554e+01 -1.001812216622648037e+02 -6.364356688600959444e+01 3.504298962220321556e+01 -1.091854461013561348e+02 7.142666098309734934e+01 2.679602788458309703e+01 -9.336531776977751917e+01 1.816318143103756313e+02 -1.124740011166873543e+01 -9.737038367864685995e+01 -1.285527264208247900e+01 -1.954885973962043266e+01 -1.341156274100872849e+02 -3.826736533301501453e+01 5.884995915224249075e+01 1.260921134803577530e+02 2.780236356047402424e+01 2.556379496369959270e+01 4.284191226143303055e+01 -3.413620066816488929e+01 -1.393216589882657388e+02 1.523368949058970045e+01 2.958255247598352966e+01 1.273697164036573213e+02 -9.425240367926569718e+00 -7.281278661280012443e+01 7.002090207490859086e+01 9.177967066081206271e-01 3.035483951933037972e+01 1.331442866118539143e+02 -1.697442961475535412e+02 -8.884788663567809408e+01 1.193412442822715889e+02 -2.005530343218063081e+02 -1.709644147948534680e+02 8.465228474318881524e+01 1.431595752931736456e+02 5.898666430722465037e+01 -4.181581792620109539e+00 1.447333294856084080e+02 -2.041202665905494200e+02 9.961547287377213422e+01 3.939251439294411483e+01 1.181289192621505038e+02 -1.753198046054462225e+02 9.894647316170600959e+01 -2.620443710265723780e+01 -1.242765408457685226e+02 -4.944619764257828898e+00 -8.587534851740609554e+01 -1.501904631794133138e+01 -4.084194097430017933e+00 -1.145279270922082162e+02 -1.146417056591261030e+02 -5.815487355711467643e+01 -1.198186722150476413e+02 1.868225491592526168e+02 -1.498429999293476840e+02 -4.666030429082603348e+01 1.604051680809943718e+02 3.154907966605901137e+01 -2.751767498545859212e+02 -1.182233726524142838e+02 3.298717445435251960e+01 5.082954710820449407e+01 7.898190152634264827e+00 -1.436868113534255542e+02 3.317300876415555422e+01 7.004470107198216056e+00 -6.910176432704335525e+01 1.884927103636245818e+02 1.882963116851982193e+02 4.054542255467445067e+00 -1.938938550640286280e+02 1.171043101284686543e+02 2.856996765472255362e+01 3.584174634808314774e+00 7.116325282401675167e+01 -1.929064873694472055e+02 -1.282912282512747026e+02 1.310717822842526346e+02 1.019474805880105066e+02 4.915822181379963496e+01 1.330665680246054876e+02 -1.657198036295834527e+02 -1.904780351268233929e+01 -1.212001719034965674e+02 4.064531985956043769e+01 -9.657216515075693053e+01 8.096349880716316250e+01 -3.156541521103726922e+01 1.151611852022974425e+01 1.649657209862307354e+02 2.657786837877126374e+01 -2.450261818577293980e+02 -1.175219659961496177e+02 -7.746791667028655581e+01 1.469865192398343652e+02 1.166163688179622682e+01 -5.014821187148805848e+01 2.814569455215139726e+01 5.806410508713187113e+01 -3.673911349005704352e+01 9.994350897975817816e+01 -9.366517932944456959e+01 4.575076301873377815e+01 1.040609007888006232e+02 -3.307439873616023363e+01 -9.122285375710968935e+01 -1.055105677532593091e+02 1.113376007812623527e+02 -4.620588931008264666e+01 1.827205640629383652e+02 5.318092984051899208e+01 1.031284881777721552e+02 1.715923703848170021e+02 7.949632394115852208e+00 -1.155904876440061173e+02 -1.540346281641986650e+02 -1.061128280491903126e+02 3.954430782558260660e+01
-1.231881848254535505e+01 -4.422671236877971701e+00 9.399992480651508231e+01 -2.079925798905393890e+02 1.411284652289337771e+02 5.762349130984492973e+01 1.381590784876568421e+02 -1.172961557363200455e+02 -2.498113549462037675e+00 -2.183399911642541724e+01 -1.993103814567295160e+02 2.967464737961705268e+01 -1.662622150298006929e+01 1.110700107343676848e+02 -1.136345102132161884e+02 5.603928396794007938e+01 1.137230994399483706e+02 -4.173671626946678970e+01 -4.496661857025817710e+01 -2.444677986579281992e+01 5.607102212241667871e+01 5.722097241517199251e+01 2.946627723440992952e+01 -2.110690150390825295e+02 -4.676296190955527265e+01 8.316475060349775106e+01 9.008736977953905267e+00 -9.445163620280654371e+00 -6.037954384138738817e+01 -1.410469838262805631e+01 6.657850445358293712e+01 -1.319952150811086540e+02 -5.628174477774370388e+01 8.123868421397999029e+00 1.884982573832285482e+02 1.925236815599304805e+02 -2.923368514208126356e+01 5.072905918739981246e+01 -2.233868759232828238e-01 -1.267455043824157315e+02 8.710193065983811778e+01 9.730654505514057462e+01 9.848948616088759422e+01 1.058391895665127613e+01 5.615353420262065498e+01 4.366953605170200348e+01 3.528054401531265682e+01 2.668167507514250758e+01 1.000887491398779758e+02 8.140827242634928496e+01 5.949881630074628447e+01 1.479625453251294971e+02 2.250366264017760329e+02 1.775439641958519701e+02 -5.368817745657523233e+01 4.472031652326034390e+01 -5.830582113167047709e+01 5.115509166404591923e+01 -1.744954646558838363e+02 5.127976301980067575e+01 -1.858131738447146972e+02 -1.531493714917060345e+02 1.176527915651459466e+01 -8.431294304817374297e+00 1.538496540217172992e+02 -1.888216187320641950e+02 6.831459302960834634e+01 2.086752446913484107e+02 -6.757149296648909953e+00 -1.769050043986144090e+02 3.220963394121666568e+01 1.789656963487806536e+02 -5.548548848050747750e+01 -2.420636873213664728e+02 -9.311706687395447091e+01 8.142297403153756719e+00 -2.089020560061132983e+02 2.918905936553042224e+01 -1.629477691303655149e+02 -1.684760799701462872e+02 -5.198297408214452275e+01 1.384000878916436932e+02 6.303716210636060424e+01 9.655785264230763332e+00 -8.059304268717905018e+01 -3.869529449287267653e+01 5.788820308368144651e+01 -2.109884786924541515e+02 4.915500423390220419e+01 -6.804693294310452245e+01 -7.105177230495051788e+01 -1.606909055085317561e+02 5.906581423505827644e+01 8.421683250083692940e+01 -1.475256569759185368e+02 1.571057791312994709e+02 -3.623228299232787464e+01 -1.538691596027412523e+01 7.975009842994626297e+01 1.421833408015789075e+02 1.981891970870411512e+01 1.377437763064206422e+02 -1.686294468640287647e+01 -8.248883036599602292e+01 -1.782095752967543234e+01 9.190154339534866779e+01 4.206708631964988854e+01 9.151103382078012771e+01 8.827062493126985032e+01 -7.776336579140395600e+01 -1.589475402040498864e+02 1.151009879826548854e+02 5.073075887361386549e+01 1.524347732528221577e+01 2.859367174270588308e+01 -6.354665484676146292e+01 8.983327768001339564e+01 8.410160505387429453e+01 -1.288631389102292246e+01 -6.668920440917371195e+01 2.867780877886602298e+01 5.890784929918109647e+00 -5.749757947213378628e+01 1.587360195481625453e+02 -3.058950394597038169e+01 1.138078554916349958e+02 -6.558913037166087179e+01 3.593548684409004323e+01 -3.372878910518745244e+01 8.379396966925635581e+01 2.196198661557323462e+01 1.082237600619612010e+02 -1.086717658145083760e+02 6.962061522456166074e+01 1.155974736645261629e+02 -4.183185170677185738e+01 7.212223916559010739e+00 -1.204828903768236259e+01 1.094547970705802129e+02 3.497886683230859273e+00 1.579092278911051324e+02 -1.324883815816276069e+02 1.092607583579506922e+02 -8.547327591751586340e+01 8.981793536361783481e+01 -1.284527473506902879e+02 2.764693373178920766e+01 2.321624114901421265e+01 1.640580013454126407e+00 3.404395575080648229e+01 4.319706728831412335e+01 -1.157088771937218397e+01 1.028492068192206688e+01 1.013651522353283241e+02 1.193028571746253448e+02 -8.135293284589340601e+01 -5.076846734719696030e+01 4.435766043008980120e+01 1.403195311196529627e+00 -1.285350569564065495e+02 -5.177285526450543074e+01 -3.318478845817141831e+01 4.585541216721338742e+01 -6.145231811402193500e+01 2.148508236480968137e+01 1.505486655630039081e+02 -7.456794963095740059e+01 7.593874935433763085e+01 7.891275679011042143e+01 1.063032042379792053e+01 1.159681062711470645e+02 5.907651929015105452e+01 1.578992029983176621e+02 -3.258391063004641097e+01 1.056692887075331413e+02 5.225346094427746380e+01 -1.509018355027647296e+01 1.919996933909014274e+02 -1.305346254872327734e+02 4.601969351630970095e+01 -1.765520573437029270e+02 -7.922227948386282037e+01 3.866423871530977152e+01 -6.801637478132030878e+01 -1.467189353689166467e+02 1.877943807568993009e+02 -8.081840092385203889e+01 -4.475877010167852177e+01 -4.360506158552956890e+01 1.147475702050095236e+02 1.835648636579073525e+02 6.102401694839847579e+01 1.378558779531905145e+02 2.069157653163454427e+02 -1.483238080357061284e+00 1.535220143181875301e+02 6.682269281712596865e+01 1.795046532858913793e+02 -1.186394522041101283e+02 -1.112861012471394950e+01 6.011099329595723795e+00 1.790588354793751762e+02 -8.562089946553349762e+01 -5.711182947006115285e+01 -4.989178382232172737e+01 -1.264225159646404819e+02 4.412765230220586865e+00 -9.514688689009217626e+01 1.454226430461281154e+02 2.217779487082350087e+01 1.128639496988148849e+01 6.816930074731887146e+01 -4.609432249148372129e+00 1.103633140156394603e+02 -1.498333382047505609e+02 4.285357242929798360e+01 -1.609837704958375184e+02 1.107169626359101358e+02 9.067699516815676475e+01 -6.341288749708125039e+01 4.416071428507517993e+01 2.245478575698993495e+02 -2.875255651026186143e+01 3.926301829761598583e+01 -3.082147467058515744e+01 5.464279631826470052e+01 6.056798663101616143e+01 -5.938637191474885668e+00 9.603966528629358379e+01 9.559833002019517778e+01 -1.827664073520083718e+02 -1.444570836346986766e+02 -1.130087438784935188e+02 -8.864108846381268947e+00 -1.411527169251862119e+02 1.089314588495949891e+02 1.039760562185865354e+02 5.565021422435521714e+01 1.052841624742865001e+01 1.486089601251241277e+02 7.913520658164020460e+01 6.364941131282338205e+01 -9.571767586975987285e+01 1.437342174753950985e+02 -3.422049912012398831e+00 1.030965868764317577e+02 8.319943280565203381e+00 3.462386985483419721e+01 -7.129523893714747373e+01 -8.548115909669679979e+01 6.745668852549576400e+01 -3.669146435821147190e+00 1.376765989357123772e+02 -1.181204057611400415e+01 -2.666957040220038877e+00 4.319335872758395567e+01 2.129370753209780176e+01 1.331805673486141472e+02 1.388610565253009810e+01 3.377470558337471829e+01 -1.456101925234119960e+02 6.193235057054074844e+01 1.257774273009950150e+02 -1.648844478988890927e+01 -2.145213879224969276e+02 7.938908746604867872e+01 1.280197609530748366e+02 1.919528085134099271e+01 1.775711047418447777e+02 -4.093371364176424443e+00 4.021406991363237182e+01 -4.095888853623840475e+01 -1.299475645578573619e+02 5.255053541852624477e+01 -4.451018480469662109e+01 -7.582879680936748912e+01 3.862611932072643839e+01 -1.730003417527315150e+02 6.702206935060664250e+01 1.539862556694661464e+02 -9.472203071072884484e+01 1.619282053146843623e+02 -9.125897718253544610e+01 -5.559420021765242304e+00 -9.885453540169006459e+00 7.170725851580739629e+01 -4.362694472635590159e+01 -1.007118033562227453e+02 -8.283924809576137704e+01 1.362403191677454117e+02 5.522933734318176846e+01 -1.231999902353649787e+02 4.107344125888292119e+00 4.050908011218282212e+01 7.705648564401064959e+01 -3.763730848741670343e+01 5.591539539519292390e+01 -6.436277943524950729e+01 -1.514057684717984102e+02 -3.229447082648200507e+01 1.314733697125377034e+02 -1.058169688504068660e+02 -5.928769410841890242e+00 -1.518195769758383165e+02 -4.572105828473120859e+00 -1.360248731113412646e+02 3.075183809550348357e+01 5.620339814754868968e+01 -4.690309332892806538e+01 -7.674176382162869459e+01 5.266862902986789052e+00 6.933722337006199155e+01 -6.313983420149386916e+01 1.254314558341828700e+02 9.837326355329362571e+01 -1.188695925323045515e+02 -9.821577625530356670e+01 1.257590257532860534e+02 6.634834804347570980e+01 1.398167642987727959e+02 9.291939203918059320e+01 7.545975387698608472e+01 -5.608567489363614555e+01 -7.599952891257191823e+01 -7.162805074937037375e+01 1.901121188000093696e+02 2.850273382125072530e+01 -2.317481068065043814e+01 -6.360226695380988815e+01 -4.631849551480732430e+01 -1.219268492180475079e+02 -1.526198645069831805e+01 -1.624463226507301385e+02 1.157236360705575038e+02 4.252473038552211193e+01 -1.066165145378024022e+02 -4.481990930069115819e+01 1.108097417582779940e+02 -8.964756930804601609e+01 9.518844265417702388e+01 -1.096724077884102542e+02 -1.091139095558773597e+01 -8.838743973888369965e+01 8.308269137350741573e+01 -3.929562985242080231e+01 9.444512671222174305e+00 2.718385407250080021e+01 -1.171616810959460935e+02 1.155992915699495960e+01 4.478970581198563394e+01 -2.062744808199663638e+01 -6.359478665852726209e+01 1.874885359892186045e+02 7.999451098456610509e+01 4.354202531986715030e+01 -2.904549174521706689e+01 7.415892611378357913e+01 1.550423135390080063e+02 -8.526141932566552839e+01 1.937796853343930650e+02 -1.231196359158096811e+02 -1.700687118933291515e+02 1.403216628053868931e+02 -2.164106307559152071e+02 -8.366920932830076429e-01 -2.265361678430309951e+02 -1.413561294081764288e+02 6.639559897793280641e+01 -1.346182926034693139e+02 5.396571211492190656e+01 1.017506778145840087e+02 -1.482312329336686787e+02 -2.778997866192623789e+01 6.976379670302650027e+01 1.238262249854422663e+02 -1.721681514524167937e+02 8.095427814394165011e+01 -9.062018824048061560e+01 -9.085590581264112231e+00 -1.277966485764183346e+01 -7.356357872623372884e+01 -8.347358989887662517e+01 1.677429282059669902e+02 -2.011327338428334599e+01 1.267144475012234706e+00 1.204906697034268888e+02 -8.029280888694962925e+01 -3.185912180756624679e+01 -9.969412449806817733e+01 -4.517167780811014666e+01 4.735064019756857867e+00 5.492463031815101004e+01 -1.251226814209003635e+02 2.198232072871611535e+02 -4.993719400573525036e+01 1.136696765616421345e+02 -4.528660971087010267e+01 1.110926308682370234e+02 1.292140922003746653e+02 4.444662568852650963e+01 1.132810902377987645e+02 -4.013439737585470368e+01 1.299702291214552474e+02 -1.453841499267401502e+02 -6.074843465505662010e+01 -5.849263264073738355e+01 2.380191963015612444e+01 -1.507609232169034215e+02 6.738133935830124699e+01 -2.866183143916253329e+01 -7.678473463715862124e+01 8.320946190456439240e+01 -1.404161562660241600e+02 -8.479476052429642152e+01 -4.897560787524736980e+01 3.072233732898138570e+01 1.206063096348444503e+02 1.085248667085844687e+02 6.416709986066098281e+01 -1.404776541392506628e+00 1.625927004575285935e+02 1.138634087183876318e+02 -8.785232159545687125e+01 -7.254152119792068731e+01 5.101493524601166740e+01 9.203275570213936163e+00 9.104958539355601488e+01 1.550278508773902217e+02 6.562227662318279897e+01 2.277167879271558348e+01 -9.502438112977303319e+01 1.595829380866532290e+02 -1.056011778070486287e+02 -1.535496116120894499e+02 6.108090465254807810e+01 1.036128322464338964e+02 1.827904396203020809e+01 -1.289841195845982327e+02 2.756976042634566681e+01 3.936356559411558464e+01 -3.821122320840002473e-01 1.216109205464617276e+02 9.094573687855020694e+01 1.589628154192225828e+01 7.273408591834012782e+01 -9.920600500183793713e+01 -5.964533026707865560e+00 9.130873810650163591e+01 2.757225630615864986e+01 -6.034604073981411432e+01 1.838493693309988544e+02 2.144888832794749760e+02 -1.163648503466083781e+02 -2.566533554559375219e+01 -1.949268658026010428e+02 -6.695741439413369278e+01 1.451632894641432756e+02 3.079765881253530235e+00 -6.584176546882180503e+01 1.518292989350945561e+02 -5.790956357156564138e+01 -1.489425123511043694e+02 1.266271902287885069e+02 -6.225046243346367447e+01 3.206006413369219388e+01 7.999752504396944630e+01 1.280024280398725800e+01 -2.208620179330079623e+02 3.926517972747899421e+01 -5.765234053736144837e+00 8.356183307153698081e+01 -2.184695904173366543e+01 9.363427492946604502e+01 1.578519289160922234e+01 -7.840588286956162278e+01 -1.899624095003982660e+01 -1.624233908427843289e+02 1.065325667009990411e+02 2.344461481234692002e+01 -3.854715806310188242e+01 -4.798254833839134648e+01 -5.835354326794077906e+01 3.814114783412026100e+01 1.489193227451628161e+02 1.229470621437044855e+02 3.985446414800341586e+01 -1.833524087245169483e+02 -3.595091893936500327e+01 4.062083072842921894e+01 1.086820279250921288e+02 8.074044521460282908e+01 1.428234807548939855e+01 -1.723282143232897852e+02 1.219435363660564775e+02 -2.072856706669811047e+02 -1.906849316283934570e+02 -1.671136868747633120e+00 -6.833590870853905130e+01 -2.239692844841325936e+01 8.069894748848408028e+01 5.180263265262428973e+01 -1.029833915149928316e+02 -1.403600972273870866e+02 1.349244225911472839e+01 1.145885324625632791e+02 1.910860527493199967e+01 -5.253763193488926930e+01 -4.790185188465967769e+01 -1.077255978443785445e+01 1.495087963398882778e+02 2.070528757489094573e+01 -1.639233544599267987e+02 1.211350714082942233e+02 -6.308937565699597627e+01 -3.933919633628273793e+00 1.452601105726613753e+02 -4.928063169540533295e+01 -1.849765177206854361e+01 -1.036237114936454162e+02 -5.649124165330539071e+00 -2.247965655915211514e+01 1.241634472009073136e+02 1.132182601179475370e+02 6.374719665131443236e+01 6.177792136682178636e+01 -1.763807096057797352e+01 1.274349152033679644e+02 -1.063990162914504651e+02 -4.001763346824775525e+00 -8.588214399445732283e+01 1.481051767088637519e+02 6.877393949442351584e+01 4.869891926952907113e+01 7.751564892121425743e+00 -5.030833223028903944e+01 3.242377260062909983e+01 6.311897152245782294e+00 3.511588180921698221e+00 2.270760041800575380e+01 5.637271108528089769e+01 1.605792934198580042e+02 -3.669197165971504404e+01 -4.899551174063101655e+01 6.300162435225566071e+01 1.090688522268747818e+02 -1.209433076561290932e+01 8.675712973630498936e+01 9.824650848228203870e+01 1.988417578026199237e+02 -8.160041997921453572e+01 -1.156564698702587037e+02 -2.702525606881367537e+01 5.865510686947657604e+01 -9.572425857690552320e+00 1.012792804383670102e+02 3.514269725212294304e+01 -1.533291812369166394e+02 4.247048374434709217e+01 -8.433967427224717994e+01 -1.275384262774755939e+02 1.268008034361523357e+02 -7.172198920832234137e+01 5.582589631722511569e+01 1.047236915041335124e+02 -9.324429442049417105e+01 2.218159027664505345e+01 -6.796600146531397968e+01 3.799030165879614884e+01 -1.080779651042598033e+02 5.806995129667269850e+01 5.153783924231326097e+01 3.591491533240979805e+00 7.910241650062219776e+01 -1.439257599624721706e+02 7.190260713505554691e+01 -2.767281760293338522e+01 -1.579546667163114932e+02 8.840398250663753288e+01 2.298669905053526819e+01 -1.833044043194557844e+02 2.200250934875772089e+02 -5.118898896333213822e-01 9.830525631283754251e+01 -1.127382893507674311e+02 -1.815507449882317417e+02 -8.724849359188846165e+01 2.365576889917305081e+00 1.335350857391671298e+02 3.660577462431039653e+00 -8.936799423671494935e+01 4.701829446389785971e+01 1.281180609572878950e+02 6.071048691161229982e+01 -4.832671389036308085e+01 -5.530563942939278377e+01 7.899726549673168563e+01 2.868173978416173497e+01 -1.828977872567776615e+02 -1.937712037731544967e+01 1.580038563185399028e+02 9.232020022591623842e+01 -5.362763124080454702e+01 -1.045238044667063093e+02 -3.988118536805097847e+01 -4.495231637885395060e+01 -1.069916757287484614e+02 -1.718803243594350860e+01 -4.267955486868363124e+01 -1.062269311395273377e+02 -1.233843141969732216e+02 -2.523597409421950744e+01 -1.175170359471887593e+02 -1.251854662008310441e+02 -3.583671716680485275e+01 -5.169794544344105702e+01 -1.038381703313957587e+02 1.802666686299391188e+02 1.017901706323062605e+01 -2.722960905676202259e+01 -1.644848491949989011e+01 7.618277932073050351e+01 1.516612470006458224e+01 2.425412035199033767e+01 -2.051949755198071301e+01 -4.488007826104950482e+01 2.023764742271364625e+01 -1.408047548995835712e+02 -1.541303358823663530e+02 -8.746321783967921704e+01 -1.848044135330526387e+02 -8.675391546640284446e+01 8.300256403430084617e+01 5.945420988957658182e+01 -2.521002606485493303e+01 5.883863290089348652e+01 -1.516562879502995145e+02 -3.965093678306052993e+01 -1.124872901076624601e+02 -6.462559681656006205e+01 2.043709695873768908e+02 -1.987835971598557592e+02 1.987549790458925543e+02 2.413867363100779784e+01 -5.462692472123947596e+01 8.923395679492291777e+01 1.201430392252185726e+02 -5.023722911938784108e+01 -1.973525133324397132e+02 -1.443670889557463113e+02 9.906081357119144570e+01 8.110005595877609608e+01 -1.312490235239994263e+02 3.089658466870410436e+01 -3.845785415989611522e+01 -7.495248720370273077e+01 -2.753083745524826043e+01 -5.306087216952710151e+01 -8.366030191737449684e+01 -3.301029172436317793e+01 4.427358203235451484e+00 -3.157853574777502104e+01 -3.314341595953855246e-01 -1.382141847801719159e+01 8.898546569314844135e+01 1.231258187374360062e+02 1.273224325724524064e+01 1.628517886171412599e+01 -6.118276961975577422e+01 -1.899049256550172800e+02 3.277049417363088679e+01 -8.879141374865619696e+01 2.503769508207854955e+01 -7.810831059407267851e+00 1.065896300881040037e+00 7.017943768909837843e+01 1.180500469482774264e+02 -6.828327758263525027e+01 3.679748616816733886e+01 -1.868674790233098406e+02 9.398516326156201472e+00 6.651738890125913350e+00 -1.187045616432489794e+02 -3.262732546717482762e+01 -4.292855139734591319e+01 4.604068728807573230e+00 -9.899919661775659563e+01 2.618927794792425345e+01 -9.454471019685949784e+01 5.422264992786052318e+01 6.575266584020026528e+01 3.575023480303060808e+01 -2.809421156144276210e+01 1.041072707464387861e+02 5.919299626305026152e+01 7.748473850473634172e+01 -6.490474409266127509e+01 1.956969490762713448e+01 1.238058090522795709e+02 -5.665835340478098914e+01 -6.703860436692948177e+00 3.096039024276025131e+01 -1.243577070833110838e+02 9.466688024425218373e+01 8.671287221448444882e+01 -9.797922307661362140e+01 -7.970131833607150895e+01 -5.377068721367260196e+01 -4.423333060479075840e+01 -1.550158010823241455e+02 -1.314915469804804218e+02 -1.282230275165157423e+02 1.022437470461960061e+02 5.789908182677699244e+01 1.543701136880590354e+02 6.982924206860499083e+00 -8.284175406837753997e+01 1.816870834050350680e+01 1.336890030498605242e+01 -6.152300373932720845e+01 7.161260049685381546e+01 1.141551587585770164e+02 9.600223875054918921e+00 1.385488916641817525e+02 2.172186233925664212e+01 1.072314961531449171e+02 1.454149366945495281e+01 -2.008304423457678638e+02 2.110489248148436161e+02 -4.728877117014796028e+01 -1.439925973396506151e+02 -6.491721766645586911e+01 -4.134887439062531911e+01 3.987267337253716448e+01 2.463083887852878107e+01 4.403102355484454478e+01 -7.118172108992402514e+01 1.176166168748708714e+02 -8.288318256835674447e+01 -6.738831562497526129e+00 1.367091323552963900e+02 1.051527552626017865e+02 5.571727006273670213e+01 -1.698178363710288750e+02 2.438739146902249644e+01 1.345547013494910971e+02 2.243940631235544458e+01 9.347916357239441254e+01 1.018846642990542364e+02 -2.024746973930408274e+02 7.359888955147202694e+01 -5.523834362409083099e+01 -2.150970113086360413e+02 8.457640629285435807e+01 2.344372466310921865e+01 -1.159881299697425163e+02 -5.557827321222893602e+01 1.315118347419108318e+02 1.397181020312297051e+02 -7.176942455021728051e+01 -1.207239324356993677e+02 -7.870543253143900131e+01 -1.563021693362234714e+02 1.844224454361710031e+01 3.573547890487003542e+01 -1.602315500727815589e+01 -1.164018938047953178e+01 -8.405423893286892678e+01 -8.275433973880647898e+01 -2.311754156395502235e+01 1.250789991097945801e+02 1.270088257159399632e+02 7.558548145957300335e+01 9.045532725135281282e+01 -7.300189425993562509e+01 -1.679275923989366675e+02 -1.222453410428953369e+01 -2.141249254196820573e+01 -6.592112716500598424e+01 1.365682679499935936e+00 6.772795180845891139e+01 -4.905347966954165884e+01 2.295832322284176996e+01 7.343891328366743210e+01 6.501611759056379469e+01 1.025322884971742212e+02 -1.382946855179430656e+02 3.674463005941150584e+01 7.725243880486391390e+01 8.786308149806735912e+01 5.473179063900971641e+01 -9.571931876248561366e+01 1.269482411993528927e+02 1.182281453226096914e+02 8.888951865848490286e+01 9.415457331477112746e+01 -7.806927008627553732e+01 -1.376694590384703432e+01 -1.202549613691002151e+01 7.141399581390517426e+01 6.025142245582917155e+01 5.198070419734870740e+01 9.044387132910503624e+01 1.080560264519358640e+02 1.149941695682511096e+02 -6.006634120851192193e+01 7.476076346515347382e+01 6.046966340874129031e+01 -1.091082677583137439e+02 1.220403817487987652e+02 -9.283331686314182818e+00 -2.591206936848741194e+01 1.849226779601277997e+02 8.214983086896246789e+01 1.152152697870473474e+02 -1.340135456404300385e+02 -1.465190877714102839e+02 -1.426476124775992389e+02 -1.134256263146315860e+02 -4.113477863786709321e+01 1.019374029531334713e+02 -1.567636655017193732e+02 3.019073348094695675e+01 1.341860174321341503e+02 -5.520483012554252866e+01 -8.494003577801721860e+01 -3.270141157331077864e+01 1.263714088473441279e+02 2.114850639943851434e+02 -6.212667186833137123e+01 1.846282721909021518e+01 -2.575313574517593906e+01 6.379192592393440009e+01 5.608112416247514176e+01 -1.986373064904110777e+02 -8.261946448541129939e+01 1.282249991521784409e+02 1.302717193737384207e+02 8.810781152892508317e+01 -4.648718393558760908e+01 -7.063646899879245211e+01 -4.228071530357448893e+01 -1.646930321422547934e+02 6.631293012361808792e+01 -2.390147264700915386e+01 1.551694494076264164e+02 -2.608033739663692785e+01 -2.935530965721409302e+02 1.351446680456585057e+02 4.679914017305982554e+01 -1.100348691075731296e+02 -2.072887452315392665e+01 3.293051083632840204e+01 -1.938453991761248858e+02 -1.066232747211750080e+02 -1.023817461169497705e+02 -5.260149354552595469e+01 5.858475204400743053e+01 -1.539198561958747860e+02 1.006898365044158368e+02 -5.072080192658826547e+01 2.747527304171927920e+00 -1.245723430002249614e+02 -9.685967030525613097e+01 1.641937233644364937e+02 8.093748989447355768e+01 -3.943866653822909996e+01 3.466731666145969371e+01 -2.618323555857114826e+01 4.050842618996856714e+01 -9.773428478417325493e+01 9.247754198411642790e+01 4.715448869185650693e+01 -1.110709349768294061e+02 1.090732670420776316e+02 -4.585925096374133147e+01 9.333609713232822003e+01 -4.614551719443929301e+01 8.255754746691623325e+01 -1.433312881835431369e+02 1.334106099220030046e+02 2.313253433873022757e+01 9.410924804118602083e+01 1.219279023877968768e+02 -1.371091998807646348e+02 -8.031763517708665745e+01 -9.876910946626585996e+01 6.250771930956917544e+01 -1.602277016867906809e+02 1.417658544722424665e+02 1.330838771320204614e+02 4.952939891397095806e+01 -7.940071462306586625e+01 5.338339963806394195e+01 -1.004293266939757956e+02 -1.019561064999023081e+01 3.269199407782353006e+01 -1.718748616023652289e+02 -7.627727984695113150e+01 -1.266056034304429190e+01 9.557829131801598521e+01 -4.699611421649630927e+01 1.017962572804498507e+02 -6.017108944826946981e+01 -1.972319276040944942e+02 -1.002199085483451029e+02 -3.180950222413797590e+01 -5.631300107690606183e+01 2.814651126728935893e+01 4.817964394914340431e+01 5.917403359105378513e+00 2.384217365911375452e+01 -1.099523540566743094e+02 5.050945217299252477e+01 3.057842703014832608e+01 -6.755943722047128119e+01 8.717895235157000045e+00 5.288529600085713867e+01 -8.938656306018174291e+01 -5.165650982886231901e+01 -2.268482057914279437e+01 9.143365038824802582e+01 -1.606229067995850812e+01 3.935894180110637741e+00 -2.139494198440605999e+02 -8.907707042968246469e+01 9.279448485297079685e+01 -8.355834424592758580e+01 2.938143751167831397e+01 2.911846583822303458e+01 3.551510771096312169e+01 6.197247256612505595e+01 -1.664452795366169653e+02 1.350751758660319410e+02 7.656177802165701962e+01 -7.094584619866243891e+00 -7.579988296414765614e+01 1.048993892212911589e+02 5.826331780278584915e+01 -1.887348943268887353e+02 -4.725006081270446856e+01 -7.669192831018351342e+01 -4.857350729778336529e+01 -5.805571855750912391e+01 -9.285546172910594009e+01 -5.662377553767767324e+01 1.797612774953860821e+02 -1.601858859822995385e+02 6.141698719270529949e+01 2.604198940875273394e+01 -7.057634819459335063e+01 9.772126142116215775e+00 -3.703117394238173432e+01 3.238020070632424918e+00 -9.026113015179093679e+01 -1.854601791607227028e+02 1.726790437234655329e+01 3.930489942854627827e+01 -1.200592059340527129e+01 -8.359623718391997471e+00 -3.733571314883435832e+01 -1.782266145774969743e+02 -2.873655279708635391e+01 -6.133834061982780383e+01 1.305383420127122918e+01 -1.466629548517278536e+01 8.508529575404686796e+01 -5.918326536612002542e+01 -9.732451580389735568e+01 -3.346881409458197254e+01 -8.397183527001168102e+00 4.260100907470034315e+01 -2.074335090876558141e+01 -6.938063141796743594e+01 -1.491993898181339162e+01 1.879712952920350233e+01 4.460035678514556423e+01 -1.070009808963785645e+02 -1.305287743180387849e+02 2.163204527966537114e+02 -2.050078443254568867e+02 -7.127625798437374272e+01 -4.347630489122494879e+01 1.313228161201548687e+02 5.941931730478540175e+01 2.150707233156580571e+02 2.299017711429502810e+02 -5.859884459042316251e+01 1.215530189862888193e+02 -5.270096556032029866e+01 -3.835514250661833557e+01 -9.447827436486609542e+01 -7.498694128409169934e+01 -6.529208127710954557e+01 -8.364905936267089714e+01 -2.290041687520209450e+02 -2.543777186317585404e+02 1.264885264992019245e+02 -2.494518619086170830e+01 5.004572044793915353e+01 1.230219531123866830e+02
