# 
#                 ----------------------------------------------------
#                 Data from a 3D direct N-body simulation. 
# 
#                 rows are i-particle; 
#                 coumns are :mass, tag, x ,y, z, vx, vy, vz, ax, ay, az
# 
#                 NTHU, Computational Physics Lab
# 
#                 ----------------------------------------------------
#                 Time = 6.399999999999908
1.000000000000000000e+00 2.000000000000000000e+00 3.000000000000000000e+00 4.000000000000000000e+00 5.000000000000000000e+00 6.000000000000000000e+00 7.000000000000000000e+00 8.000000000000000000e+00 9.000000000000000000e+00 1.000000000000000000e+01 1.100000000000000000e+01 1.200000000000000000e+01 1.300000000000000000e+01 1.400000000000000000e+01 1.500000000000000000e+01 1.600000000000000000e+01 1.700000000000000000e+01 1.800000000000000000e+01 1.900000000000000000e+01 2.000000000000000000e+01 2.100000000000000000e+01 2.200000000000000000e+01 2.300000000000000000e+01 2.400000000000000000e+01 2.500000000000000000e+01 2.600000000000000000e+01 2.700000000000000000e+01 2.800000000000000000e+01 2.900000000000000000e+01 3.000000000000000000e+01 3.100000000000000000e+01 3.200000000000000000e+01 3.300000000000000000e+01 3.400000000000000000e+01 3.500000000000000000e+01 3.600000000000000000e+01 3.700000000000000000e+01 3.800000000000000000e+01 3.900000000000000000e+01 4.000000000000000000e+01 4.100000000000000000e+01 4.200000000000000000e+01 4.300000000000000000e+01 4.400000000000000000e+01 4.500000000000000000e+01 4.600000000000000000e+01 4.700000000000000000e+01 4.800000000000000000e+01 4.900000000000000000e+01 5.000000000000000000e+01 5.100000000000000000e+01 5.200000000000000000e+01 5.300000000000000000e+01 5.400000000000000000e+01 5.500000000000000000e+01 5.600000000000000000e+01 5.700000000000000000e+01 5.800000000000000000e+01 5.900000000000000000e+01 6.000000000000000000e+01 6.100000000000000000e+01 6.200000000000000000e+01 6.300000000000000000e+01 6.400000000000000000e+01 6.500000000000000000e+01 6.600000000000000000e+01 6.700000000000000000e+01 6.800000000000000000e+01 6.900000000000000000e+01 7.000000000000000000e+01 7.100000000000000000e+01 7.200000000000000000e+01 7.300000000000000000e+01 7.400000000000000000e+01 7.500000000000000000e+01 7.600000000000000000e+01 7.700000000000000000e+01 7.800000000000000000e+01 7.900000000000000000e+01 8.000000000000000000e+01 8.100000000000000000e+01 8.200000000000000000e+01 8.300000000000000000e+01 8.400000000000000000e+01 8.500000000000000000e+01 8.600000000000000000e+01 8.700000000000000000e+01 8.800000000000000000e+01 8.900000000000000000e+01 9.000000000000000000e+01 9.100000000000000000e+01 9.200000000000000000e+01 9.300000000000000000e+01 9.400000000000000000e+01 9.500000000000000000e+01 9.600000000000000000e+01 9.700000000000000000e+01 9.800000000000000000e+01 9.900000000000000000e+01 1.000000000000000000e+02 1.010000000000000000e+02 1.020000000000000000e+02 1.030000000000000000e+02 1.040000000000000000e+02 1.050000000000000000e+02 1.060000000000000000e+02 1.070000000000000000e+02 1.080000000000000000e+02 1.090000000000000000e+02 1.100000000000000000e+02 1.110000000000000000e+02 1.120000000000000000e+02 1.130000000000000000e+02 1.140000000000000000e+02 1.150000000000000000e+02 1.160000000000000000e+02 1.170000000000000000e+02 1.180000000000000000e+02 1.190000000000000000e+02 1.200000000000000000e+02 1.210000000000000000e+02 1.220000000000000000e+02 1.230000000000000000e+02 1.240000000000000000e+02 1.250000000000000000e+02 1.260000000000000000e+02 1.270000000000000000e+02 1.280000000000000000e+02 1.290000000000000000e+02 1.300000000000000000e+02 1.310000000000000000e+02 1.320000000000000000e+02 1.330000000000000000e+02 1.340000000000000000e+02 1.350000000000000000e+02 1.360000000000000000e+02 1.370000000000000000e+02 1.380000000000000000e+02 1.390000000000000000e+02 1.400000000000000000e+02 1.410000000000000000e+02 1.420000000000000000e+02 1.430000000000000000e+02 1.440000000000000000e+02 1.450000000000000000e+02 1.460000000000000000e+02 1.470000000000000000e+02 1.480000000000000000e+02 1.490000000000000000e+02 1.500000000000000000e+02 1.510000000000000000e+02 1.520000000000000000e+02 1.530000000000000000e+02 1.540000000000000000e+02 1.550000000000000000e+02 1.560000000000000000e+02 1.570000000000000000e+02 1.580000000000000000e+02 1.590000000000000000e+02 1.600000000000000000e+02 1.610000000000000000e+02 1.620000000000000000e+02 1.630000000000000000e+02 1.640000000000000000e+02 1.650000000000000000e+02 1.660000000000000000e+02 1.670000000000000000e+02 1.680000000000000000e+02 1.690000000000000000e+02 1.700000000000000000e+02 1.710000000000000000e+02 1.720000000000000000e+02 1.730000000000000000e+02 1.740000000000000000e+02 1.750000000000000000e+02 1.760000000000000000e+02 1.770000000000000000e+02 1.780000000000000000e+02 1.790000000000000000e+02 1.800000000000000000e+02 1.810000000000000000e+02 1.820000000000000000e+02 1.830000000000000000e+02 1.840000000000000000e+02 1.850000000000000000e+02 1.860000000000000000e+02 1.870000000000000000e+02 1.880000000000000000e+02 1.890000000000000000e+02 1.900000000000000000e+02 1.910000000000000000e+02 1.920000000000000000e+02 1.930000000000000000e+02 1.940000000000000000e+02 1.950000000000000000e+02 1.960000000000000000e+02 1.970000000000000000e+02 1.980000000000000000e+02 1.990000000000000000e+02 2.000000000000000000e+02 2.010000000000000000e+02 2.020000000000000000e+02 2.030000000000000000e+02 2.040000000000000000e+02 2.050000000000000000e+02 2.060000000000000000e+02 2.070000000000000000e+02 2.080000000000000000e+02 2.090000000000000000e+02 2.100000000000000000e+02 2.110000000000000000e+02 2.120000000000000000e+02 2.130000000000000000e+02 2.140000000000000000e+02 2.150000000000000000e+02 2.160000000000000000e+02 2.170000000000000000e+02 2.180000000000000000e+02 2.190000000000000000e+02 2.200000000000000000e+02 2.210000000000000000e+02 2.220000000000000000e+02 2.230000000000000000e+02 2.240000000000000000e+02 2.250000000000000000e+02 2.260000000000000000e+02 2.270000000000000000e+02 2.280000000000000000e+02 2.290000000000000000e+02 2.300000000000000000e+02 2.310000000000000000e+02 2.320000000000000000e+02 2.330000000000000000e+02 2.340000000000000000e+02 2.350000000000000000e+02 2.360000000000000000e+02 2.370000000000000000e+02 2.380000000000000000e+02 2.390000000000000000e+02 2.400000000000000000e+02 2.410000000000000000e+02 2.420000000000000000e+02 2.430000000000000000e+02 2.440000000000000000e+02 2.450000000000000000e+02 2.460000000000000000e+02 2.470000000000000000e+02 2.480000000000000000e+02 2.490000000000000000e+02 2.500000000000000000e+02 2.510000000000000000e+02 2.520000000000000000e+02 2.530000000000000000e+02 2.540000000000000000e+02 2.550000000000000000e+02 2.560000000000000000e+02 2.570000000000000000e+02 2.580000000000000000e+02 2.590000000000000000e+02 2.600000000000000000e+02 2.610000000000000000e+02 2.620000000000000000e+02 2.630000000000000000e+02 2.640000000000000000e+02 2.650000000000000000e+02 2.660000000000000000e+02 2.670000000000000000e+02 2.680000000000000000e+02 2.690000000000000000e+02 2.700000000000000000e+02 2.710000000000000000e+02 2.720000000000000000e+02 2.730000000000000000e+02 2.740000000000000000e+02 2.750000000000000000e+02 2.760000000000000000e+02 2.770000000000000000e+02 2.780000000000000000e+02 2.790000000000000000e+02 2.800000000000000000e+02 2.810000000000000000e+02 2.820000000000000000e+02 2.830000000000000000e+02 2.840000000000000000e+02 2.850000000000000000e+02 2.860000000000000000e+02 2.870000000000000000e+02 2.880000000000000000e+02 2.890000000000000000e+02 2.900000000000000000e+02 2.910000000000000000e+02 2.920000000000000000e+02 2.930000000000000000e+02 2.940000000000000000e+02 2.950000000000000000e+02 2.960000000000000000e+02 2.970000000000000000e+02 2.980000000000000000e+02 2.990000000000000000e+02 3.000000000000000000e+02 3.010000000000000000e+02 3.020000000000000000e+02 3.030000000000000000e+02 3.040000000000000000e+02 3.050000000000000000e+02 3.060000000000000000e+02 3.070000000000000000e+02 3.080000000000000000e+02 3.090000000000000000e+02 3.100000000000000000e+02 3.110000000000000000e+02 3.120000000000000000e+02 3.130000000000000000e+02 3.140000000000000000e+02 3.150000000000000000e+02 3.160000000000000000e+02 3.170000000000000000e+02 3.180000000000000000e+02 3.190000000000000000e+02 3.200000000000000000e+02 3.210000000000000000e+02 3.220000000000000000e+02 3.230000000000000000e+02 3.240000000000000000e+02 3.250000000000000000e+02 3.260000000000000000e+02 3.270000000000000000e+02 3.280000000000000000e+02 3.290000000000000000e+02 3.300000000000000000e+02 3.310000000000000000e+02 3.320000000000000000e+02 3.330000000000000000e+02 3.340000000000000000e+02 3.350000000000000000e+02 3.360000000000000000e+02 3.370000000000000000e+02 3.380000000000000000e+02 3.390000000000000000e+02 3.400000000000000000e+02 3.410000000000000000e+02 3.420000000000000000e+02 3.430000000000000000e+02 3.440000000000000000e+02 3.450000000000000000e+02 3.460000000000000000e+02 3.470000000000000000e+02 3.480000000000000000e+02 3.490000000000000000e+02 3.500000000000000000e+02 3.510000000000000000e+02 3.520000000000000000e+02 3.530000000000000000e+02 3.540000000000000000e+02 3.550000000000000000e+02 3.560000000000000000e+02 3.570000000000000000e+02 3.580000000000000000e+02 3.590000000000000000e+02 3.600000000000000000e+02 3.610000000000000000e+02 3.620000000000000000e+02 3.630000000000000000e+02 3.640000000000000000e+02 3.650000000000000000e+02 3.660000000000000000e+02 3.670000000000000000e+02 3.680000000000000000e+02 3.690000000000000000e+02 3.700000000000000000e+02 3.710000000000000000e+02 3.720000000000000000e+02 3.730000000000000000e+02 3.740000000000000000e+02 3.750000000000000000e+02 3.760000000000000000e+02 3.770000000000000000e+02 3.780000000000000000e+02 3.790000000000000000e+02 3.800000000000000000e+02 3.810000000000000000e+02 3.820000000000000000e+02 3.830000000000000000e+02 3.840000000000000000e+02 3.850000000000000000e+02 3.860000000000000000e+02 3.870000000000000000e+02 3.880000000000000000e+02 3.890000000000000000e+02 3.900000000000000000e+02 3.910000000000000000e+02 3.920000000000000000e+02 3.930000000000000000e+02 3.940000000000000000e+02 3.950000000000000000e+02 3.960000000000000000e+02 3.970000000000000000e+02 3.980000000000000000e+02 3.990000000000000000e+02 4.000000000000000000e+02 4.010000000000000000e+02 4.020000000000000000e+02 4.030000000000000000e+02 4.040000000000000000e+02 4.050000000000000000e+02 4.060000000000000000e+02 4.070000000000000000e+02 4.080000000000000000e+02 4.090000000000000000e+02 4.100000000000000000e+02 4.110000000000000000e+02 4.120000000000000000e+02 4.130000000000000000e+02 4.140000000000000000e+02 4.150000000000000000e+02 4.160000000000000000e+02 4.170000000000000000e+02 4.180000000000000000e+02 4.190000000000000000e+02 4.200000000000000000e+02 4.210000000000000000e+02 4.220000000000000000e+02 4.230000000000000000e+02 4.240000000000000000e+02 4.250000000000000000e+02 4.260000000000000000e+02 4.270000000000000000e+02 4.280000000000000000e+02 4.290000000000000000e+02 4.300000000000000000e+02 4.310000000000000000e+02 4.320000000000000000e+02 4.330000000000000000e+02 4.340000000000000000e+02 4.350000000000000000e+02 4.360000000000000000e+02 4.370000000000000000e+02 4.380000000000000000e+02 4.390000000000000000e+02 4.400000000000000000e+02 4.410000000000000000e+02 4.420000000000000000e+02 4.430000000000000000e+02 4.440000000000000000e+02 4.450000000000000000e+02 4.460000000000000000e+02 4.470000000000000000e+02 4.480000000000000000e+02 4.490000000000000000e+02 4.500000000000000000e+02 4.510000000000000000e+02 4.520000000000000000e+02 4.530000000000000000e+02 4.540000000000000000e+02 4.550000000000000000e+02 4.560000000000000000e+02 4.570000000000000000e+02 4.580000000000000000e+02 4.590000000000000000e+02 4.600000000000000000e+02 4.610000000000000000e+02 4.620000000000000000e+02 4.630000000000000000e+02 4.640000000000000000e+02 4.650000000000000000e+02 4.660000000000000000e+02 4.670000000000000000e+02 4.680000000000000000e+02 4.690000000000000000e+02 4.700000000000000000e+02 4.710000000000000000e+02 4.720000000000000000e+02 4.730000000000000000e+02 4.740000000000000000e+02 4.750000000000000000e+02 4.760000000000000000e+02 4.770000000000000000e+02 4.780000000000000000e+02 4.790000000000000000e+02 4.800000000000000000e+02 4.810000000000000000e+02 4.820000000000000000e+02 4.830000000000000000e+02 4.840000000000000000e+02 4.850000000000000000e+02 4.860000000000000000e+02 4.870000000000000000e+02 4.880000000000000000e+02 4.890000000000000000e+02 4.900000000000000000e+02 4.910000000000000000e+02 4.920000000000000000e+02 4.930000000000000000e+02 4.940000000000000000e+02 4.950000000000000000e+02 4.960000000000000000e+02 4.970000000000000000e+02 4.980000000000000000e+02 4.990000000000000000e+02 5.000000000000000000e+02 5.010000000000000000e+02 5.020000000000000000e+02 5.030000000000000000e+02 5.040000000000000000e+02 5.050000000000000000e+02 5.060000000000000000e+02 5.070000000000000000e+02 5.080000000000000000e+02 5.090000000000000000e+02 5.100000000000000000e+02 5.110000000000000000e+02 5.120000000000000000e+02 5.130000000000000000e+02 5.140000000000000000e+02 5.150000000000000000e+02 5.160000000000000000e+02 5.170000000000000000e+02 5.180000000000000000e+02 5.190000000000000000e+02 5.200000000000000000e+02 5.210000000000000000e+02 5.220000000000000000e+02 5.230000000000000000e+02 5.240000000000000000e+02 5.250000000000000000e+02 5.260000000000000000e+02 5.270000000000000000e+02 5.280000000000000000e+02 5.290000000000000000e+02 5.300000000000000000e+02 5.310000000000000000e+02 5.320000000000000000e+02 5.330000000000000000e+02 5.340000000000000000e+02 5.350000000000000000e+02 5.360000000000000000e+02 5.370000000000000000e+02 5.380000000000000000e+02 5.390000000000000000e+02 5.400000000000000000e+02 5.410000000000000000e+02 5.420000000000000000e+02 5.430000000000000000e+02 5.440000000000000000e+02 5.450000000000000000e+02 5.460000000000000000e+02 5.470000000000000000e+02 5.480000000000000000e+02 5.490000000000000000e+02 5.500000000000000000e+02 5.510000000000000000e+02 5.520000000000000000e+02 5.530000000000000000e+02 5.540000000000000000e+02 5.550000000000000000e+02 5.560000000000000000e+02 5.570000000000000000e+02 5.580000000000000000e+02 5.590000000000000000e+02 5.600000000000000000e+02 5.610000000000000000e+02 5.620000000000000000e+02 5.630000000000000000e+02 5.640000000000000000e+02 5.650000000000000000e+02 5.660000000000000000e+02 5.670000000000000000e+02 5.680000000000000000e+02 5.690000000000000000e+02 5.700000000000000000e+02 5.710000000000000000e+02 5.720000000000000000e+02 5.730000000000000000e+02 5.740000000000000000e+02 5.750000000000000000e+02 5.760000000000000000e+02 5.770000000000000000e+02 5.780000000000000000e+02 5.790000000000000000e+02 5.800000000000000000e+02 5.810000000000000000e+02 5.820000000000000000e+02 5.830000000000000000e+02 5.840000000000000000e+02 5.850000000000000000e+02 5.860000000000000000e+02 5.870000000000000000e+02 5.880000000000000000e+02 5.890000000000000000e+02 5.900000000000000000e+02 5.910000000000000000e+02 5.920000000000000000e+02 5.930000000000000000e+02 5.940000000000000000e+02 5.950000000000000000e+02 5.960000000000000000e+02 5.970000000000000000e+02 5.980000000000000000e+02 5.990000000000000000e+02 6.000000000000000000e+02 6.010000000000000000e+02 6.020000000000000000e+02 6.030000000000000000e+02 6.040000000000000000e+02 6.050000000000000000e+02 6.060000000000000000e+02 6.070000000000000000e+02 6.080000000000000000e+02 6.090000000000000000e+02 6.100000000000000000e+02 6.110000000000000000e+02 6.120000000000000000e+02 6.130000000000000000e+02 6.140000000000000000e+02 6.150000000000000000e+02 6.160000000000000000e+02 6.170000000000000000e+02 6.180000000000000000e+02 6.190000000000000000e+02 6.200000000000000000e+02 6.210000000000000000e+02 6.220000000000000000e+02 6.230000000000000000e+02 6.240000000000000000e+02 6.250000000000000000e+02 6.260000000000000000e+02 6.270000000000000000e+02 6.280000000000000000e+02 6.290000000000000000e+02 6.300000000000000000e+02 6.310000000000000000e+02 6.320000000000000000e+02 6.330000000000000000e+02 6.340000000000000000e+02 6.350000000000000000e+02 6.360000000000000000e+02 6.370000000000000000e+02 6.380000000000000000e+02 6.390000000000000000e+02 6.400000000000000000e+02 6.410000000000000000e+02 6.420000000000000000e+02 6.430000000000000000e+02 6.440000000000000000e+02 6.450000000000000000e+02 6.460000000000000000e+02 6.470000000000000000e+02 6.480000000000000000e+02 6.490000000000000000e+02 6.500000000000000000e+02 6.510000000000000000e+02 6.520000000000000000e+02 6.530000000000000000e+02 6.540000000000000000e+02 6.550000000000000000e+02 6.560000000000000000e+02 6.570000000000000000e+02 6.580000000000000000e+02 6.590000000000000000e+02 6.600000000000000000e+02 6.610000000000000000e+02 6.620000000000000000e+02 6.630000000000000000e+02 6.640000000000000000e+02 6.650000000000000000e+02 6.660000000000000000e+02 6.670000000000000000e+02 6.680000000000000000e+02 6.690000000000000000e+02 6.700000000000000000e+02 6.710000000000000000e+02 6.720000000000000000e+02 6.730000000000000000e+02 6.740000000000000000e+02 6.750000000000000000e+02 6.760000000000000000e+02 6.770000000000000000e+02 6.780000000000000000e+02 6.790000000000000000e+02 6.800000000000000000e+02 6.810000000000000000e+02 6.820000000000000000e+02 6.830000000000000000e+02 6.840000000000000000e+02 6.850000000000000000e+02 6.860000000000000000e+02 6.870000000000000000e+02 6.880000000000000000e+02 6.890000000000000000e+02 6.900000000000000000e+02 6.910000000000000000e+02 6.920000000000000000e+02 6.930000000000000000e+02 6.940000000000000000e+02 6.950000000000000000e+02 6.960000000000000000e+02 6.970000000000000000e+02 6.980000000000000000e+02 6.990000000000000000e+02 7.000000000000000000e+02 7.010000000000000000e+02 7.020000000000000000e+02 7.030000000000000000e+02 7.040000000000000000e+02 7.050000000000000000e+02 7.060000000000000000e+02 7.070000000000000000e+02 7.080000000000000000e+02 7.090000000000000000e+02 7.100000000000000000e+02 7.110000000000000000e+02 7.120000000000000000e+02 7.130000000000000000e+02 7.140000000000000000e+02 7.150000000000000000e+02 7.160000000000000000e+02 7.170000000000000000e+02 7.180000000000000000e+02 7.190000000000000000e+02 7.200000000000000000e+02 7.210000000000000000e+02 7.220000000000000000e+02 7.230000000000000000e+02 7.240000000000000000e+02 7.250000000000000000e+02 7.260000000000000000e+02 7.270000000000000000e+02 7.280000000000000000e+02 7.290000000000000000e+02 7.300000000000000000e+02 7.310000000000000000e+02 7.320000000000000000e+02 7.330000000000000000e+02 7.340000000000000000e+02 7.350000000000000000e+02 7.360000000000000000e+02 7.370000000000000000e+02 7.380000000000000000e+02 7.390000000000000000e+02 7.400000000000000000e+02 7.410000000000000000e+02 7.420000000000000000e+02 7.430000000000000000e+02 7.440000000000000000e+02 7.450000000000000000e+02 7.460000000000000000e+02 7.470000000000000000e+02 7.480000000000000000e+02 7.490000000000000000e+02 7.500000000000000000e+02 7.510000000000000000e+02 7.520000000000000000e+02 7.530000000000000000e+02 7.540000000000000000e+02 7.550000000000000000e+02 7.560000000000000000e+02 7.570000000000000000e+02 7.580000000000000000e+02 7.590000000000000000e+02 7.600000000000000000e+02 7.610000000000000000e+02 7.620000000000000000e+02 7.630000000000000000e+02 7.640000000000000000e+02 7.650000000000000000e+02 7.660000000000000000e+02 7.670000000000000000e+02 7.680000000000000000e+02 7.690000000000000000e+02 7.700000000000000000e+02 7.710000000000000000e+02 7.720000000000000000e+02 7.730000000000000000e+02 7.740000000000000000e+02 7.750000000000000000e+02 7.760000000000000000e+02 7.770000000000000000e+02 7.780000000000000000e+02 7.790000000000000000e+02 7.800000000000000000e+02 7.810000000000000000e+02 7.820000000000000000e+02 7.830000000000000000e+02 7.840000000000000000e+02 7.850000000000000000e+02 7.860000000000000000e+02 7.870000000000000000e+02 7.880000000000000000e+02 7.890000000000000000e+02 7.900000000000000000e+02 7.910000000000000000e+02 7.920000000000000000e+02 7.930000000000000000e+02 7.940000000000000000e+02 7.950000000000000000e+02 7.960000000000000000e+02 7.970000000000000000e+02 7.980000000000000000e+02 7.990000000000000000e+02 8.000000000000000000e+02 8.010000000000000000e+02 8.020000000000000000e+02 8.030000000000000000e+02 8.040000000000000000e+02 8.050000000000000000e+02 8.060000000000000000e+02 8.070000000000000000e+02 8.080000000000000000e+02 8.090000000000000000e+02 8.100000000000000000e+02 8.110000000000000000e+02 8.120000000000000000e+02 8.130000000000000000e+02 8.140000000000000000e+02 8.150000000000000000e+02 8.160000000000000000e+02 8.170000000000000000e+02 8.180000000000000000e+02 8.190000000000000000e+02 8.200000000000000000e+02 8.210000000000000000e+02 8.220000000000000000e+02 8.230000000000000000e+02 8.240000000000000000e+02 8.250000000000000000e+02 8.260000000000000000e+02 8.270000000000000000e+02 8.280000000000000000e+02 8.290000000000000000e+02 8.300000000000000000e+02 8.310000000000000000e+02 8.320000000000000000e+02 8.330000000000000000e+02 8.340000000000000000e+02 8.350000000000000000e+02 8.360000000000000000e+02 8.370000000000000000e+02 8.380000000000000000e+02 8.390000000000000000e+02 8.400000000000000000e+02 8.410000000000000000e+02 8.420000000000000000e+02 8.430000000000000000e+02 8.440000000000000000e+02 8.450000000000000000e+02 8.460000000000000000e+02 8.470000000000000000e+02 8.480000000000000000e+02 8.490000000000000000e+02 8.500000000000000000e+02 8.510000000000000000e+02 8.520000000000000000e+02 8.530000000000000000e+02 8.540000000000000000e+02 8.550000000000000000e+02 8.560000000000000000e+02 8.570000000000000000e+02 8.580000000000000000e+02 8.590000000000000000e+02 8.600000000000000000e+02 8.610000000000000000e+02 8.620000000000000000e+02 8.630000000000000000e+02 8.640000000000000000e+02 8.650000000000000000e+02 8.660000000000000000e+02 8.670000000000000000e+02 8.680000000000000000e+02 8.690000000000000000e+02 8.700000000000000000e+02 8.710000000000000000e+02 8.720000000000000000e+02 8.730000000000000000e+02 8.740000000000000000e+02 8.750000000000000000e+02 8.760000000000000000e+02 8.770000000000000000e+02 8.780000000000000000e+02 8.790000000000000000e+02 8.800000000000000000e+02 8.810000000000000000e+02 8.820000000000000000e+02 8.830000000000000000e+02 8.840000000000000000e+02 8.850000000000000000e+02 8.860000000000000000e+02 8.870000000000000000e+02 8.880000000000000000e+02 8.890000000000000000e+02 8.900000000000000000e+02 8.910000000000000000e+02 8.920000000000000000e+02 8.930000000000000000e+02 8.940000000000000000e+02 8.950000000000000000e+02 8.960000000000000000e+02 8.970000000000000000e+02 8.980000000000000000e+02 8.990000000000000000e+02 9.000000000000000000e+02 9.010000000000000000e+02 9.020000000000000000e+02 9.030000000000000000e+02 9.040000000000000000e+02 9.050000000000000000e+02 9.060000000000000000e+02 9.070000000000000000e+02 9.080000000000000000e+02 9.090000000000000000e+02 9.100000000000000000e+02 9.110000000000000000e+02 9.120000000000000000e+02 9.130000000000000000e+02 9.140000000000000000e+02 9.150000000000000000e+02 9.160000000000000000e+02 9.170000000000000000e+02 9.180000000000000000e+02 9.190000000000000000e+02 9.200000000000000000e+02 9.210000000000000000e+02 9.220000000000000000e+02 9.230000000000000000e+02 9.240000000000000000e+02 9.250000000000000000e+02 9.260000000000000000e+02 9.270000000000000000e+02 9.280000000000000000e+02 9.290000000000000000e+02 9.300000000000000000e+02 9.310000000000000000e+02 9.320000000000000000e+02 9.330000000000000000e+02 9.340000000000000000e+02 9.350000000000000000e+02 9.360000000000000000e+02 9.370000000000000000e+02 9.380000000000000000e+02 9.390000000000000000e+02 9.400000000000000000e+02 9.410000000000000000e+02 9.420000000000000000e+02 9.430000000000000000e+02 9.440000000000000000e+02 9.450000000000000000e+02 9.460000000000000000e+02 9.470000000000000000e+02 9.480000000000000000e+02 9.490000000000000000e+02 9.500000000000000000e+02 9.510000000000000000e+02 9.520000000000000000e+02 9.530000000000000000e+02 9.540000000000000000e+02 9.550000000000000000e+02 9.560000000000000000e+02 9.570000000000000000e+02 9.580000000000000000e+02 9.590000000000000000e+02 9.600000000000000000e+02 9.610000000000000000e+02 9.620000000000000000e+02 9.630000000000000000e+02 9.640000000000000000e+02 9.650000000000000000e+02 9.660000000000000000e+02 9.670000000000000000e+02 9.680000000000000000e+02 9.690000000000000000e+02 9.700000000000000000e+02 9.710000000000000000e+02 9.720000000000000000e+02 9.730000000000000000e+02 9.740000000000000000e+02 9.750000000000000000e+02 9.760000000000000000e+02 9.770000000000000000e+02 9.780000000000000000e+02 9.790000000000000000e+02 9.800000000000000000e+02 9.810000000000000000e+02 9.820000000000000000e+02 9.830000000000000000e+02 9.840000000000000000e+02 9.850000000000000000e+02 9.860000000000000000e+02 9.870000000000000000e+02 9.880000000000000000e+02 9.890000000000000000e+02 9.900000000000000000e+02 9.910000000000000000e+02 9.920000000000000000e+02 9.930000000000000000e+02 9.940000000000000000e+02 9.950000000000000000e+02 9.960000000000000000e+02 9.970000000000000000e+02 9.980000000000000000e+02 9.990000000000000000e+02 1.000000000000000000e+03
1.000000000000000021e-02 1.000000000000000021e-02 1.000000000000000021e-02 1.000000000000000021e-02 1.000000000000000021e-02 1.000000000000000021e-02 1.000000000000000021e-02 1.000000000000000021e-02 1.000000000000000021e-02 1.000000000000000021e-02 1.000000000000000021e-02 1.000000000000000021e-02 1.000000000000000021e-02 1.000000000000000021e-02 1.000000000000000021e-02 1.000000000000000021e-02 1.000000000000000021e-02 1.000000000000000021e-02 1.000000000000000021e-02 1.000000000000000021e-02 1.000000000000000021e-02 1.000000000000000021e-02 1.000000000000000021e-02 1.000000000000000021e-02 1.000000000000000021e-02 1.000000000000000021e-02 1.000000000000000021e-02 1.000000000000000021e-02 1.000000000000000021e-02 1.000000000000000021e-02 1.000000000000000021e-02 1.000000000000000021e-02 1.000000000000000021e-02 1.000000000000000021e-02 1.000000000000000021e-02 1.000000000000000021e-02 1.000000000000000021e-02 1.000000000000000021e-02 1.000000000000000021e-02 1.000000000000000021e-02 1.000000000000000021e-02 1.000000000000000021e-02 1.000000000000000021e-02 1.000000000000000021e-02 1.000000000000000021e-02 1.000000000000000021e-02 1.000000000000000021e-02 1.000000000000000021e-02 1.000000000000000021e-02 1.000000000000000021e-02 1.000000000000000021e-02 1.000000000000000021e-02 1.000000000000000021e-02 1.000000000000000021e-02 1.000000000000000021e-02 1.000000000000000021e-02 1.000000000000000021e-02 1.000000000000000021e-02 1.000000000000000021e-02 1.000000000000000021e-02 1.000000000000000021e-02 1.000000000000000021e-02 1.000000000000000021e-02 1.000000000000000021e-02 1.000000000000000021e-02 1.000000000000000021e-02 1.000000000000000021e-02 1.000000000000000021e-02 1.000000000000000021e-02 1.000000000000000021e-02 1.000000000000000021e-02 1.000000000000000021e-02 1.000000000000000021e-02 1.000000000000000021e-02 1.000000000000000021e-02 1.000000000000000021e-02 1.000000000000000021e-02 1.000000000000000021e-02 1.000000000000000021e-02 1.000000000000000021e-02 1.000000000000000021e-02 1.000000000000000021e-02 1.000000000000000021e-02 1.000000000000000021e-02 1.000000000000000021e-02 1.000000000000000021e-02 1.000000000000000021e-02 1.000000000000000021e-02 1.000000000000000021e-02 1.000000000000000021e-02 1.000000000000000021e-02 1.000000000000000021e-02 1.000000000000000021e-02 1.000000000000000021e-02 1.000000000000000021e-02 1.000000000000000021e-02 1.000000000000000021e-02 1.000000000000000021e-02 1.000000000000000021e-02 1.000000000000000021e-02 1.000000000000000021e-02 1.000000000000000021e-02 1.000000000000000021e-02 1.000000000000000021e-02 1.000000000000000021e-02 1.000000000000000021e-02 1.000000000000000021e-02 1.000000000000000021e-02 1.000000000000000021e-02 1.000000000000000021e-02 1.000000000000000021e-02 1.000000000000000021e-02 1.000000000000000021e-02 1.000000000000000021e-02 1.000000000000000021e-02 1.000000000000000021e-02 1.000000000000000021e-02 1.000000000000000021e-02 1.000000000000000021e-02 1.000000000000000021e-02 1.000000000000000021e-02 1.000000000000000021e-02 1.000000000000000021e-02 1.000000000000000021e-02 1.000000000000000021e-02 1.000000000000000021e-02 1.000000000000000021e-02 1.000000000000000021e-02 1.000000000000000021e-02 1.000000000000000021e-02 1.000000000000000021e-02 1.000000000000000021e-02 1.000000000000000021e-02 1.000000000000000021e-02 1.000000000000000021e-02 1.000000000000000021e-02 1.000000000000000021e-02 1.000000000000000021e-02 1.000000000000000021e-02 1.000000000000000021e-02 1.000000000000000021e-02 1.000000000000000021e-02 1.000000000000000021e-02 1.000000000000000021e-02 1.000000000000000021e-02 1.000000000000000021e-02 1.000000000000000021e-02 1.000000000000000021e-02 1.000000000000000021e-02 1.000000000000000021e-02 1.000000000000000021e-02 1.000000000000000021e-02 1.000000000000000021e-02 1.000000000000000021e-02 1.000000000000000021e-02 1.000000000000000021e-02 1.000000000000000021e-02 1.000000000000000021e-02 1.000000000000000021e-02 1.000000000000000021e-02 1.000000000000000021e-02 1.000000000000000021e-02 1.000000000000000021e-02 1.000000000000000021e-02 1.000000000000000021e-02 1.000000000000000021e-02 1.000000000000000021e-02 1.000000000000000021e-02 1.000000000000000021e-02 1.000000000000000021e-02 1.000000000000000021e-02 1.000000000000000021e-02 1.000000000000000021e-02 1.000000000000000021e-02 1.000000000000000021e-02 1.000000000000000021e-02 1.000000000000000021e-02 1.000000000000000021e-02 1.000000000000000021e-02 1.000000000000000021e-02 1.000000000000000021e-02 1.000000000000000021e-02 1.000000000000000021e-02 1.000000000000000021e-02 1.000000000000000021e-02 1.000000000000000021e-02 1.000000000000000021e-02 1.000000000000000021e-02 1.000000000000000021e-02 1.000000000000000021e-02 1.000000000000000021e-02 1.000000000000000021e-02 1.000000000000000021e-02 1.000000000000000021e-02 1.000000000000000021e-02 1.000000000000000021e-02 1.000000000000000021e-02 1.000000000000000021e-02 1.000000000000000021e-02 1.000000000000000021e-02 1.000000000000000021e-02 1.000000000000000021e-02 1.000000000000000021e-02 1.000000000000000021e-02 1.000000000000000021e-02 1.000000000000000021e-02 1.000000000000000021e-02 1.000000000000000021e-02 1.000000000000000021e-02 1.000000000000000021e-02 1.000000000000000021e-02 1.000000000000000021e-02 1.000000000000000021e-02 1.000000000000000021e-02 1.000000000000000021e-02 1.000000000000000021e-02 1.000000000000000021e-02 1.000000000000000021e-02 1.000000000000000021e-02 1.000000000000000021e-02 1.000000000000000021e-02 1.000000000000000021e-02 1.000000000000000021e-02 1.000000000000000021e-02 1.000000000000000021e-02 1.000000000000000021e-02 1.000000000000000021e-02 1.000000000000000021e-02 1.000000000000000021e-02 1.000000000000000021e-02 1.000000000000000021e-02 1.000000000000000021e-02 1.000000000000000021e-02 1.000000000000000021e-02 1.000000000000000021e-02 1.000000000000000021e-02 1.000000000000000021e-02 1.000000000000000021e-02 1.000000000000000021e-02 1.000000000000000021e-02 1.000000000000000021e-02 1.000000000000000021e-02 1.000000000000000021e-02 1.000000000000000021e-02 1.000000000000000021e-02 1.000000000000000021e-02 1.000000000000000021e-02 1.000000000000000021e-02 1.000000000000000021e-02 1.000000000000000021e-02 1.000000000000000021e-02 1.000000000000000021e-02 1.000000000000000021e-02 1.000000000000000021e-02 1.000000000000000021e-02 1.000000000000000021e-02 1.000000000000000021e-02 1.000000000000000021e-02 1.000000000000000021e-02 1.000000000000000021e-02 1.000000000000000021e-02 1.000000000000000021e-02 1.000000000000000021e-02 1.000000000000000021e-02 1.000000000000000021e-02 1.000000000000000021e-02 1.000000000000000021e-02 1.000000000000000021e-02 1.000000000000000021e-02 1.000000000000000021e-02 1.000000000000000021e-02 1.000000000000000021e-02 1.000000000000000021e-02 1.000000000000000021e-02 1.000000000000000021e-02 1.000000000000000021e-02 1.000000000000000021e-02 1.000000000000000021e-02 1.000000000000000021e-02 1.000000000000000021e-02 1.000000000000000021e-02 1.000000000000000021e-02 1.000000000000000021e-02 1.000000000000000021e-02 1.000000000000000021e-02 1.000000000000000021e-02 1.000000000000000021e-02 1.000000000000000021e-02 1.000000000000000021e-02 1.000000000000000021e-02 1.000000000000000021e-02 1.000000000000000021e-02 1.000000000000000021e-02 1.000000000000000021e-02 1.000000000000000021e-02 1.000000000000000021e-02 1.000000000000000021e-02 1.000000000000000021e-02 1.000000000000000021e-02 1.000000000000000021e-02 1.000000000000000021e-02 1.000000000000000021e-02 1.000000000000000021e-02 1.000000000000000021e-02 1.000000000000000021e-02 1.000000000000000021e-02 1.000000000000000021e-02 1.000000000000000021e-02 1.000000000000000021e-02 1.000000000000000021e-02 1.000000000000000021e-02 1.000000000000000021e-02 1.000000000000000021e-02 1.000000000000000021e-02 1.000000000000000021e-02 1.000000000000000021e-02 1.000000000000000021e-02 1.000000000000000021e-02 1.000000000000000021e-02 1.000000000000000021e-02 1.000000000000000021e-02 1.000000000000000021e-02 1.000000000000000021e-02 1.000000000000000021e-02 1.000000000000000021e-02 1.000000000000000021e-02 1.000000000000000021e-02 1.000000000000000021e-02 1.000000000000000021e-02 1.000000000000000021e-02 1.000000000000000021e-02 1.000000000000000021e-02 1.000000000000000021e-02 1.000000000000000021e-02 1.000000000000000021e-02 1.000000000000000021e-02 1.000000000000000021e-02 1.000000000000000021e-02 1.000000000000000021e-02 1.000000000000000021e-02 1.000000000000000021e-02 1.000000000000000021e-02 1.000000000000000021e-02 1.000000000000000021e-02 1.000000000000000021e-02 1.000000000000000021e-02 1.000000000000000021e-02 1.000000000000000021e-02 1.000000000000000021e-02 1.000000000000000021e-02 1.000000000000000021e-02 1.000000000000000021e-02 1.000000000000000021e-02 1.000000000000000021e-02 1.000000000000000021e-02 1.000000000000000021e-02 1.000000000000000021e-02 1.000000000000000021e-02 1.000000000000000021e-02 1.000000000000000021e-02 1.000000000000000021e-02 1.000000000000000021e-02 1.000000000000000021e-02 1.000000000000000021e-02 1.000000000000000021e-02 1.000000000000000021e-02 1.000000000000000021e-02 1.000000000000000021e-02 1.000000000000000021e-02 1.000000000000000021e-02 1.000000000000000021e-02 1.000000000000000021e-02 1.000000000000000021e-02 1.000000000000000021e-02 1.000000000000000021e-02 1.000000000000000021e-02 1.000000000000000021e-02 1.000000000000000021e-02 1.000000000000000021e-02 1.000000000000000021e-02 1.000000000000000021e-02 1.000000000000000021e-02 1.000000000000000021e-02 1.000000000000000021e-02 1.000000000000000021e-02 1.000000000000000021e-02 1.000000000000000021e-02 1.000000000000000021e-02 1.000000000000000021e-02 1.000000000000000021e-02 1.000000000000000021e-02 1.000000000000000021e-02 1.000000000000000021e-02 1.000000000000000021e-02 1.000000000000000021e-02 1.000000000000000021e-02 1.000000000000000021e-02 1.000000000000000021e-02 1.000000000000000021e-02 1.000000000000000021e-02 1.000000000000000021e-02 1.000000000000000021e-02 1.000000000000000021e-02 1.000000000000000021e-02 1.000000000000000021e-02 1.000000000000000021e-02 1.000000000000000021e-02 1.000000000000000021e-02 1.000000000000000021e-02 1.000000000000000021e-02 1.000000000000000021e-02 1.000000000000000021e-02 1.000000000000000021e-02 1.000000000000000021e-02 1.000000000000000021e-02 1.000000000000000021e-02 1.000000000000000021e-02 1.000000000000000021e-02 1.000000000000000021e-02 1.000000000000000021e-02 1.000000000000000021e-02 1.000000000000000021e-02 1.000000000000000021e-02 1.000000000000000021e-02 1.000000000000000021e-02 1.000000000000000021e-02 1.000000000000000021e-02 1.000000000000000021e-02 1.000000000000000021e-02 1.000000000000000021e-02 1.000000000000000021e-02 1.000000000000000021e-02 1.000000000000000021e-02 1.000000000000000021e-02 1.000000000000000021e-02 1.000000000000000021e-02 1.000000000000000021e-02 1.000000000000000021e-02 1.000000000000000021e-02 1.000000000000000021e-02 1.000000000000000021e-02 1.000000000000000021e-02 1.000000000000000021e-02 1.000000000000000021e-02 1.000000000000000021e-02 1.000000000000000021e-02 1.000000000000000021e-02 1.000000000000000021e-02 1.000000000000000021e-02 1.000000000000000021e-02 1.000000000000000021e-02 1.000000000000000021e-02 1.000000000000000021e-02 1.000000000000000021e-02 1.000000000000000021e-02 1.000000000000000021e-02 1.000000000000000021e-02 1.000000000000000021e-02 1.000000000000000021e-02 1.000000000000000021e-02 1.000000000000000021e-02 1.000000000000000021e-02 1.000000000000000021e-02 1.000000000000000021e-02 1.000000000000000021e-02 1.000000000000000021e-02 1.000000000000000021e-02 1.000000000000000021e-02 1.000000000000000021e-02 1.000000000000000021e-02 1.000000000000000021e-02 1.000000000000000021e-02 1.000000000000000021e-02 1.000000000000000021e-02 1.000000000000000021e-02 1.000000000000000021e-02 1.000000000000000021e-02 1.000000000000000021e-02 1.000000000000000021e-02 1.000000000000000021e-02 1.000000000000000021e-02 1.000000000000000021e-02 1.000000000000000021e-02 1.000000000000000021e-02 1.000000000000000021e-02 1.000000000000000021e-02 1.000000000000000021e-02 1.000000000000000021e-02 1.000000000000000021e-02 1.000000000000000021e-02 1.000000000000000021e-02 1.000000000000000021e-02 1.000000000000000021e-02 1.000000000000000021e-02 1.000000000000000021e-02 1.000000000000000021e-02 1.000000000000000021e-02 1.000000000000000021e-02 1.000000000000000021e-02 1.000000000000000021e-02 1.000000000000000021e-02 1.000000000000000021e-02 1.000000000000000021e-02 1.000000000000000021e-02 1.000000000000000021e-02 1.000000000000000021e-02 1.000000000000000021e-02 1.000000000000000021e-02 1.000000000000000021e-02 1.000000000000000021e-02 1.000000000000000021e-02 1.000000000000000021e-02 1.000000000000000021e-02 1.000000000000000021e-02 1.000000000000000021e-02 1.000000000000000021e-02 1.000000000000000021e-02 1.000000000000000021e-02 1.000000000000000021e-02 1.000000000000000021e-02 1.000000000000000021e-02 1.000000000000000021e-02 1.000000000000000021e-02 1.000000000000000021e-02 1.000000000000000021e-02 1.000000000000000021e-02 1.000000000000000021e-02 1.000000000000000021e-02 1.000000000000000021e-02 1.000000000000000021e-02 1.000000000000000021e-02 1.000000000000000021e-02 1.000000000000000021e-02 1.000000000000000021e-02 1.000000000000000021e-02 1.000000000000000021e-02 1.000000000000000021e-02 1.000000000000000021e-02 1.000000000000000021e-02 1.000000000000000021e-02 1.000000000000000021e-02 1.000000000000000021e-02 1.000000000000000021e-02 1.000000000000000021e-02 1.000000000000000021e-02 1.000000000000000021e-02 1.000000000000000021e-02 1.000000000000000021e-02 1.000000000000000021e-02 1.000000000000000021e-02 1.000000000000000021e-02 1.000000000000000021e-02 1.000000000000000021e-02 1.000000000000000021e-02 1.000000000000000021e-02 1.000000000000000021e-02 1.000000000000000021e-02 1.000000000000000021e-02 1.000000000000000021e-02 1.000000000000000021e-02 1.000000000000000021e-02 1.000000000000000021e-02 1.000000000000000021e-02 1.000000000000000021e-02 1.000000000000000021e-02 1.000000000000000021e-02 1.000000000000000021e-02 1.000000000000000021e-02 1.000000000000000021e-02 1.000000000000000021e-02 1.000000000000000021e-02 1.000000000000000021e-02 1.000000000000000021e-02 1.000000000000000021e-02 1.000000000000000021e-02 1.000000000000000021e-02 1.000000000000000021e-02 1.000000000000000021e-02 1.000000000000000021e-02 1.000000000000000021e-02 1.000000000000000021e-02 1.000000000000000021e-02 1.000000000000000021e-02 1.000000000000000021e-02 1.000000000000000021e-02 1.000000000000000021e-02 1.000000000000000021e-02 1.000000000000000021e-02 1.000000000000000021e-02 1.000000000000000021e-02 1.000000000000000021e-02 1.000000000000000021e-02 1.000000000000000021e-02 1.000000000000000021e-02 1.000000000000000021e-02 1.000000000000000021e-02 1.000000000000000021e-02 1.000000000000000021e-02 1.000000000000000021e-02 1.000000000000000021e-02 1.000000000000000021e-02 1.000000000000000021e-02 1.000000000000000021e-02 1.000000000000000021e-02 1.000000000000000021e-02 1.000000000000000021e-02 1.000000000000000021e-02 1.000000000000000021e-02 1.000000000000000021e-02 1.000000000000000021e-02 1.000000000000000021e-02 1.000000000000000021e-02 1.000000000000000021e-02 1.000000000000000021e-02 1.000000000000000021e-02 1.000000000000000021e-02 1.000000000000000021e-02 1.000000000000000021e-02 1.000000000000000021e-02 1.000000000000000021e-02 1.000000000000000021e-02 1.000000000000000021e-02 1.000000000000000021e-02 1.000000000000000021e-02 1.000000000000000021e-02 1.000000000000000021e-02 1.000000000000000021e-02 1.000000000000000021e-02 1.000000000000000021e-02 1.000000000000000021e-02 1.000000000000000021e-02 1.000000000000000021e-02 1.000000000000000021e-02 1.000000000000000021e-02 1.000000000000000021e-02 1.000000000000000021e-02 1.000000000000000021e-02 1.000000000000000021e-02 1.000000000000000021e-02 1.000000000000000021e-02 1.000000000000000021e-02 1.000000000000000021e-02 1.000000000000000021e-02 1.000000000000000021e-02 1.000000000000000021e-02 1.000000000000000021e-02 1.000000000000000021e-02 1.000000000000000021e-02 1.000000000000000021e-02 1.000000000000000021e-02 1.000000000000000021e-02 1.000000000000000021e-02 1.000000000000000021e-02 1.000000000000000021e-02 1.000000000000000021e-02 1.000000000000000021e-02 1.000000000000000021e-02 1.000000000000000021e-02 1.000000000000000021e-02 1.000000000000000021e-02 1.000000000000000021e-02 1.000000000000000021e-02 1.000000000000000021e-02 1.000000000000000021e-02 1.000000000000000021e-02 1.000000000000000021e-02 1.000000000000000021e-02 1.000000000000000021e-02 1.000000000000000021e-02 1.000000000000000021e-02 1.000000000000000021e-02 1.000000000000000021e-02 1.000000000000000021e-02 1.000000000000000021e-02 1.000000000000000021e-02 1.000000000000000021e-02 1.000000000000000021e-02 1.000000000000000021e-02 1.000000000000000021e-02 1.000000000000000021e-02 1.000000000000000021e-02 1.000000000000000021e-02 1.000000000000000021e-02 1.000000000000000021e-02 1.000000000000000021e-02 1.000000000000000021e-02 1.000000000000000021e-02 1.000000000000000021e-02 1.000000000000000021e-02 1.000000000000000021e-02 1.000000000000000021e-02 1.000000000000000021e-02 1.000000000000000021e-02 1.000000000000000021e-02 1.000000000000000021e-02 1.000000000000000021e-02 1.000000000000000021e-02 1.000000000000000021e-02 1.000000000000000021e-02 1.000000000000000021e-02 1.000000000000000021e-02 1.000000000000000021e-02 1.000000000000000021e-02 1.000000000000000021e-02 1.000000000000000021e-02 1.000000000000000021e-02 1.000000000000000021e-02 1.000000000000000021e-02 1.000000000000000021e-02 1.000000000000000021e-02 1.000000000000000021e-02 1.000000000000000021e-02 1.000000000000000021e-02 1.000000000000000021e-02 1.000000000000000021e-02 1.000000000000000021e-02 1.000000000000000021e-02 1.000000000000000021e-02 1.000000000000000021e-02 1.000000000000000021e-02 1.000000000000000021e-02 1.000000000000000021e-02 1.000000000000000021e-02 1.000000000000000021e-02 1.000000000000000021e-02 1.000000000000000021e-02 1.000000000000000021e-02 1.000000000000000021e-02 1.000000000000000021e-02 1.000000000000000021e-02 1.000000000000000021e-02 1.000000000000000021e-02 1.000000000000000021e-02 1.000000000000000021e-02 1.000000000000000021e-02 1.000000000000000021e-02 1.000000000000000021e-02 1.000000000000000021e-02 1.000000000000000021e-02 1.000000000000000021e-02 1.000000000000000021e-02 1.000000000000000021e-02 1.000000000000000021e-02 1.000000000000000021e-02 1.000000000000000021e-02 1.000000000000000021e-02 1.000000000000000021e-02 1.000000000000000021e-02 1.000000000000000021e-02 1.000000000000000021e-02 1.000000000000000021e-02 1.000000000000000021e-02 1.000000000000000021e-02 1.000000000000000021e-02 1.000000000000000021e-02 1.000000000000000021e-02 1.000000000000000021e-02 1.000000000000000021e-02 1.000000000000000021e-02 1.000000000000000021e-02 1.000000000000000021e-02 1.000000000000000021e-02 1.000000000000000021e-02 1.000000000000000021e-02 1.000000000000000021e-02 1.000000000000000021e-02 1.000000000000000021e-02 1.000000000000000021e-02 1.000000000000000021e-02 1.000000000000000021e-02 1.000000000000000021e-02 1.000000000000000021e-02 1.000000000000000021e-02 1.000000000000000021e-02 1.000000000000000021e-02 1.000000000000000021e-02 1.000000000000000021e-02 1.000000000000000021e-02 1.000000000000000021e-02 1.000000000000000021e-02 1.000000000000000021e-02 1.000000000000000021e-02 1.000000000000000021e-02 1.000000000000000021e-02 1.000000000000000021e-02 1.000000000000000021e-02 1.000000000000000021e-02 1.000000000000000021e-02 1.000000000000000021e-02 1.000000000000000021e-02 1.000000000000000021e-02 1.000000000000000021e-02 1.000000000000000021e-02 1.000000000000000021e-02 1.000000000000000021e-02 1.000000000000000021e-02 1.000000000000000021e-02 1.000000000000000021e-02 1.000000000000000021e-02 1.000000000000000021e-02 1.000000000000000021e-02 1.000000000000000021e-02 1.000000000000000021e-02 1.000000000000000021e-02 1.000000000000000021e-02 1.000000000000000021e-02 1.000000000000000021e-02 1.000000000000000021e-02 1.000000000000000021e-02 1.000000000000000021e-02 1.000000000000000021e-02 1.000000000000000021e-02 1.000000000000000021e-02 1.000000000000000021e-02 1.000000000000000021e-02 1.000000000000000021e-02 1.000000000000000021e-02 1.000000000000000021e-02 1.000000000000000021e-02 1.000000000000000021e-02 1.000000000000000021e-02 1.000000000000000021e-02 1.000000000000000021e-02 1.000000000000000021e-02 1.000000000000000021e-02 1.000000000000000021e-02 1.000000000000000021e-02 1.000000000000000021e-02 1.000000000000000021e-02 1.000000000000000021e-02 1.000000000000000021e-02 1.000000000000000021e-02 1.000000000000000021e-02 1.000000000000000021e-02 1.000000000000000021e-02 1.000000000000000021e-02 1.000000000000000021e-02 1.000000000000000021e-02 1.000000000000000021e-02 1.000000000000000021e-02 1.000000000000000021e-02 1.000000000000000021e-02 1.000000000000000021e-02 1.000000000000000021e-02 1.000000000000000021e-02 1.000000000000000021e-02 1.000000000000000021e-02 1.000000000000000021e-02 1.000000000000000021e-02 1.000000000000000021e-02 1.000000000000000021e-02 1.000000000000000021e-02 1.000000000000000021e-02 1.000000000000000021e-02 1.000000000000000021e-02 1.000000000000000021e-02 1.000000000000000021e-02 1.000000000000000021e-02 1.000000000000000021e-02 1.000000000000000021e-02 1.000000000000000021e-02 1.000000000000000021e-02 1.000000000000000021e-02 1.000000000000000021e-02 1.000000000000000021e-02 1.000000000000000021e-02 1.000000000000000021e-02 1.000000000000000021e-02 1.000000000000000021e-02 1.000000000000000021e-02 1.000000000000000021e-02 1.000000000000000021e-02 1.000000000000000021e-02 1.000000000000000021e-02 1.000000000000000021e-02 1.000000000000000021e-02 1.000000000000000021e-02 1.000000000000000021e-02 1.000000000000000021e-02 1.000000000000000021e-02 1.000000000000000021e-02 1.000000000000000021e-02 1.000000000000000021e-02 1.000000000000000021e-02 1.000000000000000021e-02 1.000000000000000021e-02 1.000000000000000021e-02 1.000000000000000021e-02 1.000000000000000021e-02 1.000000000000000021e-02 1.000000000000000021e-02 1.000000000000000021e-02 1.000000000000000021e-02 1.000000000000000021e-02 1.000000000000000021e-02 1.000000000000000021e-02 1.000000000000000021e-02 1.000000000000000021e-02 1.000000000000000021e-02 1.000000000000000021e-02 1.000000000000000021e-02 1.000000000000000021e-02 1.000000000000000021e-02 1.000000000000000021e-02 1.000000000000000021e-02 1.000000000000000021e-02 1.000000000000000021e-02 1.000000000000000021e-02 1.000000000000000021e-02 1.000000000000000021e-02 1.000000000000000021e-02 1.000000000000000021e-02 1.000000000000000021e-02 1.000000000000000021e-02 1.000000000000000021e-02 1.000000000000000021e-02 1.000000000000000021e-02 1.000000000000000021e-02 1.000000000000000021e-02 1.000000000000000021e-02 1.000000000000000021e-02 1.000000000000000021e-02 1.000000000000000021e-02 1.000000000000000021e-02 1.000000000000000021e-02 1.000000000000000021e-02 1.000000000000000021e-02 1.000000000000000021e-02 1.000000000000000021e-02 1.000000000000000021e-02 1.000000000000000021e-02 1.000000000000000021e-02 1.000000000000000021e-02 1.000000000000000021e-02 1.000000000000000021e-02 1.000000000000000021e-02 1.000000000000000021e-02 1.000000000000000021e-02 1.000000000000000021e-02 1.000000000000000021e-02 1.000000000000000021e-02 1.000000000000000021e-02 1.000000000000000021e-02 1.000000000000000021e-02 1.000000000000000021e-02 1.000000000000000021e-02 1.000000000000000021e-02 1.000000000000000021e-02 1.000000000000000021e-02 1.000000000000000021e-02 1.000000000000000021e-02 1.000000000000000021e-02 1.000000000000000021e-02 1.000000000000000021e-02 1.000000000000000021e-02 1.000000000000000021e-02 1.000000000000000021e-02 1.000000000000000021e-02 1.000000000000000021e-02 1.000000000000000021e-02 1.000000000000000021e-02 1.000000000000000021e-02 1.000000000000000021e-02 1.000000000000000021e-02 1.000000000000000021e-02 1.000000000000000021e-02 1.000000000000000021e-02 1.000000000000000021e-02 1.000000000000000021e-02 1.000000000000000021e-02 1.000000000000000021e-02 1.000000000000000021e-02 1.000000000000000021e-02 1.000000000000000021e-02 1.000000000000000021e-02 1.000000000000000021e-02 1.000000000000000021e-02 1.000000000000000021e-02 1.000000000000000021e-02 1.000000000000000021e-02 1.000000000000000021e-02 1.000000000000000021e-02 1.000000000000000021e-02 1.000000000000000021e-02 1.000000000000000021e-02 1.000000000000000021e-02 1.000000000000000021e-02 1.000000000000000021e-02 1.000000000000000021e-02 1.000000000000000021e-02 1.000000000000000021e-02 1.000000000000000021e-02 1.000000000000000021e-02 1.000000000000000021e-02 1.000000000000000021e-02 1.000000000000000021e-02 1.000000000000000021e-02 1.000000000000000021e-02 1.000000000000000021e-02 1.000000000000000021e-02
-1.122203965714726479e+02 1.705573573600609336e+02 3.956878371929556693e+01 -8.894464669828387571e+00 -8.838410138375363090e+01 -1.346841305626664997e+01 -2.090934132059565229e+02 6.887447646711609694e-01 -8.521620545791743950e+01 -1.410796520551514988e+01 -1.994426557910241016e+01 6.551742528620390971e+00 -1.791470419340982723e+00 1.687594864270154460e+02 8.510744610584370662e+01 -3.899925102907305074e+01 -5.309147760894751400e+01 7.967611958975395225e+01 3.301100478821655315e+01 -2.551505331819824463e+01 -7.930949336157584639e+01 -7.424049506289978240e+01 -1.388817146165688854e+01 2.910124830182509115e+01 -1.960545197756633797e+02 -9.931070081230102176e+01 -2.623911103245317022e+01 2.028093401239416380e+02 7.117495916624628194e+01 7.716263783907832874e+01 8.075943149753041439e+01 1.192404764980414811e+00 -7.968226923879271340e+01 2.086345401226311935e+02 -2.462596135001257096e+02 5.916303651126832364e+01 -1.208572361156220012e+02 -3.488218090005847927e+01 4.056532809065711120e+00 1.274523182724459360e+02 -1.236241980854605771e+02 -1.373349278096551096e+01 7.781678814037944392e+01 1.746124352399417603e+02 7.177906381815907366e+01 -6.882644431856964218e+01 4.147394238395368404e+01 -2.854579313320707357e+01 -6.645261422815966057e+01 1.575133037194626127e+02 -7.099406202044488623e+01 -5.242447664151777076e+01 -1.401355663383277772e+02 5.776406348673239322e+00 -5.083925700040122564e+01 3.889254532069205794e+01 -8.925193431447256387e+01 -5.035954141041401755e+01 -1.020100045848854933e+02 -1.563671228553112940e+02 1.957786981064078091e+01 4.562012859113392693e+01 -1.238565981943970371e+02 1.293584269285063648e+01 -7.977394461626451516e+01 4.941245442817304223e+01 1.676147909071407582e+02 -1.451248138285114919e+02 -4.357370187397792449e+01 7.234577640749691341e+00 2.945270079517563477e+00 4.263480531402945672e+01 8.448891313878411324e+01 8.955913827089663215e-01 -8.848571605561271980e+00 -7.045375820275513945e+01 7.873741901157055167e+01 -3.297321283806613934e+01 2.645120683437487230e+01 1.046423409715709170e+02 8.876437479260286523e+01 -4.301176671643305127e+01 5.816141148106115821e+01 1.483324931796203145e+02 1.169126365620493431e+02 -4.051926260183272177e+00 1.752719917916180066e+02 -1.121933446132648697e+02 4.230134062421856633e+00 -4.219346899493102399e+01 2.080999180142073612e+02 -2.135255051285999528e+01 2.896544137692078191e+00 -7.725120126544419463e+01 -7.177944199038309492e+00 -6.423902994379102438e+01 6.818224823986147953e+01 -9.512596579269850849e+01 6.898338095031691353e+01 -4.803666455939571023e+01 -5.006843459688355580e+01 -9.221886314338279078e+01 5.342032875888687471e+01 -5.505586229390500819e+01 -1.502479219483756765e+02 -7.995902071799048372e+01 -1.052568060226093820e+02 -1.581937405835440700e+02 1.367773790316078077e+02 -2.767098036990879706e+01 3.222554056853785909e+01 9.021798898535915612e+01 -1.047150073325924211e+02 5.732151934892458911e+01 -4.358789136226911154e+01 -6.975106471533206332e+01 -9.063412515231871680e+01 2.045281902652789086e+02 -5.709218200211456917e+01 -4.979375177695858667e+01 -4.750767780080903435e+01 8.089737741855121556e+01 -4.166157992768530960e+01 1.388401829943718155e+02 -5.017635038894334087e+01 5.542919907828272841e+01 4.570193819756615206e+00 -8.164321666673266975e+01 6.924450313837766657e+01 2.790963596210912101e+02 -9.258991604744134918e+01 4.778924299936858233e+01 -7.670797414533642211e+01 4.551886866205319393e+01 1.320126454789439094e+02 -5.170141331087930325e+01 1.468109904206762018e+01 -2.709436817251107854e+01 -1.025852953822197264e+02 -1.740483807888751144e+01 4.302247294603758654e+00 -7.871119807364167720e+00 -1.505055312934724299e+01 1.190036480693144370e+02 1.311978238235430752e+02 1.876736557088282495e+02 -3.063207869024400338e+02 3.846544189222174737e+01 -1.585625934261734216e+01 -6.277093044423934742e+01 1.815610363025257925e+02 7.672932007659220233e+01 -2.598061869448164973e+00 -1.167661024968181209e+02 -1.097950531735524748e+01 1.007928674904630526e+02 -1.353505628117694357e+02 -1.698355041881193586e+02 1.081305807724614532e+01 4.274162404972188511e+01 -6.146398778927564877e+01 4.234540960398486931e+01 -1.078786780072975375e+02 -1.524587554141577925e+02 2.127271441490922399e+01 4.895131432204935606e+01 4.841109761357773600e+00 -8.413764629856645172e+01 -9.433039326609625164e+01 -8.499680874558016797e+01 -8.825554753758653703e+01 1.273416454729341751e+01 5.730943785633221665e+01 1.174861144897559484e+02 8.011495511630177191e+01 9.028519108438520391e+01 1.083995039777761917e+02 -7.546447243430510810e+01 -8.326662484564657518e+01 7.117312656890871381e+01 6.911206362172798379e+01 5.979674218062412905e+01 -9.483033545328860114e+00 -9.197709306456999911e+01 5.452772603305453458e+01 -1.808191025919815047e+02 6.785976935130298671e+01 -4.501603628038363070e+01 -9.748329026382397444e+01 7.502091452981944997e+01 -1.732605439031409134e+01 -7.800889747674517594e+01 -5.813191366297989049e+01 -9.256576325228312641e+00 2.455753302883059916e+02 7.777376541218788475e+01 5.551335087633989929e+01 -1.052043740846510360e+02 1.501577677790628798e+02 1.058787891887809529e+00 -9.157820514198685657e+01 1.578860170678385089e+02 -1.562378611464028779e+02 1.599201222017226875e+01 -3.300039697148310580e+01 -2.252871944656982919e+02 -1.367622778767892555e+02 -8.943517166514801886e+01 -3.003503670267500070e+01 -1.222459050361782857e+02 5.911328825208071436e+01 6.662384010259047784e+01 -2.826759684338354006e+01 -1.022415289303769299e+02 1.159489689240427310e+02 1.211981779514430997e+02 4.738478659851979558e+01 1.791033997097667552e+01 2.680349398222570585e+02 4.478915172259307553e+01 -1.225003066765620474e+02 -4.621479141695758841e+01 -1.732304207133440173e+02 3.269849220566863579e+01 1.573156708228817138e+02 -1.522557033038625320e+02 1.351904233248016851e+02 -9.335834098724446051e+01 -1.940294023335210483e+01 -7.765427016079707867e-01 5.426212799223292649e+01 -1.190871018793373892e+01 -2.340050255461781248e+01 -1.940499272982728840e+01 -1.300861312364583569e+02 4.766575619520945395e+01 -3.117498368254066676e+01 -1.332514163704708032e+01 -1.100333197534350660e+01 2.320663264104297241e+02 1.789195342058350207e+02 2.389289844640903766e+02 1.353744598082671473e+02 -8.892381135794643399e+01 7.723512273254094396e+01 2.169272695825792852e+01 4.888354286549188998e+01 -4.080775100114807685e+01 2.624003195888420237e+02 -2.393704479013459618e+01 -1.404765890744635328e+02 -1.536562257014075072e+01 -4.708561674004798903e+01 -7.953135529959988048e+01 4.434830715276932978e+01 -1.203609022941750162e+01 1.869363744473575935e+02 9.495809253429229102e+01 4.201728158743584629e+01 1.007463533560333104e+02 9.713216412527523858e+01 -2.362703887169697481e+01 1.435204465292798375e+02 2.723009906178498696e+01 9.207452318189181995e+01 4.898522064182392910e+01 7.127991237748680042e+00 -1.190034697516116182e+02 -1.190758969785552210e+02 -9.253946873643943150e+01 -1.600920296299857171e+01 8.911474087067720973e+01 -3.151696480045831450e+01 1.016638938547614970e+02 4.503825979516614098e+01 -7.476540478781375043e+01 -3.080635757098362859e+01 -6.024095236389837282e+01 1.805661417657480072e+01 -4.763009214788850443e+01 -1.151912226556684686e+02 1.249465574722802614e+02 1.247443093497279989e+02 -8.116715266481358526e+01 5.599713273418641890e+00 -4.658484849711974363e+01 -3.352399706463006623e+01 -1.166073584831970678e+01 -3.209891299224191386e+01 4.570169736731396881e+01 -1.444694749249730421e+02 -5.431472210731989492e+01 -1.561173067131683752e+02 1.789587715222384645e+02 -2.079020133324783970e+01 6.056978193280367861e+01 1.225625134825589058e+01 1.483599459161324035e+02 4.586409245674001056e+01 3.670675471646778476e+01 1.585404688528404336e+02 -5.059643879217838247e+01 -1.002261290027850293e+02 2.790003185217415549e+01 -1.622398451981810581e+02 -5.482341403656646861e+01 1.050201080014201978e+02 -1.310788277818379584e+02 -3.732609630098162512e+01 9.370258158498475609e+01 -9.697280264485492296e+01 -9.184983332714992343e+01 -8.481591219901493162e+01 -6.549714116084911097e+01 2.555421413983010552e+02 2.033449896631789500e+02 1.056740995521618629e+02 -1.048428459431680153e+02 7.678803762623756768e+01 -6.784187917988492700e+01 -3.206233083670463202e+01 1.702705187542995091e+01 -3.301781096735382448e+01 -9.611316924052823651e+01 -2.802505912284614542e+00 1.516019094476153661e+01 1.114694321149050040e+02 -1.316437810475145227e+02 4.292029675483068019e+01 6.530420159151022119e+01 3.537885887507059834e+01 -9.278121084546748421e+01 -1.520377453109570638e+02 1.977726368761780407e+02 -1.823311412114156127e+01 2.577961150628709319e+01 1.601712796535031202e+02 2.728436859626925326e+01 2.838066897669721556e+01 -4.555139827009876541e+01 9.060812702848468803e+01 -1.394280996199880178e+02 -3.150060074302558633e+01 -6.272706078540506880e+00 -5.460563696700285163e+01 6.343796530544904222e+00 2.176990239816754880e+01 -3.657878871268388110e+01 1.396716000438941840e+01 2.183990080423770337e+02 -2.798834017841377531e+01 -2.858193323517808082e+01 -1.038655322734656892e+02 -1.687071935609204987e+00 -8.249799379186234205e+01 6.539281560037011332e+00 1.144795186568479437e+02 -5.314486425447584850e+01 6.178322126555063853e+00 -5.548219513501765476e+01 3.401465825181362312e+00 8.906551033380728200e+01 -1.183175833869469642e+02 -9.886700760033453150e+01 -1.047324294803165401e+02 7.289796541041266664e+01 8.839008882083768981e+01 -9.423980500263293436e+01 6.392946218331437080e+01 2.636073900904751355e+01 3.950182129270478981e+01 -1.812824605086629148e+01 9.325838237667413466e+01 8.140086505287148100e+01 -7.889574233036965722e+01 1.209522321693302516e+01 8.258908908129021142e+01 7.438393361877722043e+01 -2.029993594326499817e+01 2.550402497211078412e+01 -1.353551515484302286e+02 4.952808070776468696e+01 -3.345202450187958476e+01 -3.333214551191035468e+01 1.767896939171538691e+02 4.842474552748419114e+01 1.227154018608981545e+02 1.949181688902348242e+02 -1.405542552054257044e+02 1.521643966355698865e+02 -6.471078560115718403e+01 -1.379373886904276958e+02 8.402934024337672270e+01 -1.368600195277263936e+02 -2.930055769783082553e+01 5.758866722414619943e+01 8.249889203933973292e+00 -1.716004069263566123e+02 8.597535469871048974e+01 2.574007937743950691e+01 7.052919086459098708e+01 3.702935229814216456e+01 9.671157434442639200e+00 -6.850830589749746480e+01 1.181336838800663429e+02 5.561492743708807041e+01 -6.341135213933314674e+01 -1.033356689317723180e+02 3.975299992030770824e+01 2.620473483043474872e+01 8.409015457282825423e+01 1.875386387365107907e+02 -2.514568879666104095e+01 -1.124222097634195165e+02 -8.648564971208392649e+01 -5.238089915543628194e+01 -4.529445659847700512e+01 -1.497624100983009043e+02 -2.296572748603635006e+01 1.321609522682506679e+02 7.608073285661369312e+01 -1.248924889623268086e+02 -1.529279949271017074e+02 -6.950847381686158144e+01 -7.793784957883698894e+01 1.497694049418204543e+02 -1.739592934041655212e+02 8.831112586253870234e+01 -4.702605111225820700e+00 -4.390515659174334218e+01 1.357840267498292164e+01 9.304580305021436004e+01 5.061311202842547630e+01 1.410375240853202570e+02 -1.623885596778660272e+02 -8.262836966670246852e+01 2.585650297655643115e+01 4.279346906073543266e+01 2.103614894921043685e+02 1.484205895773911550e+02 6.686099048334681072e+01 7.357704739635126145e+01 -3.490042171040529695e+01 1.549279665003091111e+02 -1.829815313063069198e+02 -6.468874560663680029e+01 -5.478051896289116485e+01 -5.284901957743256418e+01 -1.053907741680254162e+02 -1.528842145911291261e+01 -7.003987066389474592e+01 7.263108521271868767e+01 -9.348536091486366217e+00 -5.928390444756036004e+01 -6.356869654832529193e+01 1.838504886808037782e+02 6.018935235746066326e+01 -1.398067478589712564e+01 2.131095463702462496e+02 -1.105188718280500382e+02 -3.605246059429379102e+01 6.831077643954924383e+01 -1.322607288360490019e-01 1.524079669627822042e+01 -1.275822640419068819e+02 1.797313305606754739e+02 -4.997869807701265188e+01 -2.748670021202374159e+01 -1.118957774794436943e+02 1.283482989483391066e+02 9.778805727424925465e+01 -7.905314664895813337e+01 -3.830381246616305901e+01 3.970173953477959117e+01 -1.543550821522196657e+02 -1.490205470542732280e-01 -7.615058955370302840e+01 7.854358681512234597e+00 -1.102051956067995491e+02 -1.615768617007431942e+02 -7.202814991465429273e+01 1.509858196087507167e+02 5.765927627793381305e+01 -9.130486587482526772e+01 9.086024081980703215e+01 3.488282463148733115e+01 8.994514379266668413e+01 -4.289537298483058692e+01 -8.564806198067897469e+01 1.741578812725867351e+02 4.242336310407451805e+01 2.948186348945198887e+01 -7.433110384218365141e+01 -4.307148802540058341e+01 9.729013593548323513e+00 -7.286788744976059995e+00 -1.758961848492419051e+02 -3.521501306750315763e+01 6.555302084595130907e+01 1.135710138705147330e+02 1.584155272365634914e+02 -1.349766551066042553e+01 9.115877319858319083e+01 1.604034722666513630e+02 6.449893805072495923e+01 1.502674368757199090e+02 1.633090076837492077e+01 1.334705085421560966e+02 -8.531544096647594699e+01 5.423142536281225290e+01 2.981243345317474436e+01 7.707079786055058435e+01 -1.078675995627525879e+02 2.010785373930710023e+02 -1.307537671248981326e+02 8.962716018546372254e+01 -1.090399398899043035e+02 4.681985601703607358e+01 1.399963290826934070e+01 9.201960682831773397e+01 -7.472715775831993312e+01 -7.657716838355655398e+01 -1.132211836828201612e+01 9.032133739021924157e+01 -2.998898741342337004e+01 -1.653103585290318733e+01 -1.989456848847301984e+01 4.799781481928514282e+00 9.940546434232373940e+01 -6.335985796387911506e+01 -2.748856792601876098e+00 -1.960351923799704252e+02 1.232243068288906471e+02 -1.261194570815708857e+02 -7.461880602890337855e+01 -2.377820361339968613e+01 -1.089982650164128302e+02 -5.368778457133956294e+01 -5.914611299818412959e+01 -1.986265296369097300e+01 1.376048739196380097e+02 5.458987827561392692e+01 1.014167178749641778e+02 -1.374258462130678993e+02 -1.399354658841042465e+02 -2.893418639579278988e+02 1.031454677965938913e+02 1.052920891337953861e+02 4.269170725472822170e+01 -4.283616592746609797e+01 -3.758088538939195900e+01 -1.854375111497472801e+02 1.475696721736364623e+02 -1.084767807950405114e+02 1.080131873438501344e+02 -1.607946757121124222e+02 -1.444990770911513245e+01 -5.592365354891110485e+01 -1.204317561578131688e+02 -4.655427577309639275e+01 -1.261595779562762054e+01 -9.358015410717911209e+01 -1.045332239698589518e+02 -1.247804536468975023e+01 7.191631976163724005e+01 -1.258861063132560929e+02 -1.582648681770641375e+01 -7.450260986004438735e+01 -1.327481223091825484e+02 6.737330312487434192e+00 9.614833346092240163e+01 1.672094503135182606e+02 -1.926938416889331407e+01 -4.653451761343002602e+01 -1.254368174434464009e+02 -1.652926208976604698e+02 1.048630733337923857e+02 -7.351694751093955915e+01 7.986045993766055062e+01 9.504770423869938867e+00 2.956497046574016707e+01 7.464984624246341127e+01 -8.565039988544074845e+01 8.356856761016541668e+01 1.165368539624607251e+02 1.591607498185106806e+02 -1.178720777230168864e+02 1.050935621494436134e+02 -4.829369033756061214e+01 -9.180469134064560421e+01 2.169517209560148672e+02 4.980355850994865818e+01 8.439861341180323961e+01 2.152250862642317131e+01 -6.389355806650029024e+01 -3.532770233541938154e+01 -2.127247389700576150e+02 1.068109045778295751e+02 8.241905944197289102e+01 -7.654782222687896365e+01 -7.397280530295479650e+01 1.468225514189420551e+02 1.021979749025493192e+02 5.168629217252966868e+01 7.693731797301805386e+01 -7.985596083188180039e+00 1.043550774634703231e+02 -1.046981884034562995e+02 1.884988775809468109e+02 -3.992617187862779815e+01 -1.233599705003759084e+02 -3.808938254327262030e+01 7.255250340091848216e+01 1.490011759197899153e+02 1.306689791193739225e+01 1.757802218152067439e+02 5.279454404721013816e+01 3.399417207997303336e+01 -1.125753733607080846e+02 4.531867692964540595e+01 -1.264489258103780998e+02 4.823087989411075682e+01 3.907657015277788304e+01 -1.247342238908987042e+02 -8.599582575712278754e+01 4.028497365886860848e+01 8.824693464956673949e+00 -2.349862281240321948e+01 4.232735881038939851e+01 -2.164064556557750407e+01 -6.380583845623521455e+01 -2.644376760605748444e+01 -2.271050653033756817e+01 -4.027992893450939960e+01 1.899171332614113794e+01 -8.140339787022918472e+01 1.202972710148034139e+02 -7.516863666862388982e+01 -4.333328216017451773e+00 6.626419247845228711e+01 3.942855534330708345e+00 1.612451125185568657e+01 1.613757722459189736e+01 -1.184605861609217214e+02 -4.468720088558278292e+00 6.578752067873281817e+01 -2.340499929388475664e+02 -8.580871377064684680e+01 -1.139957933396971583e+02 4.428280900616583438e+01 9.730646963472609912e+01 -9.277970389322533151e+01 -1.697752094989382101e+02 -1.872197228608683588e+02 2.019676907407204425e+01 -1.465514689100915859e+02 -6.388309124272768535e+00 1.491809901686426088e+02 -7.184450585298284508e+00 3.752683382176576288e+01 -9.988881993887736144e+01 8.057939088841168029e+01 -1.195882819772678971e+02 -1.553734590467092147e+01 -3.055867151813205851e+01 5.802071355428327593e+01 -8.947919361579554476e+00 1.064480977795409586e+02 -1.229019071648142045e+02 -5.041532115949323867e+01 8.710339002091754423e+01 6.655371141304475202e+01 -8.283946004584052503e+01 -5.470373450460266440e+01 -4.962207291281297472e+01 -2.908476071280487645e+02 1.944710414758517345e+02 7.646674187297081460e+01 -2.370669670199319157e+01 -2.978966289276533530e+01 4.169859091367165149e+01 -8.448370094228502580e+01 9.990213627990314649e+01 6.065823965453879651e+01 8.228017497371634192e+01 -8.435248596535213039e+01 -2.664531557707912768e+01 3.344228956599229008e+01 1.742785585880655930e+01 -4.292296719561818463e+01 1.582811039857739388e+02 -1.733336031086849616e+01 3.546200847033429682e+01 -2.302843685068451123e+02 -8.485343640831837320e+01 -7.330033082768849795e+01 2.305843414902122035e+01 1.093733514116884464e+02 -2.320541517976667194e+02 -1.873325541716744169e+02 2.220180490032442151e+02 -1.058602253313528330e+01 9.621997922780393253e+01 6.281334209683594594e+01 -5.545341894046602960e+01 -1.311995331709989614e+02 -9.530441320322708521e+01 -5.033800707804038410e+01 -3.749400746857135402e+01 -3.921374894683031442e+01 1.619600236834971341e+01 3.720003761825505961e+01 1.670606528075348933e+02 1.233795173024221157e+02 6.942142844654974887e+00 -4.392328816762183230e+00 -1.590277516745645130e+02 1.198241506840943202e+02 1.595554218697736246e+02 -1.035665504306304996e+02 7.383913482684647533e+01 1.771391572744073217e+00 5.497299953288138141e+01 1.256200939019529557e+02 7.104637031548071491e+01 -1.342240685950094701e+02 1.617141060784069495e+01 -2.943078022781165259e+01 1.115753001407735923e+01 -2.320418368232003914e+01 4.543223533243106971e+01 -2.610107892653190902e+02 1.815572742606313170e+02 7.327463439867398343e+00 1.597797802007412713e+02 -1.058523217134631800e+01 1.064537460561495550e+02 7.182317625213580925e+01 -4.212503907460803987e+01 2.998661115249855413e+01 -7.301711790723484796e+01 -8.925701198874165243e+01 -7.232120178905006469e+01 -3.216151367696652130e+01 4.534758362957478539e+01 1.105911593408292788e+02 2.860829644469171029e+01 6.234891248701141819e+01 -1.052508922886094211e+02 -1.377190850848269292e+02 -1.354260367300841139e+01 4.660909496625884429e+01 -4.571905391522584239e+01 9.497427488677693930e+01 5.577745160764487764e+01 -2.778302617672790120e+01 3.009581425396872234e+01 6.166878005006380192e+01 -7.247319479934309072e+01 -1.343951421992280757e+02 1.428140725468713583e+02 7.856491587504302210e+00 5.041477810592883202e+01 -1.501209717958653016e+02 -5.371087070516277606e+01 -4.657418595732718547e-01 -6.611845192634878288e+01 4.298387944270705141e+00 5.663515656211563964e+01 1.876319373636175669e+02 3.938163727160203820e+01 -1.103712683437028730e+01 7.269281987247074994e+01 -4.580093630219137424e+01 -1.097513535249200913e+02 -1.391990491851725267e+02 9.443273138682958034e+00 2.530202728907050869e+01 2.397796511603715786e+01 -5.732324967080462841e+01 1.217936091732233024e+02 -8.149588218507281567e+01 1.293891386624279676e+02 8.803361220907343920e+01 -6.559919668371018986e+01 -8.542683628232562398e+01 8.493632329736800557e+01 2.066166669142642931e+01 -5.296457081490593310e+01 -5.434275919915393871e+01 1.379511927746951869e+02 5.784359458591375613e+01 8.064617018332697285e+01 2.639929216338932605e+01 -4.249474644259524325e+01 1.085350947380699580e+02 -5.511454443152867810e+01 5.416922548199051279e-01 7.736290529807239125e+01 1.006253665156378219e+02 2.581758966357994041e+02 -1.770293995603199733e+02 1.626960318947331245e+02 -6.834320025603697957e+01 -1.539464898680904881e+01 -2.533999070364665940e+01 -2.097119291177073208e+01 -5.581767489657423909e+01 9.403828622209012167e+01 1.863053488581610679e+02 -1.202733575068753140e+02 3.132231410241751846e+01 -1.285415957443846082e+02 7.111584013397792603e+01 -4.509699925374592766e+01 -8.209810241473391557e+01 -5.463895271464014769e+01 4.176524184603466239e+01 1.967364387757005062e+01 -8.301102374517678584e+01 -1.432051600134682303e+02 2.109373019224980084e+01 1.600968542998506905e+02 1.451442078629843557e+01 1.854498654460997216e+02 7.588585969948986154e+00 1.368704424044283883e+02 -3.518667476154078599e+01 9.227473984511127014e+01 -7.269194126250920363e+01 -1.149081080362876293e+02 5.032243242051713139e+01 -5.907461760908314830e+01 -7.996635917268812932e+01 7.426779396073105488e+01 6.564405670847986762e+00 -9.610682587313382896e+01 -1.534683650534593653e+02 1.508077754172280152e+02 -9.095161808412379401e+01 -2.388257413775722870e+00 1.225273913011600371e+02 5.923365943933507083e+01 -1.002446335572515608e+02 1.084322805258451972e+01 2.880361953733358860e+02 5.447221324093533923e+01 -1.611688451313401913e+02 -4.875996314357453087e+01 -6.289433274806297192e+01 9.848675074811952257e+00 1.099842670048830513e+02 -1.058193316319521813e+02 2.205547642536954100e+01 1.335049991082921395e+02 1.921386207531991630e+01 -2.161852545638701599e+02 4.948170576840475121e+01 7.725586601664807063e+01 -1.389451895350060084e+01 3.357895353007972972e+01 1.381919841374680824e-01 2.302942971581844134e+01 2.839470075185187881e+01 1.185684589473356141e+02 1.003468268515613318e+02 1.591246763938801045e+01 1.525786751374731125e+02 -6.554824865770001452e+01 2.525369879309770056e+02 6.658040867890341019e+01 1.450839924732383679e+02 -2.250228656851097853e+01 9.222660866641031419e+01 -5.022162045948083886e+01 -1.499062772358418840e+02 2.682653313612750878e+01 9.738349900970717954e+01 -8.973916131140104824e+01 -1.072810191758741496e+02 -6.815456087192880830e+01 3.747994485160229772e+01 -1.170193016173575415e+02 7.655329560111827902e+01 2.876125578334453436e+01 -9.999657635227468688e+01 1.945894295800739542e+02 -1.205149873441676789e+01 -1.042351819603606344e+02 -1.370536548578195379e+01 -2.093554678993262996e+01 -1.436718601394293273e+02 -4.102027040045521034e+01 6.301073521243786502e+01 1.350056722995700795e+02 2.972878370720618335e+01 2.742628001489243061e+01 4.589069349070363302e+01 -3.663946563821581748e+01 -1.491696052244730311e+02 1.623918057149978011e+01 3.176050381627931785e+01 1.363696858561465888e+02 -1.018769445818940511e+01 -7.802126686065481920e+01 7.501596532110994531e+01 1.023783128496231321e+00 3.272901533134318441e+01 1.427311369847012941e+02 -1.819378242991597574e+02 -9.514687276912987102e+01 1.278152944108418154e+02 -2.148242948748194010e+02 -1.831293857624966108e+02 9.059929960421476380e+01 1.533414970094670764e+02 6.310987663779739165e+01 -4.427780045391681796e+00 1.551173944804041867e+02 -2.185499298987496104e+02 1.067013518172675077e+02 4.220131239572084070e+01 1.265387552114454621e+02 -1.877912672916450276e+02 1.061236256211944209e+02 -2.816651253211150774e+01 -1.331327266050396929e+02 -5.304108739181133458e+00 -9.201602457585285322e+01 -1.624878107553566764e+01 -4.262321335116997290e+00 -1.226681823132010720e+02 -1.227944002845767102e+02 -6.231124147086881493e+01 -1.283811133952654018e+02 2.001455111845014585e+02 -1.603355585165320463e+02 -4.995356362821679141e+01 1.718032390124383824e+02 3.378063447852295553e+01 -2.947246939312969971e+02 -1.265384725764043026e+02 3.537430753019402374e+01 5.441226911420401535e+01 8.569861282265497593e+00 -1.539755610178814607e+02 3.553593900641853054e+01 7.433017098141541545e+00 -7.401109612148181327e+01 2.018443404753759296e+02 2.017376132007894967e+02 4.311183079131393647e+00 -2.076377822660925290e+02 1.254553769137135362e+02 3.064228763777020603e+01 3.733920781625572172e+00 7.630616476560584260e+01 -2.065796397539254201e+02 -1.374502736381309944e+02 1.404444757515923072e+02 1.091725341122061508e+02 5.270876137067887157e+01 1.426202211509460938e+02 -1.775004619602524940e+02 -2.034401151370939687e+01 -1.298775539003012511e+02 4.339655120203914862e+01 -1.034184033992600007e+02 8.667093681898363400e+01 -3.372872364500673825e+01 1.232894242251037653e+01 1.766651248639049356e+02 2.836834357520005412e+01 -2.624361539079505405e+02 -1.258119645334250265e+02 -8.299699494183299464e+01 1.574245243420054976e+02 1.248043345110773927e+01 -5.357873415298222142e+01 3.025602561628657838e+01 6.225194972539632943e+01 -3.941449305890597543e+01 1.070512015471497449e+02 -1.003009863754983542e+02 4.900064311498532277e+01 1.114440194805744966e+02 -3.528726833883517600e+01 -9.770003209661783217e+01 -1.129226753338218714e+02 1.192414010437318126e+02 -4.944311017254313612e+01 1.957025793971112080e+02 5.695750298951247714e+01 1.104779757123226176e+02 1.836093995386427480e+02 8.524878130002967680e+00 -1.237370638958706479e+02 -1.650527721805166550e+02 -1.136990943974057018e+02 4.228703524395427138e+01
-1.324978220844382015e+01 -4.680651675878460871e+00 1.007252211698117037e+02 -2.227342491703169571e+02 1.511515879919825238e+02 6.178125073524432054e+01 1.479600552504406039e+02 -1.256085086741321533e+02 -2.707912322204122813e+00 -2.341547996936990472e+01 -2.134513460968815366e+02 3.183945218021993639e+01 -1.782242307511715040e+01 1.189343721639031628e+02 -1.216203647083673189e+02 6.001271335571088628e+01 1.218605422140558971e+02 -4.467945980198913247e+01 -4.829690849780006801e+01 -2.630703712520596582e+01 6.000456645021488811e+01 6.137936198087711404e+01 3.152328690436371161e+01 -2.261304843275189285e+02 -5.020367204814926509e+01 8.897608325578545418e+01 9.630527651622712071e+00 -1.006656982954820201e+01 -6.470264616029898264e+01 -1.503206737905723323e+01 7.131746863146078397e+01 -1.413990279437803679e+02 -6.019992919723542002e+01 8.746187352535624626e+00 2.017883790042056376e+02 2.061916701266310952e+02 -3.118770914917911341e+01 5.434457770573622071e+01 -2.680656071195363088e-01 -1.358086826784500261e+02 9.333453008783860128e+01 1.042814208868781378e+02 1.055238100911284107e+02 1.136989230351183977e+01 6.018831172305280575e+01 4.679620853526608926e+01 3.781205078911189332e+01 2.851637246768384060e+01 1.072418061602420778e+02 8.724324091459028807e+01 6.379114094950207914e+01 1.584744319510842274e+02 2.408344758358794309e+02 1.901668463189159297e+02 -5.749496832430178728e+01 4.790430131407828185e+01 -6.251547081261093552e+01 5.485812310676482895e+01 -1.868388362233108069e+02 5.493942833951948046e+01 -1.991155922296548795e+02 -1.640480021100546821e+02 1.258530883662151467e+01 -8.983891061022466928e+00 1.648551359857951866e+02 -2.021899917421966961e+02 7.320521792399709682e+01 2.234661522808682150e+02 -7.130430311268538546e+00 -1.893453253567764989e+02 3.460293625153685326e+01 1.917826547792315921e+02 -5.941830021147570307e+01 -2.591514021451520193e+02 -9.974333450173544691e+01 8.597794857241737532e+00 -2.237751004031458990e+02 3.114811628957943057e+01 -1.745527393024045182e+02 -1.805301890342449553e+02 -5.555762656338872318e+01 1.483470855292386261e+02 6.762656809315667772e+01 1.031945802834031944e+01 -8.624628254420159124e+01 -4.146462311418260782e+01 6.205009468805041450e+01 -2.259122735388249623e+02 5.267008077347065154e+01 -7.302272776434664081e+01 -7.604306186249841915e+01 -1.721396683368071763e+02 6.337271749753652017e+01 9.031929677145538449e+01 -1.580796036066022339e+02 1.682524020495815478e+02 -3.885967057350443810e+01 -1.647647128986113430e+01 8.529572991769853729e+01 1.522582006577125924e+02 2.112860910209167997e+01 1.475303845551001132e+02 -1.799249868271286346e+01 -8.836963146140038816e+01 -1.911334774213740317e+01 9.848578856981485785e+01 4.504790282842456151e+01 9.799324279683720818e+01 9.456209918344097787e+01 -8.319785245729059397e+01 -1.702107090496492390e+02 1.232750139883872436e+02 5.435228387151153839e+01 1.619798905681760814e+01 3.063593348250303805e+01 -6.805384600965192021e+01 9.622313749919710801e+01 9.001556787742060806e+01 -1.370436304722665533e+01 -7.138854345117560740e+01 3.082819080184995286e+01 6.288095261824805604e+00 -6.166725743452091990e+01 1.699297784657747457e+02 -3.303730474032898456e+01 1.218995080684386636e+02 -7.028699081525475378e+01 3.848411354636656512e+01 -3.620674550018325277e+01 8.970366446678582406e+01 2.355039746475186391e+01 1.159040262917006174e+02 -1.163342691711848857e+02 7.456657936672381481e+01 1.238680774860297191e+02 -4.485634516056699539e+01 7.614797735667391265e+00 -1.271752190709236174e+01 1.171686130639469212e+02 3.564841612180526642e+00 1.692691944034174867e+02 -1.419251794536444322e+02 1.171147187001050298e+02 -9.168752273108484019e+01 9.613373882212940202e+01 -1.376034490091622899e+02 2.964197761817868937e+01 2.484515807049863412e+01 1.823256059483555624e+00 3.647096512424870696e+01 4.611562982913500974e+01 -1.248304989662889497e+01 1.085815617026651481e+01 1.085904050467597841e+02 1.278633904631308127e+02 -8.709041524278509883e+01 -5.448297167789804263e+01 4.759935716941239292e+01 1.547638233166072741e+00 -1.376523453966929935e+02 -5.537652681145104339e+01 -3.564478281270515225e+01 4.918093038793990956e+01 -6.591737136171960287e+01 2.305805355165464121e+01 1.612822559079729388e+02 -7.993443922283825032e+01 8.127431416840869360e+01 8.460480742508097762e+01 1.130001763172479201e+01 1.242233030201106061e+02 6.329714889702591307e+01 1.691742054383064726e+02 -3.479014007399720043e+01 1.132567547912992438e+02 5.594330791016443527e+01 -1.619525476348772841e+01 2.056620976055756387e+02 -1.398767395899585608e+02 4.926543168279958707e+01 -1.890847475669300479e+02 -8.487623608721489177e+01 4.136902742865812854e+01 -7.282484072686285970e+01 -1.572010848626290169e+02 2.010908532126774162e+02 -8.655370789472860338e+01 -4.792399896369194323e+01 -4.670777023215489976e+01 1.228787173913925699e+02 1.966083009225186231e+02 6.536699172912464917e+01 1.476412375257471581e+02 2.215536487144480873e+02 -1.640976066349746354e+00 1.644831341800413611e+02 7.157681337401190547e+01 1.922442305517751038e+02 -1.270007628750485082e+02 -1.198557932712599161e+01 6.399025008951845450e+00 1.918083591984969871e+02 -9.178673289983316863e+01 -6.105920085200860115e+01 -5.346875239468950269e+01 -1.352679060640611510e+02 4.709145316956953486e+00 -1.019263637152465520e+02 1.556137248287887189e+02 2.380104811260185116e+01 1.212813249425235185e+01 7.301737550689736622e+01 -4.985676125005568338e+00 1.180967053463721612e+02 -1.604028791995587540e+02 4.584928003184282375e+01 -1.725268896462503960e+02 1.185764862355823226e+02 9.696616329830018799e+01 -6.797633840534282967e+01 4.722286871012153853e+01 2.404736448019246779e+02 -3.075351142017843387e+01 4.206882410097512803e+01 -3.299282661394251903e+01 5.850483969686390395e+01 6.491804558217616261e+01 -6.332972177557118165e+00 1.029223609139417590e+02 1.025038488805926846e+02 -1.957609281290541503e+02 -1.547304604992453392e+02 -1.209737998100851115e+02 -9.545062659556588613e+00 -1.512412630838841778e+02 1.166606301302144146e+02 1.114176162244544059e+02 5.953844417067948314e+01 1.126773497289267034e+01 1.591965877502835269e+02 8.476347896319587960e+01 6.813730997338529960e+01 -1.026057896930427376e+02 1.537867360649976831e+02 -3.610106035633391830e+00 1.103566778409280573e+02 8.898469953735455462e+00 3.708938264508429938e+01 -7.641315472182398594e+01 -9.159504202283856955e+01 7.224113371607263900e+01 -3.868650855705073610e+00 1.475834960565539689e+02 -1.268867159754612040e+01 -2.882817041372745859e+00 4.626258582189078084e+01 2.284295628867845807e+01 1.426523767364353716e+02 1.476087262038309689e+01 3.614792731736273623e+01 -1.560212004315546039e+02 6.640182423012423385e+01 1.347663657478748576e+02 -1.781571251228515962e+01 -2.298234643233846555e+02 8.505933815217774452e+01 1.370892552368358110e+02 2.044665291509512528e+01 1.901071406500202272e+02 -4.181181305193869768e+00 4.312095621863660000e+01 -4.379603637169134345e+01 -1.392699573848385342e+02 5.621842984293686385e+01 -4.764755911483516826e+01 -8.134273415758408987e+01 4.134814061597840862e+01 -1.853566888417355187e+02 7.192516745075700157e+01 1.648119588491758236e+02 -1.014740453220229739e+02 1.733495147478508045e+02 -9.786349615515273115e+01 -5.996206223687233106e+00 -1.053726227493756618e+01 7.672599734458638920e+01 -4.664143612845177245e+01 -1.079384613680971796e+02 -8.862745518924394617e+01 1.458833700891473200e+02 5.913690718124463785e+01 -1.317860266743010982e+02 4.441711130074546432e+00 4.343966763287752286e+01 8.255764065291160136e+01 -4.032398072132105682e+01 5.996543251544019171e+01 -6.893793599565404406e+01 -1.622693797891089389e+02 -3.461172852298988545e+01 1.408698041545567605e+02 -1.132683054264487055e+02 -6.412977677076781902e+00 -1.627481559038949968e+02 -4.773203036597151616e+00 -1.456987197099963680e+02 3.285479090707033833e+01 6.006688734358669990e+01 -5.025468518233292059e+01 -8.226174952049397859e+01 5.621545732493495429e+00 7.425671326675688988e+01 -6.763952806043199928e+01 1.344284864383087950e+02 1.052798200824872339e+02 -1.273502792637156773e+02 -1.051956974819957225e+02 1.347351207928142003e+02 7.114818378411384003e+01 1.497659398487229510e+02 9.990104103185895212e+01 8.091593689970245862e+01 -6.006488927480003781e+01 -8.149302936086596105e+01 -7.679403585423320067e+01 2.037281959443696167e+02 3.041615899897639963e+01 -2.479714529774293297e+01 -6.824288756490406627e+01 -4.978987491882955396e+01 -1.305988073787574990e+02 -1.641945153758462439e+01 -1.739985174529619769e+02 1.240029487649819799e+02 4.563562898136673596e+01 -1.142827912439855851e+02 -4.798256658892919546e+01 1.187472858709995052e+02 -9.616275713265935110e+01 1.019600446002649790e+02 -1.174543896551263913e+02 -1.166678782762594579e+01 -9.469171327412034600e+01 8.894659342612499131e+01 -4.211782863555927747e+01 1.023673451481291252e+01 2.907509423555377026e+01 -1.255557095106373708e+02 1.239306879622155222e+01 4.791092305677759100e+01 -2.220580657731578356e+01 -6.813766240556962828e+01 2.007128171788420161e+02 8.567548613415969783e+01 4.670904984680208116e+01 -3.113659938911637326e+01 7.951194358500011106e+01 1.660793418059441819e+02 -9.144381104975572327e+01 2.075456204345472315e+02 -1.318847334498659336e+02 -1.822466261314068561e+02 1.504567738006012974e+02 -2.318044520780934192e+02 -9.820191685643355761e-01 -2.426665238430739748e+02 -1.515105638702138435e+02 7.109459850525956881e+01 -1.442918898028359251e+02 5.784308778122351669e+01 1.088800457847447802e+02 -1.588917984222670725e+02 -2.985563494874611479e+01 7.470451844670058961e+01 1.326875238269536794e+02 -1.843630079079731274e+02 8.665215004405712307e+01 -9.704535893162923799e+01 -9.782197476026228244e+00 -1.375633435996552656e+01 -7.884306556691925039e+01 -8.947433770970282296e+01 1.796824653208192899e+02 -2.147701933011075326e+01 1.320946528099631756e+00 1.290321084255690778e+02 -8.589867335049531505e+01 -3.411666387983787274e+01 -1.067053331946756316e+02 -4.841632849061532085e+01 5.134890766082606639e+00 5.888867432618740594e+01 -1.340297558309879662e+02 2.354514347537357537e+02 -5.353518761108217205e+01 1.218776441368097636e+02 -4.852540336589262893e+01 1.190850006192764994e+02 1.382959006285120154e+02 4.773333991222639838e+01 1.214452681173220441e+02 -4.299765788653239440e+01 1.392455819589834221e+02 -1.556590649104998363e+02 -6.506964948260355186e+01 -6.266662743390662627e+01 2.541161660439076897e+01 -1.615374535948751884e+02 7.221307040820194345e+01 -3.069434431387064421e+01 -8.226161134561954213e+01 8.919709236111644657e+01 -1.504142419920089822e+02 -9.080016637921471556e+01 -5.236846416366245194e+01 3.293361279559999844e+01 1.292393249133709787e+02 1.163454860868872203e+02 6.881915784084334575e+01 -1.597985899111655117e+00 1.740762094502709658e+02 1.219748600171461135e+02 -9.401218610702287037e+01 -7.780207908340803158e+01 5.514116840817398213e+01 9.938209705555300033e+00 9.753160617455611714e+01 1.659104335298463582e+02 7.025888924164830485e+01 2.427922240090836326e+01 -1.017159711884645219e+02 1.709975597656999469e+02 -1.131387496734821667e+02 -1.644808329586334992e+02 6.539657456244331968e+01 1.109279437093761373e+02 1.953151385488980907e+01 -1.381334737158419728e+02 2.958039487638883358e+01 4.220380797450702914e+01 -3.177546102324037558e-01 1.302094332906637817e+02 9.706761892047175877e+01 1.701073281846286989e+01 7.790119017388487066e+01 -1.064043779738596527e+02 -6.276328101245901792e+00 9.775303498775545563e+01 2.950849234185962189e+01 -6.464580074992714742e+01 1.968311065000841040e+02 2.296859977361052074e+02 -1.247419601619537843e+02 -2.743386356660161596e+01 -2.088752406277233717e+02 -7.171829875302809398e+01 1.555989016077005829e+02 3.382443089850839080e+00 -7.051772720091342705e+01 1.627081389331980290e+02 -6.209501505625505757e+01 -1.595126276395419893e+02 1.356186637677134570e+02 -6.675567039775508249e+01 3.422106815976386684e+01 8.575214224424011888e+01 1.368217824594790955e+01 -2.365279113169210916e+02 4.198689623733140053e+01 -6.089562821944757509e+00 8.943047144022567352e+01 -2.339042329024966449e+01 1.004196314333465949e+02 1.684418057019854231e+01 -8.413320163376927496e+01 -2.032528688633324165e+01 -1.739279789081279546e+02 1.141409028160562684e+02 2.508320679633726513e+01 -4.131950633883459290e+01 -5.142683193740509040e+01 -6.240607098038916689e+01 4.079628833238285779e+01 1.594887829607768026e+02 1.317107116621375553e+02 4.274705718996684567e+01 -1.963795249937346341e+02 -3.850250889136680144e+01 4.348357830222952458e+01 1.164639803500304254e+02 8.657340319442032239e+01 1.533862782252135482e+01 -1.846457646188112278e+02 1.307295140987087336e+02 -2.220833447715646400e+02 -2.042705121350055038e+02 -1.833388101142191751e+00 -7.322435170083070943e+01 -2.390251958129858068e+01 8.647888170153284193e+01 5.550407438927639703e+01 -1.103792790805813695e+02 -1.503152259281987710e+02 1.448540822540094553e+01 1.227672763636725790e+02 2.054944133983071453e+01 -5.628641769995068245e+01 -5.123068860668737301e+01 -1.168599605669976071e+01 1.601688505873548536e+02 2.220843766246297335e+01 -1.754639069240186871e+02 1.296163084678128428e+02 -6.749174482957053556e+01 -4.219581692753020086e+00 1.555967842473780820e+02 -5.285230194077473698e+01 -1.978570776575257284e+01 -1.109946527488724684e+02 -6.071800865313950801e+00 -2.410757158914650233e+01 1.330857929147713890e+02 1.213473250532166077e+02 6.828636486561013896e+01 6.609684909917140772e+01 -1.890828555832035818e+01 1.366317612145180078e+02 -1.139245780430541970e+02 -4.307960505319082145e+00 -9.200333639330479230e+01 1.587816357156484628e+02 7.370613853851773456e+01 5.223603386310372798e+01 8.365135683558117208e+00 -5.383381763910033158e+01 3.474170058626634727e+01 6.822052845345277561e+00 3.637308719390661693e+00 2.436850388869371997e+01 6.039601100616846452e+01 1.720155059500819448e+02 -3.922807375628539717e+01 -5.252703731051985159e+01 6.747295572928277352e+01 1.168654523735431781e+02 -1.294043450675921036e+01 9.286723872655215928e+01 1.050967872717791636e+02 2.129083701195530409e+02 -8.743250832272957496e+01 -1.239453648950758975e+02 -2.892775483253223001e+01 6.276971750858084675e+01 -1.024933641184686017e+01 1.085001110062676588e+02 3.760695161659209163e+01 -1.642550084097329659e+02 4.550963894034615009e+01 -9.034563867659944947e+01 -1.366315587870240904e+02 1.358160092606649414e+02 -7.675946194364783537e+01 5.971251938544133253e+01 1.122700281542168028e+02 -9.997393769562629018e+01 2.369359611433302248e+01 -7.282154639534076068e+01 4.063162634939678952e+01 -1.156325871769091691e+02 6.212615455971671707e+01 5.515552126896643159e+01 3.958677441138118258e+00 8.481132979010983775e+01 -1.542713160373855885e+02 7.704148014766886376e+01 -2.950055702596336715e+01 -1.691779264670420275e+02 9.460671992086739124e+01 2.455376097390314882e+01 -1.964400035887819058e+02 2.355713434258815653e+02 -5.313710664738695577e-01 1.053192136132877295e+02 -1.207689144656900879e+02 -1.944725942400345389e+02 -9.344566792464004834e+01 2.478245508786173890e+00 1.431034747706008829e+02 4.015899827522416032e+00 -9.570007553844494907e+01 5.048026689817855583e+01 1.372363120918860204e+02 6.507865718346798189e+01 -5.181985311712394804e+01 -5.922156040120149356e+01 8.462595567169040578e+01 3.079689647066179603e+01 -1.958161807989435772e+02 -2.076271983643306385e+01 1.692732370514210629e+02 9.897332674797125662e+01 -5.739909923502709432e+01 -1.119597873600722693e+02 -4.274123863793943912e+01 -4.814736159457803666e+01 -1.146113643242866544e+02 -1.851307220862202385e+01 -4.572724979319766447e+01 -1.137728326935771577e+02 -1.320621703220487859e+02 -2.696284806527046740e+01 -1.258342871449213902e+02 -1.339642631345864459e+02 -3.838466179248224108e+01 -5.543140250921752710e+01 -1.111500245300640159e+02 1.931483177971649354e+02 1.092724406106957069e+01 -2.919319320141374163e+01 -1.765003561737802684e+01 8.162460303185102362e+01 1.622456992446904778e+01 2.598972294420406470e+01 -2.209307080163905468e+01 -4.796496812597317216e+01 2.170770378777153198e+01 -1.508264739729565065e+02 -1.651851888498653693e+02 -9.383907309840333255e+01 -1.980207130915100038e+02 -9.299596367408648234e+01 8.903707823768931462e+01 6.368949265170627427e+01 -2.704439399637332642e+01 6.305538160868987063e+01 -1.624379006090683788e+02 -4.234870825287770657e+01 -1.204922024626885388e+02 -6.926442469851517103e+01 2.188635034548419185e+02 -2.130066317975395975e+02 2.129874999550150392e+02 2.594093575556636821e+01 -5.860306922654599759e+01 9.572587067752229473e+01 1.287519113922441250e+02 -5.384320577945051411e+01 -2.113857996095152316e+02 -1.547078849087061485e+02 1.061121493587691162e+02 8.691341971191329208e+01 -1.406891465208938428e+02 3.316434235221747429e+01 -4.115307391769903234e+01 -8.031177956236243176e+01 -2.949302498036512077e+01 -5.689431412036562108e+01 -8.969706459285943367e+01 -3.531314623008217524e+01 4.639460319581337977e+00 -3.394556005837799262e+01 -4.147179092694290303e-01 -1.490621559330230461e+01 9.544668367847036450e+01 1.318591527531282281e+02 1.366602998365573463e+01 1.741871043089008353e+01 -6.547694476844031897e+01 -2.033920061862621083e+02 3.512872741450750880e+01 -9.519088473888903934e+01 2.679849967370756758e+01 -8.498284072906901798e+00 1.050085885007405739e+00 7.497650863884078376e+01 1.264632880634839438e+02 -7.310951817380205853e+01 3.942864178058349012e+01 -2.000865837098600650e+02 1.003010118763955028e+01 7.272558816129720327e+00 -1.271568686383083957e+02 -3.499907672628303601e+01 -4.599485832943847896e+01 4.953179509250427159e+00 -1.061017992536782515e+02 2.807499372366581625e+01 -1.013273833026161839e+02 5.823858594515129994e+01 7.039451022709609163e+01 3.826437956681596830e+01 -3.011009931405314788e+01 1.114819111457892120e+02 6.335615638309872821e+01 8.299123393774932822e+01 -6.949620538004586479e+01 2.106392906568153123e+01 1.326679712710758849e+02 -6.064701470166487951e+01 -7.169388885877199691e+00 3.318241996512635694e+01 -1.331631781303978812e+02 1.014492232925881723e+02 9.288695929764003267e+01 -1.048603357151689295e+02 -8.538928141566009344e+01 -5.755996157386488221e+01 -4.721986811074763324e+01 -1.661539824521018716e+02 -1.409012889290898158e+02 -1.373040301800830605e+02 1.095086601537572619e+02 6.193728707829146884e+01 1.652928428122123989e+02 7.454338011817716492e+00 -8.884551277798811952e+01 1.940038602803958057e+01 1.433019583364339944e+01 -6.577526263099498749e+01 7.669367427532631609e+01 1.222676858011641627e+02 1.035342462156147647e+01 1.485064653718969510e+02 2.331215134412387968e+01 1.148821861417110739e+02 1.563365720075811005e+01 -2.150862570723980127e+02 2.260394972512864342e+02 -5.065122196926395048e+01 -1.543437548997341366e+02 -6.953318871415864066e+01 -4.442622029304366293e+01 4.259023761295478749e+01 2.634718334760637148e+01 4.707896207894545881e+01 -7.627952117204183935e+01 1.259055944335706840e+02 -8.872799592545936775e+01 -7.209093953589114534e+00 1.464772268985907431e+02 1.126894288291271948e+02 5.959191335576333159e+01 -1.818517712384361573e+02 2.611987129858752255e+01 1.441700811925872188e+02 2.405727707438591878e+01 1.001242208416337149e+02 1.091589969264858411e+02 -2.167200711784538782e+02 7.883662547963901090e+01 -5.917429032229942010e+01 -2.303509244595525161e+02 9.058715569775203846e+01 2.514134147015482057e+01 -1.242739504212911044e+02 -5.956031885979912488e+01 1.409912322726379443e+02 1.496276741796787633e+02 -7.679398108525172972e+01 -1.293063276716800942e+02 -8.433931540696202944e+01 -1.674814935307147721e+02 1.973223741992177338e+01 3.821752815230541955e+01 -1.705660795797574636e+01 -1.244961471398790032e+01 -8.994516256930187126e+01 -8.874647827386549181e+01 -2.472500727843468482e+01 1.339615393404114911e+02 1.361702815074190198e+02 8.101663541965760373e+01 9.686260389091536638e+01 -7.835393622026343508e+01 -1.798071327490212639e+02 -1.317416401337002441e+01 -2.304545919276348798e+01 -7.056822996562715389e+01 1.490910384675794287e+00 7.261621227162849834e+01 -5.259512130928554541e+01 2.447795616116041373e+01 7.867848961112795791e+01 6.965257080662058797e+01 1.098207941801406804e+02 -1.482409247003091650e+02 3.939169153685691072e+01 8.278350306398665737e+01 9.415783789918324942e+01 5.869980809052704274e+01 -1.025846510045014810e+02 1.360697488686433303e+02 1.266471393817958102e+02 9.522520293175274730e+01 1.008850381849619708e+02 -8.369310579392445959e+01 -1.478026781600472894e+01 -1.284151009395867504e+01 7.657445116770225013e+01 6.455439205149859561e+01 5.560579480234358130e+01 9.696850372551783437e+01 1.157322863007408245e+02 1.230815174197029478e+02 -6.450314133491028201e+01 8.008160718631607722e+01 6.483572688177785892e+01 -1.169114018976122651e+02 1.307695174212717006e+02 -9.978076839108851459e+00 -2.774367256585152219e+01 1.980579819349141530e+02 8.793793273436075708e+01 1.233703427669708930e+02 -1.435094873983073853e+02 -1.569071064159917057e+02 -1.529297059085383239e+02 -1.215382995558003927e+02 -4.406046324165735228e+01 1.092887300359766840e+02 -1.678673558394226575e+02 3.238873747171162165e+01 1.437395503256848031e+02 -5.909963060123997991e+01 -9.099997834854352163e+01 -3.498115410825236893e+01 1.354141215462059904e+02 2.265576977075789387e+02 -6.642963593348173390e+01 1.975436644875537340e+01 -2.762250128115227454e+01 6.830502160096963848e+01 6.011102554571759526e+01 -2.127188395743458784e+02 -8.846176478370639984e+01 1.372818947353435419e+02 1.395224218111810046e+02 9.435976128252083583e+01 -4.971466534338005516e+01 -7.568689248265609137e+01 -4.534477850519044750e+01 -1.762708224418857412e+02 7.106857092542567500e+01 -2.564216093256163020e+01 1.661962214356341008e+02 -2.789495510829729596e+01 -3.142552539482295515e+02 1.447576987934506008e+02 5.026931372988291002e+01 -1.178898055601029853e+02 -2.212607039279141929e+01 3.529526881729606913e+01 -2.075697463095758621e+02 -1.142407863676632758e+02 -1.095531366188093756e+02 -5.642599859028801745e+01 6.279738065461623364e+01 -1.647913392925349569e+02 1.079270807195442359e+02 -5.431276829363486769e+01 2.907812971739414110e+00 -1.334254908625449332e+02 -1.036028115081484771e+02 1.758917574475355821e+02 8.668325841208725535e+01 -4.224945243544355122e+01 3.719392153405249957e+01 -2.807350614218777451e+01 4.324724920725118693e+01 -1.046793863317116688e+02 9.889980180387082953e+01 5.055026292799268361e+01 -1.190023821468024465e+02 1.168573038093847600e+02 -4.918804913101141807e+01 1.000108093872479742e+02 -4.946173228693880475e+01 8.848641263219028019e+01 -1.535893741175175933e+02 1.428699479093008051e+02 2.480461202163601087e+01 1.007755724775015551e+02 1.305960570273851147e+02 -1.468637706504400171e+02 -8.602891622839325692e+01 -1.057989317870606101e+02 6.699189529172031143e+01 -1.716426719117876871e+02 1.517495425203264006e+02 1.426645806002313748e+02 5.308721667642705455e+01 -8.506307454485850883e+01 5.716875733577845864e+01 -1.075175271188849706e+02 -1.098008672284513665e+01 3.506461369493558067e+01 -1.841495914392328928e+02 -8.178138986698625956e+01 -1.356679790298262311e+01 1.024594054044821121e+02 -5.033008198386870902e+01 1.089763000955828858e+02 -6.451049142077931720e+01 -2.113887915715867223e+02 -1.073963915241783553e+02 -3.417833190787626307e+01 -6.036905827642791422e+01 3.019185009083686921e+01 5.153252200912978509e+01 6.371698331250575720e+00 2.538299861317745965e+01 -1.176864780976120670e+02 5.401351095658750978e+01 3.274167690245847240e+01 -7.244768126716942902e+01 9.291886826197089277e+00 5.652393551883208289e+01 -9.577835621849922632e+01 -5.528740836864120212e+01 -2.423467359006970767e+01 9.799512187363380633e+01 -1.719904578498585934e+01 4.210510595018966740e+00 -2.290189539527787588e+02 -9.545257372700466192e+01 9.936012708425711537e+01 -8.963425756510839904e+01 3.148134329688867439e+01 3.120708802460250553e+01 3.811572233270223364e+01 6.638959929411241490e+01 -1.782821730015696176e+02 1.446419842839248417e+02 8.185427150404748886e+01 -7.548604112425252310e+00 -8.119482973684357319e+01 1.124651407344231160e+02 6.239649046219799544e+01 -2.020696523843255648e+02 -5.063575467147828135e+01 -8.208911282001695042e+01 -5.210417592279761578e+01 -6.225358590654791868e+01 -9.955876035166448901e+01 -6.067729032491566699e+01 1.924551353044736004e+02 -1.716586628081226422e+02 6.582069734758755430e+01 2.788362146836178468e+01 -7.556194549489366352e+01 1.043431607762970081e+01 -3.961758827125419913e+01 3.443946145526134650e+00 -9.662907244342790136e+01 -1.985838432812633130e+02 1.848964887822687686e+01 4.213663625220576847e+01 -1.286726007269138528e+01 -9.075830331592683820e+00 -3.999302165270719200e+01 -1.909510650998028893e+02 -3.081746419487869915e+01 -6.572102764510987072e+01 1.404765481361323687e+01 -1.569418594054254967e+01 9.103867865875712084e+01 -6.337879555369791973e+01 -1.042727437758550195e+02 -3.594706231245168482e+01 -9.068103104861872765e+00 4.576700626070563516e+01 -2.226862571629249743e+01 -7.414277741798196075e+01 -1.596158211003568539e+01 2.018260979478229800e+01 4.777263357388144982e+01 -1.146683379677959493e+02 -1.398341319850718492e+02 2.316726426738410964e+02 -2.195431765708565592e+02 -7.640055670250551145e+01 -4.661946167920663697e+01 1.406892158881325372e+02 6.365785291154343639e+01 2.302208683093585933e+02 2.462079029908177858e+02 -6.270501534115988562e+01 1.302535862105237641e+02 -5.628290129408521381e+01 -4.105509316573632361e+01 -1.012607473787262791e+02 -8.032734983927943517e+01 -6.999741014877352541e+01 -8.953182769129621477e+01 -2.452550865922333969e+02 -2.725268342942839581e+02 1.355216885985863939e+02 -2.668931048761362490e+01 5.358999839739031046e+01 1.316628418256534019e+02
