# 
#                 ----------------------------------------------------
#                 Data from a 3D direct N-body simulation. 
# 
#                 rows are i-particle; 
#                 coumns are :mass, tag, x ,y, z, vx, vy, vz, ax, ay, az
# 
#                 NTHU, Computational Physics Lab
# 
#                 ----------------------------------------------------
#                 Time = 6.999999999999895
1.000000000000000000e+00 2.000000000000000000e+00 3.000000000000000000e+00 4.000000000000000000e+00 5.000000000000000000e+00 6.000000000000000000e+00 7.000000000000000000e+00 8.000000000000000000e+00 9.000000000000000000e+00 1.000000000000000000e+01 1.100000000000000000e+01 1.200000000000000000e+01 1.300000000000000000e+01 1.400000000000000000e+01 1.500000000000000000e+01 1.600000000000000000e+01 1.700000000000000000e+01 1.800000000000000000e+01 1.900000000000000000e+01 2.000000000000000000e+01 2.100000000000000000e+01 2.200000000000000000e+01 2.300000000000000000e+01 2.400000000000000000e+01 2.500000000000000000e+01 2.600000000000000000e+01 2.700000000000000000e+01 2.800000000000000000e+01 2.900000000000000000e+01 3.000000000000000000e+01 3.100000000000000000e+01 3.200000000000000000e+01 3.300000000000000000e+01 3.400000000000000000e+01 3.500000000000000000e+01 3.600000000000000000e+01 3.700000000000000000e+01 3.800000000000000000e+01 3.900000000000000000e+01 4.000000000000000000e+01 4.100000000000000000e+01 4.200000000000000000e+01 4.300000000000000000e+01 4.400000000000000000e+01 4.500000000000000000e+01 4.600000000000000000e+01 4.700000000000000000e+01 4.800000000000000000e+01 4.900000000000000000e+01 5.000000000000000000e+01 5.100000000000000000e+01 5.200000000000000000e+01 5.300000000000000000e+01 5.400000000000000000e+01 5.500000000000000000e+01 5.600000000000000000e+01 5.700000000000000000e+01 5.800000000000000000e+01 5.900000000000000000e+01 6.000000000000000000e+01 6.100000000000000000e+01 6.200000000000000000e+01 6.300000000000000000e+01 6.400000000000000000e+01 6.500000000000000000e+01 6.600000000000000000e+01 6.700000000000000000e+01 6.800000000000000000e+01 6.900000000000000000e+01 7.000000000000000000e+01 7.100000000000000000e+01 7.200000000000000000e+01 7.300000000000000000e+01 7.400000000000000000e+01 7.500000000000000000e+01 7.600000000000000000e+01 7.700000000000000000e+01 7.800000000000000000e+01 7.900000000000000000e+01 8.000000000000000000e+01 8.100000000000000000e+01 8.200000000000000000e+01 8.300000000000000000e+01 8.400000000000000000e+01 8.500000000000000000e+01 8.600000000000000000e+01 8.700000000000000000e+01 8.800000000000000000e+01 8.900000000000000000e+01 9.000000000000000000e+01 9.100000000000000000e+01 9.200000000000000000e+01 9.300000000000000000e+01 9.400000000000000000e+01 9.500000000000000000e+01 9.600000000000000000e+01 9.700000000000000000e+01 9.800000000000000000e+01 9.900000000000000000e+01 1.000000000000000000e+02 1.010000000000000000e+02 1.020000000000000000e+02 1.030000000000000000e+02 1.040000000000000000e+02 1.050000000000000000e+02 1.060000000000000000e+02 1.070000000000000000e+02 1.080000000000000000e+02 1.090000000000000000e+02 1.100000000000000000e+02 1.110000000000000000e+02 1.120000000000000000e+02 1.130000000000000000e+02 1.140000000000000000e+02 1.150000000000000000e+02 1.160000000000000000e+02 1.170000000000000000e+02 1.180000000000000000e+02 1.190000000000000000e+02 1.200000000000000000e+02 1.210000000000000000e+02 1.220000000000000000e+02 1.230000000000000000e+02 1.240000000000000000e+02 1.250000000000000000e+02 1.260000000000000000e+02 1.270000000000000000e+02 1.280000000000000000e+02 1.290000000000000000e+02 1.300000000000000000e+02 1.310000000000000000e+02 1.320000000000000000e+02 1.330000000000000000e+02 1.340000000000000000e+02 1.350000000000000000e+02 1.360000000000000000e+02 1.370000000000000000e+02 1.380000000000000000e+02 1.390000000000000000e+02 1.400000000000000000e+02 1.410000000000000000e+02 1.420000000000000000e+02 1.430000000000000000e+02 1.440000000000000000e+02 1.450000000000000000e+02 1.460000000000000000e+02 1.470000000000000000e+02 1.480000000000000000e+02 1.490000000000000000e+02 1.500000000000000000e+02 1.510000000000000000e+02 1.520000000000000000e+02 1.530000000000000000e+02 1.540000000000000000e+02 1.550000000000000000e+02 1.560000000000000000e+02 1.570000000000000000e+02 1.580000000000000000e+02 1.590000000000000000e+02 1.600000000000000000e+02 1.610000000000000000e+02 1.620000000000000000e+02 1.630000000000000000e+02 1.640000000000000000e+02 1.650000000000000000e+02 1.660000000000000000e+02 1.670000000000000000e+02 1.680000000000000000e+02 1.690000000000000000e+02 1.700000000000000000e+02 1.710000000000000000e+02 1.720000000000000000e+02 1.730000000000000000e+02 1.740000000000000000e+02 1.750000000000000000e+02 1.760000000000000000e+02 1.770000000000000000e+02 1.780000000000000000e+02 1.790000000000000000e+02 1.800000000000000000e+02 1.810000000000000000e+02 1.820000000000000000e+02 1.830000000000000000e+02 1.840000000000000000e+02 1.850000000000000000e+02 1.860000000000000000e+02 1.870000000000000000e+02 1.880000000000000000e+02 1.890000000000000000e+02 1.900000000000000000e+02 1.910000000000000000e+02 1.920000000000000000e+02 1.930000000000000000e+02 1.940000000000000000e+02 1.950000000000000000e+02 1.960000000000000000e+02 1.970000000000000000e+02 1.980000000000000000e+02 1.990000000000000000e+02 2.000000000000000000e+02 2.010000000000000000e+02 2.020000000000000000e+02 2.030000000000000000e+02 2.040000000000000000e+02 2.050000000000000000e+02 2.060000000000000000e+02 2.070000000000000000e+02 2.080000000000000000e+02 2.090000000000000000e+02 2.100000000000000000e+02 2.110000000000000000e+02 2.120000000000000000e+02 2.130000000000000000e+02 2.140000000000000000e+02 2.150000000000000000e+02 2.160000000000000000e+02 2.170000000000000000e+02 2.180000000000000000e+02 2.190000000000000000e+02 2.200000000000000000e+02 2.210000000000000000e+02 2.220000000000000000e+02 2.230000000000000000e+02 2.240000000000000000e+02 2.250000000000000000e+02 2.260000000000000000e+02 2.270000000000000000e+02 2.280000000000000000e+02 2.290000000000000000e+02 2.300000000000000000e+02 2.310000000000000000e+02 2.320000000000000000e+02 2.330000000000000000e+02 2.340000000000000000e+02 2.350000000000000000e+02 2.360000000000000000e+02 2.370000000000000000e+02 2.380000000000000000e+02 2.390000000000000000e+02 2.400000000000000000e+02 2.410000000000000000e+02 2.420000000000000000e+02 2.430000000000000000e+02 2.440000000000000000e+02 2.450000000000000000e+02 2.460000000000000000e+02 2.470000000000000000e+02 2.480000000000000000e+02 2.490000000000000000e+02 2.500000000000000000e+02 2.510000000000000000e+02 2.520000000000000000e+02 2.530000000000000000e+02 2.540000000000000000e+02 2.550000000000000000e+02 2.560000000000000000e+02 2.570000000000000000e+02 2.580000000000000000e+02 2.590000000000000000e+02 2.600000000000000000e+02 2.610000000000000000e+02 2.620000000000000000e+02 2.630000000000000000e+02 2.640000000000000000e+02 2.650000000000000000e+02 2.660000000000000000e+02 2.670000000000000000e+02 2.680000000000000000e+02 2.690000000000000000e+02 2.700000000000000000e+02 2.710000000000000000e+02 2.720000000000000000e+02 2.730000000000000000e+02 2.740000000000000000e+02 2.750000000000000000e+02 2.760000000000000000e+02 2.770000000000000000e+02 2.780000000000000000e+02 2.790000000000000000e+02 2.800000000000000000e+02 2.810000000000000000e+02 2.820000000000000000e+02 2.830000000000000000e+02 2.840000000000000000e+02 2.850000000000000000e+02 2.860000000000000000e+02 2.870000000000000000e+02 2.880000000000000000e+02 2.890000000000000000e+02 2.900000000000000000e+02 2.910000000000000000e+02 2.920000000000000000e+02 2.930000000000000000e+02 2.940000000000000000e+02 2.950000000000000000e+02 2.960000000000000000e+02 2.970000000000000000e+02 2.980000000000000000e+02 2.990000000000000000e+02 3.000000000000000000e+02 3.010000000000000000e+02 3.020000000000000000e+02 3.030000000000000000e+02 3.040000000000000000e+02 3.050000000000000000e+02 3.060000000000000000e+02 3.070000000000000000e+02 3.080000000000000000e+02 3.090000000000000000e+02 3.100000000000000000e+02 3.110000000000000000e+02 3.120000000000000000e+02 3.130000000000000000e+02 3.140000000000000000e+02 3.150000000000000000e+02 3.160000000000000000e+02 3.170000000000000000e+02 3.180000000000000000e+02 3.190000000000000000e+02 3.200000000000000000e+02 3.210000000000000000e+02 3.220000000000000000e+02 3.230000000000000000e+02 3.240000000000000000e+02 3.250000000000000000e+02 3.260000000000000000e+02 3.270000000000000000e+02 3.280000000000000000e+02 3.290000000000000000e+02 3.300000000000000000e+02 3.310000000000000000e+02 3.320000000000000000e+02 3.330000000000000000e+02 3.340000000000000000e+02 3.350000000000000000e+02 3.360000000000000000e+02 3.370000000000000000e+02 3.380000000000000000e+02 3.390000000000000000e+02 3.400000000000000000e+02 3.410000000000000000e+02 3.420000000000000000e+02 3.430000000000000000e+02 3.440000000000000000e+02 3.450000000000000000e+02 3.460000000000000000e+02 3.470000000000000000e+02 3.480000000000000000e+02 3.490000000000000000e+02 3.500000000000000000e+02 3.510000000000000000e+02 3.520000000000000000e+02 3.530000000000000000e+02 3.540000000000000000e+02 3.550000000000000000e+02 3.560000000000000000e+02 3.570000000000000000e+02 3.580000000000000000e+02 3.590000000000000000e+02 3.600000000000000000e+02 3.610000000000000000e+02 3.620000000000000000e+02 3.630000000000000000e+02 3.640000000000000000e+02 3.650000000000000000e+02 3.660000000000000000e+02 3.670000000000000000e+02 3.680000000000000000e+02 3.690000000000000000e+02 3.700000000000000000e+02 3.710000000000000000e+02 3.720000000000000000e+02 3.730000000000000000e+02 3.740000000000000000e+02 3.750000000000000000e+02 3.760000000000000000e+02 3.770000000000000000e+02 3.780000000000000000e+02 3.790000000000000000e+02 3.800000000000000000e+02 3.810000000000000000e+02 3.820000000000000000e+02 3.830000000000000000e+02 3.840000000000000000e+02 3.850000000000000000e+02 3.860000000000000000e+02 3.870000000000000000e+02 3.880000000000000000e+02 3.890000000000000000e+02 3.900000000000000000e+02 3.910000000000000000e+02 3.920000000000000000e+02 3.930000000000000000e+02 3.940000000000000000e+02 3.950000000000000000e+02 3.960000000000000000e+02 3.970000000000000000e+02 3.980000000000000000e+02 3.990000000000000000e+02 4.000000000000000000e+02 4.010000000000000000e+02 4.020000000000000000e+02 4.030000000000000000e+02 4.040000000000000000e+02 4.050000000000000000e+02 4.060000000000000000e+02 4.070000000000000000e+02 4.080000000000000000e+02 4.090000000000000000e+02 4.100000000000000000e+02 4.110000000000000000e+02 4.120000000000000000e+02 4.130000000000000000e+02 4.140000000000000000e+02 4.150000000000000000e+02 4.160000000000000000e+02 4.170000000000000000e+02 4.180000000000000000e+02 4.190000000000000000e+02 4.200000000000000000e+02 4.210000000000000000e+02 4.220000000000000000e+02 4.230000000000000000e+02 4.240000000000000000e+02 4.250000000000000000e+02 4.260000000000000000e+02 4.270000000000000000e+02 4.280000000000000000e+02 4.290000000000000000e+02 4.300000000000000000e+02 4.310000000000000000e+02 4.320000000000000000e+02 4.330000000000000000e+02 4.340000000000000000e+02 4.350000000000000000e+02 4.360000000000000000e+02 4.370000000000000000e+02 4.380000000000000000e+02 4.390000000000000000e+02 4.400000000000000000e+02 4.410000000000000000e+02 4.420000000000000000e+02 4.430000000000000000e+02 4.440000000000000000e+02 4.450000000000000000e+02 4.460000000000000000e+02 4.470000000000000000e+02 4.480000000000000000e+02 4.490000000000000000e+02 4.500000000000000000e+02 4.510000000000000000e+02 4.520000000000000000e+02 4.530000000000000000e+02 4.540000000000000000e+02 4.550000000000000000e+02 4.560000000000000000e+02 4.570000000000000000e+02 4.580000000000000000e+02 4.590000000000000000e+02 4.600000000000000000e+02 4.610000000000000000e+02 4.620000000000000000e+02 4.630000000000000000e+02 4.640000000000000000e+02 4.650000000000000000e+02 4.660000000000000000e+02 4.670000000000000000e+02 4.680000000000000000e+02 4.690000000000000000e+02 4.700000000000000000e+02 4.710000000000000000e+02 4.720000000000000000e+02 4.730000000000000000e+02 4.740000000000000000e+02 4.750000000000000000e+02 4.760000000000000000e+02 4.770000000000000000e+02 4.780000000000000000e+02 4.790000000000000000e+02 4.800000000000000000e+02 4.810000000000000000e+02 4.820000000000000000e+02 4.830000000000000000e+02 4.840000000000000000e+02 4.850000000000000000e+02 4.860000000000000000e+02 4.870000000000000000e+02 4.880000000000000000e+02 4.890000000000000000e+02 4.900000000000000000e+02 4.910000000000000000e+02 4.920000000000000000e+02 4.930000000000000000e+02 4.940000000000000000e+02 4.950000000000000000e+02 4.960000000000000000e+02 4.970000000000000000e+02 4.980000000000000000e+02 4.990000000000000000e+02 5.000000000000000000e+02 5.010000000000000000e+02 5.020000000000000000e+02 5.030000000000000000e+02 5.040000000000000000e+02 5.050000000000000000e+02 5.060000000000000000e+02 5.070000000000000000e+02 5.080000000000000000e+02 5.090000000000000000e+02 5.100000000000000000e+02 5.110000000000000000e+02 5.120000000000000000e+02 5.130000000000000000e+02 5.140000000000000000e+02 5.150000000000000000e+02 5.160000000000000000e+02 5.170000000000000000e+02 5.180000000000000000e+02 5.190000000000000000e+02 5.200000000000000000e+02 5.210000000000000000e+02 5.220000000000000000e+02 5.230000000000000000e+02 5.240000000000000000e+02 5.250000000000000000e+02 5.260000000000000000e+02 5.270000000000000000e+02 5.280000000000000000e+02 5.290000000000000000e+02 5.300000000000000000e+02 5.310000000000000000e+02 5.320000000000000000e+02 5.330000000000000000e+02 5.340000000000000000e+02 5.350000000000000000e+02 5.360000000000000000e+02 5.370000000000000000e+02 5.380000000000000000e+02 5.390000000000000000e+02 5.400000000000000000e+02 5.410000000000000000e+02 5.420000000000000000e+02 5.430000000000000000e+02 5.440000000000000000e+02 5.450000000000000000e+02 5.460000000000000000e+02 5.470000000000000000e+02 5.480000000000000000e+02 5.490000000000000000e+02 5.500000000000000000e+02 5.510000000000000000e+02 5.520000000000000000e+02 5.530000000000000000e+02 5.540000000000000000e+02 5.550000000000000000e+02 5.560000000000000000e+02 5.570000000000000000e+02 5.580000000000000000e+02 5.590000000000000000e+02 5.600000000000000000e+02 5.610000000000000000e+02 5.620000000000000000e+02 5.630000000000000000e+02 5.640000000000000000e+02 5.650000000000000000e+02 5.660000000000000000e+02 5.670000000000000000e+02 5.680000000000000000e+02 5.690000000000000000e+02 5.700000000000000000e+02 5.710000000000000000e+02 5.720000000000000000e+02 5.730000000000000000e+02 5.740000000000000000e+02 5.750000000000000000e+02 5.760000000000000000e+02 5.770000000000000000e+02 5.780000000000000000e+02 5.790000000000000000e+02 5.800000000000000000e+02 5.810000000000000000e+02 5.820000000000000000e+02 5.830000000000000000e+02 5.840000000000000000e+02 5.850000000000000000e+02 5.860000000000000000e+02 5.870000000000000000e+02 5.880000000000000000e+02 5.890000000000000000e+02 5.900000000000000000e+02 5.910000000000000000e+02 5.920000000000000000e+02 5.930000000000000000e+02 5.940000000000000000e+02 5.950000000000000000e+02 5.960000000000000000e+02 5.970000000000000000e+02 5.980000000000000000e+02 5.990000000000000000e+02 6.000000000000000000e+02 6.010000000000000000e+02 6.020000000000000000e+02 6.030000000000000000e+02 6.040000000000000000e+02 6.050000000000000000e+02 6.060000000000000000e+02 6.070000000000000000e+02 6.080000000000000000e+02 6.090000000000000000e+02 6.100000000000000000e+02 6.110000000000000000e+02 6.120000000000000000e+02 6.130000000000000000e+02 6.140000000000000000e+02 6.150000000000000000e+02 6.160000000000000000e+02 6.170000000000000000e+02 6.180000000000000000e+02 6.190000000000000000e+02 6.200000000000000000e+02 6.210000000000000000e+02 6.220000000000000000e+02 6.230000000000000000e+02 6.240000000000000000e+02 6.250000000000000000e+02 6.260000000000000000e+02 6.270000000000000000e+02 6.280000000000000000e+02 6.290000000000000000e+02 6.300000000000000000e+02 6.310000000000000000e+02 6.320000000000000000e+02 6.330000000000000000e+02 6.340000000000000000e+02 6.350000000000000000e+02 6.360000000000000000e+02 6.370000000000000000e+02 6.380000000000000000e+02 6.390000000000000000e+02 6.400000000000000000e+02 6.410000000000000000e+02 6.420000000000000000e+02 6.430000000000000000e+02 6.440000000000000000e+02 6.450000000000000000e+02 6.460000000000000000e+02 6.470000000000000000e+02 6.480000000000000000e+02 6.490000000000000000e+02 6.500000000000000000e+02 6.510000000000000000e+02 6.520000000000000000e+02 6.530000000000000000e+02 6.540000000000000000e+02 6.550000000000000000e+02 6.560000000000000000e+02 6.570000000000000000e+02 6.580000000000000000e+02 6.590000000000000000e+02 6.600000000000000000e+02 6.610000000000000000e+02 6.620000000000000000e+02 6.630000000000000000e+02 6.640000000000000000e+02 6.650000000000000000e+02 6.660000000000000000e+02 6.670000000000000000e+02 6.680000000000000000e+02 6.690000000000000000e+02 6.700000000000000000e+02 6.710000000000000000e+02 6.720000000000000000e+02 6.730000000000000000e+02 6.740000000000000000e+02 6.750000000000000000e+02 6.760000000000000000e+02 6.770000000000000000e+02 6.780000000000000000e+02 6.790000000000000000e+02 6.800000000000000000e+02 6.810000000000000000e+02 6.820000000000000000e+02 6.830000000000000000e+02 6.840000000000000000e+02 6.850000000000000000e+02 6.860000000000000000e+02 6.870000000000000000e+02 6.880000000000000000e+02 6.890000000000000000e+02 6.900000000000000000e+02 6.910000000000000000e+02 6.920000000000000000e+02 6.930000000000000000e+02 6.940000000000000000e+02 6.950000000000000000e+02 6.960000000000000000e+02 6.970000000000000000e+02 6.980000000000000000e+02 6.990000000000000000e+02 7.000000000000000000e+02 7.010000000000000000e+02 7.020000000000000000e+02 7.030000000000000000e+02 7.040000000000000000e+02 7.050000000000000000e+02 7.060000000000000000e+02 7.070000000000000000e+02 7.080000000000000000e+02 7.090000000000000000e+02 7.100000000000000000e+02 7.110000000000000000e+02 7.120000000000000000e+02 7.130000000000000000e+02 7.140000000000000000e+02 7.150000000000000000e+02 7.160000000000000000e+02 7.170000000000000000e+02 7.180000000000000000e+02 7.190000000000000000e+02 7.200000000000000000e+02 7.210000000000000000e+02 7.220000000000000000e+02 7.230000000000000000e+02 7.240000000000000000e+02 7.250000000000000000e+02 7.260000000000000000e+02 7.270000000000000000e+02 7.280000000000000000e+02 7.290000000000000000e+02 7.300000000000000000e+02 7.310000000000000000e+02 7.320000000000000000e+02 7.330000000000000000e+02 7.340000000000000000e+02 7.350000000000000000e+02 7.360000000000000000e+02 7.370000000000000000e+02 7.380000000000000000e+02 7.390000000000000000e+02 7.400000000000000000e+02 7.410000000000000000e+02 7.420000000000000000e+02 7.430000000000000000e+02 7.440000000000000000e+02 7.450000000000000000e+02 7.460000000000000000e+02 7.470000000000000000e+02 7.480000000000000000e+02 7.490000000000000000e+02 7.500000000000000000e+02 7.510000000000000000e+02 7.520000000000000000e+02 7.530000000000000000e+02 7.540000000000000000e+02 7.550000000000000000e+02 7.560000000000000000e+02 7.570000000000000000e+02 7.580000000000000000e+02 7.590000000000000000e+02 7.600000000000000000e+02 7.610000000000000000e+02 7.620000000000000000e+02 7.630000000000000000e+02 7.640000000000000000e+02 7.650000000000000000e+02 7.660000000000000000e+02 7.670000000000000000e+02 7.680000000000000000e+02 7.690000000000000000e+02 7.700000000000000000e+02 7.710000000000000000e+02 7.720000000000000000e+02 7.730000000000000000e+02 7.740000000000000000e+02 7.750000000000000000e+02 7.760000000000000000e+02 7.770000000000000000e+02 7.780000000000000000e+02 7.790000000000000000e+02 7.800000000000000000e+02 7.810000000000000000e+02 7.820000000000000000e+02 7.830000000000000000e+02 7.840000000000000000e+02 7.850000000000000000e+02 7.860000000000000000e+02 7.870000000000000000e+02 7.880000000000000000e+02 7.890000000000000000e+02 7.900000000000000000e+02 7.910000000000000000e+02 7.920000000000000000e+02 7.930000000000000000e+02 7.940000000000000000e+02 7.950000000000000000e+02 7.960000000000000000e+02 7.970000000000000000e+02 7.980000000000000000e+02 7.990000000000000000e+02 8.000000000000000000e+02 8.010000000000000000e+02 8.020000000000000000e+02 8.030000000000000000e+02 8.040000000000000000e+02 8.050000000000000000e+02 8.060000000000000000e+02 8.070000000000000000e+02 8.080000000000000000e+02 8.090000000000000000e+02 8.100000000000000000e+02 8.110000000000000000e+02 8.120000000000000000e+02 8.130000000000000000e+02 8.140000000000000000e+02 8.150000000000000000e+02 8.160000000000000000e+02 8.170000000000000000e+02 8.180000000000000000e+02 8.190000000000000000e+02 8.200000000000000000e+02 8.210000000000000000e+02 8.220000000000000000e+02 8.230000000000000000e+02 8.240000000000000000e+02 8.250000000000000000e+02 8.260000000000000000e+02 8.270000000000000000e+02 8.280000000000000000e+02 8.290000000000000000e+02 8.300000000000000000e+02 8.310000000000000000e+02 8.320000000000000000e+02 8.330000000000000000e+02 8.340000000000000000e+02 8.350000000000000000e+02 8.360000000000000000e+02 8.370000000000000000e+02 8.380000000000000000e+02 8.390000000000000000e+02 8.400000000000000000e+02 8.410000000000000000e+02 8.420000000000000000e+02 8.430000000000000000e+02 8.440000000000000000e+02 8.450000000000000000e+02 8.460000000000000000e+02 8.470000000000000000e+02 8.480000000000000000e+02 8.490000000000000000e+02 8.500000000000000000e+02 8.510000000000000000e+02 8.520000000000000000e+02 8.530000000000000000e+02 8.540000000000000000e+02 8.550000000000000000e+02 8.560000000000000000e+02 8.570000000000000000e+02 8.580000000000000000e+02 8.590000000000000000e+02 8.600000000000000000e+02 8.610000000000000000e+02 8.620000000000000000e+02 8.630000000000000000e+02 8.640000000000000000e+02 8.650000000000000000e+02 8.660000000000000000e+02 8.670000000000000000e+02 8.680000000000000000e+02 8.690000000000000000e+02 8.700000000000000000e+02 8.710000000000000000e+02 8.720000000000000000e+02 8.730000000000000000e+02 8.740000000000000000e+02 8.750000000000000000e+02 8.760000000000000000e+02 8.770000000000000000e+02 8.780000000000000000e+02 8.790000000000000000e+02 8.800000000000000000e+02 8.810000000000000000e+02 8.820000000000000000e+02 8.830000000000000000e+02 8.840000000000000000e+02 8.850000000000000000e+02 8.860000000000000000e+02 8.870000000000000000e+02 8.880000000000000000e+02 8.890000000000000000e+02 8.900000000000000000e+02 8.910000000000000000e+02 8.920000000000000000e+02 8.930000000000000000e+02 8.940000000000000000e+02 8.950000000000000000e+02 8.960000000000000000e+02 8.970000000000000000e+02 8.980000000000000000e+02 8.990000000000000000e+02 9.000000000000000000e+02 9.010000000000000000e+02 9.020000000000000000e+02 9.030000000000000000e+02 9.040000000000000000e+02 9.050000000000000000e+02 9.060000000000000000e+02 9.070000000000000000e+02 9.080000000000000000e+02 9.090000000000000000e+02 9.100000000000000000e+02 9.110000000000000000e+02 9.120000000000000000e+02 9.130000000000000000e+02 9.140000000000000000e+02 9.150000000000000000e+02 9.160000000000000000e+02 9.170000000000000000e+02 9.180000000000000000e+02 9.190000000000000000e+02 9.200000000000000000e+02 9.210000000000000000e+02 9.220000000000000000e+02 9.230000000000000000e+02 9.240000000000000000e+02 9.250000000000000000e+02 9.260000000000000000e+02 9.270000000000000000e+02 9.280000000000000000e+02 9.290000000000000000e+02 9.300000000000000000e+02 9.310000000000000000e+02 9.320000000000000000e+02 9.330000000000000000e+02 9.340000000000000000e+02 9.350000000000000000e+02 9.360000000000000000e+02 9.370000000000000000e+02 9.380000000000000000e+02 9.390000000000000000e+02 9.400000000000000000e+02 9.410000000000000000e+02 9.420000000000000000e+02 9.430000000000000000e+02 9.440000000000000000e+02 9.450000000000000000e+02 9.460000000000000000e+02 9.470000000000000000e+02 9.480000000000000000e+02 9.490000000000000000e+02 9.500000000000000000e+02 9.510000000000000000e+02 9.520000000000000000e+02 9.530000000000000000e+02 9.540000000000000000e+02 9.550000000000000000e+02 9.560000000000000000e+02 9.570000000000000000e+02 9.580000000000000000e+02 9.590000000000000000e+02 9.600000000000000000e+02 9.610000000000000000e+02 9.620000000000000000e+02 9.630000000000000000e+02 9.640000000000000000e+02 9.650000000000000000e+02 9.660000000000000000e+02 9.670000000000000000e+02 9.680000000000000000e+02 9.690000000000000000e+02 9.700000000000000000e+02 9.710000000000000000e+02 9.720000000000000000e+02 9.730000000000000000e+02 9.740000000000000000e+02 9.750000000000000000e+02 9.760000000000000000e+02 9.770000000000000000e+02 9.780000000000000000e+02 9.790000000000000000e+02 9.800000000000000000e+02 9.810000000000000000e+02 9.820000000000000000e+02 9.830000000000000000e+02 9.840000000000000000e+02 9.850000000000000000e+02 9.860000000000000000e+02 9.870000000000000000e+02 9.880000000000000000e+02 9.890000000000000000e+02 9.900000000000000000e+02 9.910000000000000000e+02 9.920000000000000000e+02 9.930000000000000000e+02 9.940000000000000000e+02 9.950000000000000000e+02 9.960000000000000000e+02 9.970000000000000000e+02 9.980000000000000000e+02 9.990000000000000000e+02 1.000000000000000000e+03
1.000000000000000021e-02 1.000000000000000021e-02 1.000000000000000021e-02 1.000000000000000021e-02 1.000000000000000021e-02 1.000000000000000021e-02 1.000000000000000021e-02 1.000000000000000021e-02 1.000000000000000021e-02 1.000000000000000021e-02 1.000000000000000021e-02 1.000000000000000021e-02 1.000000000000000021e-02 1.000000000000000021e-02 1.000000000000000021e-02 1.000000000000000021e-02 1.000000000000000021e-02 1.000000000000000021e-02 1.000000000000000021e-02 1.000000000000000021e-02 1.000000000000000021e-02 1.000000000000000021e-02 1.000000000000000021e-02 1.000000000000000021e-02 1.000000000000000021e-02 1.000000000000000021e-02 1.000000000000000021e-02 1.000000000000000021e-02 1.000000000000000021e-02 1.000000000000000021e-02 1.000000000000000021e-02 1.000000000000000021e-02 1.000000000000000021e-02 1.000000000000000021e-02 1.000000000000000021e-02 1.000000000000000021e-02 1.000000000000000021e-02 1.000000000000000021e-02 1.000000000000000021e-02 1.000000000000000021e-02 1.000000000000000021e-02 1.000000000000000021e-02 1.000000000000000021e-02 1.000000000000000021e-02 1.000000000000000021e-02 1.000000000000000021e-02 1.000000000000000021e-02 1.000000000000000021e-02 1.000000000000000021e-02 1.000000000000000021e-02 1.000000000000000021e-02 1.000000000000000021e-02 1.000000000000000021e-02 1.000000000000000021e-02 1.000000000000000021e-02 1.000000000000000021e-02 1.000000000000000021e-02 1.000000000000000021e-02 1.000000000000000021e-02 1.000000000000000021e-02 1.000000000000000021e-02 1.000000000000000021e-02 1.000000000000000021e-02 1.000000000000000021e-02 1.000000000000000021e-02 1.000000000000000021e-02 1.000000000000000021e-02 1.000000000000000021e-02 1.000000000000000021e-02 1.000000000000000021e-02 1.000000000000000021e-02 1.000000000000000021e-02 1.000000000000000021e-02 1.000000000000000021e-02 1.000000000000000021e-02 1.000000000000000021e-02 1.000000000000000021e-02 1.000000000000000021e-02 1.000000000000000021e-02 1.000000000000000021e-02 1.000000000000000021e-02 1.000000000000000021e-02 1.000000000000000021e-02 1.000000000000000021e-02 1.000000000000000021e-02 1.000000000000000021e-02 1.000000000000000021e-02 1.000000000000000021e-02 1.000000000000000021e-02 1.000000000000000021e-02 1.000000000000000021e-02 1.000000000000000021e-02 1.000000000000000021e-02 1.000000000000000021e-02 1.000000000000000021e-02 1.000000000000000021e-02 1.000000000000000021e-02 1.000000000000000021e-02 1.000000000000000021e-02 1.000000000000000021e-02 1.000000000000000021e-02 1.000000000000000021e-02 1.000000000000000021e-02 1.000000000000000021e-02 1.000000000000000021e-02 1.000000000000000021e-02 1.000000000000000021e-02 1.000000000000000021e-02 1.000000000000000021e-02 1.000000000000000021e-02 1.000000000000000021e-02 1.000000000000000021e-02 1.000000000000000021e-02 1.000000000000000021e-02 1.000000000000000021e-02 1.000000000000000021e-02 1.000000000000000021e-02 1.000000000000000021e-02 1.000000000000000021e-02 1.000000000000000021e-02 1.000000000000000021e-02 1.000000000000000021e-02 1.000000000000000021e-02 1.000000000000000021e-02 1.000000000000000021e-02 1.000000000000000021e-02 1.000000000000000021e-02 1.000000000000000021e-02 1.000000000000000021e-02 1.000000000000000021e-02 1.000000000000000021e-02 1.000000000000000021e-02 1.000000000000000021e-02 1.000000000000000021e-02 1.000000000000000021e-02 1.000000000000000021e-02 1.000000000000000021e-02 1.000000000000000021e-02 1.000000000000000021e-02 1.000000000000000021e-02 1.000000000000000021e-02 1.000000000000000021e-02 1.000000000000000021e-02 1.000000000000000021e-02 1.000000000000000021e-02 1.000000000000000021e-02 1.000000000000000021e-02 1.000000000000000021e-02 1.000000000000000021e-02 1.000000000000000021e-02 1.000000000000000021e-02 1.000000000000000021e-02 1.000000000000000021e-02 1.000000000000000021e-02 1.000000000000000021e-02 1.000000000000000021e-02 1.000000000000000021e-02 1.000000000000000021e-02 1.000000000000000021e-02 1.000000000000000021e-02 1.000000000000000021e-02 1.000000000000000021e-02 1.000000000000000021e-02 1.000000000000000021e-02 1.000000000000000021e-02 1.000000000000000021e-02 1.000000000000000021e-02 1.000000000000000021e-02 1.000000000000000021e-02 1.000000000000000021e-02 1.000000000000000021e-02 1.000000000000000021e-02 1.000000000000000021e-02 1.000000000000000021e-02 1.000000000000000021e-02 1.000000000000000021e-02 1.000000000000000021e-02 1.000000000000000021e-02 1.000000000000000021e-02 1.000000000000000021e-02 1.000000000000000021e-02 1.000000000000000021e-02 1.000000000000000021e-02 1.000000000000000021e-02 1.000000000000000021e-02 1.000000000000000021e-02 1.000000000000000021e-02 1.000000000000000021e-02 1.000000000000000021e-02 1.000000000000000021e-02 1.000000000000000021e-02 1.000000000000000021e-02 1.000000000000000021e-02 1.000000000000000021e-02 1.000000000000000021e-02 1.000000000000000021e-02 1.000000000000000021e-02 1.000000000000000021e-02 1.000000000000000021e-02 1.000000000000000021e-02 1.000000000000000021e-02 1.000000000000000021e-02 1.000000000000000021e-02 1.000000000000000021e-02 1.000000000000000021e-02 1.000000000000000021e-02 1.000000000000000021e-02 1.000000000000000021e-02 1.000000000000000021e-02 1.000000000000000021e-02 1.000000000000000021e-02 1.000000000000000021e-02 1.000000000000000021e-02 1.000000000000000021e-02 1.000000000000000021e-02 1.000000000000000021e-02 1.000000000000000021e-02 1.000000000000000021e-02 1.000000000000000021e-02 1.000000000000000021e-02 1.000000000000000021e-02 1.000000000000000021e-02 1.000000000000000021e-02 1.000000000000000021e-02 1.000000000000000021e-02 1.000000000000000021e-02 1.000000000000000021e-02 1.000000000000000021e-02 1.000000000000000021e-02 1.000000000000000021e-02 1.000000000000000021e-02 1.000000000000000021e-02 1.000000000000000021e-02 1.000000000000000021e-02 1.000000000000000021e-02 1.000000000000000021e-02 1.000000000000000021e-02 1.000000000000000021e-02 1.000000000000000021e-02 1.000000000000000021e-02 1.000000000000000021e-02 1.000000000000000021e-02 1.000000000000000021e-02 1.000000000000000021e-02 1.000000000000000021e-02 1.000000000000000021e-02 1.000000000000000021e-02 1.000000000000000021e-02 1.000000000000000021e-02 1.000000000000000021e-02 1.000000000000000021e-02 1.000000000000000021e-02 1.000000000000000021e-02 1.000000000000000021e-02 1.000000000000000021e-02 1.000000000000000021e-02 1.000000000000000021e-02 1.000000000000000021e-02 1.000000000000000021e-02 1.000000000000000021e-02 1.000000000000000021e-02 1.000000000000000021e-02 1.000000000000000021e-02 1.000000000000000021e-02 1.000000000000000021e-02 1.000000000000000021e-02 1.000000000000000021e-02 1.000000000000000021e-02 1.000000000000000021e-02 1.000000000000000021e-02 1.000000000000000021e-02 1.000000000000000021e-02 1.000000000000000021e-02 1.000000000000000021e-02 1.000000000000000021e-02 1.000000000000000021e-02 1.000000000000000021e-02 1.000000000000000021e-02 1.000000000000000021e-02 1.000000000000000021e-02 1.000000000000000021e-02 1.000000000000000021e-02 1.000000000000000021e-02 1.000000000000000021e-02 1.000000000000000021e-02 1.000000000000000021e-02 1.000000000000000021e-02 1.000000000000000021e-02 1.000000000000000021e-02 1.000000000000000021e-02 1.000000000000000021e-02 1.000000000000000021e-02 1.000000000000000021e-02 1.000000000000000021e-02 1.000000000000000021e-02 1.000000000000000021e-02 1.000000000000000021e-02 1.000000000000000021e-02 1.000000000000000021e-02 1.000000000000000021e-02 1.000000000000000021e-02 1.000000000000000021e-02 1.000000000000000021e-02 1.000000000000000021e-02 1.000000000000000021e-02 1.000000000000000021e-02 1.000000000000000021e-02 1.000000000000000021e-02 1.000000000000000021e-02 1.000000000000000021e-02 1.000000000000000021e-02 1.000000000000000021e-02 1.000000000000000021e-02 1.000000000000000021e-02 1.000000000000000021e-02 1.000000000000000021e-02 1.000000000000000021e-02 1.000000000000000021e-02 1.000000000000000021e-02 1.000000000000000021e-02 1.000000000000000021e-02 1.000000000000000021e-02 1.000000000000000021e-02 1.000000000000000021e-02 1.000000000000000021e-02 1.000000000000000021e-02 1.000000000000000021e-02 1.000000000000000021e-02 1.000000000000000021e-02 1.000000000000000021e-02 1.000000000000000021e-02 1.000000000000000021e-02 1.000000000000000021e-02 1.000000000000000021e-02 1.000000000000000021e-02 1.000000000000000021e-02 1.000000000000000021e-02 1.000000000000000021e-02 1.000000000000000021e-02 1.000000000000000021e-02 1.000000000000000021e-02 1.000000000000000021e-02 1.000000000000000021e-02 1.000000000000000021e-02 1.000000000000000021e-02 1.000000000000000021e-02 1.000000000000000021e-02 1.000000000000000021e-02 1.000000000000000021e-02 1.000000000000000021e-02 1.000000000000000021e-02 1.000000000000000021e-02 1.000000000000000021e-02 1.000000000000000021e-02 1.000000000000000021e-02 1.000000000000000021e-02 1.000000000000000021e-02 1.000000000000000021e-02 1.000000000000000021e-02 1.000000000000000021e-02 1.000000000000000021e-02 1.000000000000000021e-02 1.000000000000000021e-02 1.000000000000000021e-02 1.000000000000000021e-02 1.000000000000000021e-02 1.000000000000000021e-02 1.000000000000000021e-02 1.000000000000000021e-02 1.000000000000000021e-02 1.000000000000000021e-02 1.000000000000000021e-02 1.000000000000000021e-02 1.000000000000000021e-02 1.000000000000000021e-02 1.000000000000000021e-02 1.000000000000000021e-02 1.000000000000000021e-02 1.000000000000000021e-02 1.000000000000000021e-02 1.000000000000000021e-02 1.000000000000000021e-02 1.000000000000000021e-02 1.000000000000000021e-02 1.000000000000000021e-02 1.000000000000000021e-02 1.000000000000000021e-02 1.000000000000000021e-02 1.000000000000000021e-02 1.000000000000000021e-02 1.000000000000000021e-02 1.000000000000000021e-02 1.000000000000000021e-02 1.000000000000000021e-02 1.000000000000000021e-02 1.000000000000000021e-02 1.000000000000000021e-02 1.000000000000000021e-02 1.000000000000000021e-02 1.000000000000000021e-02 1.000000000000000021e-02 1.000000000000000021e-02 1.000000000000000021e-02 1.000000000000000021e-02 1.000000000000000021e-02 1.000000000000000021e-02 1.000000000000000021e-02 1.000000000000000021e-02 1.000000000000000021e-02 1.000000000000000021e-02 1.000000000000000021e-02 1.000000000000000021e-02 1.000000000000000021e-02 1.000000000000000021e-02 1.000000000000000021e-02 1.000000000000000021e-02 1.000000000000000021e-02 1.000000000000000021e-02 1.000000000000000021e-02 1.000000000000000021e-02 1.000000000000000021e-02 1.000000000000000021e-02 1.000000000000000021e-02 1.000000000000000021e-02 1.000000000000000021e-02 1.000000000000000021e-02 1.000000000000000021e-02 1.000000000000000021e-02 1.000000000000000021e-02 1.000000000000000021e-02 1.000000000000000021e-02 1.000000000000000021e-02 1.000000000000000021e-02 1.000000000000000021e-02 1.000000000000000021e-02 1.000000000000000021e-02 1.000000000000000021e-02 1.000000000000000021e-02 1.000000000000000021e-02 1.000000000000000021e-02 1.000000000000000021e-02 1.000000000000000021e-02 1.000000000000000021e-02 1.000000000000000021e-02 1.000000000000000021e-02 1.000000000000000021e-02 1.000000000000000021e-02 1.000000000000000021e-02 1.000000000000000021e-02 1.000000000000000021e-02 1.000000000000000021e-02 1.000000000000000021e-02 1.000000000000000021e-02 1.000000000000000021e-02 1.000000000000000021e-02 1.000000000000000021e-02 1.000000000000000021e-02 1.000000000000000021e-02 1.000000000000000021e-02 1.000000000000000021e-02 1.000000000000000021e-02 1.000000000000000021e-02 1.000000000000000021e-02 1.000000000000000021e-02 1.000000000000000021e-02 1.000000000000000021e-02 1.000000000000000021e-02 1.000000000000000021e-02 1.000000000000000021e-02 1.000000000000000021e-02 1.000000000000000021e-02 1.000000000000000021e-02 1.000000000000000021e-02 1.000000000000000021e-02 1.000000000000000021e-02 1.000000000000000021e-02 1.000000000000000021e-02 1.000000000000000021e-02 1.000000000000000021e-02 1.000000000000000021e-02 1.000000000000000021e-02 1.000000000000000021e-02 1.000000000000000021e-02 1.000000000000000021e-02 1.000000000000000021e-02 1.000000000000000021e-02 1.000000000000000021e-02 1.000000000000000021e-02 1.000000000000000021e-02 1.000000000000000021e-02 1.000000000000000021e-02 1.000000000000000021e-02 1.000000000000000021e-02 1.000000000000000021e-02 1.000000000000000021e-02 1.000000000000000021e-02 1.000000000000000021e-02 1.000000000000000021e-02 1.000000000000000021e-02 1.000000000000000021e-02 1.000000000000000021e-02 1.000000000000000021e-02 1.000000000000000021e-02 1.000000000000000021e-02 1.000000000000000021e-02 1.000000000000000021e-02 1.000000000000000021e-02 1.000000000000000021e-02 1.000000000000000021e-02 1.000000000000000021e-02 1.000000000000000021e-02 1.000000000000000021e-02 1.000000000000000021e-02 1.000000000000000021e-02 1.000000000000000021e-02 1.000000000000000021e-02 1.000000000000000021e-02 1.000000000000000021e-02 1.000000000000000021e-02 1.000000000000000021e-02 1.000000000000000021e-02 1.000000000000000021e-02 1.000000000000000021e-02 1.000000000000000021e-02 1.000000000000000021e-02 1.000000000000000021e-02 1.000000000000000021e-02 1.000000000000000021e-02 1.000000000000000021e-02 1.000000000000000021e-02 1.000000000000000021e-02 1.000000000000000021e-02 1.000000000000000021e-02 1.000000000000000021e-02 1.000000000000000021e-02 1.000000000000000021e-02 1.000000000000000021e-02 1.000000000000000021e-02 1.000000000000000021e-02 1.000000000000000021e-02 1.000000000000000021e-02 1.000000000000000021e-02 1.000000000000000021e-02 1.000000000000000021e-02 1.000000000000000021e-02 1.000000000000000021e-02 1.000000000000000021e-02 1.000000000000000021e-02 1.000000000000000021e-02 1.000000000000000021e-02 1.000000000000000021e-02 1.000000000000000021e-02 1.000000000000000021e-02 1.000000000000000021e-02 1.000000000000000021e-02 1.000000000000000021e-02 1.000000000000000021e-02 1.000000000000000021e-02 1.000000000000000021e-02 1.000000000000000021e-02 1.000000000000000021e-02 1.000000000000000021e-02 1.000000000000000021e-02 1.000000000000000021e-02 1.000000000000000021e-02 1.000000000000000021e-02 1.000000000000000021e-02 1.000000000000000021e-02 1.000000000000000021e-02 1.000000000000000021e-02 1.000000000000000021e-02 1.000000000000000021e-02 1.000000000000000021e-02 1.000000000000000021e-02 1.000000000000000021e-02 1.000000000000000021e-02 1.000000000000000021e-02 1.000000000000000021e-02 1.000000000000000021e-02 1.000000000000000021e-02 1.000000000000000021e-02 1.000000000000000021e-02 1.000000000000000021e-02 1.000000000000000021e-02 1.000000000000000021e-02 1.000000000000000021e-02 1.000000000000000021e-02 1.000000000000000021e-02 1.000000000000000021e-02 1.000000000000000021e-02 1.000000000000000021e-02 1.000000000000000021e-02 1.000000000000000021e-02 1.000000000000000021e-02 1.000000000000000021e-02 1.000000000000000021e-02 1.000000000000000021e-02 1.000000000000000021e-02 1.000000000000000021e-02 1.000000000000000021e-02 1.000000000000000021e-02 1.000000000000000021e-02 1.000000000000000021e-02 1.000000000000000021e-02 1.000000000000000021e-02 1.000000000000000021e-02 1.000000000000000021e-02 1.000000000000000021e-02 1.000000000000000021e-02 1.000000000000000021e-02 1.000000000000000021e-02 1.000000000000000021e-02 1.000000000000000021e-02 1.000000000000000021e-02 1.000000000000000021e-02 1.000000000000000021e-02 1.000000000000000021e-02 1.000000000000000021e-02 1.000000000000000021e-02 1.000000000000000021e-02 1.000000000000000021e-02 1.000000000000000021e-02 1.000000000000000021e-02 1.000000000000000021e-02 1.000000000000000021e-02 1.000000000000000021e-02 1.000000000000000021e-02 1.000000000000000021e-02 1.000000000000000021e-02 1.000000000000000021e-02 1.000000000000000021e-02 1.000000000000000021e-02 1.000000000000000021e-02 1.000000000000000021e-02 1.000000000000000021e-02 1.000000000000000021e-02 1.000000000000000021e-02 1.000000000000000021e-02 1.000000000000000021e-02 1.000000000000000021e-02 1.000000000000000021e-02 1.000000000000000021e-02 1.000000000000000021e-02 1.000000000000000021e-02 1.000000000000000021e-02 1.000000000000000021e-02 1.000000000000000021e-02 1.000000000000000021e-02 1.000000000000000021e-02 1.000000000000000021e-02 1.000000000000000021e-02 1.000000000000000021e-02 1.000000000000000021e-02 1.000000000000000021e-02 1.000000000000000021e-02 1.000000000000000021e-02 1.000000000000000021e-02 1.000000000000000021e-02 1.000000000000000021e-02 1.000000000000000021e-02 1.000000000000000021e-02 1.000000000000000021e-02 1.000000000000000021e-02 1.000000000000000021e-02 1.000000000000000021e-02 1.000000000000000021e-02 1.000000000000000021e-02 1.000000000000000021e-02 1.000000000000000021e-02 1.000000000000000021e-02 1.000000000000000021e-02 1.000000000000000021e-02 1.000000000000000021e-02 1.000000000000000021e-02 1.000000000000000021e-02 1.000000000000000021e-02 1.000000000000000021e-02 1.000000000000000021e-02 1.000000000000000021e-02 1.000000000000000021e-02 1.000000000000000021e-02 1.000000000000000021e-02 1.000000000000000021e-02 1.000000000000000021e-02 1.000000000000000021e-02 1.000000000000000021e-02 1.000000000000000021e-02 1.000000000000000021e-02 1.000000000000000021e-02 1.000000000000000021e-02 1.000000000000000021e-02 1.000000000000000021e-02 1.000000000000000021e-02 1.000000000000000021e-02 1.000000000000000021e-02 1.000000000000000021e-02 1.000000000000000021e-02 1.000000000000000021e-02 1.000000000000000021e-02 1.000000000000000021e-02 1.000000000000000021e-02 1.000000000000000021e-02 1.000000000000000021e-02 1.000000000000000021e-02 1.000000000000000021e-02 1.000000000000000021e-02 1.000000000000000021e-02 1.000000000000000021e-02 1.000000000000000021e-02 1.000000000000000021e-02 1.000000000000000021e-02 1.000000000000000021e-02 1.000000000000000021e-02 1.000000000000000021e-02 1.000000000000000021e-02 1.000000000000000021e-02 1.000000000000000021e-02 1.000000000000000021e-02 1.000000000000000021e-02 1.000000000000000021e-02 1.000000000000000021e-02 1.000000000000000021e-02 1.000000000000000021e-02 1.000000000000000021e-02 1.000000000000000021e-02 1.000000000000000021e-02 1.000000000000000021e-02 1.000000000000000021e-02 1.000000000000000021e-02 1.000000000000000021e-02 1.000000000000000021e-02 1.000000000000000021e-02 1.000000000000000021e-02 1.000000000000000021e-02 1.000000000000000021e-02 1.000000000000000021e-02 1.000000000000000021e-02 1.000000000000000021e-02 1.000000000000000021e-02 1.000000000000000021e-02 1.000000000000000021e-02 1.000000000000000021e-02 1.000000000000000021e-02 1.000000000000000021e-02 1.000000000000000021e-02 1.000000000000000021e-02 1.000000000000000021e-02 1.000000000000000021e-02 1.000000000000000021e-02 1.000000000000000021e-02 1.000000000000000021e-02 1.000000000000000021e-02 1.000000000000000021e-02 1.000000000000000021e-02 1.000000000000000021e-02 1.000000000000000021e-02 1.000000000000000021e-02 1.000000000000000021e-02 1.000000000000000021e-02 1.000000000000000021e-02 1.000000000000000021e-02 1.000000000000000021e-02 1.000000000000000021e-02 1.000000000000000021e-02 1.000000000000000021e-02 1.000000000000000021e-02 1.000000000000000021e-02 1.000000000000000021e-02 1.000000000000000021e-02 1.000000000000000021e-02 1.000000000000000021e-02 1.000000000000000021e-02 1.000000000000000021e-02 1.000000000000000021e-02 1.000000000000000021e-02 1.000000000000000021e-02 1.000000000000000021e-02 1.000000000000000021e-02 1.000000000000000021e-02 1.000000000000000021e-02 1.000000000000000021e-02 1.000000000000000021e-02 1.000000000000000021e-02 1.000000000000000021e-02 1.000000000000000021e-02 1.000000000000000021e-02 1.000000000000000021e-02 1.000000000000000021e-02 1.000000000000000021e-02 1.000000000000000021e-02 1.000000000000000021e-02 1.000000000000000021e-02 1.000000000000000021e-02 1.000000000000000021e-02 1.000000000000000021e-02 1.000000000000000021e-02 1.000000000000000021e-02 1.000000000000000021e-02 1.000000000000000021e-02 1.000000000000000021e-02 1.000000000000000021e-02 1.000000000000000021e-02 1.000000000000000021e-02 1.000000000000000021e-02 1.000000000000000021e-02 1.000000000000000021e-02 1.000000000000000021e-02 1.000000000000000021e-02 1.000000000000000021e-02 1.000000000000000021e-02 1.000000000000000021e-02 1.000000000000000021e-02 1.000000000000000021e-02 1.000000000000000021e-02 1.000000000000000021e-02 1.000000000000000021e-02 1.000000000000000021e-02 1.000000000000000021e-02 1.000000000000000021e-02 1.000000000000000021e-02 1.000000000000000021e-02 1.000000000000000021e-02 1.000000000000000021e-02 1.000000000000000021e-02 1.000000000000000021e-02 1.000000000000000021e-02 1.000000000000000021e-02 1.000000000000000021e-02 1.000000000000000021e-02 1.000000000000000021e-02 1.000000000000000021e-02 1.000000000000000021e-02 1.000000000000000021e-02 1.000000000000000021e-02 1.000000000000000021e-02 1.000000000000000021e-02 1.000000000000000021e-02 1.000000000000000021e-02 1.000000000000000021e-02 1.000000000000000021e-02 1.000000000000000021e-02 1.000000000000000021e-02 1.000000000000000021e-02 1.000000000000000021e-02 1.000000000000000021e-02 1.000000000000000021e-02 1.000000000000000021e-02 1.000000000000000021e-02 1.000000000000000021e-02 1.000000000000000021e-02 1.000000000000000021e-02 1.000000000000000021e-02 1.000000000000000021e-02 1.000000000000000021e-02 1.000000000000000021e-02 1.000000000000000021e-02 1.000000000000000021e-02 1.000000000000000021e-02 1.000000000000000021e-02 1.000000000000000021e-02 1.000000000000000021e-02 1.000000000000000021e-02 1.000000000000000021e-02 1.000000000000000021e-02 1.000000000000000021e-02 1.000000000000000021e-02 1.000000000000000021e-02 1.000000000000000021e-02 1.000000000000000021e-02 1.000000000000000021e-02 1.000000000000000021e-02 1.000000000000000021e-02 1.000000000000000021e-02 1.000000000000000021e-02 1.000000000000000021e-02 1.000000000000000021e-02 1.000000000000000021e-02 1.000000000000000021e-02 1.000000000000000021e-02 1.000000000000000021e-02 1.000000000000000021e-02 1.000000000000000021e-02 1.000000000000000021e-02 1.000000000000000021e-02 1.000000000000000021e-02 1.000000000000000021e-02 1.000000000000000021e-02 1.000000000000000021e-02 1.000000000000000021e-02 1.000000000000000021e-02 1.000000000000000021e-02 1.000000000000000021e-02 1.000000000000000021e-02 1.000000000000000021e-02 1.000000000000000021e-02 1.000000000000000021e-02 1.000000000000000021e-02 1.000000000000000021e-02 1.000000000000000021e-02 1.000000000000000021e-02 1.000000000000000021e-02 1.000000000000000021e-02 1.000000000000000021e-02 1.000000000000000021e-02 1.000000000000000021e-02 1.000000000000000021e-02 1.000000000000000021e-02 1.000000000000000021e-02 1.000000000000000021e-02 1.000000000000000021e-02 1.000000000000000021e-02 1.000000000000000021e-02 1.000000000000000021e-02 1.000000000000000021e-02 1.000000000000000021e-02 1.000000000000000021e-02 1.000000000000000021e-02 1.000000000000000021e-02 1.000000000000000021e-02 1.000000000000000021e-02 1.000000000000000021e-02 1.000000000000000021e-02 1.000000000000000021e-02 1.000000000000000021e-02 1.000000000000000021e-02 1.000000000000000021e-02 1.000000000000000021e-02 1.000000000000000021e-02 1.000000000000000021e-02 1.000000000000000021e-02 1.000000000000000021e-02 1.000000000000000021e-02 1.000000000000000021e-02 1.000000000000000021e-02 1.000000000000000021e-02 1.000000000000000021e-02 1.000000000000000021e-02 1.000000000000000021e-02 1.000000000000000021e-02 1.000000000000000021e-02 1.000000000000000021e-02 1.000000000000000021e-02 1.000000000000000021e-02 1.000000000000000021e-02 1.000000000000000021e-02 1.000000000000000021e-02 1.000000000000000021e-02 1.000000000000000021e-02 1.000000000000000021e-02 1.000000000000000021e-02 1.000000000000000021e-02 1.000000000000000021e-02 1.000000000000000021e-02 1.000000000000000021e-02 1.000000000000000021e-02 1.000000000000000021e-02 1.000000000000000021e-02 1.000000000000000021e-02 1.000000000000000021e-02 1.000000000000000021e-02 1.000000000000000021e-02 1.000000000000000021e-02 1.000000000000000021e-02 1.000000000000000021e-02 1.000000000000000021e-02 1.000000000000000021e-02 1.000000000000000021e-02 1.000000000000000021e-02 1.000000000000000021e-02 1.000000000000000021e-02 1.000000000000000021e-02 1.000000000000000021e-02 1.000000000000000021e-02 1.000000000000000021e-02 1.000000000000000021e-02 1.000000000000000021e-02 1.000000000000000021e-02 1.000000000000000021e-02 1.000000000000000021e-02 1.000000000000000021e-02 1.000000000000000021e-02 1.000000000000000021e-02 1.000000000000000021e-02 1.000000000000000021e-02 1.000000000000000021e-02 1.000000000000000021e-02 1.000000000000000021e-02 1.000000000000000021e-02 1.000000000000000021e-02 1.000000000000000021e-02 1.000000000000000021e-02 1.000000000000000021e-02 1.000000000000000021e-02 1.000000000000000021e-02 1.000000000000000021e-02 1.000000000000000021e-02 1.000000000000000021e-02 1.000000000000000021e-02 1.000000000000000021e-02 1.000000000000000021e-02
-1.130135207464253853e+02 1.717379234899466951e+02 3.985426376763527401e+01 -8.960041532881142246e+00 -8.900497897779948175e+01 -1.356344457843022688e+01 -2.105482745429802094e+02 6.893910253513894082e-01 -8.581907491061669191e+01 -1.418424060975506151e+01 -2.008023387223725464e+01 6.591171088557278956e+00 -1.803700359631855488e+00 1.699412617544158195e+02 8.570130516727704162e+01 -3.926402102177825526e+01 -5.345255581481498552e+01 8.023383862957054191e+01 3.323999004201110807e+01 -2.569058204219519936e+01 -7.986812074739047773e+01 -7.476507046050500094e+01 -1.398840465297924318e+01 2.930487435936041507e+01 -1.974288485820926553e+02 -1.000104515619063221e+02 -2.642137217817374406e+01 2.042331986873786320e+02 7.167320600364161010e+01 7.769454125943663314e+01 8.132248808284711572e+01 1.201742108182392466e+00 -8.022089909635603533e+01 2.100794093857145697e+02 -2.479691088881168923e+02 5.956500049236548477e+01 -1.217139489826031280e+02 -3.512371496136231031e+01 4.083851811180307045e+00 1.283425138308928979e+02 -1.244923647799555084e+02 -1.383539330849033533e+01 7.836686119429464270e+01 1.758293673053644852e+02 7.228692049002052045e+01 -6.931733230836526616e+01 4.177511214973050357e+01 -2.874163074810310192e+01 -6.691744092704867342e+01 1.586165303569663649e+02 -7.150627810511109317e+01 -5.279616428092961655e+01 -1.411019794295652900e+02 5.802510896180562483e+00 -5.119924013534419771e+01 3.916156005516491945e+01 -8.987481258866652922e+01 -5.071443556154490295e+01 -1.027228843095679736e+02 -1.574571990045641314e+02 1.972294766562854917e+01 4.592885257200621396e+01 -1.247202915224274022e+02 1.302807920950525578e+01 -8.033906971471347447e+01 4.975662541078580858e+01 1.687746102148232126e+02 -1.461352832048774530e+02 -4.388232661875107254e+01 7.279576619740386612e+00 2.963558076362897253e+00 4.293036726598682407e+01 8.507959665438501418e+01 9.183513394422678777e-01 -8.902868760747210786e+00 -7.095051499070730472e+01 7.929135023141550676e+01 -3.321406862279921057e+01 2.663284261693520349e+01 1.053710051416698121e+02 8.939137298761846750e+01 -4.330872954585407797e+01 5.857803710938227226e+01 1.493712835239422532e+02 1.177276664918754108e+02 -4.086331158528229146e+00 1.765028470098959872e+02 -1.129748121297932926e+02 4.266641105749945595e+00 -4.248830441792357249e+01 2.095595677457099271e+02 -2.150176856505630951e+01 2.912735179828379373e+00 -7.779120357415769149e+01 -7.225011945140829006e+00 -6.469478568540620245e+01 6.865547882808787961e+01 -9.578878347171368546e+01 6.945246247708129772e+01 -4.836756374325932484e+01 -5.042230475378467958e+01 -9.286191157292780929e+01 5.380077056228198984e+01 -5.544874289467791328e+01 -1.513001234030630258e+02 -8.052260769621351244e+01 -1.059956854133711488e+02 -1.593013521379127440e+02 1.377382126696774662e+02 -2.787516714242154947e+01 3.244791580991542190e+01 9.084965290528310788e+01 -1.054552542721535389e+02 5.772764352832884782e+01 -4.389418594955991892e+01 -7.022352165719001960e+01 -9.125780972201286545e+01 2.059740894758273555e+02 -5.749306918527495469e+01 -5.013604174518666667e+01 -4.784995259174627336e+01 8.146540594772511668e+01 -4.195008201997539032e+01 1.398183529190433774e+02 -5.051598258495204163e+01 5.580825347100014966e+01 4.601972864369259675e+00 -8.222672750647386408e+01 6.973711551589498470e+01 2.810463835418635199e+02 -9.322862955929285533e+01 4.812856363321459696e+01 -7.723610450179002385e+01 4.583559097785442304e+01 1.329329258351832550e+02 -5.205278410476766027e+01 1.477789020409880294e+01 -2.727895584101835880e+01 -1.032974565013669945e+02 -1.751430991963404438e+01 4.325683625434239232e+00 -7.928474086410817634e+00 -1.515862821578158837e+01 1.198429687236772594e+02 1.321043029114045737e+02 1.889774507803138306e+02 -3.084459109196019426e+02 3.873583015423047016e+01 -1.596209858984964036e+01 -6.321098500387780206e+01 1.828237268262144255e+02 7.727690138079297810e+01 -2.608563726794013604e+00 -1.175854289917628108e+02 -1.106133214706556878e+01 1.014944475072513228e+02 -1.363017627253408648e+02 -1.710246218308021184e+02 1.088813148324394930e+01 4.304353676610408996e+01 -6.188902558258683229e+01 4.263995649918216913e+01 -1.086333083505252972e+02 -1.535279328303287514e+02 2.142655434667585013e+01 4.929406735186604038e+01 4.870788119427206908e+00 -8.473604731814853608e+01 -9.499197050302049661e+01 -8.560072204771994109e+01 -8.887193973752007992e+01 1.281652929323174384e+01 5.771442306641802134e+01 1.183057847680060064e+02 8.067922741311697621e+01 9.091423310138890201e+01 1.091500563198401750e+02 -7.599525732456673666e+01 -8.385210228088556050e+01 7.167111461069731604e+01 6.957893505920331734e+01 6.021569662771845799e+01 -9.551485083742374371e+00 -9.262160749540953475e+01 5.490690024234559985e+01 -1.820631041027765207e+02 6.832931417224413906e+01 -4.533712253524323899e+01 -9.816853887069916595e+01 7.554425013412409839e+01 -1.744107454029268212e+01 -7.856077568263222588e+01 -5.854451337304966074e+01 -9.316437021256401607e+00 2.472839750775220580e+02 7.829869288044329778e+01 5.589887362420980566e+01 -1.059458971768581108e+02 1.512024389444381995e+02 1.061096653810241097e+00 -9.222209072316069012e+01 1.589813082649005764e+02 -1.573297813517392854e+02 1.610281040663233298e+01 -3.323682040188626985e+01 -2.268544691614341673e+02 -1.377298516412939193e+02 -9.006409715869736488e+01 -3.022719400094374365e+01 -1.231082457825853282e+02 5.953140781555110550e+01 6.708706429247085623e+01 -2.845902064293136036e+01 -1.029458496805431196e+02 1.167607691535286136e+02 1.220553831891604517e+02 4.771751564002048696e+01 1.802768426004689317e+01 2.698987912583165212e+02 4.510614106023938774e+01 -1.233403867890883845e+02 -4.653143282459315344e+01 -1.744479220337466927e+02 3.292654215293777753e+01 1.584228801447386843e+02 -1.533379143985672215e+02 1.361358091083081092e+02 -9.401108160672558256e+01 -1.953233644035639571e+01 -7.716614985502450175e-01 5.463740586893362661e+01 -1.199738574696155702e+01 -2.355764691776110098e+01 -1.955719581492137138e+01 -1.309795379383443219e+02 4.800380833893903088e+01 -3.139719417043368210e+01 -1.342884022329053550e+01 -1.107844278002139404e+01 2.336840096982841146e+02 1.801570822712248798e+02 2.405952984405109021e+02 1.363187989785479601e+02 -8.954380538804197442e+01 7.778126186791632790e+01 2.183807807527939104e+01 4.923736530289001223e+01 -4.110384620022556845e+01 2.642350413663885433e+02 -2.410014018671176217e+01 -1.414560142040106712e+02 -1.547585681585333184e+01 -4.741117744181792659e+01 -8.009169297253835396e+01 4.465927919525103817e+01 -1.212041282826727162e+01 1.882430106422228562e+02 9.563520516763934154e+01 4.231312985468576926e+01 1.014597710792176741e+02 9.778901354695167925e+01 -2.379282470643527603e+01 1.445250855163624522e+02 2.741257250983970906e+01 9.271156205094341374e+01 4.932102860642428510e+01 7.179894647377227379e+00 -1.198386675938579486e+02 -1.199010118947018100e+02 -9.318114125794090796e+01 -1.612296366136674663e+01 8.973444431526029064e+01 -3.174348616887361274e+01 1.023750001321949128e+02 4.534942235410744615e+01 -7.528770626582449665e+01 -3.102589882073114680e+01 -6.066380600079818208e+01 1.818156724955377257e+01 -4.796993170420146413e+01 -1.159959161347258032e+02 1.258242585723359355e+02 1.256130875412378884e+02 -8.172833771847201945e+01 5.648530049498886818e+00 -4.690666645604405716e+01 -3.376732071687564485e+01 -1.174234273754101743e+01 -3.231869366849171854e+01 4.601206939418288044e+01 -1.454683674672585880e+02 -5.468911311327057234e+01 -1.572130695911312444e+02 1.802095076123863464e+02 -2.094490918471466046e+01 6.100047576890376178e+01 1.234621869047994025e+01 1.493995202683111359e+02 4.619272972861195825e+01 3.697047913751881509e+01 1.596436412670032041e+02 -5.095092308381267543e+01 -1.009197567887985088e+02 2.808549632873543445e+01 -1.633741800388743286e+02 -5.520481570963627860e+01 1.057477604244062235e+02 -1.320219685440255830e+02 -3.758874075364528267e+01 9.436050710015220488e+01 -9.766124731128974190e+01 -9.250193998625988456e+01 -8.541412361337745551e+01 -6.596555829548195504e+01 2.573237435467131604e+02 2.047686854538162038e+02 1.064213874096202943e+02 -1.055790329454819272e+02 7.733133516736440072e+01 -6.830424364126182013e+01 -3.225667400403207807e+01 1.714365258718800433e+01 -3.323515958966233086e+01 -9.679046978188912931e+01 -2.807719918567641582e+00 1.527426920305296498e+01 1.122430480681916265e+02 -1.325620963854622403e+02 4.320538247142102506e+01 6.575761699165207119e+01 3.563319073699170758e+01 -9.342744585962122983e+01 -1.530919402005628456e+02 1.991634977641141120e+02 -1.836281667333645728e+01 2.596017944852659198e+01 1.612778118779912120e+02 2.747623291098146936e+01 2.858152599190892218e+01 -4.586625858723549953e+01 9.123710526214131278e+01 -1.404043510510512078e+02 -3.172291332077683279e+01 -6.315921085468102270e+00 -5.499177246937036756e+01 6.368820697126450270e+00 2.193119335165580708e+01 -3.683451380682485166e+01 1.406489125614034563e+01 2.199244119178092660e+02 -2.818144446888310739e+01 -2.877494275475462970e+01 -1.045917887864975029e+02 -1.702022701968573637e+00 -8.307836966960574898e+01 6.590437781872043210e+00 1.152770682369628474e+02 -5.351872809548018495e+01 6.223098403601251327e+00 -5.587408187218687772e+01 3.428713489909967826e+00 8.969268229024598327e+01 -1.191479955782402413e+02 -9.955402188608094605e+01 -1.054610008467893039e+02 7.341659249165631707e+01 8.901028441659545365e+01 -9.491263071519308880e+01 6.437019399705583567e+01 2.654114075439330378e+01 3.977857378618938355e+01 -1.825784908839185050e+01 9.390814381974496428e+01 8.197793939215824821e+01 -7.945410604743049987e+01 1.219033765438145167e+01 8.317314138571730098e+01 7.490979468459757129e+01 -2.043719585920745985e+01 2.568696378511082301e+01 -1.363032399238630035e+02 4.987083459201129898e+01 -3.368422274416836615e+01 -3.355927869391478424e+01 1.780300699428463815e+02 4.876857085771908373e+01 1.235798705558350434e+02 1.962803530509883672e+02 -1.415438181051409856e+02 1.532258350823764772e+02 -6.515322088759086228e+01 -1.389018082285404887e+02 8.461999520649445117e+01 -1.378255505149407156e+02 -2.950398052038101326e+01 5.799665232165985884e+01 8.314827275216796210e+00 -1.727910731022337245e+02 8.657000954052695363e+01 2.591628728867996756e+01 7.102579145423081286e+01 3.728307509071735382e+01 9.740737267072308470e+00 -6.898945380405029937e+01 1.189682908943124318e+02 5.600351586062773634e+01 -6.385782243161590088e+01 -1.040595531941649483e+02 4.003920141922981202e+01 2.637751513668842662e+01 8.467587237429380309e+01 1.888414188529595492e+02 -2.532604924443641181e+01 -1.132073527720207693e+02 -8.710309603772653020e+01 -5.274908625921915473e+01 -4.562232047378121536e+01 -1.508156736987070587e+02 -2.312183783347806099e+01 1.330805143170664451e+02 7.661750982109835206e+01 -1.257690197761579753e+02 -1.539834136325806639e+02 -7.000099525290433178e+01 -7.849507405662046722e+01 1.508059080001858376e+02 -1.751760674054542903e+02 8.892278036579075717e+01 -4.735806894410500512e+00 -4.420956491308763958e+01 1.367718724587825285e+01 9.370467476750637559e+01 5.097642984140541245e+01 1.420262235851980961e+02 -1.635244637324102257e+02 -8.320770700104615969e+01 2.603033626654990940e+01 4.309502690832871252e+01 2.118425465836751300e+02 1.494572169967411810e+02 6.732411324977790912e+01 7.409287390907918791e+01 -3.517246832526946321e+01 1.560202978944120389e+02 -1.842538784071126940e+02 -6.513608081280932538e+01 -5.516560633567431893e+01 -5.321966429033638946e+01 -1.061357084505083463e+02 -1.539288254302359427e+01 -7.053323501384033989e+01 7.314451114550362831e+01 -9.417910012563710964e+00 -5.970860333036418410e+01 -6.402933636689787988e+01 1.851402673436122654e+02 6.060159122839136359e+01 -1.407194514451636280e+01 2.146004787688580109e+02 -1.112874669029104666e+02 -3.630733932213458814e+01 6.878784536633294522e+01 -1.317138482405710576e-01 1.534027205693992002e+01 -1.284635533510472101e+02 1.809885125871715559e+02 -5.033758095273869060e+01 -2.768823463573776777e+01 -1.126817332015178863e+02 1.292479541991953340e+02 9.848267586076808300e+01 -7.961081156213825238e+01 -3.856057958700136368e+01 3.997505294982772028e+01 -1.554410107935394478e+02 -1.410424954660663421e-01 -7.668418439782458051e+01 7.913491745556649803e+00 -1.109831999567295355e+02 -1.627099104779278491e+02 -7.253087131597455084e+01 1.520403183528934505e+02 5.807120869345487790e+01 -9.193969469685416129e+01 9.150205073339252237e+01 3.513353890414968816e+01 9.056564233174299261e+01 -4.319493893885212543e+01 -8.625282047382258099e+01 1.753737256445250807e+02 4.272613227652982459e+01 2.969024675378224742e+01 -7.485626425747489066e+01 -4.337237083883739075e+01 9.805033243799574194e+00 -7.335010780998175939e+00 -1.771243669728825978e+02 -3.545806883250725861e+01 6.601436345693160490e+01 1.143725106434007301e+02 1.595177949014594674e+02 -1.358856357087388389e+01 9.179542131945301264e+01 1.615191659631048537e+02 6.495290816210876983e+01 1.513359445555734339e+02 1.644442976540146617e+01 1.344014552637957252e+02 -8.591124565879147212e+01 5.461640868593855913e+01 3.002788293521918206e+01 7.761267331335639597e+01 -1.086207949239829702e+02 2.024763619793758096e+02 -1.316851441899021893e+02 9.024874639329489412e+01 -1.098147777149492867e+02 4.714231212488322598e+01 1.409578557648179320e+01 9.266838372764699727e+01 -7.525644991131223094e+01 -7.711472703931792694e+01 -1.140721519167068543e+01 9.095540554234256092e+01 -3.019832766396907431e+01 -1.664973240006018429e+01 -2.003467464132747367e+01 4.833879997408031315e+00 1.001073255026465176e+02 -6.381140271550623311e+01 -2.770234807189324133e+00 -1.974098413535759846e+02 1.240748231351024771e+02 -1.270017533678441026e+02 -7.514497705045022258e+01 -2.394888806299389472e+01 -1.097584269911225761e+02 -5.406696634094519993e+01 -5.955708482663130354e+01 -1.999742669954980556e+01 1.385770899365051889e+02 5.497282923461143866e+01 1.021323994925952690e+02 -1.383903216631399005e+02 -1.409203714910572103e+02 -2.913493330973037132e+02 1.038619901025915198e+02 1.060400850790543501e+02 4.298346596454366875e+01 -4.312760621374798831e+01 -3.785372698424265536e+01 -1.867334389235751644e+02 1.486156392406181510e+02 -1.092418087377781717e+02 1.087723134253998580e+02 -1.619320397969484588e+02 -1.454934590623047974e+01 -5.631678156930352941e+01 -1.212764553842065709e+02 -4.688006628913039009e+01 -1.269523273974747646e+01 -9.423445410120547194e+01 -1.052751217443324805e+02 -1.256452352358316737e+01 7.242560639115306742e+01 -1.267761469652477189e+02 -1.594154931008318954e+01 -7.502856980601910664e+01 -1.336839020197075740e+02 6.798039736799460719e+00 9.683966494732149499e+01 1.683809003283453478e+02 -1.940794616964677743e+01 -4.686381843590966412e+01 -1.263130370066621992e+02 -1.664439166628281725e+02 1.055930564253477257e+02 -7.403491298036800572e+01 8.042679146642191768e+01 9.572641781645524262e+00 2.977923608192935845e+01 7.517551941019206652e+01 -8.624465389148481620e+01 8.415072727895395133e+01 1.173514911166980994e+02 1.602612650885996857e+02 -1.187089758218123023e+02 1.058259282489710955e+02 -4.862723900478409433e+01 -9.244560404109638796e+01 2.184611896945803835e+02 5.015969039955442099e+01 8.498807128178130199e+01 2.168603783770820570e+01 -6.432396317361069293e+01 -3.557517178107467259e+01 -2.142086160757363018e+02 1.075553873377463105e+02 8.299943433127427284e+01 -7.708363804831641630e+01 -7.449744862309488269e+01 1.478506919563480722e+02 1.029127499722530814e+02 5.204643562654856481e+01 7.747903633480143526e+01 -8.050128539202548339e+00 1.050864700183133920e+02 -1.054219446773456923e+02 1.898277529520835003e+02 -4.020543114900596038e+01 -1.242195788209886018e+02 -3.834811515892526046e+01 7.306111715884057389e+01 1.500464119953373086e+02 1.317097914517096058e+01 1.770106406526718672e+02 5.316804427855582560e+01 3.422837624505861243e+01 -1.133664390265302018e+02 4.564199771249460014e+01 -1.273435964968432188e+02 4.856415679099747962e+01 3.936157356354528503e+01 -1.256011041570034337e+02 -8.659743750695264453e+01 4.056275506215229854e+01 8.886701203841299801e+00 -2.366824334492875792e+01 4.261825609235592083e+01 -2.179153812172478055e+01 -6.425353541396006563e+01 -2.661333508833698147e+01 -2.287640577106104089e+01 -4.056411657329019249e+01 1.912765860581470179e+01 -8.196698690677145294e+01 1.211424914115212772e+02 -7.570508636007565428e+01 -4.377787729170139919e+00 6.671101038000696803e+01 3.974829828111556829e+00 1.623374017324499619e+01 1.624822325472150908e+01 -1.192956278503685610e+02 -4.502195062580517160e+00 6.625041392001685381e+01 -2.356939011953357124e+02 -8.640390106783829083e+01 -1.148015854986754931e+02 4.459164491050117363e+01 9.799127462386542220e+01 -9.342742910742003914e+01 -1.709677066142393471e+02 -1.885250986674403464e+02 2.034184201353876986e+01 -1.475843730118463668e+02 -6.431482572745414572e+00 1.502277328161252967e+02 -7.241568617350962356e+00 3.779446654954192297e+01 -1.006004938977142729e+02 8.114466572432732505e+01 -1.204318113601038505e+02 -1.564186047089313902e+01 -3.077953111780444218e+01 5.842444665048419949e+01 -9.018394159209730532e+00 1.071977497169104510e+02 -1.237586957355879491e+02 -5.076826748943339851e+01 8.769416995060016973e+01 6.701964245854053104e+01 -8.342679990328745987e+01 -5.508316039628309824e+01 -4.996420962671037813e+01 -2.928757417376580179e+02 1.958299027812035149e+02 7.700972069961026989e+01 -2.387851606243579994e+01 -2.999673842727463224e+01 4.199048588368609103e+01 -8.508642727247273285e+01 1.006095103914765758e+02 6.107728820692145888e+01 8.287435686143565761e+01 -8.494517070749122922e+01 -2.684499425280827367e+01 3.368360601800826259e+01 1.755045543705159261e+01 -4.321796677511431284e+01 1.593799244596233677e+02 -1.745735631748946304e+01 3.570541106087920014e+01 -2.318870720932056884e+02 -8.545340793877370800e+01 -7.381816854111349357e+01 2.321800324449317543e+01 1.101405157729497972e+02 -2.336620936680586453e+02 -1.886408074945184694e+02 2.235782514199545119e+02 -1.066099120609809958e+01 9.689880187144018464e+01 6.326653787524455197e+01 -5.584690046663603624e+01 -1.321186016865838440e+02 -9.597187728189291533e+01 -5.069306653356039760e+01 -3.776142753053489542e+01 -3.948717823395434579e+01 1.631635830896437156e+01 3.744892514370073400e+01 1.682206140507006467e+02 1.242332102720415321e+02 6.979994188404713640e+00 -4.418897658174405940e+00 -1.601495994056732854e+02 1.206619343009288201e+02 1.606763291418678250e+02 -1.042826992780488240e+02 7.435755713918247523e+01 1.796516331841392811e+00 5.534935723161676435e+01 1.265094579206847385e+02 7.154320964315641618e+01 -1.351578919697021490e+02 1.628990980272822853e+01 -2.963612189052251011e+01 1.123436863779828698e+01 -2.337820628590180760e+01 4.575368248161407081e+01 -2.628170246350216530e+02 1.828344652073620864e+02 7.387454881032541110e+00 1.609017723399664987e+02 -1.066646337402212730e+01 1.072056509057641449e+02 7.232747698961583183e+01 -4.242715476739352454e+01 3.018801527359399728e+01 -7.352164998071778257e+01 -8.987637819088415370e+01 -7.283382582615560352e+01 -3.238510776459472851e+01 4.566833739883742282e+01 1.113699547224811397e+02 2.881459267781681177e+01 6.277358150538950099e+01 -1.059859969602842966e+02 -1.386845607088460781e+02 -1.363770307770941237e+01 4.694031898617924270e+01 -4.605261291362989340e+01 9.562998986810484325e+01 5.616295053170665597e+01 -2.798005829518410792e+01 3.030840464653092070e+01 6.209637616755676248e+01 -7.298535485082736329e+01 -1.353379770574684358e+02 1.438208011163646347e+02 7.912207485859688916e+00 5.076958978065714945e+01 -1.511690869016758825e+02 -5.408645900206485635e+01 -4.739682894391634704e-01 -6.656671498897893002e+01 4.330637738706782258e+00 5.702834093473418875e+01 1.889419558931147094e+02 3.965577763405260470e+01 -1.111540776129387353e+01 7.319142518332978398e+01 -4.612434365382988233e+01 -1.105192370013083831e+02 -1.401759864739217392e+02 9.511406748182146487e+00 2.547923141944611203e+01 2.413864380555745370e+01 -5.772323749266642778e+01 1.226481716361022762e+02 -8.206848105547416594e+01 1.302951068378889090e+02 8.865105119316685034e+01 -6.605886796237813030e+01 -8.601141359757579608e+01 8.552634998567438629e+01 2.081642435533369095e+01 -5.332828641163963113e+01 -5.472446409698377323e+01 1.389008553848463237e+02 5.824133127952465117e+01 8.120123049270634397e+01 2.658316127178174426e+01 -4.279732722721912097e+01 1.093009577262312746e+02 -5.549761852733765721e+01 5.396654079474731969e-01 7.790836194039903262e+01 1.013240426935442855e+02 2.599627645129601206e+02 -1.782523572682712256e+02 1.638332034467375991e+02 -6.882825994539777525e+01 -1.550033030705290393e+01 -2.550444061464732926e+01 -2.111782055105454958e+01 -5.621731689069716253e+01 9.468265412305194673e+01 1.876121530156287349e+02 -1.211181016134468678e+02 3.154089176719093501e+01 -1.294395711128892117e+02 7.161200891307423433e+01 -4.541764082002783454e+01 -8.266338257249658739e+01 -5.501518373803478568e+01 4.205248815570080012e+01 1.981523688505422243e+01 -8.359697876201535394e+01 -1.442100495983897588e+02 2.124304160017222998e+01 1.612172966248194257e+02 1.461565148428252670e+01 1.867478948363560107e+02 7.643399400643945185e+00 1.378258515272070497e+02 -3.543495704479112618e+01 9.291278846795846391e+01 -7.320191393244159883e+01 -1.157130152683070463e+02 5.067457810800067364e+01 -5.949157433042426391e+01 -8.052297980559700363e+01 7.479649667302642513e+01 6.604941643798808215e+00 -9.678538134855281783e+01 -1.545367170769185918e+02 1.518584703535481708e+02 -9.158839859406620576e+01 -2.399795970920509891e+00 1.233814415490801082e+02 5.965300482824307693e+01 -1.009426283797539696e+02 1.091318347082537343e+01 2.900498700256788993e+02 5.485831313200778681e+01 -1.623010179787842162e+02 -4.909844445574917415e+01 -6.334128808485785100e+01 9.920730861479547968e+00 1.107532476231035758e+02 -1.065545099337527120e+02 2.220464517647845781e+01 1.344429446597804656e+02 1.934931571966583874e+01 -2.176945368941173911e+02 4.983756792089578624e+01 7.779486640054804525e+01 -1.398817629535261631e+01 3.381673448662027681e+01 1.326548098334189019e-01 2.317962851524673340e+01 2.859324495774916031e+01 1.193919755509342195e+02 1.010409291933741827e+02 1.600883111740065345e+01 1.536447018104680922e+02 -6.600566050091313741e+01 2.542972712514388149e+02 6.704173981602281174e+01 1.460873501247713762e+02 -2.266107798715869492e+01 9.286635702558373850e+01 -5.058966523535391957e+01 -1.509505491732151370e+02 2.701901566210624850e+01 9.807860561859482118e+01 -9.037329988318319351e+01 -1.080283818440229453e+02 -6.862945371026057728e+01 3.773646745851152673e+01 -1.178440446694771992e+02 7.709298623406273521e+01 2.896817252042777469e+01 -1.006946535225915511e+02 1.959534624831036069e+02 -1.213614086582260221e+01 -1.049578214458564958e+02 -1.379487073076670178e+01 -2.108155332958297024e+01 -1.446778063800018970e+02 -4.131006121748283988e+01 6.344873778988951329e+01 1.359440146311725925e+02 2.993160316186238035e+01 2.762234110345549354e+01 4.621163087116759982e+01 -3.690302463162957025e+01 -1.502063341031273183e+02 1.634522226721546190e+01 3.198976212302703104e+01 1.373171033825559562e+02 -1.026795199079893983e+01 -7.856955521819439525e+01 7.554184954697848298e+01 1.034947345655068629e+00 3.297893621296977074e+01 1.437410994302460381e+02 -1.832214373164065933e+02 -9.580999508160499545e+01 1.287073558529248487e+02 -2.163266016430865477e+02 -1.844099618943686778e+02 9.122533597437983133e+01 1.544133422715884763e+02 6.354391768395829132e+01 -4.453707230713995102e+00 1.562105378906716737e+02 -2.200689325903773579e+02 1.074473046227788018e+02 4.249700467885023158e+01 1.274240876659570034e+02 -1.891040904261775779e+02 1.068791743559552145e+02 -2.837306860299785427e+01 -1.340650717526607991e+02 -5.342000052989843262e+00 -9.266249059869173266e+01 -1.637823853921742412e+01 -4.281078199089945358e+00 -1.235250974390091017e+02 -1.236526366256767631e+02 -6.274879805386211729e+01 -1.292824757578049173e+02 2.015479734063162880e+02 -1.614400830433264673e+02 -5.030026425290434844e+01 1.730030799882030976e+02 3.401555261970550958e+01 -2.967824181461012927e+02 -1.274138065374694690e+02 3.562563605811063638e+01 5.478943325937337505e+01 8.640598993956945861e+00 -1.550586272024135326e+02 3.578468508134564985e+01 7.478133209121366143e+00 -7.452791679939062419e+01 2.032498454264202508e+02 2.031525609802538384e+02 4.338194035893380374e+00 -2.090846057097350865e+02 1.263344845016127636e+02 3.086045276512572144e+01 3.749687123030977620e+00 7.684756534566966479e+01 -2.080189687394712905e+02 -1.384144498630477358e+02 1.414311499737256668e+02 1.099330924951037645e+02 5.308254439438156425e+01 1.436259205893733792e+02 -1.787406035731638667e+02 -2.048047537449212996e+01 -1.307910267678361151e+02 4.368611400081133667e+01 -1.041391036088901387e+02 8.727176735886293102e+01 -3.395643494394632711e+01 1.241452046627361483e+01 1.778967150792176710e+02 2.855682323540196421e+01 -2.642687988317843519e+02 -1.266846487367915586e+02 -8.357905152473027499e+01 1.585233272564001652e+02 1.256662866061608419e+01 -5.393985589932478319e+01 3.047817928471308591e+01 6.269280301792220200e+01 -3.969614594804688323e+01 1.077994330694237703e+02 -1.009995554616668443e+02 4.934274721891211613e+01 1.122212163637747864e+02 -3.552017470168235036e+01 -9.838188292878776053e+01 -1.137029594040659362e+02 1.200734203005310405e+02 -4.978389756193641347e+01 1.970691812428213439e+02 5.735508513757280014e+01 1.112516649452633857e+02 1.848743742830675956e+02 8.585431537864126383e+00 -1.245945956398006018e+02 -1.662126404412007616e+02 -1.144977035829648173e+02 4.257572796256904724e+01
-1.334779501142337743e+01 -4.707809353683606979e+00 1.014332020505642902e+02 -2.242860580849037149e+02 1.522067206362500258e+02 6.221895843338303678e+01 1.489917676184158211e+02 -1.264835480010802371e+02 -2.730003207032662971e+00 -2.358195628907657593e+01 -2.149399370393293225e+02 3.206735200848252987e+01 -1.794836264671382864e+01 1.197622358779730973e+02 -1.224610378893479492e+02 6.043101778768142651e+01 1.227171671580662746e+02 -4.498925903113202196e+01 -4.864751110153930824e+01 -2.650288999538080503e+01 6.041864496838692844e+01 6.181714170051879620e+01 3.173984059536496360e+01 -2.277159597750351452e+02 -5.056587292935837752e+01 8.958785708617615740e+01 9.695984904105369395e+00 -1.013198815007777931e+01 -6.515773716480360633e+01 -1.512964897227889338e+01 7.181634079965064643e+01 -1.423889491070668782e+02 -6.061237768203582732e+01 8.811695043608452238e+00 2.031873665340472996e+02 2.076304655509539145e+02 -3.139340793758208292e+01 5.472518750207287752e+01 -2.727884855526078733e-01 -1.367627405763401214e+02 9.399063398924188562e+01 1.050156517869493484e+02 1.062643042718161297e+02 1.145262873763828892e+01 6.061304632018655525e+01 4.712533723772674676e+01 3.807858909955210436e+01 2.870953250712017990e+01 1.079948082292654163e+02 8.785746798501732258e+01 6.424302411773584254e+01 1.595809864247519272e+02 2.424974382077272992e+02 1.914956340394750498e+02 -5.789571707421761459e+01 4.823947536720915252e+01 -6.295862068966321345e+01 5.524793911667851631e+01 -1.881382024156307864e+02 5.532467412343454782e+01 -2.005159288431653692e+02 -1.651953138558753835e+02 1.267163559543195106e+01 -9.042061308693229549e+00 1.660136791666071758e+02 -2.035972785250744437e+02 7.372004224700852149e+01 2.250231424031989889e+02 -7.169753892499397985e+00 -1.906548390833960696e+02 3.485491189987405392e+01 1.931319011683316376e+02 -5.983229181298282384e+01 -2.609501304134089992e+02 -1.004409096035960403e+02 8.645748760000536492e+00 -2.253407382106227885e+02 3.135436614801397326e+01 -1.757743979514464172e+02 -1.817991013298334906e+02 -5.593392329581171651e+01 1.493942261189615124e+02 6.810971337503693235e+01 1.038931702836661941e+01 -8.684138026455181603e+01 -4.175614902585103039e+01 6.248820975907196384e+01 -2.274832624038245683e+02 5.304003958712167588e+01 -7.354657815560517520e+01 -7.656848301487528374e+01 -1.733448900173195284e+02 6.382617904320913738e+01 9.096173451240292707e+01 -1.591906166857861820e+02 1.694258340872229098e+02 -3.913625060036365255e+01 -1.659117092237963931e+01 8.587950077506181401e+01 1.533187766139867563e+02 2.126644309791416632e+01 1.485606118578175483e+02 -1.811141670403191384e+01 -8.898869809618304316e+01 -1.924940547052715090e+01 9.917890272677031760e+01 4.536171014105977406e+01 9.867561211420331801e+01 9.522438412922377893e+01 -8.376992421197633121e+01 -1.713963714167601609e+02 1.241355024922089427e+02 5.473345378329246813e+01 1.629848433931151064e+01 3.085092079818650745e+01 -6.852834038586749443e+01 9.689580585457220252e+01 9.063811759887352082e+01 -1.379049606898073854e+01 -7.188326666204353899e+01 3.105458363631541729e+01 6.329915431638311496e+00 -6.210619050965282639e+01 1.711081278241829011e+02 -3.329496050341643354e+01 1.227513208433262690e+02 -7.078152356260081035e+01 3.875237783177112760e+01 -3.646764252914390880e+01 9.032575305012831279e+01 2.371761744699510288e+01 1.167126003582925335e+02 -1.171409398080104012e+02 7.508722608690960953e+01 1.247387237469435490e+02 -4.517475327562460308e+01 7.657153378886721207e+00 -1.278793225516696452e+01 1.179806484105455553e+02 3.571674462765866753e+00 1.704650646619135728e+02 -1.429186152362442783e+02 1.179415216088543588e+02 -9.234168948454373549e+01 9.679860278388470363e+01 -1.385667274059728129e+02 2.985198603108544191e+01 2.501659697895838619e+01 1.842695587286334868e+00 3.672645615592641377e+01 4.642268692035340649e+01 -1.257908836002057029e+01 1.091843939165239519e+01 1.093510115688402635e+02 1.287645914748850373e+02 -8.769438739777471881e+01 -5.487401221607557034e+01 4.794061426622518240e+01 1.562837282583324106e+00 -1.386121635299808474e+02 -5.575589223704528052e+01 -3.590376029138933944e+01 4.953102869580973788e+01 -6.638740995163303182e+01 2.322363269243005490e+01 1.624121928176197684e+02 -8.049937084143479638e+01 8.183599317710654475e+01 8.520403465369069806e+01 1.137052607786380243e+01 1.250923393579766127e+02 6.374140831630926129e+01 1.703611114955334926e+02 -3.502238014683359779e+01 1.140555030713397571e+02 5.633173813852619816e+01 -1.631160021067965715e+01 2.071003261112614666e+02 -1.408601886610049974e+02 4.960709878805412387e+01 -1.904040396906078172e+02 -8.547143927099585881e+01 4.165373358794678182e+01 -7.333104030538929408e+01 -1.583045124706362117e+02 2.024905311534989210e+02 -8.715746272313315046e+01 -4.825726906336396382e+01 -4.703441003071935000e+01 1.237346960594486660e+02 1.979813855170812644e+02 6.582417705149967446e+01 1.486713906499726932e+02 2.230945847526445220e+02 -1.657585235888235253e+00 1.656370030450775062e+02 7.207727077488371492e+01 1.935853111017135575e+02 -1.278809523240518615e+02 -1.207577823467882894e+01 6.439859573864067599e+00 1.931504795168229123e+02 -9.243582885978371166e+01 -6.147472799737999338e+01 -5.384527371843871890e+01 -1.361990338242514724e+02 4.740360470611341803e+00 -1.026400578069707450e+02 1.566865524636813234e+02 2.397191777163401483e+01 1.221676325898802418e+01 7.352773211363575001e+01 -5.025333162373317286e+00 1.189108054193607416e+02 -1.615155130830815438e+02 4.616462924956125136e+01 -1.737420108359032156e+02 1.194038648140579539e+02 9.762819428590205462e+01 -6.845674707528513636e+01 4.754521586804044375e+01 2.421501220691762342e+02 -3.096415207371649814e+01 4.236419169431823661e+01 -3.322136661417103198e+01 5.891141170223613699e+01 6.537598547117515579e+01 -6.374478014876144627e+00 1.036469657990376732e+02 1.032308473038131638e+02 -1.971288418861510650e+02 -1.558119482405258793e+02 -1.218122952760553801e+02 -9.616721523308786601e+00 -1.523032808075814160e+02 1.174742776943427458e+02 1.122009970472998219e+02 5.994777386117642237e+01 1.134554839391702075e+01 1.603111156443304708e+02 8.535591581537957495e+01 6.860973799518929184e+01 -1.033309021738765239e+02 1.548449747580777114e+02 -3.629933863373080882e+00 1.111209684386462158e+02 8.959340401332772430e+00 3.734897713281845455e+01 -7.695189773255478372e+01 -9.223868483439723320e+01 7.274478761062313481e+01 -3.889661155731307218e+00 1.486264244094543585e+02 -1.278096436277402503e+01 -2.905547345799904146e+00 4.658580277558731098e+01 2.300604195960720233e+01 1.436495143791042040e+02 1.485293716954171472e+01 3.639772464178147260e+01 -1.571171981454409092e+02 6.687232489606911656e+01 1.357126361729080770e+02 -1.795564276985411922e+01 -2.314342785005660801e+02 8.565630622482599676e+01 1.380440670195445989e+02 2.057838629519099172e+01 1.914267914810887987e+02 -4.190417834730144619e+00 4.342694238229547921e+01 -4.409470835603216443e+01 -1.402513187901423635e+02 5.660455583516155542e+01 -4.797786235984001735e+01 -8.192324506899034020e+01 4.163467747719113277e+01 -1.866573959166145471e+02 7.244139922139159182e+01 1.659516275966442720e+02 -1.021848552433351500e+02 1.745518349313230715e+02 -9.855883209823996083e+01 -6.042229785596542335e+00 -1.060587453969057670e+01 7.725431724921141097e+01 -4.695878651792286718e+01 -1.086992757321780374e+02 -8.923678590812845357e+01 1.468985340924947423e+02 5.954827958710635727e+01 -1.326898408838828800e+02 4.476898876159315144e+00 4.374834123171935119e+01 8.313675466347503118e+01 -4.060677586410402284e+01 6.039179176759380141e+01 -6.941956506949634331e+01 -1.634130194709649970e+02 -3.485569183167093854e+01 1.418589481793771085e+02 -1.140527724252440578e+02 -6.463886038648410270e+00 -1.638986348766484582e+02 -4.794370772367858358e+00 -1.467171104297013073e+02 3.307617341400759869e+01 6.047364482194685564e+01 -5.060754550077820113e+01 -8.284288319001457523e+01 5.658890018868968141e+00 7.477464621929796351e+01 -6.811325626958569046e+01 1.353756242790756801e+02 1.060068553654511589e+02 -1.282430219965107483e+02 -1.059305128867996046e+02 1.356800295764008126e+02 7.165351193727644841e+01 1.508132959295348599e+02 1.006361723589802040e+02 8.149036813954528213e+01 -6.048385287169406865e+01 -8.207135209017016564e+01 -7.733792054304950625e+01 2.051615699562738939e+02 3.061758123630389861e+01 -2.496792306039958120e+01 -6.873142764919941783e+01 -5.015534916681361466e+01 -1.315116958249395793e+02 -1.654132058070047862e+01 -1.752145739243246965e+02 1.248744951612237770e+02 4.596318219234776592e+01 -1.150898369131664936e+02 -4.831552504922129287e+01 1.195829031813760963e+02 -9.684863684125222960e+01 1.026729314614877779e+02 -1.182736123843974383e+02 -1.174632908106877771e+01 -9.535549533100532926e+01 8.956389051502708298e+01 -4.241497817053470953e+01 1.032012382785652171e+01 2.927411660587124942e+01 -1.264393560442003945e+02 1.248077422189996177e+01 4.823948290926220039e+01 -2.237200968183396199e+01 -6.861597979014841542e+01 2.021049388990399507e+02 8.627359004213997196e+01 4.704243994916613758e+01 -3.135676542846934112e+01 8.007545912472299676e+01 1.672411774634849451e+02 -9.209466348531242375e+01 2.089947866802054648e+02 -1.328074933083547080e+02 -1.835285875301998999e+02 1.515237233743490037e+02 -2.334249352962340254e+02 -9.974062386575098804e-01 -2.443645046430480647e+02 -1.525795580271808660e+02 7.158930265803934390e+01 -1.453102172455675714e+02 5.825127898987887676e+01 1.096305494459377314e+02 -1.600140622286345717e+02 -3.007310630478567859e+01 7.522463767950411295e+01 1.336203761839024935e+02 -1.856467699961638118e+02 8.725194661672055929e+01 -9.772177219381445923e+01 -9.855487016743881057e+00 -1.385902506755332908e+01 -7.939884294673753118e+01 -9.010609854409078423e+01 1.809393680370976369e+02 -2.162059501790743710e+01 1.326596458497796283e+00 1.299312737380797955e+02 -8.648877633671813214e+01 -3.435430516519268451e+01 -1.074434390954173608e+02 -4.875792074405671883e+01 5.176992921067419928e+00 5.930599090435230636e+01 -1.349674171409042174e+02 2.370965732585974308e+02 -5.391394613136714042e+01 1.227417414906212372e+02 -4.886638250801938455e+01 1.199263456471569071e+02 1.392519469029710422e+02 4.807937883951559854e+01 1.223047454540544550e+02 -4.329910984958513609e+01 1.402220313555916675e+02 -1.567407372924419064e+02 -6.552456133788628279e+01 -6.310603980440832572e+01 2.558108400783237713e+01 -1.626719097773009821e+02 7.272173930804065378e+01 -3.090826442188077294e+01 -8.283819465254047998e+01 8.982740518822016895e+01 -1.514667226245187805e+02 -9.143238117135403797e+01 -5.272565493855827867e+01 3.316640826465715719e+01 1.301481743740669401e+02 1.171687657081242122e+02 6.930890980274821800e+01 -1.618466174069167041e+00 1.752851309808244196e+02 1.228287796115446326e+02 -9.466064055124979859e+01 -7.835589934178381100e+01 5.557556382580687426e+01 1.001556009548972881e+01 9.821398932565588780e+01 1.670560374081451869e+02 7.074700638144383902e+01 2.443797132717196519e+01 -1.024204300559479179e+02 1.721992304201226887e+02 -1.139322329742085032e+02 -1.656315637104485461e+02 6.585089816277600505e+01 1.116980162904801688e+02 1.966338262677718873e+01 -1.390966700858002696e+02 2.979205471995397048e+01 4.250280017040287817e+01 -3.109807629497649550e-01 1.311146342884688920e+02 9.771198002140846484e+01 1.712804594937433222e+01 7.844513187073386007e+01 -1.071621830262033228e+02 -6.309148099469013893e+00 9.843147551625794733e+01 2.971224297153578320e+01 -6.509843834568096099e+01 1.981976977688081831e+02 2.312857633504725356e+02 -1.256238440823970848e+02 -2.762005223056197778e+01 -2.103435974806556885e+02 -7.221947596382275947e+01 1.566975845522787836e+02 3.414322348937605778e+00 -7.100997218229278474e+01 1.638533822996322158e+02 -6.253566027890894929e+01 -1.606254010042293885e+02 1.365652039096086980e+02 -6.722992811845958272e+01 3.444853754200249085e+01 8.635798464642874706e+01 1.377508537344540507e+01 -2.381770527406305860e+02 4.227341051236815872e+01 -6.123559790057261587e+00 9.004828571008766858e+01 -2.355290075183298981e+01 1.011339795376062796e+02 1.695566229599270969e+01 -8.473611426866534657e+01 -2.046519264738395449e+01 -1.751390842407852233e+02 1.149418996721049666e+02 2.525580882915430792e+01 -4.161136780433733406e+01 -5.178915575588681008e+01 -6.283269276928061942e+01 4.107582492466199398e+01 1.606014593311658984e+02 1.326333033412195732e+02 4.305161089607891256e+01 -1.977508952779425897e+02 -3.877113169589745212e+01 4.378495206340677015e+01 1.172831677692380623e+02 8.718745864998503237e+01 1.544984449947854799e+01 -1.859424412756247875e+02 1.316544704628855129e+02 -2.236411130053146223e+02 -2.057006922819517740e+02 -1.850484466642250192e+00 -7.373902657727111887e+01 -2.406102584667756972e+01 8.708735665329217568e+01 5.589376220511054072e+01 -1.111578930713567530e+02 -1.513632165097505435e+02 1.458991840572257104e+01 1.236282931290034810e+02 2.070113175248147286e+01 -5.668113189882402025e+01 -5.158111680554029022e+01 -1.178221590279378539e+01 1.612910417355107882e+02 2.236665620595940140e+01 -1.766787214245972848e+02 1.305091331758033562e+02 -6.795517643766804383e+01 -4.249683805402794334e+00 1.566849626296350380e+02 -5.322831697255210059e+01 -1.992132699109944838e+01 -1.117706435185064322e+02 -6.116286977023174032e+00 -2.427896447182665085e+01 1.340250998047894200e+02 1.222031604429029699e+02 6.876418237844357861e+01 6.655155734204522844e+01 -1.904203002157463231e+01 1.375999392730404907e+02 -1.147168319223542738e+02 -4.340200199382146629e+00 -9.264773525207509408e+01 1.599056121208763557e+02 7.422534560830582961e+01 5.260838638260926814e+01 8.429738760716196211e+00 -5.420522043207927965e+01 3.498572683753450718e+01 6.875720985201911439e+00 3.650520380391155228e+00 2.454335310877325327e+01 6.081953922287040371e+01 1.732194211125533343e+02 -3.949507999459995489e+01 -5.289882330360700280e+01 6.794367318166321468e+01 1.176862167339609755e+02 -1.302950280300813191e+01 9.351035260728511389e+01 1.058178245816115464e+02 2.143891624988263231e+02 -8.804646968470511581e+01 -1.248180004997420696e+02 -2.912802992188094464e+01 6.320287380632391461e+01 -1.032061998117727164e+01 1.092604244297144618e+02 3.786631189163053790e+01 -1.654051888446903149e+02 4.582958696804120535e+01 -9.097793541089423286e+01 -1.375888011890990583e+02 1.367650745067005289e+02 -7.728976356029431827e+01 6.012166903823315778e+01 1.130644909982735129e+02 -1.006824350248598563e+02 2.385274310918340035e+01 -7.333276801803310718e+01 4.090971046402037103e+01 -1.164278775855497940e+02 6.255316704510677539e+01 5.553639559588281571e+01 3.997313711371218936e+00 8.541236844289799990e+01 -1.553604366102841254e+02 7.758239793003846785e+01 -2.969297565634345659e+01 -1.703594064022711336e+02 9.525971816712578288e+01 2.471874927345612249e+01 -1.978227805332043943e+02 2.372078587115575488e+02 -5.333920139682513106e-01 1.060575865185061986e+02 -1.216142918140706826e+02 -1.958328769436980679e+02 -9.409807031262059240e+01 2.490118894602418198e+00 1.441107804955931897e+02 4.053246582645694041e+00 -9.636667853749672474e+01 5.084468244375911894e+01 1.381961931827685248e+02 6.553849431982888518e+01 -5.218758177602677506e+01 -5.963382733575000572e+01 8.521858065021041284e+01 3.101955523380564017e+01 -1.971760833949864207e+02 -2.090859757544694730e+01 1.704595845190560510e+02 9.967372734468652595e+01 -5.779610167364802464e+01 -1.127426151586482490e+02 -4.304233412677972126e+01 -4.848372307164213169e+01 -1.154134995022872374e+02 -1.865259106914173515e+01 -4.604808385769558043e+01 -1.145672018079043823e+02 -1.329756301755654420e+02 -2.714465105647145293e+01 -1.267098529106226152e+02 -1.348884349017490649e+02 -3.865287705421242492e+01 -5.582443726235263881e+01 -1.119197326319242904e+02 1.945044131886525065e+02 1.100597374996486266e+01 -2.939994197703790846e+01 -1.777655419220405975e+01 8.219748369474424976e+01 1.633611686800789897e+01 2.617244946251607729e+01 -2.225871160446356356e+01 -4.828975841890489562e+01 2.186252218949563897e+01 -1.518815001609237356e+02 -1.663489854270191586e+02 -9.451024962642703997e+01 -1.994120536422745147e+02 -9.365311688672997548e+01 8.967232106249734613e+01 6.413538558067180873e+01 -2.723755628706026499e+01 6.349931183078270180e+01 -1.635728298344867824e+02 -4.263268726130620223e+01 -1.213349192167724766e+02 -6.975281434605497566e+01 2.203891315939563071e+02 -2.145038995032038827e+02 2.144857816080961754e+02 2.613071692010499092e+01 -5.902167365896491447e+01 9.640930889371814771e+01 1.296582323516661575e+02 -5.422281575978905721e+01 -2.128630834380718397e+02 -1.557964654666859019e+02 1.068544699666439612e+02 8.752545512846359088e+01 -1.416829241263771166e+02 3.340307302536309919e+01 -4.143681536921276631e+01 -8.087600664752442015e+01 -2.969962469760718093e+01 -5.729787776916784736e+01 -9.033256986000509414e+01 -3.555556148527332283e+01 4.661898898767296018e+00 -3.419474984899879644e+01 -4.234741757601807599e-01 -1.502039209175598344e+01 9.612685811573521732e+01 1.327785522805459664e+02 1.376433106689004049e+01 1.753804063169485872e+01 -6.592901340124520004e+01 -2.048117679277089280e+02 3.537699813317550479e+01 -9.586459897211724979e+01 2.698386798866610548e+01 -8.570662811045242080e+00 1.048391195083338667e+00 7.548149542135327295e+01 1.273489089724359786e+02 -7.361757336956127062e+01 3.970564078436490973e+01 -2.014781174381431015e+02 1.009659852054591411e+01 7.337679671806341730e+00 -1.280466320099862969e+02 -3.524872612323800780e+01 -4.631767735419666820e+01 4.989918935136652856e+00 -1.068495258087400117e+02 2.827343829096853867e+01 -1.020414585734557420e+02 5.866135988654640698e+01 7.088317258057418258e+01 3.852914095306044828e+01 -3.032233545986157708e+01 1.122582614421248621e+02 6.379439599022741447e+01 8.357092259307650295e+01 -6.997954610619338212e+01 2.122122534393480109e+01 1.336008742634944042e+02 -6.106687340054126878e+01 -7.218403323204841904e+00 3.341633935019967083e+01 -1.340901238124227461e+02 1.021632093668185064e+02 9.353698417801275866e+01 -1.055846715577160637e+02 -8.598804204008018814e+01 -5.795890198243368019e+01 -4.753427413502671328e+01 -1.673265046341543041e+02 -1.418919337808922307e+02 -1.382600219533529469e+02 1.102734063748120832e+02 6.236238174324635253e+01 1.664426549613297084e+02 7.504016224339944863e+00 -8.947758210210224661e+01 1.953007046731163143e+01 1.443139920199918258e+01 -6.622291459735508568e+01 7.722858426875855287e+01 1.231217037178793987e+02 1.043268823013516844e+01 1.495547360939303019e+02 2.347955599458458309e+01 1.156875680622565596e+02 1.574862842627603676e+01 -2.165869587249384267e+02 2.276175401597750749e+02 -5.100522547269356721e+01 -1.554334641467879692e+02 -7.001913757277135630e+01 -4.475016478771811279e+01 4.287631047856902455e+01 2.652789835813418762e+01 4.739973626912278348e+01 -7.681616348163865382e+01 1.267782096229947086e+02 -8.934332676267511886e+01 -7.258602309057674340e+00 1.475055431336870129e+02 1.134828234168030860e+02 5.999981341991927764e+01 -1.831185706720521580e+02 2.630233830406240614e+01 1.451823407953492335e+02 2.422760446158896386e+01 1.008237900906078011e+02 1.099247693613062040e+02 -2.182196629318418672e+02 7.938799132159246597e+01 -5.958865794136432470e+01 -2.319566846830897191e+02 9.121992939929531019e+01 2.532005944777758799e+01 -1.251462598572470029e+02 -5.997951651915175120e+01 1.419891785614888420e+02 1.506708355471382390e+02 -7.732295443714151872e+01 -1.302097974837054721e+02 -8.493239104423943786e+01 -1.686583723563709611e+02 1.986804004601755835e+01 3.847881567328187202e+01 -1.716541714760816006e+01 -1.253483630523764703e+01 -9.056530315863778924e+01 -8.937731036262975692e+01 -2.489419687672682358e+01 1.348965846695076891e+02 1.371346905040502406e+02 8.158838981378285382e+01 9.753712243976607965e+01 -7.891735631366483972e+01 -1.810576684354371366e+02 -1.327412117252091583e+01 -2.321735985248640688e+01 -7.105748472947944094e+01 1.504058275720667748e+00 7.313082580857728487e+01 -5.296797418798675494e+01 2.463791020554904065e+01 7.923005020456585612e+01 7.014065540309132984e+01 1.105881172623693800e+02 -1.492880347224318314e+02 3.967034876983495195e+01 8.336569858969225777e+01 9.482052642518524976e+01 5.911751512608309866e+01 -1.033073732538624796e+02 1.370299913486581715e+02 1.275334605803855510e+02 9.589216498407758138e+01 1.015935712798237205e+02 -8.428514493657937123e+01 -1.488692565213871610e+01 -1.292740431794875100e+01 7.711771201330047631e+01 6.500737487544013504e+01 5.598739960287467454e+01 9.765533172825576003e+01 1.165403714580190098e+02 1.239328850339065582e+02 -6.497023611804382881e+01 8.064175301942586316e+01 6.529529353664392488e+01 -1.177329131399502842e+02 1.316884632179533980e+02 -1.005122004563510529e+01 -2.793648616789325700e+01 1.994407137167000599e+02 8.854729707037064657e+01 1.242288048300895156e+02 -1.445091482170088852e+02 -1.580006547879027607e+02 -1.540121146252264737e+02 -1.223923336561229149e+02 -4.436837995257889844e+01 1.100626166699824893e+02 -1.690362206811730346e+02 3.262012355023232146e+01 1.447452436764554875e+02 -5.950966688643650571e+01 -9.163789746976155470e+01 -3.522112222369430867e+01 1.363660567793551763e+02 2.281443543578830315e+02 -6.688259608489008201e+01 1.989033833147620456e+01 -2.781929928498086113e+01 6.878012018134708683e+01 6.053524266087018901e+01 -2.142011713291148567e+02 -8.907677878325222309e+01 1.382353388648593011e+02 1.404962498705401970e+02 9.501791015084295111e+01 -5.005442676909800781e+01 -7.621854885111272893e+01 -4.566734410706943237e+01 -1.774895885217383125e+02 7.156919080211145001e+01 -2.582540491743235123e+01 1.673570003084309405e+02 -2.808596979855165898e+01 -3.164344768113555233e+02 1.457696438070749139e+02 5.063463967972604252e+01 -1.187166964227083241e+02 -2.227323625047729649e+01 3.554422935185941412e+01 -2.090144861626995123e+02 -1.150426826884206548e+02 -1.103080701352130291e+02 -5.682863721212634545e+01 6.324084999236525562e+01 -1.659357634089132603e+02 1.086889797837084757e+02 -5.469090318099955539e+01 2.924669136196156760e+00 -1.343574646116232998e+02 -1.043127157425109885e+02 1.771232353686990564e+02 8.728811583929167739e+01 -4.254537868175665949e+01 3.745987105726423039e+01 -2.827249207241513318e+01 4.353557055264907660e+01 -1.054104686194798717e+02 9.957577475900474440e+01 5.090803601314835447e+01 -1.198373067440661828e+02 1.176767114789772961e+02 -4.953846972241527880e+01 1.007134859659369397e+02 -4.981094201764975793e+01 8.911053146072066511e+01 -1.546692288827309767e+02 1.438657474685191175e+02 2.498063664428567066e+01 1.014773390925036551e+02 1.315086072656673934e+02 -1.478906379922004533e+02 -8.663014067849354660e+01 -1.065389543981319918e+02 6.746395024171880550e+01 -1.728443313532824277e+02 1.528004698942261825e+02 1.436731723254775659e+02 5.346182487880270884e+01 -8.565915795650506936e+01 5.756726443456288678e+01 -1.082637406072035446e+02 -1.106266334192600809e+01 3.531437096955747279e+01 -1.854417185011345452e+02 -8.236084523719540584e+01 -1.366222004143124558e+01 1.031837916026245239e+02 -5.068104489087453857e+01 1.097321576416460260e+02 -6.496729604767301680e+01 -2.128790541661132067e+02 -1.081518452613422880e+02 -3.442770015936370243e+01 -6.079602960106448251e+01 3.040722267509651289e+01 5.188514841747225859e+01 6.419519642675878046e+00 2.554519340171296093e+01 -1.185006738470526386e+02 5.438236512042580983e+01 3.296939438290520741e+01 -7.296230382127488667e+01 9.352324736333901711e+00 5.690700284593168590e+01 -9.645118647438881965e+01 -5.566962753780715900e+01 -2.439783606802188842e+01 9.868584951672360717e+01 -1.731870896522710979e+01 4.239419181569021866e+00 -2.306052606390735491e+02 -9.612374744967911511e+01 1.000513296912329366e+02 -9.027384391729226820e+01 3.170241483896383627e+01 3.142697126297045429e+01 3.838948829524672135e+01 6.685459902033592527e+01 -1.795282123115452180e+02 1.456491011825762314e+02 8.241143662146616578e+01 -7.596396930294684324e+00 -8.176273933310093867e+01 1.132615652405605573e+02 6.283160076865697619e+01 -2.034733613611339251e+02 -5.099216866166901951e+01 -8.265725356038885252e+01 -5.247588390508693124e+01 -6.269550489969915930e+01 -1.002644231074990557e+02 -6.110397715519682293e+01 1.937913785619729481e+02 -1.728663885088942038e+02 6.628427968087837030e+01 2.807748133859896100e+01 -7.608677925515608820e+01 1.050401978562335437e+01 -3.988985200637326756e+01 3.465627543026255530e+00 -9.729943792832602867e+01 -1.999653722232461348e+02 1.861822915575406512e+01 4.243472421576365150e+01 -1.295791839157790548e+01 -9.151221776086051918e+00 -4.027274229171333531e+01 -1.922905481234564604e+02 -3.103653012360578956e+01 -6.618239848497466937e+01 1.415227032123749851e+01 -1.580237801483776572e+01 9.166540656640987095e+01 -6.382043368068826084e+01 -1.050041705660803899e+02 -3.620795132635217328e+01 -9.138731849320608447e+00 4.610031061272727015e+01 -2.242919856498230402e+01 -7.464406626860525762e+01 -1.607122969797096701e+01 2.032845832341539705e+01 4.810658158165174569e+01 -1.154754682404603727e+02 -1.408137135616794922e+02 2.332887168714519817e+02 -2.210732913142215921e+02 -7.693998756427681940e+01 -4.695034813674515561e+01 1.416752222461105077e+02 6.410404284135401554e+01 2.318156807705831000e+02 2.479243919889090932e+02 -6.313726169738883698e+01 1.311694897053583873e+02 -5.665998061690709164e+01 -4.133932338963353459e+01 -1.019747501405993404e+02 -8.088952411612395110e+01 -7.049273865283757345e+01 -9.015107561739191055e+01 -2.469657367592847947e+02 -2.744373314377541533e+02 1.364725343373626458e+02 -2.687291394231150932e+01 5.396310794397498256e+01 1.325724791195950161e+02
